Temperature (C) Pressure (psia) Quality (l+v) Internal Energy (l+v, kJ/kg) Enthalpy (l+v, kJ/kg) Entropy (l+v, J/g*K) Density (l, kg/m3) Volume (l, m3/kg) Internal Energy (l, kJ/kg) Enthalpy (l, kJ/kg) Entropy (l, J/g*K) Cv (l, J/g*K) Cp (l, J/g*K) Sound Spd. (l, m/s) Joule-Thomson (l, F/psia) Viscosity (l, uPa*s) Therm. Cond. (l, W/m*K) Density (v, kg/m3) Volume (v, m3/kg) Internal Energy (v, kJ/kg) Enthalpy (v, kJ/kg) Entropy (v, J/g*K) Cv (v, J/g*K) Cp (v, J/g*K) Sound Spd. (v, m/s) Joule-Thomson (v, F/psia) Viscosity (v, uPa*s) Therm. Cond. (v, W/m*K)
-187.62 2.4953e-08 8.7055e-11 -196.64 -196.64 -1.3959 733.13 0.0013640 -196.64 -196.64 -1.3959 1.3553 1.9158 2136.4 -0.0077592 10960. 0.20792 1.0669e-08 9.3732e+07 350.13 366.26 5.1858 0.69067 0.87923 143.28 6.1051 2.3259 0.0017061
-186.62 3.7339e-08 1.2873e-10 -194.73 -194.73 -1.3736 732.08 0.0013660 -194.73 -194.73 -1.3736 1.3539 1.9166 2129.6 -0.0077546 10073. 0.20765 1.5780e-08 6.3371e+07 350.82 367.14 5.1200 0.69462 0.88317 144.03 5.9178 2.3534 0.0017533
-185.62 5.5322e-08 1.8850e-10 -192.81 -192.81 -1.3516 731.04 0.0013679 -192.81 -192.81 -1.3516 1.3525 1.9174 2122.9 -0.0077498 9276.1 0.20737 2.3112e-08 4.3267e+07 351.52 368.02 5.0561 0.69857 0.88713 144.77 5.7383 2.3808 0.0018007
-184.62 8.1182e-08 2.7343e-10 -190.89 -190.89 -1.3298 730.00 0.0013699 -190.89 -190.89 -1.3298 1.3513 1.9182 2116.1 -0.0077448 8557.8 0.20708 3.3533e-08 2.9821e+07 352.22 368.91 4.9939 0.70253 0.89108 145.51 5.5662 2.4083 0.0018485
-183.62 1.1803e-07 3.9301e-10 -188.97 -188.97 -1.3083 728.96 0.0013718 -188.97 -188.97 -1.3083 1.3501 1.9191 2109.3 -0.0077395 7909.8 0.20678 4.8211e-08 2.0742e+07 352.92 369.81 4.9333 0.70648 0.89504 146.24 5.4011 2.4357 0.0018965
-182.62 1.7009e-07 5.5994e-10 -187.05 -187.05 -1.2869 727.92 0.0013738 -187.05 -187.05 -1.2869 1.3490 1.9201 2102.5 -0.0077340 7324.3 0.20647 6.8704e-08 1.4555e+07 353.63 370.70 4.8744 0.71043 0.89899 146.97 5.2426 2.4632 0.0019448
-181.62 2.4299e-07 7.9100e-10 -185.13 -185.13 -1.2658 726.88 0.0013757 -185.13 -185.13 -1.2658 1.3480 1.9210 2095.7 -0.0077283 6794.5 0.20616 9.7079e-08 1.0301e+07 354.35 371.60 4.8170 0.71438 0.90294 147.69 5.0904 2.4906 0.0019934
-180.62 3.4425e-07 1.1083e-09 -183.21 -183.21 -1.2450 725.85 0.0013777 -183.21 -183.21 -1.2450 1.3470 1.9220 2088.9 -0.0077225 6314.4 0.20584 1.3605e-07 7.3504e+06 355.06 372.51 4.7612 0.71833 0.90688 148.41 4.9442 2.5181 0.0020423
-179.62 4.8378e-07 1.5405e-09 -181.29 -181.29 -1.2243 724.81 0.0013797 -181.29 -181.29 -1.2243 1.3461 1.9231 2082.0 -0.0077164 5878.8 0.20551 1.8915e-07 5.2868e+06 355.78 373.42 4.7068 0.72227 0.91082 149.13 4.8038 2.5456 0.0020915
-178.62 6.7459e-07 2.1248e-09 -179.37 -179.37 -1.2038 723.78 0.0013816 -179.37 -179.37 -1.2038 1.3453 1.9241 2075.2 -0.0077102 5482.9 0.20517 2.6096e-07 3.8320e+06 356.51 374.33 4.6538 0.72620 0.91475 149.84 4.6688 2.5731 0.0021410
-177.62 9.3358e-07 2.9091e-09 -177.44 -177.44 -1.1836 722.75 0.0013836 -177.44 -177.44 -1.1836 1.3445 1.9252 2068.4 -0.0077039 5122.6 0.20483 3.5737e-07 2.7982e+06 357.23 375.25 4.6022 0.73012 0.91867 150.54 4.5390 2.6005 0.0021907
-176.62 1.2826e-06 3.9542e-09 -175.52 -175.52 -1.1635 721.72 0.0013856 -175.52 -175.52 -1.1635 1.3437 1.9263 2061.5 -0.0076973 4794.1 0.20447 4.8588e-07 2.0581e+06 357.97 376.17 4.5519 0.73403 0.92258 151.25 4.4142 2.6280 0.0022408
-175.62 1.7496e-06 5.3375e-09 -173.59 -173.59 -1.1437 720.69 0.0013876 -173.59 -173.59 -1.1437 1.3430 1.9274 2054.7 -0.0076907 4494.3 0.20411 6.5601e-07 1.5244e+06 358.70 377.09 4.5029 0.73792 0.92648 151.95 4.2941 2.6555 0.0022912
-174.62 2.3705e-06 7.1562e-09 -171.66 -171.66 -1.1240 719.66 0.0013895 -171.66 -171.66 -1.1240 1.3423 1.9286 2047.9 -0.0076838 4220.2 0.20375 8.7976e-07 1.1367e+06 359.44 378.02 4.4551 0.74181 0.93036 152.64 4.1784 2.6830 0.0023418
-173.62 3.1903e-06 9.5321e-09 -169.73 -169.73 -1.1045 718.64 0.0013915 -169.73 -169.73 -1.1045 1.3417 1.9298 2041.0 -0.0076769 3969.3 0.20338 1.1721e-06 8.5314e+05 360.19 378.95 4.4085 0.74568 0.93423 153.33 4.0671 2.7105 0.0023928
-172.62 4.2661e-06 1.2617e-08 -167.80 -167.80 -1.0852 717.61 0.0013935 -167.80 -167.80 -1.0852 1.3411 1.9310 2034.2 -0.0076698 3739.3 0.20300 1.5518e-06 6.4441e+05 360.93 379.89 4.3631 0.74953 0.93809 154.02 3.9599 2.7379 0.0024440
-171.62 5.6692e-06 1.6597e-08 -165.87 -165.87 -1.0661 716.58 0.0013955 -165.87 -165.87 -1.0661 1.3405 1.9322 2027.3 -0.0076625 3528.0 0.20261 2.0419e-06 4.8974e+05 361.69 380.83 4.3188 0.75337 0.94193 154.71 3.8566 2.7654 0.0024955
-170.62 7.4884e-06 2.1704e-08 -163.94 -163.94 -1.0472 715.56 0.0013975 -163.94 -163.94 -1.0472 1.3400 1.9334 2020.5 -0.0076552 3333.8 0.20222 2.6708e-06 3.7442e+05 362.44 381.77 4.2755 0.75720 0.94575 155.39 3.7570 2.7929 0.0025473
-169.62 9.8334e-06 2.8218e-08 -162.00 -162.00 -1.0284 714.54 0.0013995 -162.00 -162.00 -1.0284 1.3395 1.9347 2013.6 -0.0076477 3154.9 0.20182 3.4733e-06 2.8791e+05 363.20 382.72 4.2334 0.76100 0.94956 156.07 3.6609 2.8204 0.0025994
-168.62 1.2839e-05 3.6483e-08 -160.07 -160.07 -1.0098 713.52 0.0014015 -160.07 -160.07 -1.0098 1.3390 1.9359 2006.8 -0.0076401 2989.9 0.20141 4.4917e-06 2.2263e+05 363.96 383.67 4.1922 0.76479 0.95335 156.74 3.5683 2.8479 0.0026518
-167.62 1.6672e-05 4.6912e-08 -158.13 -158.13 -0.99134 712.49 0.0014035 -158.13 -158.13 -0.99134 1.3386 1.9372 2000.0 -0.0076323 2837.5 0.20100 5.7771e-06 1.7310e+05 364.73 384.63 4.1521 0.76856 0.95712 157.41 3.4790 2.8754 0.0027045
-166.62 2.1533e-05 6.0005e-08 -156.19 -156.19 -0.97306 711.47 0.0014055 -156.19 -156.19 -0.97306 1.3382 1.9385 1993.1 -0.0076245 2696.5 0.20058 7.3914e-06 1.3529e+05 365.50 385.59 4.1129 0.77232 0.96087 158.08 3.3927 2.9029 0.0027575
-165.62 2.7666e-05 7.6361e-08 -154.25 -154.25 -0.95494 710.45 0.0014075 -154.25 -154.25 -0.95494 1.3378 1.9398 1986.3 -0.0076165 2566.0 0.20016 9.4084e-06 1.0629e+05 366.27 386.55 4.0746 0.77605 0.96460 158.75 3.3095 2.9304 0.0028108
-164.62 3.5367e-05 9.6692e-08 -152.31 -152.31 -0.93698 709.44 0.0014096 -152.31 -152.31 -0.93698 1.3375 1.9411 1979.4 -0.0076084 2444.9 0.19973 1.1916e-05 83918. 367.05 387.52 4.0372 0.77976 0.96832 159.41 3.2291 2.9579 0.0028643
-163.62 4.4989e-05 1.2185e-07 -150.37 -150.37 -0.91917 708.42 0.0014116 -150.37 -150.37 -0.91917 1.3371 1.9424 1972.6 -0.0076002 2332.3 0.19930 1.5020e-05 66577. 367.83 388.49 4.0008 0.78346 0.97201 160.07 3.1514 2.9854 0.0029182
-162.62 5.6956e-05 1.5282e-07 -148.43 -148.43 -0.90151 707.40 0.0014136 -148.43 -148.43 -0.90151 1.3368 1.9437 1965.8 -0.0075919 2227.7 0.19886 1.8844e-05 53068. 368.62 389.46 3.9651 0.78713 0.97569 160.72 3.0764 3.0129 0.0029723
-161.62 7.1773e-05 1.9081e-07 -146.48 -146.48 -0.88400 706.38 0.0014157 -146.48 -146.48 -0.88400 1.3365 1.9451 1959.0 -0.0075834 2130.2 0.19841 2.3533e-05 42494. 369.41 390.44 3.9304 0.79079 0.97935 161.38 3.0038 3.0404 0.0030268
-160.62 9.0036e-05 2.3717e-07 -144.54 -144.54 -0.86663 705.37 0.0014177 -144.54 -144.54 -0.86663 1.3363 1.9465 1952.1 -0.0075748 2039.2 0.19796 2.9258e-05 34178. 370.20 391.42 3.8964 0.79443 0.98298 162.03 2.9337 3.0679 0.0030815
-159.62 0.00011245 2.9354e-07 -142.59 -142.59 -0.84940 704.35 0.0014197 -142.59 -142.59 -0.84940 1.3360 1.9478 1945.3 -0.0075661 1954.2 0.19751 3.6221e-05 27609. 371.00 392.40 3.8632 0.79805 0.98660 162.68 2.8658 3.0955 0.0031365
-158.62 0.00013985 3.6177e-07 -140.64 -140.64 -0.83231 703.34 0.0014218 -140.64 -140.64 -0.83231 1.3358 1.9492 1938.5 -0.0075573 1874.8 0.19705 4.4652e-05 22395. 371.80 393.39 3.8307 0.80164 0.99020 163.32 2.8002 3.1230 0.0031918
-157.62 0.00017320 4.4405e-07 -138.69 -138.69 -0.81536 702.32 0.0014238 -138.69 -138.69 -0.81536 1.3356 1.9506 1931.7 -0.0075484 1800.3 0.19658 5.4822e-05 18241. 372.60 394.38 3.7990 0.80522 0.99378 163.96 2.7367 3.1505 0.0032474
-156.62 0.00021364 5.4289e-07 -136.74 -136.74 -0.79854 701.31 0.0014259 -136.74 -136.74 -0.79854 1.3354 1.9520 1924.9 -0.0075393 1730.5 0.19611 6.7040e-05 14916. 373.41 395.38 3.7680 0.80878 0.99734 164.60 2.6752 3.1780 0.0033033
-155.62 0.00026248 6.6116e-07 -134.79 -134.79 -0.78185 700.30 0.0014280 -134.79 -134.79 -0.78185 1.3352 1.9534 1918.1 -0.0075302 1664.9 0.19564 8.1666e-05 12245. 374.22 396.38 3.7377 0.81232 1.0009 165.24 2.6157 3.2055 0.0033595
-154.62 0.00032125 8.0217e-07 -132.83 -132.83 -0.76529 699.29 0.0014300 -132.83 -132.83 -0.76530 1.3350 1.9548 1911.3 -0.0075209 1603.3 0.19516 9.9109e-05 10090. 375.03 397.38 3.7081 0.81585 1.0044 165.87 2.5580 3.2330 0.0034160
-153.62 0.00039171 9.6969e-07 -130.88 -130.88 -0.74886 698.27 0.0014321 -130.88 -130.88 -0.74887 1.3349 1.9563 1904.5 -0.0075114 1545.3 0.19468 0.00011984 8344.6 375.85 398.39 3.6792 0.81935 1.0079 166.50 2.5022 3.2606 0.0034727
-152.62 0.00047590 1.1680e-06 -128.92 -128.92 -0.73256 697.26 0.0014342 -128.92 -128.92 -0.73256 1.3348 1.9577 1897.8 -0.0075019 1490.6 0.19419 0.00014439 6925.9 376.67 399.40 3.6509 0.82284 1.0114 167.13 2.4481 3.2881 0.0035298
-151.62 0.00057613 1.4020e-06 -126.96 -126.96 -0.71637 696.25 0.0014363 -126.96 -126.96 -0.71638 1.3346 1.9592 1891.0 -0.0074922 1438.9 0.19370 0.00017336 5768.4 377.49 400.41 3.6232 0.82631 1.0149 167.76 2.3957 3.3156 0.0035872
-150.62 0.00069507 1.6772e-06 -125.00 -125.00 -0.70031 695.24 0.0014384 -125.00 -125.00 -0.70032 1.3345 1.9606 1884.2 -0.0074824 1390.2 0.19320 0.00020744 4820.7 378.32 401.42 3.5962 0.82976 1.0183 168.38 2.3448 3.3431 0.0036448
-149.62 0.00083574 1.9998e-06 -123.04 -123.04 -0.68437 694.23 0.0014404 -123.04 -123.04 -0.68438 1.3345 1.9621 1877.4 -0.0074724 1344.0 0.19270 0.00024740 4042.0 379.15 402.44 3.5697 0.83319 1.0218 169.00 2.2956 3.3706 0.0037027
-148.62 0.0010016 2.3768e-06 -121.08 -121.08 -0.66854 693.22 0.0014425 -121.08 -121.08 -0.66855 1.3344 1.9636 1870.7 -0.0074623 1300.3 0.19220 0.00029412 3400.0 379.99 403.47 3.5438 0.83661 1.0252 169.62 2.2478 3.3982 0.0037610
-147.62 0.0011965 2.8160e-06 -119.11 -119.11 -0.65283 692.21 0.0014447 -119.11 -119.11 -0.65284 1.3343 1.9651 1863.9 -0.0074521 1258.9 0.19169 0.00034856 2869.0 380.83 404.49 3.5185 0.84001 1.0286 170.24 2.2014 3.4257 0.0038195
-146.62 0.0014249 3.3262e-06 -117.15 -117.15 -0.63722 691.20 0.0014468 -117.15 -117.15 -0.63724 1.3343 1.9666 1857.2 -0.0074417 1219.6 0.19117 0.00041181 2428.3 381.67 405.52 3.4938 0.84340 1.0320 170.85 2.1565 3.4532 0.0038783
-145.62 0.0016917 3.9171e-06 -115.18 -115.18 -0.62173 690.19 0.0014489 -115.18 -115.18 -0.62175 1.3343 1.9682 1850.4 -0.0074312 1182.3 0.19066 0.00048510 2061.4 382.51 406.56 3.4695 0.84677 1.0353 171.46 2.1128 3.4807 0.0039374
-144.62 0.0020026 4.5996e-06 -113.21 -113.21 -0.60635 689.18 0.0014510 -113.21 -113.21 -0.60637 1.3343 1.9697 1843.7 -0.0074206 1146.8 0.19014 0.00056976 1755.1 383.36 407.59 3.4458 0.85012 1.0387 172.07 2.0705 3.5082 0.0039967
-143.62 0.0023637 5.3856e-06 -111.24 -111.24 -0.59108 688.17 0.0014531 -111.24 -111.24 -0.59110 1.3343 1.9713 1836.9 -0.0074098 1113.0 0.18962 0.00066731 1498.6 384.21 408.63 3.4226 0.85346 1.0420 172.68 2.0294 3.5358 0.0040564
-142.62 0.0027820 6.2886e-06 -109.27 -109.27 -0.57591 687.16 0.0014553 -109.27 -109.27 -0.57593 1.3343 1.9728 1830.2 -0.0073988 1080.8 0.18909 0.00077939 1283.1 385.07 409.68 3.3999 0.85679 1.0454 173.28 1.9896 3.5633 0.0041164
-141.62 0.0032653 7.3230e-06 -107.29 -107.29 -0.56084 686.15 0.0014574 -107.30 -107.30 -0.56087 1.3343 1.9744 1823.5 -0.0073878 1050.1 0.18856 0.00090784 1101.5 385.93 410.72 3.3777 0.86011 1.0487 173.88 1.9508 3.5908 0.0041766
-140.62 0.0038222 8.5052e-06 -105.32 -105.32 -0.54587 685.14 0.0014596 -105.32 -105.32 -0.54591 1.3344 1.9760 1816.7 -0.0073765 1020.7 0.18803 0.0010547 948.16 386.79 411.77 3.3560 0.86341 1.0520 174.48 1.9133 3.6183 0.0042372
-139.62 0.0044623 9.8527e-06 -103.34 -103.34 -0.53101 684.13 0.0014617 -103.34 -103.34 -0.53105 1.3344 1.9776 1810.0 -0.0073651 992.74 0.18749 0.0012221 818.26 387.65 412.83 3.3347 0.86670 1.0553 175.08 1.8768 3.6459 0.0042980
-138.62 0.0051963 1.1385e-05 -101.36 -101.36 -0.51624 683.12 0.0014639 -101.37 -101.37 -0.51629 1.3345 1.9792 1803.3 -0.0073536 965.97 0.18695 0.0014125 707.94 388.52 413.88 3.3139 0.86998 1.0586 175.67 1.8413 3.6734 0.0043592
-137.62 0.0060358 1.3123e-05 -99.380 -99.379 -0.50157 682.11 0.0014660 -99.386 -99.386 -0.50162 1.3346 1.9808 1796.6 -0.0073419 940.35 0.18641 0.0016287 614.00 389.39 414.94 3.2935 0.87325 1.0619 176.26 1.8069 3.7009 0.0044206
-136.62 0.0069938 1.5091e-05 -97.397 -97.397 -0.48700 681.10 0.0014682 -97.404 -97.404 -0.48705 1.3347 1.9825 1789.9 -0.0073301 915.81 0.18586 0.0018733 533.80 390.26 416.00 3.2735 0.87650 1.0651 176.85 1.7734 3.7284 0.0044823
-135.62 0.0080843 1.7313e-05 -95.413 -95.412 -0.47251 680.09 0.0014704 -95.421 -95.421 -0.47258 1.3348 1.9841 1783.2 -0.0073180 892.30 0.18531 0.0021497 465.17 391.14 417.07 3.2540 0.87975 1.0684 177.44 1.7409 3.7559 0.0045443
-134.62 0.0093230 1.9816e-05 -93.427 -93.426 -0.45812 679.08 0.0014726 -93.436 -93.436 -0.45820 1.3350 1.9858 1776.5 -0.0073059 869.75 0.18476 0.0024613 406.30 392.02 418.14 3.2348 0.88299 1.0716 178.02 1.7093 3.7834 0.0046066
-133.62 0.010727 2.2631e-05 -91.439 -91.438 -0.44383 678.07 0.0014748 -91.450 -91.449 -0.44391 1.3351 1.9875 1769.8 -0.0072935 848.11 0.18421 0.0028116 355.67 392.91 419.21 3.2161 0.88622 1.0749 178.61 1.6786 3.8109 0.0046691
-132.62 0.012315 2.5789e-05 -89.449 -89.448 -0.42961 677.06 0.0014770 -89.461 -89.461 -0.42971 1.3353 1.9892 1763.1 -0.0072810 827.32 0.18365 0.0032049 312.03 393.79 420.29 3.1977 0.88944 1.0781 179.19 1.6488 3.8385 0.0047320
-131.62 0.014106 2.9325e-05 -87.457 -87.456 -0.41549 676.04 0.0014792 -87.471 -87.471 -0.41560 1.3354 1.9909 1756.4 -0.0072684 807.34 0.18309 0.0036453 274.33 394.68 421.36 3.1798 0.89266 1.0813 179.76 1.6197 3.8660 0.0047951
-130.62 0.016124 3.3276e-05 -85.463 -85.462 -0.40145 675.03 0.0014814 -85.479 -85.479 -0.40157 1.3356 1.9926 1749.7 -0.0072555 788.12 0.18253 0.0041375 241.69 395.58 422.44 3.1622 0.89586 1.0846 180.34 1.5915 3.8935 0.0048586
-129.62 0.018392 3.7682e-05 -83.468 -83.467 -0.38750 674.02 0.0014836 -83.486 -83.486 -0.38763 1.3358 1.9944 1743.0 -0.0072425 769.63 0.18196 0.0046867 213.37 396.47 423.53 3.1450 0.89906 1.0878 180.91 1.5641 3.9210 0.0049223
-128.62 0.020935 4.2586e-05 -81.470 -81.469 -0.37363 673.01 0.0014859 -81.491 -81.490 -0.37378 1.3360 1.9961 1736.3 -0.0072294 751.83 0.18140 0.0052981 188.75 397.37 424.62 3.1281 0.90226 1.0910 181.48 1.5374 3.9485 0.0049863
-127.62 0.023783 4.8035e-05 -79.471 -79.469 -0.35984 672.00 0.0014881 -79.494 -79.493 -0.36001 1.3363 1.9979 1729.6 -0.0072160 734.67 0.18083 0.0059776 167.29 398.27 425.71 3.1116 0.90545 1.0942 182.05 1.5114 3.9760 0.0050506
-126.62 0.026966 5.4077e-05 -77.469 -77.467 -0.34614 670.98 0.0014904 -77.495 -77.495 -0.34632 1.3365 1.9997 1722.9 -0.0072025 718.14 0.18025 0.0067313 148.56 399.18 426.80 3.0954 0.90863 1.0974 182.62 1.4861 4.0035 0.0051152
-125.62 0.030515 6.0764e-05 -75.465 -75.463 -0.33251 669.97 0.0014926 -75.494 -75.494 -0.33272 1.3368 2.0015 1716.2 -0.0071888 702.18 0.17968 0.0075660 132.17 400.09 427.89 3.0795 0.91181 1.1006 183.18 1.4615 4.0310 0.0051800
-124.62 0.034467 6.8155e-05 -73.460 -73.457 -0.31896 668.95 0.0014949 -73.492 -73.492 -0.31919 1.3371 2.0033 1709.5 -0.0071749 686.79 0.17910 0.0084885 117.81 401.00 428.99 3.0640 0.91499 1.1038 183.74 1.4375 4.0584 0.0052452
-123.62 0.038859 7.6306e-05 -71.452 -71.449 -0.30548 667.94 0.0014971 -71.488 -71.487 -0.30574 1.3374 2.0051 1702.8 -0.0071609 671.93 0.17852 0.0095065 105.19 401.91 430.10 3.0488 0.91816 1.1070 184.30 1.4141 4.0859 0.0053106
-122.62 0.043731 8.5284e-05 -69.441 -69.438 -0.29208 666.92 0.0014994 -69.482 -69.481 -0.29237 1.3377 2.0070 1696.2 -0.0071466 657.57 0.17794 0.010628 94.092 402.83 431.20 3.0339 0.92134 1.1102 184.86 1.3913 4.1134 0.0053764
-121.62 0.049128 9.5153e-05 -67.429 -67.426 -0.27876 665.91 0.0015017 -67.474 -67.473 -0.27907 1.3380 2.0089 1689.5 -0.0071322 643.70 0.17736 0.011861 84.309 403.75 432.31 3.0193 0.92451 1.1134 185.41 1.3691 4.1409 0.0054424
-120.62 0.055096 0.00010599 -65.414 -65.410 -0.26551 664.89 0.0015040 -65.464 -65.463 -0.26585 1.3384 2.0107 1682.8 -0.0071176 630.28 0.17678 0.013215 75.669 404.67 433.42 3.0050 0.92767 1.1166 185.96 1.3475 4.1683 0.0055087
-119.62 0.061684 0.00011786 -63.397 -63.393 -0.25232 663.87 0.0015063 -63.452 -63.452 -0.25271 1.3387 2.0126 1676.1 -0.0071028 617.30 0.17619 0.014700 68.027 405.60 434.53 2.9909 0.93084 1.1198 186.51 1.3264 4.1958 0.0055752
-118.62 0.068946 0.00013085 -61.377 -61.373 -0.23921 662.86 0.0015086 -61.439 -61.438 -0.23963 1.3391 2.0146 1669.4 -0.0070878 604.74 0.17560 0.016325 61.255 406.53 435.64 2.9772 0.93401 1.1231 187.06 1.3058 4.2233 0.0056421
-117.62 0.076937 0.00014505 -59.355 -59.350 -0.22617 661.84 0.0015109 -59.423 -59.422 -0.22663 1.3395 2.0165 1662.8 -0.0070726 592.58 0.17501 0.018101 55.245 407.46 436.76 2.9638 0.93718 1.1263 187.60 1.2857 4.2507 0.0057092
-116.62 0.085718 0.00016053 -57.331 -57.325 -0.21319 660.82 0.0015133 -57.406 -57.405 -0.21370 1.3400 2.0184 1656.1 -0.0070573 580.80 0.17442 0.020040 49.901 408.39 437.88 2.9506 0.94035 1.1295 188.14 1.2660 4.2782 0.0057767
-115.62 0.095353 0.00017740 -55.304 -55.298 -0.20028 659.80 0.0015156 -55.386 -55.385 -0.20084 1.3404 2.0204 1649.4 -0.0070417 569.38 0.17383 0.022152 45.142 409.33 439.01 2.9377 0.94352 1.1327 188.68 1.2468 4.3056 0.0058444
-114.62 0.10591 0.00019576 -53.274 -53.267 -0.18744 658.78 0.0015180 -53.365 -53.364 -0.18805 1.3409 2.0224 1642.7 -0.0070260 558.32 0.17323 0.024451 40.898 410.27 440.13 2.9250 0.94669 1.1360 189.22 1.2281 4.3330 0.0059123
-113.62 0.11746 0.00021570 -51.242 -51.234 -0.17466 657.76 0.0015203 -51.342 -51.340 -0.17533 1.3413 2.0244 1636.0 -0.0070100 547.59 0.17264 0.026949 37.107 411.21 441.26 2.9126 0.94987 1.1392 189.75 1.2097 4.3604 0.0059806
-112.62 0.13008 0.00023733 -49.207 -49.198 -0.16194 656.73 0.0015227 -49.316 -49.315 -0.16267 1.3418 2.0264 1629.3 -0.0069938 537.18 0.17204 0.029661 33.715 412.16 442.39 2.9005 0.95305 1.1424 190.28 1.1918 4.3879 0.0060491
-111.62 0.14384 0.00026077 -47.169 -47.159 -0.14929 655.71 0.0015251 -47.289 -47.287 -0.15008 1.3424 2.0285 1622.7 -0.0069774 527.08 0.17144 0.032600 30.675 413.10 443.53 2.8885 0.95623 1.1457 190.81 1.1742 4.4153 0.0061180
-110.62 0.15884 0.00028613 -45.128 -45.117 -0.13669 654.69 0.0015274 -45.259 -45.258 -0.13755 1.3429 2.0305 1616.0 -0.0069609 517.28 0.17084 0.035781 27.948 414.06 444.66 2.8769 0.95942 1.1490 191.34 1.1570 4.4427 0.0061871
-109.62 0.17516 0.00031354 -43.084 -43.073 -0.12415 653.66 0.0015298 -43.228 -43.226 -0.12509 1.3435 2.0326 1609.3 -0.0069441 507.76 0.17024 0.039220 25.497 415.01 445.80 2.8654 0.96261 1.1522 191.86 1.1402 4.4701 0.0062564
-108.62 0.19290 0.00034312 -41.037 -41.025 -0.11168 652.64 0.0015322 -41.194 -41.192 -0.11269 1.3441 2.0347 1602.6 -0.0069271 498.51 0.16964 0.042933 23.292 415.96 446.94 2.8542 0.96581 1.1555 192.38 1.1236 4.4974 0.0063261
-107.62 0.21215 0.00037501 -38.987 -38.973 -0.099253 651.61 0.0015347 -39.158 -39.156 -0.10036 1.3447 2.0369 1595.9 -0.0069098 489.52 0.16903 0.046937 21.305 416.92 448.09 2.8433 0.96901 1.1588 192.90 1.1075 4.5248 0.0063960
-106.62 0.23301 0.00040935 -36.934 -36.919 -0.086887 650.58 0.0015371 -37.120 -37.118 -0.088082 1.3453 2.0390 1589.2 -0.0068924 480.79 0.16843 0.051250 19.512 417.88 449.23 2.8325 0.97222 1.1621 193.41 1.0916 4.5522 0.0064662
-105.62 0.25561 0.00044629 -34.878 -34.861 -0.074575 649.55 0.0015395 -35.080 -35.078 -0.075868 1.3460 2.0412 1582.6 -0.0068747 472.30 0.16782 0.055891 17.892 418.85 450.38 2.8220 0.97544 1.1655 193.93 1.0760 4.5795 0.0065367
-104.62 0.28004 0.00048596 -32.818 -32.800 -0.062317 648.52 0.0015420 -33.038 -33.035 -0.063714 1.3467 2.0434 1575.9 -0.0068569 464.04 0.16721 0.060878 16.426 419.81 451.53 2.8116 0.97867 1.1688 194.44 1.0608 4.6069 0.0066074
-103.62 0.30643 0.00052854 -30.755 -30.735 -0.050111 647.49 0.0015444 -30.994 -30.991 -0.051619 1.3474 2.0456 1569.2 -0.0068387 456.00 0.16660 0.066231 15.099 420.78 452.68 2.8015 0.98191 1.1722 194.94 1.0458 4.6342 0.0066785
-102.62 0.33490 0.00057417 -28.688 -28.666 -0.037956 646.46 0.0015469 -28.947 -28.944 -0.039582 1.3481 2.0478 1562.5 -0.0068204 448.18 0.16600 0.071971 13.894 421.75 453.84 2.7916 0.98516 1.1755 195.44 1.0310 4.6615 0.0067498
-101.62 0.36558 0.00062304 -26.618 -26.594 -0.025851 645.43 0.0015494 -26.898 -26.894 -0.027602 1.3489 2.0501 1555.8 -0.0068018 440.57 0.16539 0.078120 12.801 422.73 454.99 2.7818 0.98841 1.1789 195.95 1.0166 4.6888 0.0068213
-100.62 0.39862 0.00067530 -24.544 -24.518 -0.013795 644.39 0.0015519 -24.847 -24.843 -0.015678 1.3497 2.0524 1549.1 -0.0067830 433.16 0.16478 0.084699 11.807 423.70 456.15 2.7723 0.99168 1.1823 196.44 1.0024 4.7161 0.0068932
-99.625 0.43414 0.00073115 -22.467 -22.438 -0.0017873 643.36 0.0015544 -22.794 -22.789 -0.0038103 1.3505 2.0547 1542.4 -0.0067639 425.95 0.16416 0.091731 10.901 424.68 457.31 2.7630 0.99496 1.1858 196.94 0.98838 4.7434 0.0069653
-98.625 0.47230 0.00079076 -20.385 -20.354 0.010174 642.32 0.0015569 -20.738 -20.733 0.0080027 1.3514 2.0570 1535.7 -0.0067447 418.92 0.16355 0.099240 10.077 425.66 458.48 2.7538 0.99825 1.1892 197.43 0.97464 4.7707 0.0070377
-97.625 0.51325 0.00085433 -18.300 -18.266 0.022090 641.28 0.0015594 -18.680 -18.674 0.019762 1.3522 2.0594 1529.0 -0.0067251 412.07 0.16294 0.10725 9.3239 426.65 459.64 2.7448 1.0016 1.1927 197.92 0.96112 4.7979 0.0071103
-96.625 0.55714 0.00092206 -16.210 -16.173 0.033961 640.24 0.0015619 -16.620 -16.614 0.031467 1.3531 2.0618 1522.3 -0.0067053 405.39 0.16233 0.11579 8.6365 427.63 460.81 2.7360 1.0049 1.1962 198.40 0.94783 4.8251 0.0071832
-95.625 0.60416 0.00099414 -14.116 -14.076 0.045789 639.20 0.0015645 -14.557 -14.550 0.043120 1.3540 2.0642 1515.7 -0.0066853 398.88 0.16171 0.12488 8.0078 428.62 461.98 2.7274 1.0082 1.1997 198.88 0.93475 4.8524 0.0072564
-94.625 0.65446 0.0010708 -12.018 -11.975 0.057574 638.16 0.0015670 -12.491 -12.484 0.054721 1.3550 2.0667 1509.0 -0.0066650 392.53 0.16110 0.13455 7.4323 429.61 463.15 2.7189 1.0116 1.2032 199.36 0.92188 4.8796 0.0073299
-93.625 0.70822 0.0011522 -9.9155 -9.8690 0.069318 637.12 0.0015696 -10.424 -10.416 0.066271 1.3560 2.0691 1502.3 -0.0066444 386.34 0.16048 0.14482 6.9050 430.60 464.32 2.7107 1.0149 1.2068 199.83 0.90921 4.9068 0.0074036
-92.625 0.76564 0.0012387 -7.8086 -7.7583 0.081022 636.07 0.0015722 -8.3535 -8.3452 0.077771 1.3570 2.0716 1495.6 -0.0066236 380.31 0.15987 0.15573 6.4212 431.60 465.49 2.7025 1.0183 1.2104 200.30 0.89673 4.9340 0.0074776
-91.625 0.82689 0.0013303 -5.6970 -5.6427 0.092686 635.02 0.0015747 -6.2808 -6.2719 0.089220 1.3580 2.0742 1488.9 -0.0066025 374.41 0.15925 0.16731 5.9769 432.59 466.67 2.6946 1.0217 1.2140 200.77 0.88445 4.9611 0.0075518
-90.625 0.89218 0.0014274 -3.5807 -3.5221 0.10431 633.98 0.0015773 -4.2056 -4.1959 0.10062 1.3591 2.0767 1482.2 -0.0065811 368.66 0.15864 0.17958 5.5685 433.59 467.84 2.6868 1.0251 1.2177 201.24 0.87236 4.9883 0.0076263
-89.625 0.96172 0.0015303 -1.4596 -1.3964 0.11590 632.93 0.0015800 -2.1279 -2.1174 0.11197 1.3602 2.0793 1475.5 -0.0065595 363.05 0.15802 0.19258 5.1928 434.59 469.02 2.6791 1.0285 1.2213 201.70 0.86045 5.0154 0.0077011
-88.625 1.0357 0.0016390 0.66651 0.73452 0.12746 631.88 0.0015826 -0.047516 -0.036215 0.12328 1.3613 2.0819 1468.8 -0.0065375 357.56 0.15740 0.20633 4.8466 435.59 470.20 2.6717 1.0320 1.2250 202.15 0.84873 5.0425 0.0077761
-87.625 1.1144 0.0017540 2.7977 2.8709 0.13897 630.83 0.0015852 2.0355 2.0476 0.13454 1.3625 2.0846 1462.1 -0.0065153 352.21 0.15679 0.22087 4.5276 436.60 471.39 2.6643 1.0354 1.2288 202.61 0.83718 5.0696 0.0078514
-86.625 1.1979 0.0018754 4.9340 5.0127 0.15046 629.77 0.0015879 4.1211 4.1342 0.14575 1.3637 2.0873 1455.4 -0.0064928 346.98 0.15617 0.23623 4.2331 437.61 472.57 2.6571 1.0389 1.2325 203.06 0.82580 5.0967 0.0079270
-85.625 1.2866 0.0020036 7.0757 7.1602 0.16191 628.72 0.0015905 6.2094 6.2235 0.15691 1.3649 2.0900 1448.8 -0.0064701 341.87 0.15555 0.25245 3.9612 438.61 473.75 2.6501 1.0424 1.2363 203.50 0.81460 5.1237 0.0080028
-84.625 1.3806 0.0021387 9.2228 9.3135 0.17333 627.66 0.0015932 8.3004 8.3155 0.16803 1.3661 2.0927 1442.1 -0.0064470 336.87 0.15494 0.26956 3.7097 439.63 474.94 2.6432 1.0460 1.2402 203.95 0.80356 5.1508 0.0080789
-83.625 1.4803 0.0022811 11.376 11.473 0.18472 626.60 0.0015959 10.394 10.410 0.17911 1.3674 2.0955 1435.4 -0.0064236 331.99 0.15432 0.28760 3.4771 440.64 476.13 2.6364 1.0495 1.2440 204.38 0.79269 5.1778 0.0081553
-82.625 1.5858 0.0024310 13.534 13.638 0.19608 625.54 0.0015986 12.491 12.508 0.19014 1.3687 2.0983 1428.7 -0.0063999 327.22 0.15370 0.30659 3.2616 441.65 477.31 2.6298 1.0531 1.2479 204.82 0.78199 5.2048 0.0082319
-81.625 1.6975 0.0025888 15.698 15.810 0.20740 624.48 0.0016013 14.590 14.609 0.20113 1.3700 2.1012 1422.0 -0.0063759 322.55 0.15309 0.32659 3.0619 442.67 478.50 2.6233 1.0567 1.2519 205.25 0.77144 5.2318 0.0083088
-80.625 1.8155 0.0027547 17.868 17.988 0.21871 623.42 0.0016041 16.692 16.712 0.21208 1.3714 2.1041 1415.4 -0.0063516 317.99 0.15247 0.34763 2.8766 443.69 479.70 2.6169 1.0603 1.2558 205.67 0.76106 5.2587 0.0083860
-79.625 1.9402 0.0029290 20.045 20.172 0.22998 622.36 0.0016068 18.797 18.819 0.22299 1.3728 2.1070 1408.7 -0.0063270 313.52 0.15186 0.36974 2.7046 444.71 480.89 2.6106 1.0639 1.2598 206.10 0.75083 5.2857 0.0084634
-78.625 2.0718 0.0031120 22.227 22.363 0.24123 621.29 0.0016096 20.905 20.928 0.23385 1.3742 2.1099 1402.0 -0.0063021 309.15 0.15124 0.39296 2.5448 445.73 482.08 2.6045 1.0676 1.2639 206.51 0.74076 5.3126 0.0085411
-77.625 2.2107 0.0033040 24.416 24.561 0.25245 620.22 0.0016123 23.016 23.040 0.24468 1.3757 2.1129 1395.3 -0.0062768 304.88 0.15062 0.41735 2.3961 446.75 483.27 2.5985 1.0712 1.2680 206.93 0.73084 5.3395 0.0086190
-76.625 2.3571 0.0035055 26.611 26.766 0.26365 619.15 0.0016151 25.130 25.156 0.25546 1.3772 2.1159 1388.7 -0.0062512 300.69 0.15001 0.44292 2.2577 447.78 484.47 2.5926 1.0749 1.2721 207.34 0.72107 5.3664 0.0086972
-75.625 2.5113 0.0037165 28.813 28.978 0.27483 618.08 0.0016179 27.247 27.275 0.26620 1.3787 2.1190 1382.0 -0.0062253 296.59 0.14939 0.46974 2.1288 448.81 485.67 2.5869 1.0787 1.2762 207.74 0.71146 5.3933 0.0087757
-74.625 2.6736 0.0039376 31.022 31.198 0.28598 617.01 0.0016207 29.366 29.396 0.27691 1.3802 2.1221 1375.4 -0.0061990 292.58 0.14878 0.49783 2.0087 449.83 486.86 2.5812 1.0824 1.2804 208.14 0.70200 5.4201 0.0088544
-73.625 2.8444 0.0041690 33.238 33.424 0.29712 615.93 0.0016236 31.489 31.521 0.28758 1.3818 2.1252 1368.7 -0.0061724 288.65 0.14816 0.52725 1.8966 450.86 488.06 2.5757 1.0862 1.2847 208.54 0.69268 5.4469 0.0089334
-72.625 3.0240 0.0044111 35.460 35.659 0.30823 614.85 0.0016264 33.615 33.649 0.29821 1.3834 2.1284 1362.0 -0.0061454 284.81 0.14755 0.55804 1.7920 451.90 489.26 2.5703 1.0900 1.2889 208.93 0.68351 5.4737 0.0090126
-71.625 3.2127 0.0046642 37.690 37.901 0.31932 613.78 0.0016293 35.745 35.781 0.30880 1.3851 2.1316 1355.4 -0.0061181 281.03 0.14694 0.59024 1.6942 452.93 490.46 2.5650 1.0938 1.2932 209.32 0.67448 5.5005 0.0090922
-70.625 3.4108 0.0049286 39.928 40.152 0.33040 612.69 0.0016321 37.877 37.915 0.31935 1.3867 2.1349 1348.7 -0.0060904 277.34 0.14632 0.62390 1.6028 453.96 491.66 2.5598 1.0976 1.2976 209.70 0.66560 5.5273 0.0091720
-69.625 3.6187 0.0052048 42.173 42.410 0.34145 611.61 0.0016350 40.013 40.053 0.32987 1.3884 2.1382 1342.1 -0.0060624 273.72 0.14571 0.65906 1.5173 455.00 492.86 2.5547 1.1015 1.3020 210.08 0.65687 5.5540 0.0092520
-68.625 3.8367 0.0054930 44.425 44.677 0.35249 610.53 0.0016379 42.152 42.195 0.34036 1.3902 2.1415 1335.5 -0.0060339 270.17 0.14510 0.69577 1.4372 456.04 494.06 2.5497 1.1054 1.3064 210.45 0.64827 5.5807 0.0093324
-67.625 4.0652 0.0057937 46.685 46.952 0.36352 609.44 0.0016409 44.294 44.340 0.35080 1.3919 2.1449 1328.8 -0.0060051 266.69 0.14449 0.73408 1.3622 457.08 495.26 2.5448 1.1093 1.3109 210.82 0.63981 5.6074 0.0094130
-66.625 4.3046 0.0061072 48.953 49.236 0.37453 608.35 0.0016438 46.439 46.488 0.36122 1.3937 2.1483 1322.2 -0.0059760 263.28 0.14388 0.77404 1.2919 458.12 496.46 2.5400 1.1133 1.3154 211.18 0.63150 5.6341 0.0094939
-65.625 4.5551 0.0064339 51.230 51.529 0.38552 607.26 0.0016467 48.588 48.640 0.37160 1.3955 2.1518 1315.6 -0.0059464 259.93 0.14327 0.81570 1.2259 459.16 497.67 2.5353 1.1172 1.3200 211.54 0.62332 5.6608 0.0095750
-64.625 4.8173 0.0067742 53.514 53.831 0.39650 606.16 0.0016497 50.740 50.795 0.38195 1.3974 2.1553 1308.9 -0.0059164 256.65 0.14266 0.85910 1.1640 460.21 498.87 2.5307 1.1212 1.3246 211.89 0.61527 5.6874 0.0096564
-63.625 5.0915 0.0071284 55.807 56.141 0.40747 605.07 0.0016527 52.896 52.954 0.39226 1.3993 2.1588 1302.3 -0.0058861 253.42 0.14205 0.90429 1.1058 461.25 500.07 2.5262 1.1252 1.3293 212.24 0.60736 5.7140 0.0097382
-62.625 5.3781 0.0074970 58.109 58.462 0.41843 603.97 0.0016557 55.055 55.117 0.40254 1.4012 2.1624 1295.7 -0.0058553 250.26 0.14144 0.95134 1.0511 462.30 501.28 2.5218 1.1293 1.3340 212.58 0.59958 5.7406 0.0098201
-61.625 5.6774 0.0078804 60.419 60.791 0.42938 602.87 0.0016587 57.218 57.283 0.41279 1.4031 2.1660 1289.1 -0.0058241 247.16 0.14084 1.0003 0.99972 463.35 502.48 2.5175 1.1333 1.3387 212.92 0.59194 5.7672 0.0099024
-60.625 5.9899 0.0082789 62.738 63.131 0.44031 601.77 0.0016618 59.385 59.453 0.42301 1.4051 2.1697 1282.5 -0.0057925 244.12 0.14023 1.0512 0.95131 464.40 503.68 2.5133 1.1374 1.3435 213.26 0.58442 5.7938 0.0099850
-59.625 6.3160 0.0086930 65.066 65.480 0.45124 600.66 0.0016648 61.554 61.627 0.43320 1.4071 2.1734 1275.9 -0.0057605 241.13 0.13962 1.1041 0.90573 465.45 504.89 2.5091 1.1415 1.3483 213.58 0.57704 5.8203 0.010068
-58.625 6.6561 0.0091230 67.403 67.840 0.46216 599.55 0.0016679 63.728 63.805 0.44335 1.4091 2.1772 1269.3 -0.0057280 238.19 0.13902 1.1591 0.86277 466.50 506.09 2.5051 1.1457 1.3532 213.90 0.56978 5.8468 0.010151
-57.625 7.0107 0.0095695 69.749 70.209 0.47307 598.44 0.0016710 65.905 65.986 0.45348 1.4111 2.1810 1262.7 -0.0056951 235.31 0.13842 1.2161 0.82228 467.55 507.30 2.5011 1.1498 1.3581 214.22 0.56265 5.8733 0.010234
-56.625 7.3801 0.010033 72.105 72.589 0.48398 597.33 0.0016741 68.086 68.172 0.46358 1.4132 2.1848 1256.1 -0.0056617 232.48 0.13781 1.2754 0.78408 468.60 508.50 2.4972 1.1540 1.3631 214.53 0.55564 5.8998 0.010318
-55.625 7.7648 0.010513 74.470 74.980 0.49488 596.22 0.0016772 70.271 70.361 0.47364 1.4153 2.1887 1249.5 -0.0056279 229.69 0.13721 1.3369 0.74802 469.66 509.71 2.4934 1.1582 1.3681 214.84 0.54875 5.9263 0.010402
-54.625 8.1652 0.011012 76.845 77.382 0.50577 595.10 0.0016804 72.460 72.554 0.48368 1.4174 2.1927 1242.9 -0.0055937 226.96 0.13661 1.4006 0.71396 470.72 510.91 2.4897 1.1624 1.3731 215.14 0.54199 5.9527 0.010486
-53.625 8.5819 0.011528 79.230 79.794 0.51666 593.98 0.0016836 74.652 74.752 0.49369 1.4196 2.1967 1236.3 -0.0055589 224.27 0.13601 1.4667 0.68178 471.77 512.11 2.4860 1.1667 1.3782 215.43 0.53535 5.9792 0.010571
-52.625 9.0151 0.012063 81.626 82.217 0.52755 592.86 0.0016867 76.849 76.954 0.50368 1.4218 2.2007 1229.8 -0.0055237 221.63 0.13541 1.5353 0.65136 472.83 513.32 2.4824 1.1710 1.3834 215.72 0.52882 6.0056 0.010656
-51.625 9.4655 0.012617 84.031 84.652 0.53843 591.73 0.0016900 79.049 79.159 0.51363 1.4240 2.2048 1223.2 -0.0054880 219.04 0.13482 1.6062 0.62258 473.89 514.52 2.4789 1.1752 1.3886 216.00 0.52241 6.0320 0.010741
-50.625 9.9335 0.013191 86.447 87.099 0.54931 590.60 0.0016932 81.253 81.369 0.52356 1.4262 2.2089 1216.6 -0.0054519 216.48 0.13422 1.6797 0.59534 474.95 515.73 2.4755 1.1796 1.3938 216.28 0.51612 6.0584 0.010827
-49.625 10.419 0.013784 88.873 89.557 0.56019 589.47 0.0016964 83.462 83.584 0.53347 1.4285 2.2131 1210.1 -0.0054152 213.98 0.13363 1.7558 0.56954 476.01 516.93 2.4722 1.1839 1.3991 216.55 0.50994 6.0848 0.010913
-48.625 10.924 0.014398 91.310 92.027 0.57107 588.34 0.0016997 85.674 85.802 0.54334 1.4308 2.2173 1203.5 -0.0053780 211.51 0.13303 1.8345 0.54510 477.07 518.13 2.4689 1.1883 1.4044 216.82 0.50387 6.1112 0.010999
-47.625 11.448 0.015033 93.757 94.509 0.58194 587.20 0.0017030 87.891 88.025 0.55319 1.4331 2.2216 1196.9 -0.0053403 209.08 0.13244 1.9159 0.52194 478.14 519.33 2.4657 1.1927 1.4098 217.08 0.49792 6.1375 0.011085
-46.625 11.991 0.015690 96.216 97.003 0.59282 586.06 0.0017063 90.111 90.252 0.56302 1.4354 2.2259 1190.4 -0.0053020 206.69 0.13185 2.0001 0.49997 479.20 520.53 2.4625 1.1971 1.4153 217.33 0.49207 6.1639 0.011172
-45.625 12.554 0.016368 98.686 99.510 0.60370 584.92 0.0017096 92.336 92.484 0.57282 1.4378 2.2303 1183.8 -0.0052633 204.34 0.13126 2.0872 0.47912 480.27 521.74 2.4594 1.2015 1.4207 217.58 0.48633 6.1902 0.011259
-44.625 13.137 0.017069 101.17 102.03 0.61458 583.77 0.0017130 94.565 94.720 0.58260 1.4402 2.2347 1177.3 -0.0052240 202.03 0.13067 2.1771 0.45933 481.33 522.94 2.4564 1.2060 1.4263 217.82 0.48069 6.2165 0.011347
-43.625 13.741 0.017792 103.66 104.56 0.62546 582.62 0.0017164 96.799 96.961 0.59235 1.4426 2.2392 1170.7 -0.0051841 199.75 0.13008 2.2700 0.44053 482.40 524.14 2.4535 1.2104 1.4319 218.05 0.47516 6.2429 0.011435
-42.625 14.367 0.018539 106.16 107.11 0.63635 581.47 0.0017198 99.036 99.207 0.60208 1.4450 2.2437 1164.2 -0.0051437 197.51 0.12949 2.3659 0.42267 483.46 525.33 2.4506 1.2149 1.4375 218.28 0.46973 6.2692 0.011523
-41.625 15.015 0.019310 108.68 109.67 0.64724 580.32 0.0017232 101.28 101.46 0.61179 1.4475 2.2483 1157.7 -0.0051027 195.30 0.12891 2.4649 0.40569 484.53 526.53 2.4478 1.2195 1.4432 218.50 0.46440 6.2955 0.011612
-40.625 15.686 0.020105 111.21 112.24 0.65813 579.16 0.0017266 103.52 103.71 0.62147 1.4500 2.2529 1151.1 -0.0050611 193.13 0.12832 2.5671 0.38954 485.60 527.73 2.4450 1.2240 1.4489 218.72 0.45917 6.3218 0.011701
-39.625 16.380 0.020926 113.75 114.82 0.66903 578.00 0.0017301 105.78 105.97 0.63113 1.4525 2.2576 1144.6 -0.0050189 190.99 0.12774 2.6725 0.37418 486.67 528.93 2.4423 1.2286 1.4547 218.93 0.45403 6.3481 0.011790
-38.625 17.097 0.021772 116.30 117.42 0.67994 576.83 0.0017336 108.03 108.24 0.64077 1.4550 2.2623 1138.0 -0.0049761 188.88 0.12716 2.7813 0.35955 487.74 530.12 2.4397 1.2332 1.4606 219.13 0.44900 6.3744 0.011880
-37.625 17.838 0.022644 118.86 120.03 0.69085 575.66 0.0017371 110.29 110.51 0.65039 1.4576 2.2671 1131.5 -0.0049327 186.81 0.12658 2.8934 0.34562 488.81 531.32 2.4371 1.2378 1.4665 219.33 0.44405 6.4007 0.011970
-36.625 18.604 0.023542 121.44 122.66 0.70176 574.49 0.0017407 112.56 112.78 0.65999 1.4602 2.2719 1125.0 -0.0048887 184.76 0.12600 3.0089 0.33235 489.88 532.51 2.4346 1.2424 1.4724 219.52 0.43920 6.4270 0.012060
-35.625 19.395 0.024468 124.03 125.30 0.71269 573.32 0.0017442 114.83 115.06 0.66956 1.4628 2.2768 1118.5 -0.0048440 182.75 0.12542 3.1280 0.31969 490.95 533.70 2.4321 1.2471 1.4784 219.70 0.43444 6.4533 0.012151
-34.625 20.212 0.025421 126.63 127.96 0.72362 572.14 0.0017478 117.10 117.34 0.67912 1.4654 2.2818 1111.9 -0.0047987 180.76 0.12485 3.2506 0.30763 492.02 534.89 2.4297 1.2517 1.4845 219.88 0.42977 6.4797 0.012243
-33.625 21.056 0.026403 129.25 130.63 0.73456 570.96 0.0017514 119.38 119.63 0.68865 1.4681 2.2868 1105.4 -0.0047527 178.80 0.12427 3.3770 0.29612 493.09 536.08 2.4273 1.2564 1.4906 220.05 0.42519 6.5060 0.012334
-32.625 21.926 0.027414 131.87 133.31 0.74551 569.77 0.0017551 121.66 121.93 0.69817 1.4708 2.2918 1098.9 -0.0047061 176.87 0.12370 3.5071 0.28514 494.17 537.27 2.4250 1.2611 1.4968 220.21 0.42070 6.5323 0.012426
-31.625 22.823 0.028454 134.51 136.01 0.75647 568.58 0.0017588 123.95 124.23 0.70767 1.4735 2.2970 1092.3 -0.0046587 174.97 0.12313 3.6410 0.27465 495.24 538.46 2.4227 1.2659 1.5031 220.36 0.41629 6.5587 0.012519
-30.625 23.749 0.029525 137.17 138.73 0.76744 567.39 0.0017625 126.24 126.53 0.71714 1.4762 2.3021 1085.8 -0.0046107 173.09 0.12256 3.7787 0.26464 496.31 539.64 2.4205 1.2706 1.5094 220.51 0.41196 6.5850 0.012612
-29.625 24.703 0.030626 139.84 141.46 0.77841 566.19 0.0017662 128.54 128.84 0.72660 1.4790 2.3074 1079.3 -0.0045619 171.24 0.12200 3.9205 0.25507 497.38 540.83 2.4184 1.2754 1.5157 220.65 0.40772 6.6114 0.012706
-28.625 25.687 0.031758 142.52 144.21 0.78940 564.99 0.0017699 130.84 131.16 0.73604 1.4818 2.3126 1072.8 -0.0045124 169.42 0.12143 4.0663 0.24592 498.46 542.01 2.4162 1.2802 1.5222 220.79 0.40356 6.6378 0.012800
-27.625 26.700 0.032923 145.21 146.97 0.80040 563.78 0.0017737 133.15 133.48 0.74547 1.4846 2.3180 1066.2 -0.0044621 167.62 0.12087 4.2163 0.23717 499.53 543.19 2.4142 1.2850 1.5286 220.91 0.39947 6.6642 0.012894
-26.625 27.743 0.034120 147.92 149.75 0.81142 562.57 0.0017775 135.47 135.81 0.75487 1.4874 2.3234 1059.7 -0.0044111 165.84 0.12031 4.3705 0.22881 500.60 544.37 2.4122 1.2899 1.5352 221.03 0.39547 6.6906 0.012989
-25.625 28.817 0.035350 150.65 152.54 0.82244 561.36 0.0017814 137.78 138.14 0.76426 1.4902 2.3289 1053.2 -0.0043593 164.09 0.11975 4.5290 0.22080 501.68 545.55 2.4102 1.2947 1.5418 221.14 0.39154 6.7171 0.013084
-24.625 29.923 0.036615 153.39 155.35 0.83348 560.14 0.0017853 140.11 140.48 0.77363 1.4931 2.3344 1046.7 -0.0043067 162.36 0.11919 4.6918 0.21314 502.75 546.72 2.4083 1.2996 1.5485 221.25 0.38768 6.7436 0.013180
-23.625 31.061 0.037913 156.14 158.18 0.84453 558.92 0.0017892 142.44 142.82 0.78298 1.4960 2.3400 1040.1 -0.0042533 160.65 0.11863 4.8592 0.20580 503.82 547.90 2.4064 1.3045 1.5552 221.35 0.38391 6.7701 0.013277
-22.625 32.232 0.039248 158.90 161.02 0.85560 557.69 0.0017931 144.77 145.17 0.79232 1.4990 2.3457 1033.6 -0.0041990 158.97 0.11807 5.0311 0.19877 504.90 549.07 2.4045 1.3095 1.5621 221.44 0.38020 6.7967 0.013374
-21.625 33.435 0.040618 161.69 163.88 0.86668 556.46 0.0017971 147.11 147.52 0.80164 1.5019 2.3514 1027.1 -0.0041439 157.30 0.11752 5.2076 0.19203 505.97 550.24 2.4027 1.3144 1.5690 221.52 0.37656 6.8232 0.013471
-20.625 34.673 0.042025 164.48 166.76 0.87777 555.23 0.0018011 149.45 149.88 0.81095 1.5049 2.3572 1020.6 -0.0040879 155.66 0.11697 5.3889 0.18557 507.04 551.40 2.4010 1.3194 1.5759 221.59 0.37300 6.8499 0.013569
-19.625 35.946 0.043469 167.29 169.65 0.88888 553.99 0.0018051 151.80 152.25 0.82024 1.5079 2.3630 1014.0 -0.0040311 154.04 0.11642 5.5750 0.17937 508.11 552.57 2.3992 1.3244 1.5829 221.66 0.36950 6.8765 0.013668
-18.625 37.253 0.044952 170.12 172.56 0.90001 552.74 0.0018092 154.16 154.62 0.82952 1.5109 2.3689 1007.5 -0.0039733 152.44 0.11587 5.7660 0.17343 509.19 553.73 2.3976 1.3294 1.5901 221.72 0.36608 6.9032 0.013767
-17.625 38.596 0.046473 172.96 175.49 0.91115 551.49 0.0018133 156.52 157.00 0.83878 1.5140 2.3749 1001.0 -0.0039145 150.86 0.11532 5.9621 0.16773 510.26 554.89 2.3959 1.3345 1.5972 221.77 0.36272 6.9300 0.013867
-16.625 39.976 0.048034 175.82 178.44 0.92231 550.24 0.0018174 158.89 159.39 0.84803 1.5171 2.3810 994.44 -0.0038549 149.29 0.11478 6.1632 0.16225 511.33 556.05 2.3943 1.3395 1.6045 221.81 0.35942 6.9568 0.013968
-15.625 41.392 0.049636 178.69 181.41 0.93348 548.98 0.0018216 161.26 161.78 0.85726 1.5202 2.3871 987.91 -0.0037942 147.75 0.11423 6.3696 0.15700 512.40 557.20 2.3927 1.3446 1.6119 221.85 0.35619 6.9836 0.014069
-14.625 42.846 0.051279 181.58 184.39 0.94467 547.71 0.0018258 163.64 164.18 0.86649 1.5233 2.3933 981.37 -0.0037325 146.22 0.11369 6.5812 0.15195 513.47 558.36 2.3912 1.3497 1.6193 221.87 0.35302 7.0105 0.014170
-13.625 44.338 0.052963 184.48 187.39 0.95588 546.44 0.0018300 166.02 166.58 0.87569 1.5264 2.3996 974.83 -0.0036698 144.72 0.11315 6.7983 0.14710 514.54 559.51 2.3897 1.3549 1.6268 221.89 0.34992 7.0375 0.014273
-12.625 45.870 0.054691 187.40 190.41 0.96711 545.17 0.0018343 168.41 168.99 0.88489 1.5296 2.4059 968.29 -0.0036061 143.23 0.11261 7.0208 0.14243 515.61 560.65 2.3883 1.3600 1.6344 221.90 0.34688 7.0646 0.014376
-11.625 47.440 0.056463 190.33 193.45 0.97836 543.89 0.0018386 170.81 171.41 0.89407 1.5328 2.4124 961.75 -0.0035413 141.76 0.11208 7.2490 0.13795 516.68 561.80 2.3868 1.3652 1.6421 221.91 0.34389 7.0917 0.014479
-10.625 49.051 0.058279 193.29 196.51 0.98962 542.60 0.0018430 173.21 173.83 0.90324 1.5360 2.4189 955.20 -0.0034753 140.30 0.11154 7.4829 0.13364 517.75 562.94 2.3854 1.3704 1.6498 221.90 0.34097 7.1188 0.014584
-9.6250 50.703 0.060141 196.25 199.58 1.0009 541.31 0.0018474 175.61 176.26 0.91240 1.5393 2.4255 948.65 -0.0034082 138.86 0.11101 7.7226 0.12949 518.81 564.08 2.3841 1.3757 1.6577 221.88 0.33810 7.1461 0.014689
-8.6250 52.396 0.062049 199.24 202.68 1.0122 540.02 0.0018518 178.03 178.70 0.92154 1.5426 2.4321 942.10 -0.0033400 137.44 0.11048 7.9683 0.12550 519.88 565.21 2.3827 1.3809 1.6657 221.86 0.33529 7.1734 0.014795
-7.6250 54.131 0.064004 202.24 205.79 1.0235 538.72 0.0018563 180.45 181.14 0.93068 1.5459 2.4389 935.55 -0.0032705 136.03 0.10995 8.2200 0.12165 520.94 566.35 2.3814 1.3862 1.6737 221.83 0.33254 7.2008 0.014902
-6.6250 55.909 0.066007 205.26 208.93 1.0349 537.41 0.0018608 182.87 183.59 0.93980 1.5492 2.4457 928.99 -0.0031998 134.64 0.10942 8.4779 0.11795 522.01 567.48 2.3801 1.3915 1.6819 221.79 0.32984 7.2284 0.015009
-5.6250 57.730 0.068060 208.29 212.08 1.0462 536.10 0.0018653 185.30 186.05 0.94892 1.5525 2.4526 922.43 -0.0031279 133.27 0.10889 8.7420 0.11439 523.07 568.60 2.3789 1.3969 1.6902 221.74 0.32720 7.2560 0.015117
-4.6250 59.595 0.070163 211.34 215.26 1.0576 534.78 0.0018699 187.74 188.51 0.95802 1.5559 2.4596 915.87 -0.0030546 131.91 0.10837 9.0126 0.11096 524.13 569.72 2.3777 1.4022 1.6985 221.68 0.32461 7.2837 0.015226
-3.6250 61.505 0.072318 214.41 218.45 1.0690 533.45 0.0018746 190.19 190.98 0.96711 1.5593 2.4667 909.30 -0.0029800 130.56 0.10785 9.2896 0.10765 525.19 570.84 2.3765 1.4076 1.7070 221.62 0.32207 7.3115 0.015336
-2.6250 63.461 0.074524 217.50 221.67 1.0805 532.12 0.0018793 192.64 193.46 0.97620 1.5627 2.4739 902.73 -0.0029041 129.23 0.10733 9.5733 0.10446 526.25 571.96 2.3753 1.4131 1.7156 221.54 0.31958 7.3394 0.015447
-1.6250 65.462 0.076784 220.60 224.90 1.0919 530.78 0.0018840 195.10 195.95 0.98527 1.5662 2.4811 896.16 -0.0028267 127.91 0.10681 9.8638 0.10138 527.31 573.07 2.3742 1.4185 1.7243 221.45 0.31715 7.3674 0.015559
-0.62500 67.510 0.079098 223.73 228.16 1.1034 529.44 0.0018888 197.56 198.44 0.99434 1.5696 2.4885 889.58 -0.0027478 126.61 0.10629 10.161 0.098414 528.37 574.18 2.3731 1.4240 1.7331 221.36 0.31476 7.3956 0.015671
0.37500 69.606 0.081468 226.86 231.44 1.1149 528.09 0.0018936 200.03 200.94 1.0034 1.5731 2.4960 883.00 -0.0026675 125.32 0.10578 10.466 0.095552 529.42 575.28 2.3720 1.4295 1.7421 221.26 0.31242 7.4239 0.015785
1.3750 71.749 0.083895 230.02 234.73 1.1264 526.73 0.0018985 202.51 203.45 1.0124 1.5767 2.5035 876.42 -0.0025856 124.04 0.10527 10.777 0.092790 530.48 576.38 2.3709 1.4350 1.7512 221.14 0.31013 7.4523 0.015899
2.3750 73.941 0.086379 233.20 238.05 1.1380 525.37 0.0019034 204.99 205.96 1.0215 1.5802 2.5112 869.83 -0.0025022 122.78 0.10476 11.096 0.090123 531.53 577.47 2.3699 1.4406 1.7604 221.02 0.30789 7.4808 0.016015
3.3750 76.183 0.088923 236.39 241.39 1.1495 523.99 0.0019084 207.48 208.48 1.0305 1.5838 2.5190 863.24 -0.0024171 121.53 0.10425 11.422 0.087549 532.58 578.56 2.3688 1.4462 1.7697 220.89 0.30569 7.5095 0.016131
4.3750 78.475 0.091527 239.60 244.75 1.1611 522.62 0.0019134 209.98 211.01 1.0395 1.5874 2.5268 856.64 -0.0023303 120.29 0.10374 11.756 0.085062 533.63 579.65 2.3678 1.4518 1.7792 220.75 0.30354 7.5384 0.016249
5.3750 80.817 0.094192 242.83 248.14 1.1727 521.23 0.0019185 212.48 213.55 1.0486 1.5910 2.5348 850.04 -0.0022417 119.06 0.10324 12.098 0.082660 534.67 580.73 2.3669 1.4575 1.7888 220.60 0.30144 7.5674 0.016368
6.3750 83.211 0.096921 246.08 251.54 1.1844 519.84 0.0019237 215.00 216.10 1.0576 1.5946 2.5429 843.43 -0.0021514 117.85 0.10273 12.447 0.080340 535.72 581.81 2.3659 1.4632 1.7986 220.44 0.29938 7.5966 0.016487
7.3750 85.657 0.099714 249.35 254.97 1.1960 518.44 0.0019289 217.51 218.65 1.0666 1.5983 2.5511 836.82 -0.0020593 116.65 0.10223 12.805 0.078096 536.76 582.88 2.3650 1.4689 1.8085 220.27 0.29736 7.6259 0.016608
8.3750 88.156 0.10257 252.63 258.42 1.2077 517.03 0.0019341 220.04 221.22 1.0756 1.6020 2.5595 830.20 -0.0019652 115.46 0.10173 13.170 0.075928 537.80 583.95 2.3640 1.4746 1.8186 220.08 0.29538 7.6555 0.016730
9.3750 90.708 0.10550 255.94 261.89 1.2195 515.62 0.0019394 222.57 223.79 1.0846 1.6057 2.5679 823.58 -0.0018691 114.28 0.10124 13.545 0.073830 538.84 585.01 2.3631 1.4804 1.8288 219.89 0.29345 7.6852 0.016853
10.375 93.315 0.10849 259.26 265.39 1.2312 514.19 0.0019448 225.11 226.37 1.0936 1.6095 2.5765 816.96 -0.0017710 113.11 0.10074 13.927 0.071802 539.87 586.07 2.3622 1.4863 1.8392 219.69 0.29156 7.7151 0.016978
11.375 95.977 0.11156 262.61 268.91 1.2430 512.76 0.0019502 227.66 228.95 1.1025 1.6132 2.5852 810.32 -0.0016708 111.95 0.10025 14.319 0.069840 540.90 587.12 2.3614 1.4921 1.8498 219.48 0.28971 7.7452 0.017103
12.375 98.694 0.11469 265.97 272.45 1.2548 511.32 0.0019557 230.22 231.55 1.1115 1.6170 2.5940 803.68 -0.0015685 110.80 0.099756 14.719 0.067941 541.93 588.17 2.3605 1.4980 1.8605 219.26 0.28790 7.7756 0.017230
13.375 101.47 0.11790 269.35 276.02 1.2666 509.87 0.0019613 232.78 234.15 1.1205 1.6208 2.6030 797.04 -0.0014639 109.67 0.099267 15.128 0.066103 542.96 589.21 2.3597 1.5040 1.8715 219.03 0.28612 7.8061 0.017359
14.375 104.30 0.12119 272.76 279.60 1.2785 508.42 0.0019669 235.35 236.77 1.1295 1.6247 2.6121 790.39 -0.0013569 108.54 0.098779 15.547 0.064323 543.99 590.24 2.3588 1.5099 1.8826 218.79 0.28439 7.8369 0.017488
15.375 107.19 0.12455 276.18 283.22 1.2903 506.95 0.0019726 237.93 239.39 1.1384 1.6286 2.6214 783.73 -0.0012476 107.43 0.098294 15.974 0.062600 545.01 591.27 2.3580 1.5159 1.8940 218.53 0.28270 7.8680 0.017619
16.375 110.13 0.12799 279.62 286.85 1.3023 505.48 0.0019783 240.52 242.02 1.1474 1.6324 2.6308 777.07 -0.0011357 106.32 0.097810 16.412 0.060931 546.03 592.29 2.3572 1.5220 1.9055 218.27 0.28104 7.8993 0.017752
17.375 113.14 0.13151 283.08 290.51 1.3142 504.00 0.0019841 243.11 244.66 1.1564 1.6364 2.6403 770.40 -0.0010213 105.22 0.097328 16.859 0.059314 547.04 593.31 2.3564 1.5281 1.9172 217.99 0.27942 7.9308 0.017886
18.375 116.21 0.13512 286.57 294.20 1.3262 502.50 0.0019900 245.72 247.31 1.1653 1.6403 2.6501 763.72 -0.00090422 104.14 0.096848 17.317 0.057747 548.05 594.32 2.3557 1.5342 1.9292 217.71 0.27783 7.9626 0.018021
19.375 119.33 0.13881 290.07 297.91 1.3382 501.00 0.0019960 248.33 249.97 1.1743 1.6443 2.6599 757.04 -0.00078435 103.06 0.096371 17.785 0.056228 549.06 595.33 2.3549 1.5404 1.9414 217.41 0.27628 7.9947 0.018159
20.375 122.52 0.14258 293.60 301.64 1.3502 499.49 0.0020020 250.95 252.64 1.1832 1.6483 2.6700 750.35 -0.00066161 101.99 0.095895 18.263 0.054756 550.07 596.32 2.3541 1.5466 1.9538 217.10 0.27477 8.0272 0.018297
21.375 125.77 0.14645 297.14 305.40 1.3622 497.97 0.0020082 253.57 255.32 1.1922 1.6523 2.6802 743.64 -0.00053589 100.93 0.095420 18.752 0.053328 551.07 597.31 2.3534 1.5528 1.9665 216.78 0.27329 8.0599 0.018438
22.375 129.08 0.15040 300.71 309.18 1.3743 496.43 0.0020144 256.21 258.00 1.2012 1.6563 2.6906 736.94 -0.00040708 99.877 0.094948 19.252 0.051943 552.07 598.30 2.3526 1.5591 1.9795 216.45 0.27184 8.0929 0.018580
23.375 132.46 0.15445 304.30 312.99 1.3865 494.89 0.0020206 258.86 260.70 1.2101 1.6604 2.7012 730.22 -0.00027505 98.834 0.094478 19.763 0.050600 553.06 599.27 2.3519 1.5655 1.9927 216.11 0.27043 8.1263 0.018724
24.375 135.90 0.15860 307.90 316.83 1.3986 493.34 0.0020270 261.51 263.41 1.2191 1.6645 2.7120 723.49 -0.00013968 97.800 0.094009 20.285 0.049297 554.05 600.24 2.3512 1.5718 2.0061 215.75 0.26906 8.1600 0.018870
25.375 139.41 0.16284 311.54 320.69 1.4108 491.77 0.0020335 264.17 266.13 1.2280 1.6686 2.7230 716.76 -8.3775e-07 96.773 0.093543 20.820 0.048032 555.03 601.20 2.3504 1.5783 2.0199 215.39 0.26771 8.1941 0.019017
26.375 142.98 0.16718 315.19 324.58 1.4230 490.20 0.0020400 266.84 268.85 1.2370 1.6728 2.7342 710.01 0.00014161 95.755 0.093078 21.366 0.046804 556.01 602.15 2.3497 1.5847 2.0340 215.01 0.26640 8.2286 0.019167
27.375 146.62 0.17163 318.86 328.49 1.4353 488.61 0.0020466 269.52 271.59 1.2459 1.6770 2.7456 703.26 0.00028782 94.745 0.092615 21.924 0.045612 556.99 603.10 2.3490 1.5913 2.0484 214.62 0.26512 8.2634 0.019319
28.375 150.33 0.17619 322.56 332.43 1.4475 487.01 0.0020533 272.21 274.34 1.2549 1.6812 2.7573 696.49 0.00043793 93.742 0.092154 22.495 0.044454 557.96 604.03 2.3483 1.5978 2.0631 214.21 0.26387 8.2987 0.019472
29.375 154.10 0.18085 326.28 336.40 1.4598 485.40 0.0020601 274.91 277.10 1.2638 1.6854 2.7691 689.72 0.00059212 92.747 0.091695 23.079 0.043329 558.92 604.96 2.3476 1.6044 2.0781 213.80 0.26265 8.3344 0.019628
30.375 157.94 0.18563 330.02 340.39 1.4722 483.78 0.0020671 277.62 279.87 1.2728 1.6897 2.7813 682.93 0.00075055 91.760 0.091238 23.676 0.042237 559.88 605.88 2.3469 1.6111 2.0935 213.37 0.26147 8.3705 0.019786
31.375 161.86 0.19053 333.78 344.41 1.4846 482.15 0.0020741 280.34 282.66 1.2818 1.6939 2.7936 676.13 0.00091340 90.779 0.090782 24.287 0.041175 560.84 606.79 2.3462 1.6178 2.1092 212.93 0.26031 8.4071 0.019947
32.375 165.84 0.19554 337.57 348.46 1.4970 480.50 0.0020812 283.07 285.45 1.2908 1.6983 2.8063 669.32 0.0010809 89.806 0.090328 24.911 0.040143 561.79 607.69 2.3455 1.6246 2.1254 212.48 0.25919 8.4442 0.020110
33.375 169.90 0.20068 341.38 352.54 1.5094 478.83 0.0020884 285.81 288.26 1.2997 1.7026 2.8192 662.50 0.0012532 88.840 0.089876 25.549 0.039140 562.73 608.58 2.3448 1.6314 2.1419 212.01 0.25809 8.4818 0.020275
34.375 174.02 0.20594 345.21 356.64 1.5219 477.16 0.0020957 288.56 291.07 1.3087 1.7070 2.8324 655.67 0.0014305 87.880 0.089426 26.202 0.038164 563.67 609.46 2.3440 1.6383 2.1589 211.53 0.25702 8.5199 0.020443
35.375 178.22 0.21134 349.07 360.77 1.5345 475.47 0.0021032 291.32 293.90 1.3177 1.7114 2.8459 648.82 0.0016131 86.927 0.088977 26.870 0.037216 564.60 610.33 2.3433 1.6452 2.1763 211.04 0.25599 8.5586 0.020613
36.375 182.50 0.21687 352.95 364.94 1.5470 473.77 0.0021107 294.09 296.74 1.3267 1.7158 2.8597 641.96 0.0018012 85.980 0.088531 27.553 0.036293 565.52 611.19 2.3426 1.6522 2.1942 210.53 0.25498 8.5978 0.020786
37.375 186.84 0.22254 356.86 369.13 1.5596 472.05 0.0021184 296.87 299.60 1.3357 1.7203 2.8739 635.08 0.0019950 85.040 0.088085 28.252 0.035395 566.44 612.04 2.3419 1.6592 2.2125 210.01 0.25400 8.6376 0.020962
38.375 191.27 0.22835 360.79 373.35 1.5722 470.31 0.0021262 299.66 302.46 1.3447 1.7248 2.8884 628.19 0.0021949 84.105 0.087642 28.967 0.034522 567.35 612.88 2.3411 1.6663 2.2314 209.47 0.25305 8.6780 0.021141
39.375 195.77 0.23431 364.74 377.60 1.5849 468.56 0.0021342 302.46 305.34 1.3537 1.7293 2.9033 621.29 0.0024011 83.177 0.087200 29.699 0.033671 568.26 613.70 2.3404 1.6734 2.2508 208.92 0.25213 8.7190 0.021323
40.375 200.34 0.24043 368.72 381.87 1.5976 466.80 0.0021423 305.27 308.23 1.3627 1.7339 2.9185 614.37 0.0026140 82.254 0.086760 30.447 0.032844 569.15 614.52 2.3396 1.6806 2.2708 208.36 0.25123 8.7608 0.021508
41.375 205.00 0.24671 372.72 386.18 1.6104 465.01 0.0021505 308.10 311.14 1.3718 1.7385 2.9342 607.43 0.0028338 81.338 0.086322 31.214 0.032037 570.04 615.32 2.3389 1.6879 2.2913 207.78 0.25037 8.8032 0.021696
42.375 209.73 0.25315 376.75 390.52 1.6232 463.21 0.0021588 310.94 314.06 1.3808 1.7432 2.9502 600.47 0.0030609 80.426 0.085885 31.998 0.031252 570.92 616.11 2.3381 1.6952 2.3125 207.19 0.24953 8.8463 0.021888
43.375 214.54 0.25976 380.80 394.89 1.6360 461.40 0.0021673 313.79 316.99 1.3899 1.7478 2.9667 593.50 0.0032957 79.520 0.085449 32.800 0.030488 571.79 616.88 2.3373 1.7027 2.3344 206.58 0.24871 8.8902 0.022084
44.375 219.43 0.26655 384.88 399.29 1.6489 459.56 0.0021760 316.65 319.94 1.3989 1.7525 2.9837 586.51 0.0035386 78.619 0.085015 33.622 0.029742 572.65 617.65 2.3365 1.7101 2.3569 205.96 0.24793 8.9349 0.022283
45.375 224.41 0.27352 388.99 403.73 1.6618 457.71 0.0021848 319.52 322.90 1.4080 1.7573 3.0012 579.50 0.0037900 77.723 0.084583 34.463 0.029016 573.50 618.40 2.3357 1.7177 2.3802 205.32 0.24717 8.9805 0.022485
46.375 229.46 0.28069 393.12 408.19 1.6747 455.83 0.0021938 322.41 325.88 1.4171 1.7621 3.0192 572.46 0.0040504 76.832 0.084152 35.325 0.028308 574.34 619.13 2.3349 1.7253 2.4042 204.67 0.24644 9.0269 0.022692
47.375 234.60 0.28805 397.28 412.69 1.6877 453.94 0.0022029 325.31 328.87 1.4262 1.7669 3.0377 565.41 0.0043202 75.946 0.083723 36.208 0.027618 575.17 619.85 2.3340 1.7329 2.4291 204.00 0.24573 9.0742 0.022903
48.375 239.83 0.29562 401.47 417.22 1.7008 452.03 0.0022123 328.22 331.88 1.4353 1.7718 3.0569 558.34 0.0046000 75.064 0.083295 37.112 0.026945 576.00 620.55 2.3332 1.7407 2.4548 203.31 0.24505 9.1224 0.023119
49.375 245.13 0.30340 405.68 421.78 1.7138 450.09 0.0022218 331.15 334.90 1.4445 1.7767 3.0766 551.24 0.0048904 74.186 0.082868 38.039 0.026289 576.81 621.24 2.3323 1.7485 2.4815 202.61 0.24440 9.1716 0.023339
50.375 250.53 0.31141 409.92 426.37 1.7270 448.13 0.0022315 334.09 337.94 1.4536 1.7817 3.0970 544.13 0.0051920 73.313 0.082442 38.989 0.025648 577.61 621.91 2.3314 1.7564 2.5092 201.89 0.24377 9.2219 0.023564
51.375 256.01 0.31965 414.19 431.00 1.7401 446.15 0.0022414 337.04 341.00 1.4628 1.7867 3.1181 536.98 0.0055054 72.443 0.082018 39.962 0.025024 578.39 622.56 2.3304 1.7644 2.5379 201.16 0.24317 9.2733 0.023794
52.375 261.57 0.32814 418.49 435.67 1.7534 444.15 0.0022515 340.01 344.07 1.4720 1.7918 3.1400 529.82 0.0058313 71.577 0.081595 40.961 0.024414 579.17 623.20 2.3295 1.7724 2.5677 200.41 0.24260 9.3258 0.024029
53.375 267.23 0.33688 422.82 440.36 1.7666 442.12 0.0022618 343.00 347.17 1.4812 1.7969 3.1627 522.62 0.0061705 70.715 0.081174 41.985 0.023818 579.93 623.81 2.3285 1.7805 2.5987 199.63 0.24205 9.3795 0.024270
54.375 272.97 0.34589 427.17 445.10 1.7800 440.06 0.0022724 346.00 350.28 1.4904 1.8021 3.1862 515.40 0.0065239 69.856 0.080753 43.036 0.023237 580.68 624.41 2.3274 1.7887 2.6310 198.85 0.24154 9.4344 0.024516
55.375 278.81 0.35519 431.56 449.87 1.7933 437.98 0.0022832 349.02 353.40 1.4997 1.8073 3.2106 508.15 0.0068923 69.001 0.080334 44.114 0.022669 581.41 624.99 2.3264 1.7969 2.6646 198.04 0.24105 9.4907 0.024769
56.375 284.74 0.36477 435.97 454.67 1.8067 435.87 0.0022943 352.05 356.55 1.5090 1.8126 3.2360 500.87 0.0072767 68.148 0.079915 45.221 0.022114 582.13 625.54 2.3253 1.8052 2.6998 197.22 0.24059 9.5484 0.025028
57.375 290.76 0.37466 440.42 459.51 1.8202 433.73 0.0023056 355.10 359.72 1.5183 1.8179 3.2624 493.56 0.0076782 67.299 0.079498 46.358 0.021571 582.83 626.07 2.3241 1.8136 2.7365 196.37 0.24016 9.6075 0.025294
58.375 296.87 0.38488 444.90 464.39 1.8337 431.56 0.0023172 358.17 362.91 1.5276 1.8233 3.2900 486.22 0.0080980 66.451 0.079082 47.525 0.021041 583.52 626.58 2.3230 1.8220 2.7749 195.51 0.23976 9.6682 0.025568
59.375 303.08 0.39545 449.41 469.31 1.8473 429.36 0.0023290 361.25 366.12 1.5370 1.8288 3.3188 478.84 0.0085373 65.606 0.078666 48.726 0.020523 584.18 627.07 2.3218 1.8305 2.8152 194.63 0.23939 9.7305 0.025849
60.375 309.38 0.40637 453.95 474.27 1.8610 427.13 0.0023412 364.36 369.35 1.5464 1.8343 3.3489 471.43 0.0089976 64.763 0.078251 49.960 0.020016 584.83 627.53 2.3205 1.8391 2.8576 193.73 0.23905 9.7945 0.026138
61.375 315.78 0.41768 458.53 479.26 1.8747 424.87 0.0023537 367.48 372.60 1.5558 1.8400 3.3805 463.99 0.0094803 63.922 0.077838 51.229 0.019520 585.46 627.96 2.3192 1.8479 2.9022 192.82 0.23873 9.8603 0.026436
62.375 322.28 0.42939 463.13 484.30 1.8884 422.56 0.0023665 370.62 375.88 1.5653 1.8457 3.4136 456.50 0.0099871 63.083 0.077425 52.535 0.019035 586.07 628.37 2.3178 1.8567 2.9492 191.88 0.23845 9.9281 0.026744
63.375 328.88 0.44153 467.78 489.37 1.9022 420.22 0.0023797 373.79 379.18 1.5748 1.8514 3.4483 448.97 0.010520 62.244 0.077012 53.879 0.018560 586.66 628.74 2.3164 1.8656 2.9989 190.92 0.23819 9.9979 0.027061
64.375 335.58 0.45413 472.45 494.49 1.9161 417.85 0.0023932 376.97 382.51 1.5844 1.8573 3.4850 441.40 0.011081 61.407 0.076600 55.265 0.018095 587.22 629.09 2.3149 1.8747 3.0517 189.95 0.23796 10.070 0.027389
65.375 342.38 0.46722 477.17 499.65 1.9301 415.42 0.0024072 380.18 385.86 1.5939 1.8633 3.5236 433.79 0.011672 60.570 0.076189 56.692 0.017639 587.76 629.40 2.3133 1.8839 3.1077 188.95 0.23775 10.144 0.027729
66.375 349.28 0.48082 481.92 504.85 1.9441 412.96 0.0024215 383.41 389.25 1.6036 1.8693 3.5645 426.12 0.012296 59.733 0.075779 58.165 0.017193 588.28 629.68 2.3117 1.8933 3.1674 187.93 0.23757 10.221 0.028080
67.375 356.28 0.49498 486.70 510.10 1.9581 410.45 0.0024363 386.67 392.65 1.6133 1.8755 3.6078 418.41 0.012956 58.897 0.075368 59.684 0.016755 588.76 629.92 2.3100 1.9030 3.2311 186.89 0.23740 10.300 0.028446
68.375 363.40 0.50974 491.53 515.39 1.9723 407.89 0.0024516 389.95 396.09 1.6230 1.8818 3.6537 410.64 0.013655 58.059 0.074959 61.253 0.016326 589.22 630.13 2.3082 1.9129 3.2994 185.83 0.23724 10.382 0.028825
69.375 370.61 0.52514 496.39 520.73 1.9865 405.28 0.0024674 393.26 399.57 1.6328 1.8882 3.7027 402.81 0.014396 57.221 0.074549 62.875 0.015905 589.65 630.29 2.3064 1.9231 3.3727 184.74 0.23710 10.467 0.029221
70.375 377.94 0.54122 501.30 526.11 2.0008 402.62 0.0024838 396.60 403.07 1.6426 1.8947 3.7550 394.92 0.015183 56.381 0.074141 64.552 0.015491 590.04 630.41 2.3044 1.9336 3.4518 183.63 0.23697 10.555 0.029633
71.375 385.37 0.55806 506.24 531.55 2.0152 399.89 0.0025007 399.96 406.61 1.6525 1.9014 3.8109 386.97 0.016021 55.540 0.073732 66.288 0.015086 590.40 630.49 2.3024 1.9444 3.5371 182.50 0.23684 10.647 0.030064
72.375 392.92 0.57570 511.23 537.03 2.0296 397.11 0.0025182 403.36 410.18 1.6625 1.9083 3.8711 378.95 0.016915 54.696 0.073324 68.087 0.014687 590.73 630.51 2.3002 1.9556 3.6297 181.34 0.23671 10.743 0.030515
73.375 400.57 0.59422 516.26 542.56 2.0442 394.26 0.0025364 406.79 413.80 1.6726 1.9153 3.9359 370.85 0.017871 53.848 0.072917 69.953 0.014295 591.01 630.49 2.2979 1.9673 3.7303 180.16 0.23658 10.842 0.030989
74.375 408.34 0.61370 521.33 548.15 2.0588 391.34 0.0025553 410.26 417.45 1.6827 1.9226 4.0060 362.67 0.018894 52.997 0.072510 71.890 0.013910 591.25 630.41 2.2955 1.9793 3.8401 178.95 0.23643 10.946 0.031488
75.375 416.23 0.63424 526.45 553.79 2.0735 388.34 0.0025751 413.76 421.15 1.6930 1.9301 4.0822 354.41 0.019993 52.142 0.072104 73.904 0.013531 591.44 630.27 2.2930 1.9919 3.9604 177.71 0.23627 11.054 0.032014
76.375 424.23 0.65595 531.62 559.48 2.0883 385.26 0.0025957 417.31 424.90 1.7033 1.9378 4.1654 346.06 0.021177 51.281 0.071699 76.001 0.013158 591.59 630.07 2.2903 2.0050 4.0927 176.44 0.23609 11.168 0.032570
77.375 432.35 0.67894 536.84 565.23 2.1032 382.09 0.0026172 420.89 428.70 1.7137 1.9459 4.2565 337.60 0.022455 50.414 0.071295 78.187 0.012790 591.68 629.80 2.2874 2.0186 4.2389 175.15 0.23588 11.287 0.033161
78.375 440.59 0.70336 542.12 571.05 2.1183 378.83 0.0026397 424.53 432.54 1.7243 1.9543 4.3570 329.05 0.023838 49.539 0.070893 80.469 0.012427 591.71 629.46 2.2844 2.0328 4.4012 173.82 0.23563 11.412 0.033789
79.375 448.95 0.72939 547.44 576.92 2.1334 375.46 0.0026634 428.21 436.45 1.7349 1.9631 4.4684 320.38 0.025341 48.657 0.070494 82.856 0.012069 591.68 629.04 2.2812 2.0475 4.5824 172.46 0.23535 11.544 0.034461
80.375 457.44 0.75723 552.82 582.86 2.1486 371.97 0.0026884 431.94 440.42 1.7457 1.9723 4.5928 311.58 0.026980 47.764 0.070099 85.359 0.011715 591.58 628.53 2.2778 2.0630 4.7859 171.07 0.23501 11.684 0.035181
81.375 466.05 0.78713 558.27 588.87 2.1640 368.36 0.0027147 435.74 444.46 1.7567 1.9820 4.7327 302.66 0.028773 46.860 0.069708 87.988 0.011365 591.40 627.92 2.2742 2.0791 5.0161 169.64 0.23461 11.832 0.035957
82.375 474.79 0.81939 563.77 594.95 2.1795 364.61 0.0027427 439.60 448.58 1.7678 1.9924 4.8914 293.60 0.030744 45.942 0.069323 90.757 0.011018 591.14 627.21 2.2703 2.0959 5.2786 168.17 0.23413 11.989 0.036797
83.375 483.66 0.85439 569.34 601.10 2.1952 360.70 0.0027724 443.53 452.78 1.7791 2.0034 5.0731 284.38 0.032920 45.010 0.068948 93.681 0.010674 590.79 626.38 2.2661 2.1136 5.5807 166.67 0.23357 12.157 0.037711
84.375 492.67 0.89257 574.99 607.34 2.2110 356.61 0.0028041 447.54 457.07 1.7907 2.0153 5.2834 275.00 0.035335 44.059 0.068586 96.781 0.010333 590.33 625.42 2.2616 2.1321 5.9321 165.13 0.23290 12.338 0.038713
85.375 501.81 0.93455 580.71 613.66 2.2269 352.33 0.0028382 451.65 461.47 1.8025 2.0281 5.5302 265.44 0.038030 43.088 0.068241 100.08 0.0099920 589.74 624.31 2.2567 2.1517 6.3459 163.54 0.23209 12.532 0.039819
86.375 511.09 0.98109 586.51 620.07 2.2431 347.82 0.0028751 455.85 465.98 1.8145 2.0420 5.8240 255.69 0.041058 42.092 0.067923 103.61 0.0096520 589.03 623.04 2.2514 2.1723 6.8405 161.91 0.23112 12.743 0.041051
87.375 517.74 undefined 590.07 624.07 2.2530 105.00 0.0095238 590.07 624.07 2.2530 2.1738 6.8335 161.97 0.22812 12.848 0.041346 105.00 0.0095238 590.07 624.07 2.2530 2.1738 6.8335 161.97 0.22812 12.848 0.041346
88.375 522.73 undefined 592.24 626.56 2.2590 105.00 0.0095238 592.24 626.56 2.2590 2.1636 6.5210 163.06 0.22408 12.881 0.041058 105.00 0.0095238 592.24 626.56 2.2590 2.1636 6.5210 163.06 0.22408 12.881 0.041058
89.375 527.67 undefined 594.40 629.05 2.2650 105.00 0.0095238 594.40 629.05 2.2650 2.1542 6.2491 164.15 0.22019 12.915 0.040815 105.00 0.0095238 594.40 629.05 2.2650 2.1542 6.2491 164.15 0.22019 12.915 0.040815
90.375 532.59 undefined 596.55 631.52 2.2709 105.00 0.0095238 596.55 631.52 2.2709 2.1456 6.0105 165.24 0.21643 12.948 0.040611 105.00 0.0095238 596.55 631.52 2.2709 2.1456 6.0105 165.24 0.21643 12.948 0.040611
91.375 537.48 undefined 598.69 633.98 2.2768 105.00 0.0095238 598.69 633.98 2.2768 2.1378 5.7996 166.33 0.21279 12.981 0.040441 105.00 0.0095238 598.69 633.98 2.2768 2.1378 5.7996 166.33 0.21279 12.981 0.040441
92.375 542.34 undefined 600.82 636.44 2.2826 105.00 0.0095238 600.82 636.44 2.2826 2.1308 5.6119 167.41 0.20925 13.015 0.040298 105.00 0.0095238 600.82 636.44 2.2826 2.1308 5.6119 167.41 0.20925 13.015 0.040298
93.375 547.18 undefined 602.95 638.88 2.2884 105.00 0.0095238 602.95 638.88 2.2884 2.1246 5.4439 168.48 0.20581 13.048 0.040180 105.00 0.0095238 602.95 638.88 2.2884 2.1246 5.4439 168.48 0.20581 13.048 0.040180
94.375 551.99 undefined 605.07 641.32 2.2942 105.00 0.0095238 605.07 641.32 2.2942 2.1192 5.2926 169.55 0.20247 13.082 0.040084 105.00 0.0095238 605.07 641.32 2.2942 2.1192 5.2926 169.55 0.20247 13.082 0.040084
95.375 556.78 undefined 607.19 643.75 2.3000 105.00 0.0095238 607.19 643.75 2.3000 2.1144 5.1557 170.61 0.19921 13.117 0.040005 105.00 0.0095238 607.19 643.75 2.3000 2.1144 5.1557 170.61 0.19921 13.117 0.040005
96.375 561.55 undefined 609.30 646.18 2.3057 105.00 0.0095238 609.30 646.18 2.3057 2.1103 5.0312 171.66 0.19604 13.152 0.039943 105.00 0.0095238 609.30 646.18 2.3057 2.1103 5.0312 171.66 0.19604 13.152 0.039943
97.375 566.30 undefined 611.41 648.60 2.3114 105.00 0.0095238 611.41 648.60 2.3114 2.1068 4.9175 172.70 0.19295 13.184 0.039897 105.00 0.0095238 611.41 648.60 2.3114 2.1068 4.9175 172.70 0.19295 13.184 0.039897
98.375 571.03 undefined 613.52 651.01 2.3171 105.00 0.0095238 613.52 651.01 2.3171 2.1038 4.8133 173.74 0.18994 13.215 0.039863 105.00 0.0095238 613.52 651.01 2.3171 2.1038 4.8133 173.74 0.18994 13.215 0.039863
99.375 575.75 undefined 615.62 653.43 2.3227 105.00 0.0095238 615.62 653.43 2.3227 2.1012 4.7173 174.77 0.18700 13.247 0.039842 105.00 0.0095238 615.62 653.43 2.3227 2.1012 4.7173 174.77 0.18700 13.247 0.039842
100.38 580.45 undefined 617.72 655.83 2.3284 105.00 0.0095238 617.72 655.83 2.3284 2.0991 4.6287 175.79 0.18413 13.280 0.039830 105.00 0.0095238 617.72 655.83 2.3284 2.0991 4.6287 175.79 0.18413 13.280 0.039830
101.38 585.13 undefined 619.82 658.24 2.3340 105.00 0.0095238 619.82 658.24 2.3340 2.0974 4.5466 176.81 0.18134 13.312 0.039827 105.00 0.0095238 619.82 658.24 2.3340 2.0974 4.5466 176.81 0.18134 13.312 0.039827
102.38 589.80 undefined 621.91 660.64 2.3396 105.00 0.0095238 621.91 660.64 2.3396 2.0960 4.4703 177.82 0.17861 13.345 0.039833 105.00 0.0095238 621.91 660.64 2.3396 2.0960 4.4703 177.82 0.17861 13.345 0.039833
103.38 594.46 undefined 624.01 663.04 2.3451 105.00 0.0095238 624.01 663.04 2.3451 2.0949 4.3993 178.82 0.17594 13.378 0.039847 105.00 0.0095238 624.01 663.04 2.3451 2.0949 4.3993 178.82 0.17594 13.378 0.039847
104.38 599.10 undefined 626.10 665.44 2.3507 105.00 0.0095238 626.10 665.44 2.3507 2.0941 4.3329 179.81 0.17334 13.410 0.039868 105.00 0.0095238 626.10 665.44 2.3507 2.0941 4.3329 179.81 0.17334 13.410 0.039868
105.38 603.73 undefined 628.20 667.84 2.3562 105.00 0.0095238 628.20 667.84 2.3562 2.0936 4.2708 180.80 0.17080 13.443 0.039896 105.00 0.0095238 628.20 667.84 2.3562 2.0936 4.2708 180.80 0.17080 13.443 0.039896
106.38 608.35 undefined 630.29 670.24 2.3617 105.00 0.0095238 630.29 670.24 2.3617 2.0932 4.2126 181.79 0.16832 13.476 0.039929 105.00 0.0095238 630.29 670.24 2.3617 2.0932 4.2126 181.79 0.16832 13.476 0.039929
107.38 612.95 undefined 632.38 672.63 2.3672 105.00 0.0095238 632.38 672.63 2.3672 2.0931 4.1579 182.76 0.16589 13.508 0.039968 105.00 0.0095238 632.38 672.63 2.3672 2.0931 4.1579 182.76 0.16589 13.508 0.039968
108.38 617.55 undefined 634.48 675.03 2.3727 105.00 0.0095238 634.48 675.03 2.3727 2.0932 4.1065 183.73 0.16352 13.541 0.040013 105.00 0.0095238 634.48 675.03 2.3727 2.0932 4.1065 183.73 0.16352 13.541 0.040013
109.38 622.13 undefined 636.57 677.42 2.3782 105.00 0.0095238 636.57 677.42 2.3782 2.0934 4.0579 184.70 0.16121 13.573 0.040062 105.00 0.0095238 636.57 677.42 2.3782 2.0934 4.0579 184.70 0.16121 13.573 0.040062
110.38 626.70 undefined 638.66 679.82 2.3837 105.00 0.0095238 638.66 679.82 2.3837 2.0938 4.0121 185.66 0.15894 13.606 0.040116 105.00 0.0095238 638.66 679.82 2.3837 2.0938 4.0121 185.66 0.15894 13.606 0.040116
111.38 631.27 undefined 640.76 682.21 2.3891 105.00 0.0095238 640.76 682.21 2.3891 2.0944 3.9688 186.61 0.15673 13.638 0.040174 105.00 0.0095238 640.76 682.21 2.3891 2.0944 3.9688 186.61 0.15673 13.638 0.040174
112.38 635.82 undefined 642.85 684.60 2.3946 105.00 0.0095238 642.85 684.60 2.3946 2.0951 3.9279 187.56 0.15456 13.671 0.040235 105.00 0.0095238 642.85 684.60 2.3946 2.0951 3.9279 187.56 0.15456 13.671 0.040235
113.38 640.36 undefined 644.95 687.00 2.4000 105.00 0.0095238 644.95 687.00 2.4000 2.0959 3.8891 188.51 0.15245 13.703 0.040301 105.00 0.0095238 644.95 687.00 2.4000 2.0959 3.8891 188.51 0.15245 13.703 0.040301
114.38 644.90 undefined 647.05 689.39 2.4054 105.00 0.0095238 647.05 689.39 2.4054 2.0968 3.8522 189.45 0.15037 13.735 0.040370 105.00 0.0095238 647.05 689.39 2.4054 2.0968 3.8522 189.45 0.15037 13.735 0.040370
115.38 649.42 undefined 649.14 691.79 2.4108 105.00 0.0095238 649.14 691.79 2.4108 2.0979 3.8173 190.38 0.14835 13.767 0.040443 105.00 0.0095238 649.14 691.79 2.4108 2.0979 3.8173 190.38 0.14835 13.767 0.040443
116.38 653.94 undefined 651.24 694.18 2.4162 105.00 0.0095238 651.24 694.18 2.4162 2.0990 3.7840 191.31 0.14636 13.800 0.040518 105.00 0.0095238 651.24 694.18 2.4162 2.0990 3.7840 191.31 0.14636 13.800 0.040518
117.38 658.45 undefined 653.34 696.58 2.4216 105.00 0.0095238 653.34 696.58 2.4216 2.1003 3.7524 192.23 0.14442 13.832 0.040597 105.00 0.0095238 653.34 696.58 2.4216 2.1003 3.7524 192.23 0.14442 13.832 0.040597
118.38 662.95 undefined 655.44 698.97 2.4270 105.00 0.0095238 655.44 698.97 2.4270 2.1017 3.7223 193.15 0.14252 13.864 0.040678 105.00 0.0095238 655.44 698.97 2.4270 2.1017 3.7223 193.15 0.14252 13.864 0.040678
119.38 667.44 undefined 657.54 701.37 2.4323 105.00 0.0095238 657.54 701.37 2.4323 2.1031 3.6936 194.07 0.14066 13.896 0.040762 105.00 0.0095238 657.54 701.37 2.4323 2.1031 3.6936 194.07 0.14066 13.896 0.040762
120.38 671.93 undefined 659.65 703.77 2.4377 105.00 0.0095238 659.65 703.77 2.4377 2.1047 3.6662 194.98 0.13883 13.928 0.040848 105.00 0.0095238 659.65 703.77 2.4377 2.1047 3.6662 194.98 0.13883 13.928 0.040848
121.38 676.41 undefined 661.75 706.17 2.4430 105.00 0.0095238 661.75 706.17 2.4430 2.1063 3.6401 195.89 0.13704 13.960 0.040937 105.00 0.0095238 661.75 706.17 2.4430 2.1063 3.6401 195.89 0.13704 13.960 0.040937
122.38 680.88 undefined 663.86 708.57 2.4484 105.00 0.0095238 663.86 708.57 2.4484 2.1080 3.6151 196.79 0.13529 13.992 0.041028 105.00 0.0095238 663.86 708.57 2.4484 2.1080 3.6151 196.79 0.13529 13.992 0.041028
123.38 685.34 undefined 665.97 710.97 2.4537 105.00 0.0095238 665.97 710.97 2.4537 2.1097 3.5913 197.69 0.13358 14.024 0.041122 105.00 0.0095238 665.97 710.97 2.4537 2.1097 3.5913 197.69 0.13358 14.024 0.041122
124.38 689.80 undefined 668.08 713.38 2.4590 105.00 0.0095238 668.08 713.38 2.4590 2.1116 3.5685 198.58 0.13189 14.056 0.041217 105.00 0.0095238 668.08 713.38 2.4590 2.1116 3.5685 198.58 0.13189 14.056 0.041217
125.38 694.25 undefined 670.19 715.78 2.4643 105.00 0.0095238 670.19 715.78 2.4643 2.1135 3.5467 199.47 0.13024 14.088 0.041315 105.00 0.0095238 670.19 715.78 2.4643 2.1135 3.5467 199.47 0.13024 14.088 0.041315
126.38 698.69 undefined 672.31 718.19 2.4696 105.00 0.0095238 672.31 718.19 2.4696 2.1155 3.5258 200.35 0.12862 14.120 0.041414 105.00 0.0095238 672.31 718.19 2.4696 2.1155 3.5258 200.35 0.12862 14.120 0.041414
127.38 703.13 undefined 674.42 720.59 2.4749 105.00 0.0095238 674.42 720.59 2.4749 2.1175 3.5058 201.23 0.12704 14.151 0.041515 105.00 0.0095238 674.42 720.59 2.4749 2.1175 3.5058 201.23 0.12704 14.151 0.041515
128.38 707.56 undefined 676.54 723.00 2.4802 105.00 0.0095238 676.54 723.00 2.4802 2.1196 3.4866 202.11 0.12548 14.183 0.041618 105.00 0.0095238 676.54 723.00 2.4802 2.1196 3.4866 202.11 0.12548 14.183 0.041618
129.38 711.99 undefined 678.66 725.41 2.4855 105.00 0.0095238 678.66 725.41 2.4855 2.1217 3.4682 202.98 0.12395 14.215 0.041722 105.00 0.0095238 678.66 725.41 2.4855 2.1217 3.4682 202.98 0.12395 14.215 0.041722
130.38 716.41 undefined 680.79 727.83 2.4907 105.00 0.0095238 680.79 727.83 2.4907 2.1239 3.4505 203.85 0.12245 14.246 0.041829 105.00 0.0095238 680.79 727.83 2.4907 2.1239 3.4505 203.85 0.12245 14.246 0.041829
131.38 720.82 undefined 682.91 730.24 2.4960 105.00 0.0095238 682.91 730.24 2.4960 2.1261 3.4336 204.71 0.12098 14.278 0.041936 105.00 0.0095238 682.91 730.24 2.4960 2.1261 3.4336 204.71 0.12098 14.278 0.041936
132.38 725.23 undefined 685.04 732.66 2.5013 105.00 0.0095238 685.04 732.66 2.5013 2.1284 3.4173 205.58 0.11954 14.310 0.042046 105.00 0.0095238 685.04 732.66 2.5013 2.1284 3.4173 205.58 0.11954 14.310 0.042046
133.38 729.63 undefined 687.17 735.08 2.5065 105.00 0.0095238 687.17 735.08 2.5065 2.1307 3.4017 206.43 0.11812 14.341 0.042156 105.00 0.0095238 687.17 735.08 2.5065 2.1307 3.4017 206.43 0.11812 14.341 0.042156
134.38 734.02 undefined 689.30 737.50 2.5117 105.00 0.0095238 689.30 737.50 2.5117 2.1331 3.3867 207.29 0.11673 14.373 0.042268 105.00 0.0095238 689.30 737.50 2.5117 2.1331 3.3867 207.29 0.11673 14.373 0.042268
135.38 738.42 undefined 691.43 739.92 2.5170 105.00 0.0095238 691.43 739.92 2.5170 2.1355 3.3722 208.14 0.11536 14.404 0.042382 105.00 0.0095238 691.43 739.92 2.5170 2.1355 3.3722 208.14 0.11536 14.404 0.042382
136.38 742.80 undefined 693.57 742.35 2.5222 105.00 0.0095238 693.57 742.35 2.5222 2.1380 3.3583 208.98 0.11402 14.436 0.042496 105.00 0.0095238 693.57 742.35 2.5222 2.1380 3.3583 208.98 0.11402 14.436 0.042496
137.38 747.18 undefined 695.71 744.77 2.5274 105.00 0.0095238 695.71 744.77 2.5274 2.1405 3.3450 209.82 0.11270 14.467 0.042612 105.00 0.0095238 695.71 744.77 2.5274 2.1405 3.3450 209.82 0.11270 14.467 0.042612
138.38 751.56 undefined 697.85 747.20 2.5326 105.00 0.0095238 697.85 747.20 2.5326 2.1430 3.3321 210.66 0.11141 14.498 0.042730 105.00 0.0095238 697.85 747.20 2.5326 2.1430 3.3321 210.66 0.11141 14.498 0.042730
139.38 755.93 undefined 700.00 749.63 2.5378 105.00 0.0095238 700.00 749.63 2.5378 2.1455 3.3198 211.50 0.11013 14.530 0.042848 105.00 0.0095238 700.00 749.63 2.5378 2.1455 3.3198 211.50 0.11013 14.530 0.042848
140.38 760.30 undefined 702.14 752.07 2.5430 105.00 0.0095238 702.14 752.07 2.5430 2.1481 3.3079 212.33 0.10888 14.561 0.042967 105.00 0.0095238 702.14 752.07 2.5430 2.1481 3.3079 212.33 0.10888 14.561 0.042967
141.38 764.66 undefined 704.29 754.50 2.5482 105.00 0.0095238 704.29 754.50 2.5482 2.1507 3.2964 213.16 0.10766 14.592 0.043088 105.00 0.0095238 704.29 754.50 2.5482 2.1507 3.2964 213.16 0.10766 14.592 0.043088
142.38 769.01 undefined 706.44 756.94 2.5534 105.00 0.0095238 706.44 756.94 2.5534 2.1534 3.2854 213.98 0.10645 14.623 0.043210 105.00 0.0095238 706.44 756.94 2.5534 2.1534 3.2854 213.98 0.10645 14.623 0.043210
143.38 773.37 undefined 708.60 759.38 2.5586 105.00 0.0095238 708.60 759.38 2.5586 2.1561 3.2747 214.81 0.10526 14.654 0.043332 105.00 0.0095238 708.60 759.38 2.5586 2.1561 3.2747 214.81 0.10526 14.654 0.043332
144.38 777.71 undefined 710.76 761.82 2.5637 105.00 0.0095238 710.76 761.82 2.5637 2.1588 3.2645 215.63 0.10409 14.685 0.043456 105.00 0.0095238 710.76 761.82 2.5637 2.1588 3.2645 215.63 0.10409 14.685 0.043456
145.38 782.06 undefined 712.92 764.27 2.5689 105.00 0.0095238 712.92 764.27 2.5689 2.1615 3.2546 216.44 0.10294 14.717 0.043581 105.00 0.0095238 712.92 764.27 2.5689 2.1615 3.2546 216.44 0.10294 14.717 0.043581
146.38 786.40 undefined 715.08 766.72 2.5741 105.00 0.0095238 715.08 766.72 2.5741 2.1642 3.2451 217.25 0.10182 14.748 0.043706 105.00 0.0095238 715.08 766.72 2.5741 2.1642 3.2451 217.25 0.10182 14.748 0.043706
147.38 790.73 undefined 717.24 769.17 2.5792 105.00 0.0095238 717.24 769.17 2.5792 2.1670 3.2359 218.06 0.10071 14.779 0.043833 105.00 0.0095238 717.24 769.17 2.5792 2.1670 3.2359 218.06 0.10071 14.779 0.043833
148.38 795.06 undefined 719.41 771.62 2.5844 105.00 0.0095238 719.41 771.62 2.5844 2.1698 3.2271 218.87 0.099614 14.809 0.043961 105.00 0.0095238 719.41 771.62 2.5844 2.1698 3.2271 218.87 0.099614 14.809 0.043961
149.38 799.39 undefined 721.58 774.08 2.5895 105.00 0.0095238 721.58 774.08 2.5895 2.1726 3.2185 219.67 0.098540 14.840 0.044089 105.00 0.0095238 721.58 774.08 2.5895 2.1726 3.2185 219.67 0.098540 14.840 0.044089
150.38 803.71 undefined 723.76 776.53 2.5947 105.00 0.0095238 723.76 776.53 2.5947 2.1755 3.2103 220.47 0.097483 14.871 0.044218 105.00 0.0095238 723.76 776.53 2.5947 2.1755 3.2103 220.47 0.097483 14.871 0.044218
151.38 808.03 undefined 725.94 778.99 2.5998 105.00 0.0095238 725.94 778.99 2.5998 2.1783 3.2024 221.27 0.096443 14.902 0.044348 105.00 0.0095238 725.94 778.99 2.5998 2.1783 3.2024 221.27 0.096443 14.902 0.044348
152.38 812.34 undefined 728.12 781.46 2.6049 105.00 0.0095238 728.12 781.46 2.6049 2.1812 3.1948 222.06 0.095420 14.933 0.044479 105.00 0.0095238 728.12 781.46 2.6049 2.1812 3.1948 222.06 0.095420 14.933 0.044479
153.38 816.65 undefined 730.30 783.92 2.6101 105.00 0.0095238 730.30 783.92 2.6101 2.1841 3.1874 222.85 0.094413 14.964 0.044611 105.00 0.0095238 730.30 783.92 2.6101 2.1841 3.1874 222.85 0.094413 14.964 0.044611
154.38 820.96 undefined 732.48 786.39 2.6152 105.00 0.0095238 732.48 786.39 2.6152 2.1870 3.1803 223.64 0.093422 14.994 0.044744 105.00 0.0095238 732.48 786.39 2.6152 2.1870 3.1803 223.64 0.093422 14.994 0.044744
155.38 825.26 undefined 734.67 788.86 2.6203 105.00 0.0095238 734.67 788.86 2.6203 2.1900 3.1734 224.42 0.092447 15.025 0.044877 105.00 0.0095238 734.67 788.86 2.6203 2.1900 3.1734 224.42 0.092447 15.025 0.044877
156.38 829.56 undefined 736.86 791.34 2.6254 105.00 0.0095238 736.86 791.34 2.6254 2.1929 3.1668 225.21 0.091487 15.056 0.045011 105.00 0.0095238 736.86 791.34 2.6254 2.1929 3.1668 225.21 0.091487 15.056 0.045011
157.38 833.86 undefined 739.06 793.81 2.6305 105.00 0.0095238 739.06 793.81 2.6305 2.1959 3.1604 225.99 0.090541 15.086 0.045146 105.00 0.0095238 739.06 793.81 2.6305 2.1959 3.1604 225.99 0.090541 15.086 0.045146
158.38 838.15 undefined 741.26 796.29 2.6356 105.00 0.0095238 741.26 796.29 2.6356 2.1989 3.1543 226.76 0.089611 15.117 0.045281 105.00 0.0095238 741.26 796.29 2.6356 2.1989 3.1543 226.76 0.089611 15.117 0.045281
159.38 842.44 undefined 743.46 798.77 2.6407 105.00 0.0095238 743.46 798.77 2.6407 2.2019 3.1484 227.54 0.088694 15.147 0.045417 105.00 0.0095238 743.46 798.77 2.6407 2.2019 3.1484 227.54 0.088694 15.147 0.045417
160.38 846.73 undefined 745.66 801.26 2.6458 105.00 0.0095238 745.66 801.26 2.6458 2.2049 3.1427 228.31 0.087792 15.178 0.045554 105.00 0.0095238 745.66 801.26 2.6458 2.2049 3.1427 228.31 0.087792 15.178 0.045554
161.38 851.01 undefined 747.87 803.75 2.6509 105.00 0.0095238 747.87 803.75 2.6509 2.2079 3.1372 229.07 0.086903 15.208 0.045692 105.00 0.0095238 747.87 803.75 2.6509 2.2079 3.1372 229.07 0.086903 15.208 0.045692
162.38 855.28 undefined 750.07 806.24 2.6559 105.00 0.0095238 750.07 806.24 2.6559 2.2109 3.1319 229.84 0.086027 15.239 0.045830 105.00 0.0095238 750.07 806.24 2.6559 2.2109 3.1319 229.84 0.086027 15.239 0.045830
163.38 859.56 undefined 752.29 808.73 2.6610 105.00 0.0095238 752.29 808.73 2.6610 2.2140 3.1268 230.60 0.085165 15.269 0.045969 105.00 0.0095238 752.29 808.73 2.6610 2.2140 3.1268 230.60 0.085165 15.269 0.045969
164.38 863.83 undefined 754.50 811.23 2.6661 105.00 0.0095238 754.50 811.23 2.6661 2.2171 3.1218 231.36 0.084315 15.300 0.046109 105.00 0.0095238 754.50 811.23 2.6661 2.2171 3.1218 231.36 0.084315 15.300 0.046109
165.38 868.10 undefined 756.72 813.72 2.6711 105.00 0.0095238 756.72 813.72 2.6711 2.2201 3.1171 232.12 0.083478 15.330 0.046249 105.00 0.0095238 756.72 813.72 2.6711 2.2201 3.1171 232.12 0.083478 15.330 0.046249
166.38 872.36 undefined 758.94 816.23 2.6762 105.00 0.0095238 758.94 816.23 2.6762 2.2232 3.1125 232.88 0.082654 15.360 0.046390 105.00 0.0095238 758.94 816.23 2.6762 2.2232 3.1125 232.88 0.082654 15.360 0.046390
167.38 876.63 undefined 761.17 818.73 2.6813 105.00 0.0095238 761.17 818.73 2.6813 2.2263 3.1081 233.63 0.081841 15.390 0.046531 105.00 0.0095238 761.17 818.73 2.6813 2.2263 3.1081 233.63 0.081841 15.390 0.046531
168.38 880.89 undefined 763.40 821.24 2.6863 105.00 0.0095238 763.40 821.24 2.6863 2.2294 3.1039 234.38 0.081040 15.421 0.046673 105.00 0.0095238 763.40 821.24 2.6863 2.2294 3.1039 234.38 0.081040 15.421 0.046673
169.38 885.14 undefined 765.63 823.75 2.6914 105.00 0.0095238 765.63 823.75 2.6914 2.2325 3.0998 235.13 0.080251 15.451 0.046816 105.00 0.0095238 765.63 823.75 2.6914 2.2325 3.0998 235.13 0.080251 15.451 0.046816
170.38 889.39 undefined 767.86 826.26 2.6964 105.00 0.0095238 767.86 826.26 2.6964 2.2357 3.0959 235.87 0.079473 15.481 0.046959 105.00 0.0095238 767.86 826.26 2.6964 2.2357 3.0959 235.87 0.079473 15.481 0.046959
171.38 893.64 undefined 770.10 828.78 2.7014 105.00 0.0095238 770.10 828.78 2.7014 2.2388 3.0921 236.61 0.078706 15.511 0.047103 105.00 0.0095238 770.10 828.78 2.7014 2.2388 3.0921 236.61 0.078706 15.511 0.047103
172.38 897.89 undefined 772.34 831.30 2.7065 105.00 0.0095238 772.34 831.30 2.7065 2.2420 3.0885 237.35 0.077950 15.541 0.047247 105.00 0.0095238 772.34 831.30 2.7065 2.2420 3.0885 237.35 0.077950 15.541 0.047247
173.38 902.13 undefined 774.58 833.82 2.7115 105.00 0.0095238 774.58 833.82 2.7115 2.2451 3.0850 238.09 0.077205 15.571 0.047392 105.00 0.0095238 774.58 833.82 2.7115 2.2451 3.0850 238.09 0.077205 15.571 0.047392
174.38 906.37 undefined 776.83 836.34 2.7165 105.00 0.0095238 776.83 836.34 2.7165 2.2483 3.0817 238.83 0.076470 15.601 0.047538 105.00 0.0095238 776.83 836.34 2.7165 2.2483 3.0817 238.83 0.076470 15.601 0.047538
175.38 910.61 undefined 779.08 838.87 2.7216 105.00 0.0095238 779.08 838.87 2.7216 2.2515 3.0785 239.56 0.075746 15.631 0.047684 105.00 0.0095238 779.08 838.87 2.7216 2.2515 3.0785 239.56 0.075746 15.631 0.047684
176.38 914.85 undefined 781.33 841.40 2.7266 105.00 0.0095238 781.33 841.40 2.7266 2.2547 3.0754 240.29 0.075032 15.661 0.047830 105.00 0.0095238 781.33 841.40 2.7266 2.2547 3.0754 240.29 0.075032 15.661 0.047830
177.38 919.08 undefined 783.59 843.94 2.7316 105.00 0.0095238 783.59 843.94 2.7316 2.2579 3.0725 241.02 0.074328 15.691 0.047977 105.00 0.0095238 783.59 843.94 2.7316 2.2579 3.0725 241.02 0.074328 15.691 0.047977
178.38 923.31 undefined 785.85 846.48 2.7366 105.00 0.0095238 785.85 846.48 2.7366 2.2611 3.0696 241.74 0.073633 15.721 0.048125 105.00 0.0095238 785.85 846.48 2.7366 2.2611 3.0696 241.74 0.073633 15.721 0.048125
179.38 927.54 undefined 788.11 849.02 2.7416 105.00 0.0095238 788.11 849.02 2.7416 2.2643 3.0669 242.47 0.072948 15.750 0.048273 105.00 0.0095238 788.11 849.02 2.7416 2.2643 3.0669 242.47 0.072948 15.750 0.048273
180.38 931.76 undefined 790.38 851.56 2.7466 105.00 0.0095238 790.38 851.56 2.7466 2.2675 3.0643 243.19 0.072272 15.780 0.048422 105.00 0.0095238 790.38 851.56 2.7466 2.2675 3.0643 243.19 0.072272 15.780 0.048422
181.38 935.98 undefined 792.64 854.11 2.7516 105.00 0.0095238 792.64 854.11 2.7516 2.2707 3.0618 243.91 0.071605 15.810 0.048571 105.00 0.0095238 792.64 854.11 2.7516 2.2707 3.0618 243.91 0.071605 15.810 0.048571
182.38 940.20 undefined 794.92 856.65 2.7566 105.00 0.0095238 794.92 856.65 2.7566 2.2739 3.0595 244.62 0.070948 15.840 0.048720 105.00 0.0095238 794.92 856.65 2.7566 2.2739 3.0595 244.62 0.070948 15.840 0.048720
183.38 944.42 undefined 797.19 859.21 2.7616 105.00 0.0095238 797.19 859.21 2.7616 2.2772 3.0572 245.34 0.070299 15.869 0.048870 105.00 0.0095238 797.19 859.21 2.7616 2.2772 3.0572 245.34 0.070299 15.869 0.048870
184.38 948.63 undefined 799.47 861.76 2.7666 105.00 0.0095238 799.47 861.76 2.7666 2.2804 3.0551 246.05 0.069659 15.899 0.049021 105.00 0.0095238 799.47 861.76 2.7666 2.2804 3.0551 246.05 0.069659 15.899 0.049021
185.38 952.84 undefined 801.75 864.32 2.7716 105.00 0.0095238 801.75 864.32 2.7716 2.2837 3.0530 246.76 0.069028 15.929 0.049172 105.00 0.0095238 801.75 864.32 2.7716 2.2837 3.0530 246.76 0.069028 15.929 0.049172
186.38 957.05 undefined 804.04 866.88 2.7765 105.00 0.0095238 804.04 866.88 2.7765 2.2869 3.0510 247.47 0.068405 15.958 0.049324 105.00 0.0095238 804.04 866.88 2.7765 2.2869 3.0510 247.47 0.068405 15.958 0.049324
187.38 961.26 undefined 806.33 869.45 2.7815 105.00 0.0095238 806.33 869.45 2.7815 2.2902 3.0492 248.18 0.067790 15.988 0.049475 105.00 0.0095238 806.33 869.45 2.7815 2.2902 3.0492 248.18 0.067790 15.988 0.049475
188.38 965.46 undefined 808.62 872.02 2.7865 105.00 0.0095238 808.62 872.02 2.7865 2.2934 3.0474 248.88 0.067183 16.017 0.049628 105.00 0.0095238 808.62 872.02 2.7865 2.2934 3.0474 248.88 0.067183 16.017 0.049628
189.38 969.66 undefined 810.91 874.59 2.7914 105.00 0.0095238 810.91 874.59 2.7914 2.2967 3.0457 249.58 0.066584 16.047 0.049781 105.00 0.0095238 810.91 874.59 2.7914 2.2967 3.0457 249.58 0.066584 16.047 0.049781
190.38 973.86 undefined 813.21 877.16 2.7964 105.00 0.0095238 813.21 877.16 2.7964 2.3000 3.0442 250.28 0.065993 16.076 0.049934 105.00 0.0095238 813.21 877.16 2.7964 2.3000 3.0442 250.28 0.065993 16.076 0.049934
191.38 978.06 undefined 815.51 879.74 2.8014 105.00 0.0095238 815.51 879.74 2.8014 2.3033 3.0427 250.98 0.065410 16.105 0.050088 105.00 0.0095238 815.51 879.74 2.8014 2.3033 3.0427 250.98 0.065410 16.105 0.050088
192.38 982.25 undefined 817.82 882.32 2.8063 105.00 0.0095238 817.82 882.32 2.8063 2.3066 3.0412 251.67 0.064834 16.135 0.050242 105.00 0.0095238 817.82 882.32 2.8063 2.3066 3.0412 251.67 0.064834 16.135 0.050242
193.38 986.44 undefined 820.13 884.90 2.8113 105.00 0.0095238 820.13 884.90 2.8113 2.3099 3.0399 252.37 0.064265 16.164 0.050397 105.00 0.0095238 820.13 884.90 2.8113 2.3099 3.0399 252.37 0.064265 16.164 0.050397
194.38 990.63 undefined 822.44 887.49 2.8162 105.00 0.0095238 822.44 887.49 2.8162 2.3132 3.0387 253.06 0.063704 16.193 0.050552 105.00 0.0095238 822.44 887.49 2.8162 2.3132 3.0387 253.06 0.063704 16.193 0.050552
195.38 994.82 undefined 824.75 890.08 2.8212 105.00 0.0095238 824.75 890.08 2.8212 2.3165 3.0375 253.75 0.063150 16.223 0.050708 105.00 0.0095238 824.75 890.08 2.8212 2.3165 3.0375 253.75 0.063150 16.223 0.050708
196.38 999.01 undefined 827.07 892.67 2.8261 105.00 0.0095238 827.07 892.67 2.8261 2.3198 3.0364 254.44 0.062603 16.252 0.050864 105.00 0.0095238 827.07 892.67 2.8261 2.3198 3.0364 254.44 0.062603 16.252 0.050864
197.38 1003.2 undefined 829.39 895.27 2.8311 105.00 0.0095238 829.39 895.27 2.8311 2.3231 3.0354 255.12 0.062063 16.281 0.051020 105.00 0.0095238 829.39 895.27 2.8311 2.3231 3.0354 255.12 0.062063 16.281 0.051020
198.38 1007.4 undefined 831.72 897.87 2.8360 105.00 0.0095238 831.72 897.87 2.8360 2.3264 3.0344 255.81 0.061529 16.310 0.051177 105.00 0.0095238 831.72 897.87 2.8360 2.3264 3.0344 255.81 0.061529 16.310 0.051177
199.38 1011.5 undefined 834.05 900.47 2.8409 105.00 0.0095238 834.05 900.47 2.8409 2.3297 3.0336 256.49 0.061003 16.339 0.051334 105.00 0.0095238 834.05 900.47 2.8409 2.3297 3.0336 256.49 0.061003 16.339 0.051334
200.38 1015.7 undefined 836.38 903.07 2.8459 105.00 0.0095238 836.38 903.07 2.8459 2.3331 3.0328 257.17 0.060482 16.368 0.051492 105.00 0.0095238 836.38 903.07 2.8459 2.3331 3.0328 257.17 0.060482 16.368 0.051492
201.38 1019.9 undefined 838.71 905.68 2.8508 105.00 0.0095238 838.71 905.68 2.8508 2.3364 3.0320 257.85 0.059969 16.397 0.051650 105.00 0.0095238 838.71 905.68 2.8508 2.3364 3.0320 257.85 0.059969 16.397 0.051650
202.38 1024.1 undefined 841.05 908.30 2.8557 105.00 0.0095238 841.05 908.30 2.8557 2.3397 3.0314 258.52 0.059461 16.426 0.051808 105.00 0.0095238 841.05 908.30 2.8557 2.3397 3.0314 258.52 0.059461 16.426 0.051808
203.38 1028.2 undefined 843.39 910.91 2.8606 105.00 0.0095238 843.39 910.91 2.8606 2.3431 3.0308 259.20 0.058960 16.455 0.051967 105.00 0.0095238 843.39 910.91 2.8606 2.3431 3.0308 259.20 0.058960 16.455 0.051967
204.38 1032.4 undefined 845.74 913.53 2.8655 105.00 0.0095238 845.74 913.53 2.8655 2.3464 3.0302 259.87 0.058465 16.484 0.052126 105.00 0.0095238 845.74 913.53 2.8655 2.3464 3.0302 259.87 0.058465 16.484 0.052126
205.38 1036.6 undefined 848.08 916.15 2.8704 105.00 0.0095238 848.08 916.15 2.8704 2.3497 3.0297 260.54 0.057976 16.513 0.052286 105.00 0.0095238 848.08 916.15 2.8704 2.3497 3.0297 260.54 0.057976 16.513 0.052286
206.38 1040.7 undefined 850.44 918.78 2.8754 105.00 0.0095238 850.44 918.78 2.8754 2.3531 3.0293 261.21 0.057493 16.542 0.052446 105.00 0.0095238 850.44 918.78 2.8754 2.3531 3.0293 261.21 0.057493 16.542 0.052446
207.38 1044.9 undefined 852.79 921.40 2.8803 105.00 0.0095238 852.79 921.40 2.8803 2.3564 3.0290 261.88 0.057016 16.571 0.052606 105.00 0.0095238 852.79 921.40 2.8803 2.3564 3.0290 261.88 0.057016 16.571 0.052606
208.38 1049.1 undefined 855.15 924.03 2.8852 105.00 0.0095238 855.15 924.03 2.8852 2.3598 3.0287 262.54 0.056544 16.600 0.052767 105.00 0.0095238 855.15 924.03 2.8852 2.3598 3.0287 262.54 0.056544 16.600 0.052767
209.38 1053.2 undefined 857.51 926.67 2.8901 105.00 0.0095238 857.51 926.67 2.8901 2.3632 3.0284 263.21 0.056078 16.629 0.052928 105.00 0.0095238 857.51 926.67 2.8901 2.3632 3.0284 263.21 0.056078 16.629 0.052928
210.38 1057.4 undefined 859.88 929.31 2.8950 105.00 0.0095238 859.88 929.31 2.8950 2.3665 3.0282 263.87 0.055618 16.657 0.053090 105.00 0.0095238 859.88 929.31 2.8950 2.3665 3.0282 263.87 0.055618 16.657 0.053090
211.38 1061.5 undefined 862.24 931.95 2.8998 105.00 0.0095238 862.24 931.95 2.8998 2.3699 3.0281 264.53 0.055163 16.686 0.053251 105.00 0.0095238 862.24 931.95 2.8998 2.3699 3.0281 264.53 0.055163 16.686 0.053251
212.38 1065.7 undefined 864.61 934.59 2.9047 105.00 0.0095238 864.61 934.59 2.9047 2.3732 3.0280 265.19 0.054713 16.715 0.053414 105.00 0.0095238 864.61 934.59 2.9047 2.3732 3.0280 265.19 0.054713 16.715 0.053414
213.38 1069.8 undefined 866.99 937.24 2.9096 105.00 0.0095238 866.99 937.24 2.9096 2.3766 3.0280 265.84 0.054269 16.743 0.053576 105.00 0.0095238 866.99 937.24 2.9096 2.3766 3.0280 265.84 0.054269 16.743 0.053576
214.38 1074.0 undefined 869.37 939.89 2.9145 105.00 0.0095238 869.37 939.89 2.9145 2.3800 3.0280 266.50 0.053830 16.772 0.053739 105.00 0.0095238 869.37 939.89 2.9145 2.3800 3.0280 266.50 0.053830 16.772 0.053739
215.38 1078.1 undefined 871.75 942.54 2.9194 105.00 0.0095238 871.75 942.54 2.9194 2.3833 3.0281 267.15 0.053396 16.800 0.053903 105.00 0.0095238 871.75 942.54 2.9194 2.3833 3.0281 267.15 0.053396 16.800 0.053903
216.38 1082.3 undefined 874.13 945.20 2.9243 105.00 0.0095238 874.13 945.20 2.9243 2.3867 3.0282 267.80 0.052967 16.829 0.054067 105.00 0.0095238 874.13 945.20 2.9243 2.3867 3.0282 267.80 0.052967 16.829 0.054067
217.38 1086.4 undefined 876.52 947.86 2.9291 105.00 0.0095238 876.52 947.86 2.9291 2.3901 3.0284 268.45 0.052543 16.858 0.054231 105.00 0.0095238 876.52 947.86 2.9291 2.3901 3.0284 268.45 0.052543 16.858 0.054231
218.38 1090.6 undefined 878.91 950.53 2.9340 105.00 0.0095238 878.91 950.53 2.9340 2.3935 3.0286 269.10 0.052124 16.886 0.054395 105.00 0.0095238 878.91 950.53 2.9340 2.3935 3.0286 269.10 0.052124 16.886 0.054395
219.38 1094.7 undefined 881.31 953.19 2.9389 105.00 0.0095238 881.31 953.19 2.9389 2.3968 3.0289 269.75 0.051710 16.914 0.054560 105.00 0.0095238 881.31 953.19 2.9389 2.3968 3.0289 269.75 0.051710 16.914 0.054560
220.38 1098.8 undefined 883.71 955.86 2.9437 105.00 0.0095238 883.71 955.86 2.9437 2.4002 3.0292 270.39 0.051301 16.943 0.054725 105.00 0.0095238 883.71 955.86 2.9437 2.4002 3.0292 270.39 0.051301 16.943 0.054725
221.38 1103.0 undefined 886.11 958.54 2.9486 105.00 0.0095238 886.11 958.54 2.9486 2.4036 3.0295 271.04 0.050896 16.971 0.054891 105.00 0.0095238 886.11 958.54 2.9486 2.4036 3.0295 271.04 0.050896 16.971 0.054891
222.38 1107.1 undefined 888.52 961.21 2.9535 105.00 0.0095238 888.52 961.21 2.9535 2.4070 3.0299 271.68 0.050496 17.000 0.055056 105.00 0.0095238 888.52 961.21 2.9535 2.4070 3.0299 271.68 0.050496 17.000 0.055056
223.38 1111.3 undefined 890.92 963.89 2.9583 105.00 0.0095238 890.92 963.89 2.9583 2.4104 3.0304 272.32 0.050100 17.028 0.055223 105.00 0.0095238 890.92 963.89 2.9583 2.4104 3.0304 272.32 0.050100 17.028 0.055223
224.38 1115.4 undefined 893.34 966.58 2.9632 105.00 0.0095238 893.34 966.58 2.9632 2.4138 3.0308 272.96 0.049709 17.056 0.055389 105.00 0.0095238 893.34 966.58 2.9632 2.4138 3.0308 272.96 0.049709 17.056 0.055389
225.38 1119.5 undefined 895.75 969.26 2.9680 105.00 0.0095238 895.75 969.26 2.9680 2.4172 3.0314 273.59 0.049322 17.084 0.055556 105.00 0.0095238 895.75 969.26 2.9680 2.4172 3.0314 273.59 0.049322 17.084 0.055556
226.38 1123.6 undefined 898.17 971.95 2.9729 105.00 0.0095238 898.17 971.95 2.9729 2.4205 3.0319 274.23 0.048939 17.113 0.055723 105.00 0.0095238 898.17 971.95 2.9729 2.4205 3.0319 274.23 0.048939 17.113 0.055723
227.38 1127.8 undefined 900.59 974.65 2.9777 105.00 0.0095238 900.59 974.65 2.9777 2.4239 3.0325 274.86 0.048561 17.141 0.055891 105.00 0.0095238 900.59 974.65 2.9777 2.4239 3.0325 274.86 0.048561 17.141 0.055891
228.38 1131.9 undefined 903.02 977.34 2.9826 105.00 0.0095238 903.02 977.34 2.9826 2.4273 3.0331 275.49 0.048187 17.169 0.056059 105.00 0.0095238 903.02 977.34 2.9826 2.4273 3.0331 275.49 0.048187 17.169 0.056059
229.38 1136.0 undefined 905.45 980.04 2.9874 105.00 0.0095238 905.45 980.04 2.9874 2.4307 3.0338 276.13 0.047817 17.197 0.056227 105.00 0.0095238 905.45 980.04 2.9874 2.4307 3.0338 276.13 0.047817 17.197 0.056227
230.38 1140.1 undefined 907.88 982.75 2.9922 105.00 0.0095238 907.88 982.75 2.9922 2.4341 3.0345 276.76 0.047451 17.225 0.056395 105.00 0.0095238 907.88 982.75 2.9922 2.4341 3.0345 276.76 0.047451 17.225 0.056395
231.38 1144.3 undefined 910.32 985.45 2.9971 105.00 0.0095238 910.32 985.45 2.9971 2.4375 3.0353 277.38 0.047089 17.253 0.056564 105.00 0.0095238 910.32 985.45 2.9971 2.4375 3.0353 277.38 0.047089 17.253 0.056564
232.38 1148.4 undefined 912.76 988.16 3.0019 105.00 0.0095238 912.76 988.16 3.0019 2.4409 3.0360 278.01 0.046731 17.281 0.056733 105.00 0.0095238 912.76 988.16 3.0019 2.4409 3.0360 278.01 0.046731 17.281 0.056733
233.38 1152.5 undefined 915.20 990.88 3.0067 105.00 0.0095238 915.20 990.88 3.0067 2.4443 3.0368 278.63 0.046377 17.309 0.056903 105.00 0.0095238 915.20 990.88 3.0067 2.4443 3.0368 278.63 0.046377 17.309 0.056903
234.38 1156.6 undefined 917.64 993.59 3.0115 105.00 0.0095238 917.64 993.59 3.0115 2.4477 3.0377 279.26 0.046027 17.337 0.057072 105.00 0.0095238 917.64 993.59 3.0115 2.4477 3.0377 279.26 0.046027 17.337 0.057072
235.38 1160.7 undefined 920.09 996.31 3.0164 105.00 0.0095238 920.09 996.31 3.0164 2.4511 3.0386 279.88 0.045681 17.365 0.057243 105.00 0.0095238 920.09 996.31 3.0164 2.4511 3.0386 279.88 0.045681 17.365 0.057243
236.38 1164.8 undefined 922.55 999.04 3.0212 105.00 0.0095238 922.55 999.04 3.0212 2.4545 3.0395 280.50 0.045338 17.393 0.057413 105.00 0.0095238 922.55 999.04 3.0212 2.4545 3.0395 280.50 0.045338 17.393 0.057413
237.38 1169.0 undefined 925.00 1001.8 3.0260 105.00 0.0095238 925.00 1001.8 3.0260 2.4579 3.0404 281.12 0.044999 17.421 0.057584 105.00 0.0095238 925.00 1001.8 3.0260 2.4579 3.0404 281.12 0.044999 17.421 0.057584
238.38 1173.1 undefined 927.46 1004.5 3.0308 105.00 0.0095238 927.46 1004.5 3.0308 2.4613 3.0414 281.74 0.044664 17.449 0.057755 105.00 0.0095238 927.46 1004.5 3.0308 2.4613 3.0414 281.74 0.044664 17.449 0.057755
239.38 1177.2 undefined 929.92 1007.2 3.0356 105.00 0.0095238 929.92 1007.2 3.0356 2.4647 3.0424 282.35 0.044332 17.476 0.057926 105.00 0.0095238 929.92 1007.2 3.0356 2.4647 3.0424 282.35 0.044332 17.476 0.057926
240.38 1181.3 undefined 932.39 1010.0 3.0404 105.00 0.0095238 932.39 1010.0 3.0404 2.4681 3.0434 282.97 0.044003 17.504 0.058098 105.00 0.0095238 932.39 1010.0 3.0404 2.4681 3.0434 282.97 0.044003 17.504 0.058098
241.38 1185.4 undefined 934.86 1012.7 3.0452 105.00 0.0095238 934.86 1012.7 3.0452 2.4715 3.0445 283.58 0.043679 17.532 0.058270 105.00 0.0095238 934.86 1012.7 3.0452 2.4715 3.0445 283.58 0.043679 17.532 0.058270
242.38 1189.5 undefined 937.33 1015.4 3.0500 105.00 0.0095238 937.33 1015.4 3.0500 2.4749 3.0455 284.19 0.043357 17.560 0.058442 105.00 0.0095238 937.33 1015.4 3.0500 2.4749 3.0455 284.19 0.043357 17.560 0.058442
243.38 1193.6 undefined 939.81 1018.2 3.0548 105.00 0.0095238 939.81 1018.2 3.0548 2.4783 3.0467 284.80 0.043039 17.587 0.058614 105.00 0.0095238 939.81 1018.2 3.0548 2.4783 3.0467 284.80 0.043039 17.587 0.058614
244.38 1197.7 undefined 942.29 1020.9 3.0596 105.00 0.0095238 942.29 1020.9 3.0596 2.4817 3.0478 285.41 0.042724 17.615 0.058787 105.00 0.0095238 942.29 1020.9 3.0596 2.4817 3.0478 285.41 0.042724 17.615 0.058787
245.38 1201.8 undefined 944.77 1023.7 3.0644 105.00 0.0095238 944.77 1023.7 3.0644 2.4851 3.0490 286.02 0.042413 17.643 0.058960 105.00 0.0095238 944.77 1023.7 3.0644 2.4851 3.0490 286.02 0.042413 17.643 0.058960
246.38 1205.9 undefined 947.26 1026.4 3.0692 105.00 0.0095238 947.26 1026.4 3.0692 2.4885 3.0502 286.63 0.042104 17.670 0.059133 105.00 0.0095238 947.26 1026.4 3.0692 2.4885 3.0502 286.63 0.042104 17.670 0.059133
247.38 1210.0 undefined 949.75 1029.2 3.0740 105.00 0.0095238 949.75 1029.2 3.0740 2.4919 3.0514 287.23 0.041799 17.698 0.059307 105.00 0.0095238 949.75 1029.2 3.0740 2.4919 3.0514 287.23 0.041799 17.698 0.059307
248.38 1214.1 undefined 952.24 1032.0 3.0788 105.00 0.0095238 952.24 1032.0 3.0788 2.4953 3.0526 287.84 0.041497 17.725 0.059481 105.00 0.0095238 952.24 1032.0 3.0788 2.4953 3.0526 287.84 0.041497 17.725 0.059481
249.38 1218.2 undefined 954.74 1034.7 3.0836 105.00 0.0095238 954.74 1034.7 3.0836 2.4987 3.0539 288.44 0.041198 17.753 0.059655 105.00 0.0095238 954.74 1034.7 3.0836 2.4987 3.0539 288.44 0.041198 17.753 0.059655
250.38 1222.3 undefined 957.24 1037.5 3.0884 105.00 0.0095238 957.24 1037.5 3.0884 2.5021 3.0552 289.04 0.040903 17.780 0.059829 105.00 0.0095238 957.24 1037.5 3.0884 2.5021 3.0552 289.04 0.040903 17.780 0.059829
251.38 1226.4 undefined 959.75 1040.3 3.0931 105.00 0.0095238 959.75 1040.3 3.0931 2.5055 3.0565 289.64 0.040610 17.808 0.060004 105.00 0.0095238 959.75 1040.3 3.0931 2.5055 3.0565 289.64 0.040610 17.808 0.060004
252.38 1230.5 undefined 962.25 1043.1 3.0979 105.00 0.0095238 962.25 1043.1 3.0979 2.5088 3.0578 290.24 0.040320 17.835 0.060179 105.00 0.0095238 962.25 1043.1 3.0979 2.5088 3.0578 290.24 0.040320 17.835 0.060179
253.38 1234.6 undefined 964.76 1045.8 3.1027 105.00 0.0095238 964.76 1045.8 3.1027 2.5122 3.0592 290.83 0.040033 17.862 0.060354 105.00 0.0095238 964.76 1045.8 3.1027 2.5122 3.0592 290.83 0.040033 17.862 0.060354
254.38 1238.7 undefined 967.28 1048.6 3.1075 105.00 0.0095238 967.28 1048.6 3.1075 2.5156 3.0606 291.43 0.039749 17.890 0.060529 105.00 0.0095238 967.28 1048.6 3.1075 2.5156 3.0606 291.43 0.039749 17.890 0.060529
255.38 1242.8 undefined 969.79 1051.4 3.1122 105.00 0.0095238 969.79 1051.4 3.1122 2.5190 3.0620 292.03 0.039468 17.917 0.060705 105.00 0.0095238 969.79 1051.4 3.1122 2.5190 3.0620 292.03 0.039468 17.917 0.060705
256.38 1246.8 undefined 972.32 1054.2 3.1170 105.00 0.0095238 972.32 1054.2 3.1170 2.5224 3.0634 292.62 0.039190 17.944 0.060881 105.00 0.0095238 972.32 1054.2 3.1170 2.5224 3.0634 292.62 0.039190 17.944 0.060881
257.38 1250.9 undefined 974.84 1057.0 3.1217 105.00 0.0095238 974.84 1057.0 3.1217 2.5258 3.0649 293.21 0.038914 17.971 0.061057 105.00 0.0095238 974.84 1057.0 3.1217 2.5258 3.0649 293.21 0.038914 17.971 0.061057
258.38 1255.0 undefined 977.37 1059.8 3.1265 105.00 0.0095238 977.37 1059.8 3.1265 2.5292 3.0663 293.80 0.038641 17.999 0.061233 105.00 0.0095238 977.37 1059.8 3.1265 2.5292 3.0663 293.80 0.038641 17.999 0.061233
259.38 1259.1 undefined 979.90 1062.6 3.1313 105.00 0.0095238 979.90 1062.6 3.1313 2.5326 3.0678 294.39 0.038371 18.026 0.061409 105.00 0.0095238 979.90 1062.6 3.1313 2.5326 3.0678 294.39 0.038371 18.026 0.061409
260.38 1263.2 undefined 982.43 1065.4 3.1360 105.00 0.0095238 982.43 1065.4 3.1360 2.5360 3.0693 294.98 0.038103 18.053 0.061586 105.00 0.0095238 982.43 1065.4 3.1360 2.5360 3.0693 294.98 0.038103 18.053 0.061586
261.38 1267.3 undefined 984.97 1068.2 3.1408 105.00 0.0095238 984.97 1068.2 3.1408 2.5394 3.0709 295.57 0.037839 18.080 0.061763 105.00 0.0095238 984.97 1068.2 3.1408 2.5394 3.0709 295.57 0.037839 18.080 0.061763
262.38 1271.3 undefined 987.51 1071.0 3.1455 105.00 0.0095238 987.51 1071.0 3.1455 2.5428 3.0724 296.15 0.037576 18.107 0.061940 105.00 0.0095238 987.51 1071.0 3.1455 2.5428 3.0724 296.15 0.037576 18.107 0.061940
263.38 1275.4 undefined 990.06 1073.8 3.1503 105.00 0.0095238 990.06 1073.8 3.1503 2.5461 3.0740 296.74 0.037316 18.134 0.062117 105.00 0.0095238 990.06 1073.8 3.1503 2.5461 3.0740 296.74 0.037316 18.134 0.062117
264.38 1279.5 undefined 992.60 1076.6 3.1550 105.00 0.0095238 992.60 1076.6 3.1550 2.5495 3.0755 297.32 0.037059 18.161 0.062294 105.00 0.0095238 992.60 1076.6 3.1550 2.5495 3.0755 297.32 0.037059 18.161 0.062294
265.38 1283.6 undefined 995.15 1079.4 3.1598 105.00 0.0095238 995.15 1079.4 3.1598 2.5529 3.0772 297.90 0.036805 18.188 0.062472 105.00 0.0095238 995.15 1079.4 3.1598 2.5529 3.0772 297.90 0.036805 18.188 0.062472
266.38 1287.7 undefined 997.71 1082.3 3.1645 105.00 0.0095238 997.71 1082.3 3.1645 2.5563 3.0788 298.48 0.036552 18.215 0.062649 105.00 0.0095238 997.71 1082.3 3.1645 2.5563 3.0788 298.48 0.036552 18.215 0.062649
267.38 1291.7 undefined 1000.3 1085.1 3.1692 105.00 0.0095238 1000.3 1085.1 3.1692 2.5597 3.0804 299.06 0.036302 18.242 0.062827 105.00 0.0095238 1000.3 1085.1 3.1692 2.5597 3.0804 299.06 0.036302 18.242 0.062827
268.38 1295.8 undefined 1002.8 1087.9 3.1740 105.00 0.0095238 1002.8 1087.9 3.1740 2.5630 3.0821 299.64 0.036055 18.269 0.063004 105.00 0.0095238 1002.8 1087.9 3.1740 2.5630 3.0821 299.64 0.036055 18.269 0.063004
269.38 1299.9 undefined 1005.4 1090.7 3.1787 105.00 0.0095238 1005.4 1090.7 3.1787 2.5664 3.0837 300.22 0.035810 18.296 0.063182 105.00 0.0095238 1005.4 1090.7 3.1787 2.5664 3.0837 300.22 0.035810 18.296 0.063182
270.38 1304.0 undefined 1008.0 1093.6 3.1834 105.00 0.0095238 1008.0 1093.6 3.1834 2.5698 3.0854 300.80 0.035567 18.323 0.063359 105.00 0.0095238 1008.0 1093.6 3.1834 2.5698 3.0854 300.80 0.035567 18.323 0.063359
271.38 1308.0 undefined 1010.5 1096.4 3.1882 105.00 0.0095238 1010.5 1096.4 3.1882 2.5732 3.0871 301.37 0.035327 18.349 0.063537 105.00 0.0095238 1010.5 1096.4 3.1882 2.5732 3.0871 301.37 0.035327 18.349 0.063537
272.38 1312.1 undefined 1013.1 1099.3 3.1929 105.00 0.0095238 1013.1 1099.3 3.1929 2.5765 3.0888 301.94 0.035089 18.376 0.063714 105.00 0.0095238 1013.1 1099.3 3.1929 2.5765 3.0888 301.94 0.035089 18.376 0.063714
273.38 1316.2 undefined 1015.7 1102.1 3.1976 105.00 0.0095238 1015.7 1102.1 3.1976 2.5799 3.0906 302.52 0.034853 18.403 0.063891 105.00 0.0095238 1015.7 1102.1 3.1976 2.5799 3.0906 302.52 0.034853 18.403 0.063891
274.38 1320.2 undefined 1018.3 1105.0 3.2023 105.00 0.0095238 1018.3 1105.0 3.2023 2.5833 3.0923 303.09 0.034619 18.430 0.064068 105.00 0.0095238 1018.3 1105.0 3.2023 2.5833 3.0923 303.09 0.034619 18.430 0.064068
275.38 1324.3 undefined 1020.9 1107.8 3.2070 105.00 0.0095238 1020.9 1107.8 3.2070 2.5867 3.0941 303.66 0.034388 18.456 0.064244 105.00 0.0095238 1020.9 1107.8 3.2070 2.5867 3.0941 303.66 0.034388 18.456 0.064244
276.38 1328.4 undefined 1023.4 1110.7 3.2117 105.00 0.0095238 1023.4 1110.7 3.2117 2.5900 3.0959 304.23 0.034158 18.483 0.064419 105.00 0.0095238 1023.4 1110.7 3.2117 2.5900 3.0959 304.23 0.034158 18.483 0.064419
277.38 1332.4 undefined 1026.0 1113.5 3.2165 105.00 0.0095238 1026.0 1113.5 3.2165 2.5934 3.0976 304.80 0.033931 18.509 0.064594 105.00 0.0095238 1026.0 1113.5 3.2165 2.5934 3.0976 304.80 0.033931 18.509 0.064594
278.38 1336.5 undefined 1028.6 1116.4 3.2212 105.00 0.0095238 1028.6 1116.4 3.2212 2.5967 3.0995 305.36 0.033706 18.536 0.064767 105.00 0.0095238 1028.6 1116.4 3.2212 2.5967 3.0995 305.36 0.033706 18.536 0.064767
279.38 1340.6 undefined 1031.2 1119.3 3.2259 105.00 0.0095238 1031.2 1119.3 3.2259 2.6001 3.1013 305.93 0.033483 18.563 0.064937 105.00 0.0095238 1031.2 1119.3 3.2259 2.6001 3.1013 305.93 0.033483 18.563 0.064937
280.38 1344.6 undefined 1033.8 1122.1 3.2306 105.00 0.0095238 1033.8 1122.1 3.2306 2.6035 3.1031 306.50 0.033262 18.589 0.065102 105.00 0.0095238 1033.8 1122.1 3.2306 2.6035 3.1031 306.50 0.033262 18.589 0.065102
281.38 1348.7 undefined 1036.4 1125.0 3.2353 105.00 0.0095238 1036.4 1125.0 3.2353 2.6068 3.1050 307.06 0.033043 18.616 0.065251 105.00 0.0095238 1036.4 1125.0 3.2353 2.6068 3.1050 307.06 0.033043 18.616 0.065251
282.38 1352.7 undefined 1039.0 1127.9 3.2400 105.00 0.0095238 1039.0 1127.9 3.2400 2.6102 3.1068 307.62 0.032826 18.642 0.065414 105.00 0.0095238 1039.0 1127.9 3.2400 2.6102 3.1068 307.62 0.032826 18.642 0.065414
283.38 1356.8 undefined 1041.7 1130.7 3.2447 105.00 0.0095238 1041.7 1130.7 3.2447 2.6135 3.1087 308.18 0.032611 18.669 0.065605 105.00 0.0095238 1041.7 1130.7 3.2447 2.6135 3.1087 308.18 0.032611 18.669 0.065605
284.38 1360.9 undefined 1044.3 1133.6 3.2494 105.00 0.0095238 1044.3 1133.6 3.2494 2.6169 3.1106 308.74 0.032398 18.695 0.065798 105.00 0.0095238 1044.3 1133.6 3.2494 2.6169 3.1106 308.74 0.032398 18.695 0.065798
285.38 1364.9 undefined 1046.9 1136.5 3.2541 105.00 0.0095238 1046.9 1136.5 3.2541 2.6202 3.1125 309.30 0.032187 18.721 0.065990 105.00 0.0095238 1046.9 1136.5 3.2541 2.6202 3.1125 309.30 0.032187 18.721 0.065990
286.38 1369.0 undefined 1049.5 1139.4 3.2588 105.00 0.0095238 1049.5 1139.4 3.2588 2.6236 3.1144 309.86 0.031978 18.748 0.066183 105.00 0.0095238 1049.5 1139.4 3.2588 2.6236 3.1144 309.86 0.031978 18.748 0.066183
287.38 1373.0 undefined 1052.1 1142.3 3.2634 105.00 0.0095238 1052.1 1142.3 3.2634 2.6269 3.1163 310.42 0.031771 18.774 0.066376 105.00 0.0095238 1052.1 1142.3 3.2634 2.6269 3.1163 310.42 0.031771 18.774 0.066376
288.38 1377.1 undefined 1054.8 1145.2 3.2681 105.00 0.0095238 1054.8 1145.2 3.2681 2.6303 3.1182 310.98 0.031565 18.800 0.066569 105.00 0.0095238 1054.8 1145.2 3.2681 2.6303 3.1182 310.98 0.031565 18.800 0.066569
289.38 1381.1 undefined 1057.4 1148.1 3.2728 105.00 0.0095238 1057.4 1148.1 3.2728 2.6336 3.1202 311.53 0.031362 18.826 0.066763 105.00 0.0095238 1057.4 1148.1 3.2728 2.6336 3.1202 311.53 0.031362 18.826 0.066763
290.38 1385.2 undefined 1060.0 1151.0 3.2775 105.00 0.0095238 1060.0 1151.0 3.2775 2.6369 3.1221 312.09 0.031160 18.853 0.066956 105.00 0.0095238 1060.0 1151.0 3.2775 2.6369 3.1221 312.09 0.031160 18.853 0.066956
291.38 1389.3 undefined 1062.7 1153.9 3.2822 105.00 0.0095238 1062.7 1153.9 3.2822 2.6403 3.1241 312.64 0.030960 18.879 0.067151 105.00 0.0095238 1062.7 1153.9 3.2822 2.6403 3.1241 312.64 0.030960 18.879 0.067151
292.38 1393.3 undefined 1065.3 1156.8 3.2868 105.00 0.0095238 1065.3 1156.8 3.2868 2.6436 3.1260 313.19 0.030762 18.905 0.067345 105.00 0.0095238 1065.3 1156.8 3.2868 2.6436 3.1260 313.19 0.030762 18.905 0.067345
293.38 1397.4 undefined 1068.0 1159.7 3.2915 105.00 0.0095238 1068.0 1159.7 3.2915 2.6469 3.1280 313.74 0.030565 18.931 0.067540 105.00 0.0095238 1068.0 1159.7 3.2915 2.6469 3.1280 313.74 0.030565 18.931 0.067540
294.38 1401.4 undefined 1070.6 1162.6 3.2962 105.00 0.0095238 1070.6 1162.6 3.2962 2.6503 3.1300 314.29 0.030370 18.957 0.067735 105.00 0.0095238 1070.6 1162.6 3.2962 2.6503 3.1300 314.29 0.030370 18.957 0.067735
295.38 1405.5 undefined 1073.3 1165.5 3.3009 105.00 0.0095238 1073.3 1165.5 3.3009 2.6536 3.1320 314.84 0.030177 18.983 0.067930 105.00 0.0095238 1073.3 1165.5 3.3009 2.6536 3.1320 314.84 0.030177 18.983 0.067930
296.38 1409.5 undefined 1075.9 1168.5 3.3055 105.00 0.0095238 1075.9 1168.5 3.3055 2.6569 3.1340 315.39 0.029986 19.009 0.068126 105.00 0.0095238 1075.9 1168.5 3.3055 2.6569 3.1340 315.39 0.029986 19.009 0.068126
297.38 1413.5 undefined 1078.6 1171.4 3.3102 105.00 0.0095238 1078.6 1171.4 3.3102 2.6602 3.1361 315.94 0.029796 19.035 0.068322 105.00 0.0095238 1078.6 1171.4 3.3102 2.6602 3.1361 315.94 0.029796 19.035 0.068322
298.38 1417.6 undefined 1081.2 1174.3 3.3149 105.00 0.0095238 1081.2 1174.3 3.3149 2.6635 3.1381 316.48 0.029608 19.061 0.068518 105.00 0.0095238 1081.2 1174.3 3.3149 2.6635 3.1381 316.48 0.029608 19.061 0.068518
299.38 1421.6 undefined 1083.9 1177.2 3.3195 105.00 0.0095238 1083.9 1177.2 3.3195 2.6669 3.1401 317.03 0.029422 19.087 0.068714 105.00 0.0095238 1083.9 1177.2 3.3195 2.6669 3.1401 317.03 0.029422 19.087 0.068714
300.38 1425.7 undefined 1086.6 1180.2 3.3242 105.00 0.0095238 1086.6 1180.2 3.3242 2.6702 3.1422 317.57 0.029237 19.113 0.068911 105.00 0.0095238 1086.6 1180.2 3.3242 2.6702 3.1422 317.57 0.029237 19.113 0.068911