Temperature (C) Pressure (psia) Quality (l+v) Internal Energy (l+v, kJ/kg) Enthalpy (l+v, kJ/kg) Entropy (l+v, J/g*K) Density (l, kg/m3) Volume (l, m3/kg) Internal Energy (l, kJ/kg) Enthalpy (l, kJ/kg) Entropy (l, J/g*K) Cv (l, J/g*K) Cp (l, J/g*K) Sound Spd. (l, m/s) Joule-Thomson (l, F/psia) Viscosity (l, uPa*s) Therm. Cond. (l, W/m*K) Density (v, kg/m3) Volume (v, m3/kg) Internal Energy (v, kJ/kg) Enthalpy (v, kJ/kg) Entropy (v, J/g*K) Cv (v, J/g*K) Cp (v, J/g*K) Sound Spd. (v, m/s) Joule-Thomson (v, F/psia) Viscosity (v, uPa*s) Therm. Cond. (v, W/m*K)
-187.62 2.4953e-08 8.2436e-11 -196.64 -196.64 -1.3959 733.13 0.0013640 -196.64 -196.64 -1.3959 1.3553 1.9158 2136.4 -0.0077592 10960. 0.20792 1.0669e-08 9.3732e+07 350.13 366.26 5.1858 0.69067 0.87923 143.28 6.1051 2.3259 0.0017061
-186.62 3.7339e-08 1.2190e-10 -194.73 -194.73 -1.3736 732.08 0.0013660 -194.73 -194.73 -1.3736 1.3539 1.9166 2129.6 -0.0077546 10073. 0.20765 1.5780e-08 6.3371e+07 350.82 367.14 5.1200 0.69462 0.88317 144.03 5.9178 2.3534 0.0017533
-185.62 5.5322e-08 1.7850e-10 -192.81 -192.81 -1.3516 731.04 0.0013679 -192.81 -192.81 -1.3516 1.3525 1.9174 2122.9 -0.0077498 9276.1 0.20737 2.3112e-08 4.3267e+07 351.52 368.02 5.0561 0.69857 0.88713 144.77 5.7383 2.3808 0.0018007
-184.62 8.1182e-08 2.5891e-10 -190.89 -190.89 -1.3298 730.00 0.0013699 -190.89 -190.89 -1.3298 1.3513 1.9182 2116.1 -0.0077448 8557.8 0.20708 3.3533e-08 2.9821e+07 352.22 368.91 4.9939 0.70253 0.89108 145.51 5.5662 2.4083 0.0018485
-183.62 1.1803e-07 3.7214e-10 -188.97 -188.97 -1.3083 728.96 0.0013718 -188.97 -188.97 -1.3083 1.3501 1.9191 2109.3 -0.0077395 7909.8 0.20678 4.8211e-08 2.0742e+07 352.92 369.81 4.9333 0.70648 0.89504 146.24 5.4011 2.4357 0.0018965
-182.62 1.7009e-07 5.3020e-10 -187.05 -187.05 -1.2869 727.92 0.0013738 -187.05 -187.05 -1.2869 1.3490 1.9201 2102.5 -0.0077340 7324.3 0.20647 6.8704e-08 1.4555e+07 353.63 370.70 4.8744 0.71043 0.89899 146.97 5.2426 2.4632 0.0019448
-181.62 2.4299e-07 7.4898e-10 -185.13 -185.13 -1.2658 726.88 0.0013757 -185.13 -185.13 -1.2658 1.3480 1.9210 2095.7 -0.0077283 6794.5 0.20616 9.7079e-08 1.0301e+07 354.35 371.60 4.8170 0.71438 0.90294 147.69 5.0904 2.4906 0.0019934
-180.62 3.4425e-07 1.0494e-09 -183.21 -183.21 -1.2450 725.85 0.0013777 -183.21 -183.21 -1.2450 1.3470 1.9220 2088.9 -0.0077225 6314.4 0.20584 1.3605e-07 7.3504e+06 355.06 372.51 4.7612 0.71833 0.90688 148.41 4.9442 2.5181 0.0020423
-179.62 4.8378e-07 1.4586e-09 -181.29 -181.29 -1.2243 724.81 0.0013797 -181.29 -181.29 -1.2243 1.3461 1.9231 2082.0 -0.0077164 5878.8 0.20551 1.8915e-07 5.2868e+06 355.78 373.42 4.7068 0.72227 0.91082 149.13 4.8038 2.5456 0.0020915
-178.62 6.7459e-07 2.0118e-09 -179.37 -179.37 -1.2038 723.78 0.0013816 -179.37 -179.37 -1.2038 1.3453 1.9241 2075.2 -0.0077102 5482.9 0.20517 2.6096e-07 3.8320e+06 356.51 374.33 4.6538 0.72620 0.91475 149.84 4.6688 2.5731 0.0021410
-177.62 9.3358e-07 2.7543e-09 -177.44 -177.44 -1.1836 722.75 0.0013836 -177.44 -177.44 -1.1836 1.3445 1.9252 2068.4 -0.0077039 5122.6 0.20483 3.5737e-07 2.7982e+06 357.23 375.25 4.6022 0.73012 0.91867 150.54 4.5390 2.6005 0.0021907
-176.62 1.2826e-06 3.7439e-09 -175.52 -175.52 -1.1635 721.72 0.0013856 -175.52 -175.52 -1.1635 1.3437 1.9263 2061.5 -0.0076973 4794.1 0.20447 4.8588e-07 2.0581e+06 357.97 376.17 4.5519 0.73403 0.92258 151.25 4.4142 2.6280 0.0022408
-175.62 1.7496e-06 5.0535e-09 -173.59 -173.59 -1.1437 720.69 0.0013876 -173.59 -173.59 -1.1437 1.3430 1.9274 2054.7 -0.0076907 4494.3 0.20411 6.5601e-07 1.5244e+06 358.70 377.09 4.5029 0.73792 0.92648 151.95 4.2941 2.6555 0.0022912
-174.62 2.3705e-06 6.7754e-09 -171.66 -171.66 -1.1240 719.66 0.0013895 -171.66 -171.66 -1.1240 1.3423 1.9286 2047.9 -0.0076838 4220.2 0.20375 8.7976e-07 1.1367e+06 359.44 378.02 4.4551 0.74181 0.93036 152.64 4.1784 2.6830 0.0023418
-173.62 3.1903e-06 9.0247e-09 -169.73 -169.73 -1.1045 718.64 0.0013915 -169.73 -169.73 -1.1045 1.3417 1.9298 2041.0 -0.0076769 3969.3 0.20338 1.1721e-06 8.5314e+05 360.19 378.95 4.4085 0.74568 0.93423 153.33 4.0671 2.7105 0.0023928
-172.62 4.2661e-06 1.1945e-08 -167.80 -167.80 -1.0852 717.61 0.0013935 -167.80 -167.80 -1.0852 1.3411 1.9310 2034.2 -0.0076698 3739.3 0.20300 1.5518e-06 6.4441e+05 360.93 379.89 4.3631 0.74953 0.93809 154.02 3.9599 2.7379 0.0024440
-171.62 5.6692e-06 1.5713e-08 -165.87 -165.87 -1.0661 716.58 0.0013955 -165.87 -165.87 -1.0661 1.3405 1.9322 2027.3 -0.0076625 3528.0 0.20261 2.0419e-06 4.8974e+05 361.69 380.83 4.3188 0.75337 0.94193 154.71 3.8566 2.7654 0.0024955
-170.62 7.4884e-06 2.0548e-08 -163.94 -163.94 -1.0472 715.56 0.0013975 -163.94 -163.94 -1.0472 1.3400 1.9334 2020.5 -0.0076552 3333.8 0.20222 2.6708e-06 3.7442e+05 362.44 381.77 4.2755 0.75720 0.94575 155.39 3.7570 2.7929 0.0025473
-169.62 9.8334e-06 2.6714e-08 -162.00 -162.00 -1.0284 714.54 0.0013995 -162.00 -162.00 -1.0284 1.3395 1.9347 2013.6 -0.0076477 3154.9 0.20182 3.4733e-06 2.8791e+05 363.20 382.72 4.2334 0.76100 0.94956 156.07 3.6609 2.8204 0.0025994
-168.62 1.2839e-05 3.4538e-08 -160.07 -160.07 -1.0098 713.52 0.0014015 -160.07 -160.07 -1.0098 1.3390 1.9359 2006.8 -0.0076401 2989.9 0.20141 4.4917e-06 2.2263e+05 363.96 383.67 4.1922 0.76479 0.95335 156.74 3.5683 2.8479 0.0026518
-167.62 1.6672e-05 4.4411e-08 -158.13 -158.13 -0.99134 712.49 0.0014035 -158.13 -158.13 -0.99134 1.3386 1.9372 2000.0 -0.0076323 2837.5 0.20100 5.7771e-06 1.7310e+05 364.73 384.63 4.1521 0.76856 0.95712 157.41 3.4790 2.8754 0.0027045
-166.62 2.1533e-05 5.6806e-08 -156.19 -156.19 -0.97306 711.47 0.0014055 -156.19 -156.19 -0.97306 1.3382 1.9385 1993.1 -0.0076245 2696.5 0.20058 7.3914e-06 1.3529e+05 365.50 385.59 4.1129 0.77232 0.96087 158.08 3.3927 2.9029 0.0027575
-165.62 2.7666e-05 7.2288e-08 -154.25 -154.25 -0.95494 710.45 0.0014075 -154.25 -154.25 -0.95494 1.3378 1.9398 1986.3 -0.0076165 2566.0 0.20016 9.4084e-06 1.0629e+05 366.27 386.55 4.0746 0.77605 0.96460 158.75 3.3095 2.9304 0.0028108
-164.62 3.5367e-05 9.1534e-08 -152.31 -152.31 -0.93698 709.44 0.0014096 -152.31 -152.31 -0.93698 1.3375 1.9411 1979.4 -0.0076084 2444.9 0.19973 1.1916e-05 83918. 367.05 387.52 4.0372 0.77976 0.96832 159.41 3.2291 2.9579 0.0028643
-163.62 4.4989e-05 1.1534e-07 -150.37 -150.37 -0.91917 708.42 0.0014116 -150.37 -150.37 -0.91917 1.3371 1.9424 1972.6 -0.0076002 2332.3 0.19930 1.5020e-05 66577. 367.83 388.49 4.0008 0.78346 0.97201 160.07 3.1514 2.9854 0.0029182
-162.62 5.6956e-05 1.4467e-07 -148.43 -148.43 -0.90151 707.40 0.0014136 -148.43 -148.43 -0.90151 1.3368 1.9437 1965.8 -0.0075919 2227.7 0.19886 1.8844e-05 53068. 368.62 389.46 3.9651 0.78713 0.97569 160.72 3.0764 3.0129 0.0029723
-161.62 7.1773e-05 1.8062e-07 -146.48 -146.48 -0.88400 706.38 0.0014157 -146.48 -146.48 -0.88400 1.3365 1.9451 1959.0 -0.0075834 2130.2 0.19841 2.3533e-05 42494. 369.41 390.44 3.9304 0.79079 0.97935 161.38 3.0038 3.0404 0.0030268
-160.62 9.0036e-05 2.2451e-07 -144.54 -144.54 -0.86663 705.37 0.0014177 -144.54 -144.54 -0.86663 1.3363 1.9465 1952.1 -0.0075748 2039.2 0.19796 2.9258e-05 34178. 370.20 391.42 3.8964 0.79443 0.98298 162.03 2.9337 3.0679 0.0030815
-159.62 0.00011245 2.7786e-07 -142.59 -142.59 -0.84940 704.35 0.0014197 -142.59 -142.59 -0.84940 1.3360 1.9478 1945.3 -0.0075661 1954.2 0.19751 3.6221e-05 27609. 371.00 392.40 3.8632 0.79805 0.98660 162.68 2.8658 3.0955 0.0031365
-158.62 0.00013985 3.4244e-07 -140.64 -140.64 -0.83231 703.34 0.0014218 -140.64 -140.64 -0.83231 1.3358 1.9492 1938.5 -0.0075573 1874.8 0.19705 4.4652e-05 22395. 371.80 393.39 3.8307 0.80164 0.99020 163.32 2.8002 3.1230 0.0031918
-157.62 0.00017320 4.2032e-07 -138.69 -138.69 -0.81536 702.32 0.0014238 -138.69 -138.69 -0.81536 1.3356 1.9506 1931.7 -0.0075484 1800.3 0.19658 5.4822e-05 18241. 372.60 394.38 3.7990 0.80522 0.99378 163.96 2.7367 3.1505 0.0032474
-156.62 0.00021364 5.1387e-07 -136.74 -136.74 -0.79854 701.31 0.0014259 -136.74 -136.74 -0.79854 1.3354 1.9520 1924.9 -0.0075393 1730.5 0.19611 6.7040e-05 14916. 373.41 395.38 3.7680 0.80878 0.99734 164.60 2.6752 3.1780 0.0033033
-155.62 0.00026248 6.2580e-07 -134.79 -134.79 -0.78185 700.30 0.0014280 -134.79 -134.79 -0.78185 1.3352 1.9534 1918.1 -0.0075302 1664.9 0.19564 8.1666e-05 12245. 374.22 396.38 3.7377 0.81232 1.0009 165.24 2.6157 3.2055 0.0033595
-154.62 0.00032125 7.5926e-07 -132.83 -132.83 -0.76529 699.29 0.0014300 -132.83 -132.83 -0.76530 1.3350 1.9548 1911.3 -0.0075209 1603.3 0.19516 9.9109e-05 10090. 375.03 397.38 3.7081 0.81585 1.0044 165.87 2.5580 3.2330 0.0034160
-153.62 0.00039171 9.1781e-07 -130.88 -130.88 -0.74886 698.27 0.0014321 -130.88 -130.88 -0.74887 1.3349 1.9563 1904.5 -0.0075114 1545.3 0.19468 0.00011984 8344.6 375.85 398.39 3.6792 0.81935 1.0079 166.50 2.5022 3.2606 0.0034727
-152.62 0.00047590 1.1055e-06 -128.92 -128.92 -0.73256 697.26 0.0014342 -128.92 -128.92 -0.73256 1.3348 1.9577 1897.8 -0.0075019 1490.6 0.19419 0.00014439 6925.9 376.67 399.40 3.6509 0.82284 1.0114 167.13 2.4481 3.2881 0.0035298
-151.62 0.00057613 1.3270e-06 -126.96 -126.96 -0.71637 696.25 0.0014363 -126.96 -126.96 -0.71638 1.3346 1.9592 1891.0 -0.0074922 1438.9 0.19370 0.00017336 5768.4 377.49 400.41 3.6232 0.82631 1.0149 167.76 2.3957 3.3156 0.0035872
-150.62 0.00069507 1.5874e-06 -125.00 -125.00 -0.70031 695.24 0.0014384 -125.00 -125.00 -0.70032 1.3345 1.9606 1884.2 -0.0074824 1390.2 0.19320 0.00020744 4820.7 378.32 401.42 3.5962 0.82976 1.0183 168.38 2.3448 3.3431 0.0036448
-149.62 0.00083574 1.8927e-06 -123.04 -123.04 -0.68437 694.23 0.0014404 -123.04 -123.04 -0.68438 1.3345 1.9621 1877.4 -0.0074724 1344.0 0.19270 0.00024740 4042.0 379.15 402.44 3.5697 0.83319 1.0218 169.00 2.2956 3.3706 0.0037027
-148.62 0.0010016 2.2495e-06 -121.08 -121.08 -0.66854 693.22 0.0014425 -121.08 -121.08 -0.66855 1.3344 1.9636 1870.7 -0.0074623 1300.3 0.19220 0.00029412 3400.0 379.99 403.47 3.5438 0.83661 1.0252 169.62 2.2478 3.3982 0.0037610
-147.62 0.0011965 2.6652e-06 -119.11 -119.11 -0.65283 692.21 0.0014447 -119.11 -119.11 -0.65284 1.3343 1.9651 1863.9 -0.0074521 1258.9 0.19169 0.00034856 2869.0 380.83 404.49 3.5185 0.84001 1.0286 170.24 2.2014 3.4257 0.0038195
-146.62 0.0014249 3.1480e-06 -117.15 -117.15 -0.63723 691.20 0.0014468 -117.15 -117.15 -0.63724 1.3343 1.9666 1857.2 -0.0074417 1219.6 0.19117 0.00041181 2428.3 381.67 405.52 3.4938 0.84340 1.0320 170.85 2.1565 3.4532 0.0038783
-145.62 0.0016917 3.7071e-06 -115.18 -115.18 -0.62173 690.19 0.0014489 -115.18 -115.18 -0.62175 1.3343 1.9682 1850.4 -0.0074312 1182.3 0.19066 0.00048510 2061.4 382.51 406.56 3.4695 0.84677 1.0353 171.46 2.1128 3.4807 0.0039374
-144.62 0.0020026 4.3529e-06 -113.21 -113.21 -0.60635 689.18 0.0014510 -113.21 -113.21 -0.60637 1.3343 1.9697 1843.7 -0.0074206 1146.8 0.19014 0.00056976 1755.1 383.36 407.59 3.4458 0.85012 1.0387 172.07 2.0705 3.5082 0.0039967
-143.62 0.0023637 5.0968e-06 -111.24 -111.24 -0.59108 688.17 0.0014531 -111.24 -111.24 -0.59110 1.3343 1.9713 1836.9 -0.0074098 1113.0 0.18962 0.00066731 1498.6 384.21 408.63 3.4226 0.85346 1.0420 172.68 2.0294 3.5358 0.0040564
-142.62 0.0027820 5.9512e-06 -109.27 -109.27 -0.57591 687.16 0.0014553 -109.27 -109.27 -0.57593 1.3343 1.9728 1830.2 -0.0073988 1080.8 0.18909 0.00077939 1283.1 385.07 409.68 3.3999 0.85679 1.0454 173.28 1.9896 3.5633 0.0041164
-141.62 0.0032653 6.9300e-06 -107.29 -107.29 -0.56084 686.15 0.0014574 -107.30 -107.30 -0.56087 1.3343 1.9744 1823.5 -0.0073878 1050.1 0.18856 0.00090784 1101.5 385.93 410.72 3.3777 0.86011 1.0487 173.88 1.9508 3.5908 0.0041766
-140.62 0.0038222 8.0486e-06 -105.32 -105.32 -0.54588 685.14 0.0014596 -105.32 -105.32 -0.54591 1.3344 1.9760 1816.7 -0.0073765 1020.7 0.18803 0.0010547 948.16 386.79 411.77 3.3560 0.86341 1.0520 174.48 1.9133 3.6183 0.0042372
-139.62 0.0044623 9.3237e-06 -103.34 -103.34 -0.53101 684.13 0.0014617 -103.34 -103.34 -0.53105 1.3344 1.9776 1810.0 -0.0073651 992.74 0.18749 0.0012221 818.26 387.65 412.83 3.3347 0.86670 1.0553 175.08 1.8768 3.6459 0.0042980
-138.62 0.0051963 1.0774e-05 -101.36 -101.36 -0.51624 683.12 0.0014639 -101.37 -101.37 -0.51629 1.3345 1.9792 1803.3 -0.0073536 965.97 0.18695 0.0014125 707.94 388.52 413.88 3.3139 0.86998 1.0586 175.67 1.8413 3.6734 0.0043592
-137.62 0.0060358 1.2418e-05 -99.380 -99.380 -0.50157 682.11 0.0014660 -99.386 -99.386 -0.50162 1.3346 1.9808 1796.6 -0.0073419 940.35 0.18641 0.0016287 614.00 389.39 414.94 3.2935 0.87325 1.0619 176.26 1.8069 3.7009 0.0044206
-136.62 0.0069938 1.4280e-05 -97.397 -97.397 -0.48700 681.10 0.0014682 -97.404 -97.404 -0.48705 1.3347 1.9825 1789.9 -0.0073301 915.81 0.18586 0.0018733 533.80 390.26 416.00 3.2735 0.87650 1.0651 176.85 1.7734 3.7284 0.0044823
-135.62 0.0080843 1.6382e-05 -95.413 -95.413 -0.47252 680.09 0.0014704 -95.421 -95.421 -0.47258 1.3348 1.9841 1783.2 -0.0073180 892.30 0.18531 0.0021497 465.17 391.14 417.07 3.2540 0.87975 1.0684 177.44 1.7409 3.7559 0.0045443
-134.62 0.0093230 1.8751e-05 -93.427 -93.426 -0.45813 679.08 0.0014726 -93.436 -93.436 -0.45820 1.3350 1.9858 1776.5 -0.0073059 869.75 0.18476 0.0024613 406.30 392.02 418.14 3.2348 0.88299 1.0716 178.02 1.7093 3.7834 0.0046066
-133.62 0.010727 2.1414e-05 -91.439 -91.438 -0.44383 678.07 0.0014748 -91.450 -91.449 -0.44391 1.3351 1.9875 1769.8 -0.0072935 848.11 0.18421 0.0028116 355.67 392.91 419.21 3.2161 0.88622 1.0749 178.61 1.6786 3.8109 0.0046691
-132.62 0.012315 2.4402e-05 -89.449 -89.449 -0.42962 677.06 0.0014770 -89.461 -89.461 -0.42971 1.3353 1.9892 1763.1 -0.0072810 827.32 0.18365 0.0032049 312.03 393.79 420.29 3.1977 0.88944 1.0781 179.19 1.6488 3.8385 0.0047320
-131.62 0.014106 2.7747e-05 -87.458 -87.457 -0.41550 676.04 0.0014792 -87.471 -87.471 -0.41560 1.3354 1.9909 1756.4 -0.0072684 807.34 0.18309 0.0036453 274.33 394.68 421.36 3.1798 0.89266 1.0813 179.76 1.6197 3.8660 0.0047951
-130.62 0.016124 3.1485e-05 -85.464 -85.463 -0.40146 675.03 0.0014814 -85.479 -85.479 -0.40157 1.3356 1.9926 1749.7 -0.0072555 788.12 0.18253 0.0041375 241.69 395.58 422.44 3.1622 0.89586 1.0846 180.34 1.5915 3.8935 0.0048586
-129.62 0.018392 3.5653e-05 -83.469 -83.468 -0.38751 674.02 0.0014836 -83.486 -83.486 -0.38763 1.3358 1.9944 1743.0 -0.0072425 769.63 0.18196 0.0046867 213.37 396.47 423.53 3.1450 0.89906 1.0878 180.91 1.5641 3.9210 0.0049223
-128.62 0.020935 4.0293e-05 -81.471 -81.470 -0.37364 673.01 0.0014859 -81.491 -81.490 -0.37378 1.3360 1.9961 1736.3 -0.0072294 751.83 0.18140 0.0052981 188.75 397.37 424.62 3.1281 0.90226 1.0910 181.48 1.5374 3.9485 0.0049863
-127.62 0.023783 4.5447e-05 -79.472 -79.470 -0.35985 672.00 0.0014881 -79.494 -79.493 -0.36001 1.3363 1.9979 1729.6 -0.0072160 734.67 0.18083 0.0059776 167.29 398.27 425.71 3.1116 0.90545 1.0942 182.05 1.5114 3.9760 0.0050506
-126.62 0.026966 5.1162e-05 -77.470 -77.469 -0.34615 670.98 0.0014904 -77.495 -77.495 -0.34632 1.3365 1.9997 1722.9 -0.0072025 718.14 0.18025 0.0067313 148.56 399.18 426.80 3.0954 0.90863 1.0974 182.62 1.4861 4.0035 0.0051152
-125.62 0.030515 5.7489e-05 -75.467 -75.465 -0.33252 669.97 0.0014926 -75.494 -75.494 -0.33272 1.3368 2.0015 1716.2 -0.0071888 702.18 0.17968 0.0075660 132.17 400.09 427.89 3.0795 0.91181 1.1006 183.18 1.4615 4.0310 0.0051800
-124.62 0.034467 6.4480e-05 -73.461 -73.459 -0.31897 668.95 0.0014949 -73.492 -73.492 -0.31919 1.3371 2.0033 1709.5 -0.0071749 686.79 0.17910 0.0084885 117.81 401.00 428.99 3.0640 0.91499 1.1038 183.74 1.4375 4.0584 0.0052452
-123.62 0.038859 7.2191e-05 -71.453 -71.451 -0.30550 667.94 0.0014971 -71.488 -71.487 -0.30574 1.3374 2.0051 1702.8 -0.0071609 671.93 0.17852 0.0095065 105.19 401.91 430.10 3.0488 0.91816 1.1070 184.30 1.4141 4.0859 0.0053106
-122.62 0.043731 8.0683e-05 -69.443 -69.441 -0.29210 666.92 0.0014994 -69.482 -69.481 -0.29237 1.3377 2.0070 1696.2 -0.0071466 657.57 0.17794 0.010628 94.092 402.83 431.20 3.0339 0.92134 1.1102 184.86 1.3913 4.1134 0.0053764
-121.62 0.049128 9.0019e-05 -67.431 -67.428 -0.27878 665.91 0.0015017 -67.474 -67.473 -0.27907 1.3380 2.0089 1689.5 -0.0071322 643.70 0.17736 0.011861 84.309 403.75 432.31 3.0193 0.92451 1.1134 185.41 1.3691 4.1409 0.0054424
-120.62 0.055096 0.00010027 -65.417 -65.413 -0.26552 664.89 0.0015040 -65.464 -65.463 -0.26585 1.3384 2.0107 1682.8 -0.0071176 630.28 0.17678 0.013215 75.669 404.67 433.42 3.0050 0.92767 1.1166 185.96 1.3475 4.1683 0.0055087
-119.62 0.061684 0.00011150 -63.400 -63.396 -0.25234 663.87 0.0015063 -63.452 -63.452 -0.25271 1.3387 2.0126 1676.1 -0.0071028 617.30 0.17619 0.014700 68.027 405.60 434.53 2.9909 0.93084 1.1198 186.51 1.3264 4.1958 0.0055752
-118.62 0.068946 0.00012378 -61.381 -61.376 -0.23924 662.86 0.0015086 -61.439 -61.438 -0.23963 1.3391 2.0146 1669.4 -0.0070878 604.74 0.17560 0.016325 61.255 406.53 435.64 2.9772 0.93401 1.1231 187.06 1.3058 4.2233 0.0056421
-117.62 0.076937 0.00013721 -59.359 -59.354 -0.22619 661.84 0.0015109 -59.423 -59.422 -0.22663 1.3395 2.0165 1662.8 -0.0070726 592.58 0.17501 0.018101 55.245 407.46 436.76 2.9638 0.93718 1.1263 187.60 1.2857 4.2507 0.0057092
-116.62 0.085718 0.00015186 -57.335 -57.330 -0.21322 660.82 0.0015133 -57.406 -57.405 -0.21370 1.3400 2.0184 1656.1 -0.0070573 580.80 0.17442 0.020040 49.901 408.39 437.88 2.9506 0.94035 1.1295 188.14 1.2660 4.2782 0.0057767
-115.62 0.095353 0.00016781 -55.308 -55.302 -0.20031 659.80 0.0015156 -55.386 -55.385 -0.20084 1.3404 2.0204 1649.4 -0.0070417 569.38 0.17383 0.022152 45.142 409.33 439.01 2.9377 0.94352 1.1327 188.68 1.2468 4.3056 0.0058444
-114.62 0.10591 0.00018517 -53.279 -53.272 -0.18747 658.78 0.0015180 -53.365 -53.364 -0.18805 1.3409 2.0224 1642.7 -0.0070260 558.32 0.17323 0.024451 40.898 410.27 440.13 2.9250 0.94669 1.1360 189.22 1.2281 4.3330 0.0059123
-113.62 0.11746 0.00020403 -51.247 -51.240 -0.17470 657.76 0.0015203 -51.342 -51.340 -0.17533 1.3413 2.0244 1636.0 -0.0070100 547.59 0.17264 0.026949 37.107 411.21 441.26 2.9126 0.94987 1.1392 189.75 1.2097 4.3604 0.0059806
-112.62 0.13008 0.00022449 -49.213 -49.204 -0.16198 656.73 0.0015227 -49.316 -49.315 -0.16267 1.3418 2.0264 1629.3 -0.0069938 537.18 0.17204 0.029661 33.715 412.16 442.39 2.9005 0.95305 1.1424 190.28 1.1918 4.3879 0.0060491
-111.62 0.14384 0.00024666 -47.175 -47.166 -0.14933 655.71 0.0015251 -47.289 -47.287 -0.15008 1.3424 2.0285 1622.7 -0.0069774 527.08 0.17144 0.032600 30.675 413.10 443.53 2.8885 0.95623 1.1457 190.81 1.1742 4.4153 0.0061180
-110.62 0.15884 0.00027064 -45.135 -45.125 -0.13674 654.69 0.0015274 -45.259 -45.258 -0.13755 1.3429 2.0305 1616.0 -0.0069609 517.28 0.17084 0.035781 27.948 414.06 444.66 2.8769 0.95942 1.1490 191.34 1.1570 4.4427 0.0061871
-109.62 0.17516 0.00029656 -43.092 -43.081 -0.12420 653.66 0.0015298 -43.228 -43.226 -0.12509 1.3435 2.0326 1609.3 -0.0069441 507.76 0.17024 0.039220 25.497 415.01 445.80 2.8654 0.96261 1.1522 191.86 1.1402 4.4701 0.0062564
-108.62 0.19290 0.00032454 -41.046 -41.034 -0.11173 652.64 0.0015322 -41.194 -41.192 -0.11269 1.3441 2.0347 1602.6 -0.0069271 498.51 0.16964 0.042933 23.292 415.96 446.94 2.8542 0.96581 1.1555 192.38 1.1236 4.4974 0.0063261
-107.62 0.21215 0.00035469 -38.997 -38.983 -0.099313 651.61 0.0015347 -39.158 -39.156 -0.10036 1.3447 2.0369 1595.9 -0.0069098 489.52 0.16903 0.046937 21.305 416.92 448.09 2.8433 0.96901 1.1588 192.90 1.1075 4.5248 0.0063960
-106.62 0.23301 0.00038717 -36.944 -36.930 -0.086952 650.58 0.0015371 -37.120 -37.118 -0.088082 1.3453 2.0390 1589.2 -0.0068924 480.79 0.16843 0.051250 19.512 417.88 449.23 2.8325 0.97222 1.1621 193.41 1.0916 4.5522 0.0064662
-105.62 0.25561 0.00042209 -34.889 -34.873 -0.074645 649.55 0.0015395 -35.080 -35.078 -0.075868 1.3460 2.0412 1582.6 -0.0068747 472.30 0.16782 0.055891 17.892 418.85 450.38 2.8220 0.97544 1.1655 193.93 1.0760 4.5795 0.0065367
-104.62 0.28004 0.00045961 -32.830 -32.813 -0.062393 648.52 0.0015420 -33.038 -33.035 -0.063714 1.3467 2.0434 1575.9 -0.0068569 464.04 0.16721 0.060878 16.426 419.81 451.53 2.8116 0.97867 1.1688 194.44 1.0608 4.6069 0.0066074
-103.62 0.30643 0.00049986 -30.768 -30.749 -0.050193 647.49 0.0015444 -30.994 -30.991 -0.051619 1.3474 2.0456 1569.2 -0.0068387 456.00 0.16660 0.066231 15.099 420.78 452.68 2.8015 0.98191 1.1722 194.94 1.0458 4.6342 0.0066785
-102.62 0.33490 0.00054301 -28.702 -28.681 -0.038044 646.46 0.0015469 -28.947 -28.944 -0.039582 1.3481 2.0478 1562.5 -0.0068204 448.18 0.16600 0.071971 13.894 421.75 453.84 2.7916 0.98516 1.1755 195.44 1.0310 4.6615 0.0067498
-101.62 0.36558 0.00058922 -26.633 -26.611 -0.025946 645.43 0.0015494 -26.898 -26.894 -0.027602 1.3489 2.0501 1555.8 -0.0068018 440.57 0.16539 0.078120 12.801 422.73 454.99 2.7818 0.98841 1.1789 195.95 1.0166 4.6888 0.0068213
-100.62 0.39862 0.00063863 -24.561 -24.536 -0.013898 644.39 0.0015519 -24.847 -24.843 -0.015678 1.3497 2.0524 1549.1 -0.0067830 433.16 0.16478 0.084699 11.807 423.70 456.15 2.7723 0.99168 1.1823 196.44 1.0024 4.7161 0.0068932
-99.625 0.43414 0.00069143 -22.484 -22.457 -0.0018972 643.36 0.0015544 -22.794 -22.789 -0.0038103 1.3505 2.0547 1542.4 -0.0067639 425.95 0.16416 0.091731 10.901 424.68 457.31 2.7630 0.99496 1.1858 196.94 0.98838 4.7434 0.0069653
-98.625 0.47230 0.00074780 -20.404 -20.375 0.010056 642.32 0.0015569 -20.738 -20.733 0.0080027 1.3514 2.0570 1535.7 -0.0067447 418.92 0.16355 0.099240 10.077 425.66 458.48 2.7538 0.99825 1.1892 197.43 0.97464 4.7707 0.0070377
-97.625 0.51325 0.00080790 -18.320 -18.288 0.021963 641.28 0.0015594 -18.680 -18.674 0.019762 1.3522 2.0594 1529.0 -0.0067251 412.07 0.16294 0.10725 9.3239 426.65 459.64 2.7448 1.0016 1.1927 197.92 0.96112 4.7979 0.0071103
-96.625 0.55714 0.00087193 -16.232 -16.197 0.033825 640.24 0.0015619 -16.620 -16.614 0.031467 1.3531 2.0618 1522.3 -0.0067053 405.39 0.16233 0.11579 8.6365 427.63 460.81 2.7360 1.0049 1.1962 198.40 0.94783 4.8251 0.0071832
-95.625 0.60416 0.00094007 -14.140 -14.102 0.045643 639.20 0.0015645 -14.557 -14.550 0.043120 1.3540 2.0642 1515.7 -0.0066853 398.88 0.16171 0.12488 8.0078 428.62 461.98 2.7274 1.0082 1.1997 198.88 0.93475 4.8524 0.0072564
-94.625 0.65446 0.0010125 -12.044 -12.003 0.057419 638.16 0.0015670 -12.491 -12.484 0.054721 1.3550 2.0667 1509.0 -0.0066650 392.53 0.16110 0.13455 7.4323 429.61 463.15 2.7189 1.0116 1.2032 199.36 0.92188 4.8796 0.0073299
-93.625 0.70822 0.0010895 -9.9432 -9.8988 0.069152 637.12 0.0015696 -10.424 -10.416 0.066271 1.3560 2.0691 1502.3 -0.0066444 386.34 0.16048 0.14482 6.9050 430.60 464.32 2.7107 1.0149 1.2068 199.83 0.90921 4.9068 0.0074036
-92.625 0.76564 0.0011712 -7.8382 -7.7903 0.080845 636.07 0.0015722 -8.3535 -8.3452 0.077771 1.3570 2.0716 1495.6 -0.0066236 380.31 0.15987 0.15573 6.4212 431.60 465.49 2.7025 1.0183 1.2104 200.30 0.89673 4.9340 0.0074776
-91.625 0.82689 0.0012579 -5.7288 -5.6770 0.092497 635.02 0.0015747 -6.2808 -6.2719 0.089220 1.3580 2.0742 1488.9 -0.0066025 374.41 0.15925 0.16731 5.9769 432.59 466.67 2.6946 1.0217 1.2140 200.77 0.88445 4.9611 0.0075518
-90.625 0.89218 0.0013497 -3.6148 -3.5588 0.10411 633.98 0.0015773 -4.2056 -4.1959 0.10062 1.3591 2.0767 1482.2 -0.0065811 368.66 0.15864 0.17958 5.5685 433.59 467.84 2.6868 1.0251 1.2177 201.24 0.87236 4.9883 0.0076263
-89.625 0.96172 0.0014469 -1.4960 -1.4357 0.11569 632.93 0.0015800 -2.1279 -2.1174 0.11197 1.3602 2.0793 1475.5 -0.0065595 363.05 0.15802 0.19258 5.1928 434.59 469.02 2.6791 1.0285 1.2213 201.70 0.86045 5.0154 0.0077011
-88.625 1.0357 0.0015497 0.62759 0.69251 0.12723 631.88 0.0015826 -0.047516 -0.036215 0.12328 1.3613 2.0819 1468.8 -0.0065375 357.56 0.15740 0.20633 4.8466 435.59 470.20 2.6717 1.0320 1.2250 202.15 0.84873 5.0425 0.0077761
-87.625 1.1144 0.0016584 2.7561 2.8260 0.13873 630.83 0.0015852 2.0355 2.0476 0.13454 1.3625 2.0846 1462.1 -0.0065153 352.21 0.15679 0.22087 4.5276 436.60 471.39 2.6643 1.0354 1.2288 202.61 0.83718 5.0696 0.0078514
-86.625 1.1979 0.0017731 4.8897 4.9648 0.15020 629.77 0.0015879 4.1211 4.1342 0.14575 1.3637 2.0873 1455.4 -0.0064928 346.98 0.15617 0.23623 4.2331 437.61 472.57 2.6571 1.0389 1.2325 203.06 0.82580 5.0967 0.0079270
-85.625 1.2866 0.0018942 7.0284 7.1091 0.16164 628.72 0.0015905 6.2094 6.2235 0.15691 1.3649 2.0900 1448.8 -0.0064701 341.87 0.15555 0.25245 3.9612 438.61 473.75 2.6501 1.0424 1.2363 203.50 0.81460 5.1237 0.0080028
-84.625 1.3806 0.0020220 9.1725 9.2590 0.17304 627.66 0.0015932 8.3004 8.3155 0.16803 1.3661 2.0927 1442.1 -0.0064470 336.87 0.15494 0.26956 3.7097 439.63 474.94 2.6432 1.0460 1.2402 203.95 0.80356 5.1508 0.0080789
-83.625 1.4803 0.0021565 11.322 11.415 0.18441 626.60 0.0015959 10.394 10.410 0.17911 1.3674 2.0955 1435.4 -0.0064236 331.99 0.15432 0.28760 3.4771 440.64 476.13 2.6364 1.0495 1.2440 204.38 0.79269 5.1778 0.0081553
-82.625 1.5858 0.0022982 13.477 13.576 0.19575 625.54 0.0015986 12.491 12.508 0.19014 1.3687 2.0983 1428.7 -0.0063999 327.22 0.15370 0.30659 3.2616 441.65 477.31 2.6298 1.0531 1.2479 204.82 0.78199 5.2048 0.0082319
-81.625 1.6975 0.0024473 15.638 15.744 0.20706 624.48 0.0016013 14.590 14.609 0.20113 1.3700 2.1012 1422.0 -0.0063759 322.55 0.15309 0.32659 3.0619 442.67 478.50 2.6233 1.0567 1.2519 205.25 0.77144 5.2318 0.0083088
-80.625 1.8155 0.0026041 17.804 17.918 0.21834 623.42 0.0016041 16.692 16.712 0.21208 1.3714 2.1041 1415.4 -0.0063516 317.99 0.15247 0.34763 2.8766 443.69 479.70 2.6169 1.0603 1.2558 205.67 0.76106 5.2587 0.0083860
-79.625 1.9402 0.0027688 19.976 20.098 0.22960 622.36 0.0016068 18.797 18.819 0.22299 1.3728 2.1070 1408.7 -0.0063270 313.52 0.15186 0.36974 2.7046 444.71 480.89 2.6106 1.0639 1.2598 206.10 0.75083 5.2857 0.0084634
-78.625 2.0718 0.0029418 22.155 22.285 0.24083 621.29 0.0016096 20.905 20.928 0.23385 1.3742 2.1099 1402.0 -0.0063021 309.15 0.15124 0.39296 2.5448 445.73 482.08 2.6045 1.0676 1.2639 206.51 0.74076 5.3126 0.0085411
-77.625 2.2107 0.0031233 24.339 24.478 0.25203 620.22 0.0016123 23.016 23.040 0.24468 1.3757 2.1129 1395.3 -0.0062768 304.88 0.15062 0.41735 2.3961 446.75 483.27 2.5985 1.0712 1.2680 206.93 0.73084 5.3395 0.0086190
-76.625 2.3571 0.0033136 26.530 26.678 0.26320 619.15 0.0016151 25.130 25.156 0.25546 1.3772 2.1159 1388.7 -0.0062512 300.69 0.15001 0.44292 2.2577 447.78 484.47 2.5926 1.0749 1.2721 207.34 0.72107 5.3664 0.0086972
-75.625 2.5113 0.0035130 28.727 28.885 0.27436 618.08 0.0016179 27.247 27.275 0.26620 1.3787 2.1190 1382.0 -0.0062253 296.59 0.14939 0.46974 2.1288 448.81 485.67 2.5869 1.0787 1.2762 207.74 0.71146 5.3933 0.0087757
-74.625 2.6736 0.0037219 30.931 31.099 0.28549 617.01 0.0016207 29.366 29.396 0.27691 1.3802 2.1221 1375.4 -0.0061990 292.58 0.14878 0.49783 2.0087 449.83 486.86 2.5812 1.0824 1.2804 208.14 0.70200 5.4201 0.0088544
-73.625 2.8444 0.0039406 33.142 33.320 0.29659 615.93 0.0016236 31.489 31.521 0.28758 1.3818 2.1252 1368.7 -0.0061724 288.65 0.14816 0.52725 1.8966 450.86 488.06 2.5757 1.0862 1.2847 208.54 0.69268 5.4469 0.0089334
-72.625 3.0240 0.0041693 35.359 35.549 0.30768 614.85 0.0016264 33.615 33.649 0.29821 1.3834 2.1284 1362.0 -0.0061454 284.81 0.14755 0.55804 1.7920 451.90 489.26 2.5703 1.0900 1.2889 208.93 0.68351 5.4737 0.0090126
-71.625 3.2127 0.0044084 37.584 37.785 0.31874 613.78 0.0016293 35.745 35.781 0.30880 1.3851 2.1316 1355.4 -0.0061181 281.03 0.14694 0.59024 1.6942 452.93 490.46 2.5650 1.0938 1.2932 209.32 0.67448 5.5005 0.0090922
-70.625 3.4108 0.0046583 39.815 40.029 0.32979 612.69 0.0016321 37.877 37.915 0.31935 1.3867 2.1349 1348.7 -0.0060904 277.34 0.14632 0.62390 1.6028 453.96 491.66 2.5598 1.0976 1.2976 209.70 0.66560 5.5273 0.0091720
-69.625 3.6187 0.0049192 42.054 42.281 0.34082 611.61 0.0016350 40.013 40.053 0.32987 1.3884 2.1382 1342.1 -0.0060624 273.72 0.14571 0.65906 1.5173 455.00 492.86 2.5547 1.1015 1.3020 210.08 0.65687 5.5540 0.0092520
-68.625 3.8367 0.0051915 44.300 44.541 0.35183 610.53 0.0016379 42.152 42.195 0.34036 1.3902 2.1415 1335.5 -0.0060339 270.17 0.14510 0.69577 1.4372 456.04 494.06 2.5497 1.1054 1.3064 210.45 0.64827 5.5807 0.0093324
-67.625 4.0652 0.0054756 46.554 46.809 0.36282 609.44 0.0016409 44.294 44.340 0.35080 1.3919 2.1449 1328.8 -0.0060051 266.69 0.14449 0.73408 1.3622 457.08 495.26 2.5448 1.1093 1.3109 210.82 0.63981 5.6074 0.0094130
-66.625 4.3046 0.0057717 48.815 49.085 0.37379 608.35 0.0016438 46.439 46.488 0.36122 1.3937 2.1483 1322.2 -0.0059760 263.28 0.14388 0.77404 1.2919 458.12 496.46 2.5400 1.1133 1.3154 211.18 0.63150 5.6341 0.0094939
-65.625 4.5551 0.0060803 51.085 51.370 0.38476 607.26 0.0016467 48.588 48.640 0.37160 1.3955 2.1518 1315.6 -0.0059464 259.93 0.14327 0.81570 1.2259 459.16 497.67 2.5353 1.1172 1.3200 211.54 0.62332 5.6608 0.0095750
-64.625 4.8173 0.0064018 53.362 53.664 0.39570 606.16 0.0016497 50.740 50.795 0.38195 1.3974 2.1553 1308.9 -0.0059164 256.65 0.14266 0.85910 1.1640 460.21 498.87 2.5307 1.1212 1.3246 211.89 0.61527 5.6874 0.0096564
-63.625 5.0915 0.0067364 55.647 55.966 0.40664 605.07 0.0016527 52.896 52.954 0.39226 1.3993 2.1588 1302.3 -0.0058861 253.42 0.14205 0.90429 1.1058 461.25 500.07 2.5262 1.1252 1.3293 212.24 0.60736 5.7140 0.0097382
-62.625 5.3781 0.0070846 57.941 58.278 0.41756 603.97 0.0016557 55.055 55.117 0.40254 1.4012 2.1624 1295.7 -0.0058553 250.26 0.14144 0.95134 1.0511 462.30 501.28 2.5218 1.1293 1.3340 212.58 0.59958 5.7406 0.0098201
-61.625 5.6774 0.0074466 60.242 60.598 0.42846 602.87 0.0016587 57.218 57.283 0.41279 1.4031 2.1660 1289.1 -0.0058241 247.16 0.14084 1.0003 0.99972 463.35 502.48 2.5175 1.1333 1.3387 212.92 0.59194 5.7672 0.0099024
-60.625 5.9899 0.0078230 62.553 62.928 0.43936 601.77 0.0016618 59.385 59.453 0.42301 1.4051 2.1697 1282.5 -0.0057925 244.12 0.14023 1.0512 0.95131 464.40 503.68 2.5133 1.1374 1.3435 213.26 0.58442 5.7938 0.0099850
-59.625 6.3160 0.0082141 64.872 65.268 0.45025 600.66 0.0016648 61.554 61.627 0.43320 1.4071 2.1734 1275.9 -0.0057605 241.13 0.13962 1.1041 0.90573 465.45 504.89 2.5091 1.1415 1.3483 213.58 0.57704 5.8203 0.010068
-58.625 6.6561 0.0086203 67.200 67.617 0.46113 599.55 0.0016679 63.728 63.805 0.44335 1.4091 2.1772 1269.3 -0.0057280 238.19 0.13902 1.1591 0.86277 466.50 506.09 2.5051 1.1457 1.3532 213.90 0.56978 5.8468 0.010151
-57.625 7.0107 0.0090420 69.537 69.976 0.47199 598.44 0.0016710 65.905 65.986 0.45348 1.4111 2.1810 1262.7 -0.0056951 235.31 0.13842 1.2161 0.82228 467.55 507.30 2.5011 1.1498 1.3581 214.22 0.56265 5.8733 0.010234
-56.625 7.3801 0.0094795 71.883 72.346 0.48285 597.33 0.0016741 68.086 68.172 0.46358 1.4132 2.1848 1256.1 -0.0056617 232.48 0.13781 1.2754 0.78408 468.60 508.50 2.4972 1.1540 1.3631 214.53 0.55564 5.8998 0.010318
-55.625 7.7648 0.0099334 74.239 74.725 0.49371 596.22 0.0016772 70.271 70.361 0.47364 1.4153 2.1887 1249.5 -0.0056279 229.69 0.13721 1.3369 0.74802 469.66 509.71 2.4934 1.1582 1.3681 214.84 0.54875 5.9263 0.010402
-54.625 8.1652 0.010404 76.603 77.115 0.50455 595.10 0.0016804 72.460 72.554 0.48368 1.4174 2.1927 1242.9 -0.0055937 226.96 0.13661 1.4006 0.71396 470.72 510.91 2.4897 1.1624 1.3731 215.14 0.54199 5.9527 0.010486
-53.625 8.5819 0.010892 78.978 79.516 0.51539 593.98 0.0016836 74.652 74.752 0.49369 1.4196 2.1967 1236.3 -0.0055589 224.27 0.13601 1.4667 0.68178 471.77 512.11 2.4860 1.1667 1.3782 215.43 0.53535 5.9792 0.010571
-52.625 9.0151 0.011397 81.362 81.927 0.52623 592.86 0.0016867 76.849 76.954 0.50368 1.4218 2.2007 1229.8 -0.0055237 221.63 0.13541 1.5353 0.65136 472.83 513.32 2.4824 1.1710 1.3834 215.72 0.52882 6.0056 0.010656
-51.625 9.4655 0.011920 83.756 84.349 0.53706 591.73 0.0016900 79.049 79.159 0.51363 1.4240 2.2048 1223.2 -0.0054880 219.04 0.13482 1.6062 0.62258 473.89 514.52 2.4789 1.1752 1.3886 216.00 0.52241 6.0320 0.010741
-50.625 9.9335 0.012462 86.159 86.782 0.54789 590.60 0.0016932 81.253 81.369 0.52356 1.4262 2.2089 1216.6 -0.0054519 216.48 0.13422 1.6797 0.59534 474.95 515.73 2.4755 1.1796 1.3938 216.28 0.51612 6.0584 0.010827
-49.625 10.419 0.013022 88.573 89.227 0.55871 589.47 0.0016964 83.462 83.584 0.53347 1.4285 2.2131 1210.1 -0.0054152 213.98 0.13363 1.7558 0.56954 476.01 516.93 2.4722 1.1839 1.3991 216.55 0.50994 6.0848 0.010913
-48.625 10.924 0.013602 90.998 91.683 0.56953 588.34 0.0016997 85.674 85.802 0.54334 1.4308 2.2173 1203.5 -0.0053780 211.51 0.13303 1.8345 0.54510 477.07 518.13 2.4689 1.1883 1.4044 216.82 0.50387 6.1112 0.010999
-47.625 11.448 0.014201 93.433 94.150 0.58035 587.20 0.0017030 87.891 88.025 0.55319 1.4331 2.2216 1196.9 -0.0053403 209.08 0.13244 1.9159 0.52194 478.14 519.33 2.4657 1.1927 1.4098 217.08 0.49792 6.1375 0.011085
-46.625 11.991 0.014821 95.878 96.629 0.59117 586.06 0.0017063 90.111 90.252 0.56302 1.4354 2.2259 1190.4 -0.0053020 206.69 0.13185 2.0001 0.49997 479.20 520.53 2.4625 1.1971 1.4153 217.33 0.49207 6.1639 0.011172
-45.625 12.554 0.015461 98.334 99.121 0.60199 584.92 0.0017096 92.336 92.484 0.57282 1.4378 2.2303 1183.8 -0.0052633 204.34 0.13126 2.0872 0.47912 480.27 521.74 2.4594 1.2015 1.4207 217.58 0.48633 6.1902 0.011259
-44.625 13.137 0.016123 100.80 101.62 0.61281 583.77 0.0017130 94.565 94.720 0.58260 1.4402 2.2347 1177.3 -0.0052240 202.03 0.13067 2.1771 0.45933 481.33 522.94 2.4564 1.2060 1.4263 217.82 0.48069 6.2165 0.011347
-43.625 13.741 0.016806 103.28 104.14 0.62363 582.62 0.0017164 96.799 96.961 0.59235 1.4426 2.2392 1170.7 -0.0051841 199.75 0.13008 2.2700 0.44053 482.40 524.14 2.4535 1.2104 1.4319 218.05 0.47516 6.2429 0.011435
-42.625 14.367 0.017511 105.77 106.67 0.63445 581.47 0.0017198 99.036 99.207 0.60208 1.4450 2.2437 1164.2 -0.0051437 197.51 0.12949 2.3659 0.42267 483.46 525.33 2.4506 1.2149 1.4375 218.28 0.46973 6.2692 0.011523
-41.625 15.015 0.018238 108.27 109.21 0.64527 580.32 0.0017232 101.28 101.46 0.61179 1.4475 2.2483 1157.7 -0.0051027 195.30 0.12891 2.4649 0.40569 484.53 526.53 2.4478 1.2195 1.4432 218.50 0.46440 6.2955 0.011612
-40.625 15.686 0.018989 110.78 111.76 0.65610 579.16 0.0017266 103.52 103.71 0.62147 1.4500 2.2529 1151.1 -0.0050611 193.13 0.12832 2.5671 0.38954 485.60 527.73 2.4450 1.2240 1.4489 218.72 0.45917 6.3218 0.011701
-39.625 16.380 0.019763 113.30 114.33 0.66693 578.00 0.0017301 105.78 105.97 0.63113 1.4525 2.2576 1144.6 -0.0050189 190.99 0.12774 2.6725 0.37418 486.67 528.93 2.4423 1.2286 1.4547 218.93 0.45403 6.3481 0.011790
-38.625 17.097 0.020562 115.84 116.91 0.67776 576.83 0.0017336 108.03 108.24 0.64077 1.4550 2.2623 1138.0 -0.0049761 188.88 0.12716 2.7813 0.35955 487.74 530.12 2.4397 1.2332 1.4606 219.13 0.44900 6.3744 0.011880
-37.625 17.838 0.021385 118.39 119.50 0.68860 575.66 0.0017371 110.29 110.51 0.65039 1.4576 2.2671 1131.5 -0.0049327 186.81 0.12658 2.8934 0.34562 488.81 531.32 2.4371 1.2378 1.4665 219.33 0.44405 6.4007 0.011970
-36.625 18.604 0.022233 120.95 122.11 0.69944 574.49 0.0017407 112.56 112.78 0.65999 1.4602 2.2719 1125.0 -0.0048887 184.76 0.12600 3.0089 0.33235 489.88 532.51 2.4346 1.2424 1.4724 219.52 0.43920 6.4270 0.012060
-35.625 19.395 0.023106 123.52 124.73 0.71029 573.32 0.0017442 114.83 115.06 0.66956 1.4628 2.2768 1118.5 -0.0048440 182.75 0.12542 3.1280 0.31969 490.95 533.70 2.4321 1.2471 1.4784 219.70 0.43444 6.4533 0.012151
-34.625 20.212 0.024006 126.10 127.37 0.72114 572.14 0.0017478 117.10 117.34 0.67912 1.4654 2.2818 1111.9 -0.0047987 180.76 0.12485 3.2506 0.30763 492.02 534.89 2.4297 1.2517 1.4845 219.88 0.42977 6.4797 0.012243
-33.625 21.056 0.024933 128.70 130.02 0.73200 570.96 0.0017514 119.38 119.63 0.68865 1.4681 2.2868 1105.4 -0.0047527 178.80 0.12427 3.3770 0.29612 493.09 536.08 2.4273 1.2564 1.4906 220.05 0.42519 6.5060 0.012334
-32.625 21.926 0.025886 131.30 132.68 0.74287 569.77 0.0017551 121.66 121.93 0.69817 1.4708 2.2918 1098.9 -0.0047061 176.87 0.12370 3.5071 0.28514 494.17 537.27 2.4250 1.2611 1.4968 220.21 0.42070 6.5323 0.012426
-31.625 22.823 0.026868 133.93 135.36 0.75375 568.58 0.0017588 123.95 124.23 0.70767 1.4735 2.2970 1092.3 -0.0046587 174.97 0.12313 3.6410 0.27465 495.24 538.46 2.4227 1.2659 1.5031 220.36 0.41629 6.5587 0.012519
-30.625 23.749 0.027878 136.56 138.05 0.76463 567.39 0.0017625 126.24 126.53 0.71714 1.4762 2.3021 1085.8 -0.0046107 173.09 0.12256 3.7787 0.26464 496.31 539.64 2.4205 1.2706 1.5094 220.51 0.41196 6.5850 0.012612
-29.625 24.703 0.028917 139.21 140.76 0.77552 566.19 0.0017662 128.54 128.84 0.72660 1.4790 2.3074 1079.3 -0.0045619 171.24 0.12200 3.9205 0.25507 497.38 540.83 2.4184 1.2754 1.5157 220.65 0.40772 6.6114 0.012706
-28.625 25.687 0.029985 141.87 143.48 0.78642 564.99 0.0017699 130.84 131.16 0.73604 1.4818 2.3126 1072.8 -0.0045124 169.42 0.12143 4.0663 0.24592 498.46 542.01 2.4162 1.2802 1.5222 220.79 0.40356 6.6378 0.012800
-27.625 26.700 0.031084 144.54 146.21 0.79734 563.78 0.0017737 133.15 133.48 0.74547 1.4846 2.3180 1066.2 -0.0044621 167.62 0.12087 4.2163 0.23717 499.53 543.19 2.4142 1.2850 1.5286 220.91 0.39947 6.6642 0.012894
-26.625 27.743 0.032213 147.23 148.97 0.80826 562.57 0.0017775 135.47 135.81 0.75487 1.4874 2.3234 1059.7 -0.0044111 165.84 0.12031 4.3705 0.22881 500.60 544.37 2.4122 1.2899 1.5352 221.03 0.39547 6.6906 0.012989
-25.625 28.817 0.033374 149.93 151.73 0.81919 561.36 0.0017814 137.78 138.14 0.76426 1.4902 2.3289 1053.2 -0.0043593 164.09 0.11975 4.5290 0.22080 501.68 545.55 2.4102 1.2947 1.5418 221.14 0.39154 6.7171 0.013084
-24.625 29.923 0.034566 152.64 154.52 0.83013 560.14 0.0017853 140.11 140.48 0.77363 1.4931 2.3344 1046.7 -0.0043067 162.36 0.11919 4.6918 0.21314 502.75 546.72 2.4083 1.2996 1.5485 221.25 0.38768 6.7436 0.013180
-23.625 31.061 0.035792 155.37 157.32 0.84109 558.92 0.0017892 142.44 142.82 0.78298 1.4960 2.3400 1040.1 -0.0042533 160.65 0.11863 4.8592 0.20580 503.82 547.90 2.4064 1.3045 1.5552 221.35 0.38391 6.7701 0.013277
-22.625 32.232 0.037050 158.11 160.13 0.85205 557.69 0.0017931 144.77 145.17 0.79232 1.4990 2.3457 1033.6 -0.0041990 158.97 0.11807 5.0311 0.19877 504.90 549.07 2.4045 1.3095 1.5621 221.44 0.38020 6.7967 0.013374
-21.625 33.435 0.038342 160.87 162.96 0.86303 556.46 0.0017971 147.11 147.52 0.80164 1.5019 2.3514 1027.1 -0.0041439 157.30 0.11752 5.2076 0.19203 505.97 550.24 2.4027 1.3144 1.5690 221.52 0.37656 6.8232 0.013471
-20.625 34.673 0.039669 163.64 165.81 0.87403 555.23 0.0018011 149.45 149.88 0.81095 1.5049 2.3572 1020.6 -0.0040879 155.66 0.11697 5.3889 0.18557 507.04 551.40 2.4010 1.3194 1.5759 221.59 0.37300 6.8499 0.013569
-19.625 35.946 0.041031 166.42 168.68 0.88503 553.99 0.0018051 151.80 152.25 0.82024 1.5079 2.3630 1014.0 -0.0040311 154.04 0.11642 5.5750 0.17937 508.11 552.57 2.3992 1.3244 1.5829 221.66 0.36950 6.8765 0.013668
-18.625 37.253 0.042429 169.22 171.56 0.89605 552.74 0.0018092 154.16 154.62 0.82952 1.5109 2.3689 1007.5 -0.0039733 152.44 0.11587 5.7660 0.17343 509.19 553.73 2.3976 1.3294 1.5901 221.72 0.36608 6.9032 0.013767
-17.625 38.596 0.043864 172.04 174.46 0.90708 551.49 0.0018133 156.52 157.00 0.83878 1.5140 2.3749 1001.0 -0.0039145 150.86 0.11532 5.9621 0.16773 510.26 554.89 2.3959 1.3345 1.5972 221.77 0.36272 6.9300 0.013867
-16.625 39.976 0.045336 174.87 177.37 0.91813 550.24 0.0018174 158.89 159.39 0.84803 1.5171 2.3810 994.44 -0.0038549 149.29 0.11478 6.1632 0.16225 511.33 556.05 2.3943 1.3395 1.6045 221.81 0.35942 6.9568 0.013968
-15.625 41.392 0.046846 177.71 180.30 0.92920 548.98 0.0018216 161.26 161.78 0.85726 1.5202 2.3871 987.91 -0.0037942 147.75 0.11423 6.3696 0.15700 512.40 557.20 2.3927 1.3446 1.6119 221.85 0.35619 6.9836 0.014069
-14.625 42.846 0.048395 180.57 183.25 0.94027 547.71 0.0018258 163.64 164.18 0.86649 1.5233 2.3933 981.37 -0.0037325 146.22 0.11369 6.5812 0.15195 513.47 558.36 2.3912 1.3497 1.6193 221.87 0.35302 7.0105 0.014170
-13.625 44.338 0.049983 183.44 186.22 0.95137 546.44 0.0018300 166.02 166.58 0.87569 1.5264 2.3996 974.83 -0.0036698 144.72 0.11315 6.7983 0.14710 514.54 559.51 2.3897 1.3549 1.6268 221.89 0.34992 7.0375 0.014273
-12.625 45.870 0.051612 186.33 189.21 0.96248 545.17 0.0018343 168.41 168.99 0.88489 1.5296 2.4059 968.29 -0.0036061 143.23 0.11261 7.0208 0.14243 515.61 560.65 2.3883 1.3600 1.6344 221.90 0.34688 7.0646 0.014376
-11.625 47.440 0.053282 189.23 192.21 0.97361 543.89 0.0018386 170.81 171.41 0.89407 1.5328 2.4124 961.75 -0.0035413 141.76 0.11208 7.2490 0.13795 516.68 561.80 2.3868 1.3652 1.6421 221.91 0.34389 7.0917 0.014479
-10.625 49.051 0.054994 192.15 195.23 0.98475 542.60 0.0018430 173.21 173.83 0.90324 1.5360 2.4189 955.20 -0.0034753 140.30 0.11154 7.4829 0.13364 517.75 562.94 2.3854 1.3704 1.6498 221.90 0.34097 7.1188 0.014584
-9.6250 50.703 0.056749 195.09 198.27 0.99591 541.31 0.0018474 175.61 176.26 0.91240 1.5393 2.4255 948.65 -0.0034082 138.86 0.11101 7.7226 0.12949 518.81 564.08 2.3841 1.3757 1.6577 221.88 0.33810 7.1461 0.014689
-8.6250 52.396 0.058547 198.04 201.33 1.0071 540.02 0.0018518 178.03 178.70 0.92154 1.5426 2.4321 942.10 -0.0033400 137.44 0.11048 7.9683 0.12550 519.88 565.21 2.3827 1.3809 1.6657 221.86 0.33529 7.1734 0.014795
-7.6250 54.131 0.060390 201.01 204.40 1.0183 538.72 0.0018563 180.45 181.14 0.93068 1.5459 2.4389 935.55 -0.0032705 136.03 0.10995 8.2200 0.12165 520.94 566.35 2.3814 1.3862 1.6737 221.83 0.33254 7.2008 0.014902
-6.6250 55.909 0.062279 203.99 207.50 1.0295 537.41 0.0018608 182.87 183.59 0.93980 1.5492 2.4457 928.99 -0.0031998 134.64 0.10942 8.4779 0.11795 522.01 567.48 2.3801 1.3915 1.6819 221.79 0.32984 7.2284 0.015009
-5.6250 57.730 0.064213 206.99 210.61 1.0407 536.10 0.0018653 185.30 186.05 0.94892 1.5525 2.4526 922.43 -0.0031279 133.27 0.10889 8.7420 0.11439 523.07 568.60 2.3789 1.3969 1.6902 221.74 0.32720 7.2560 0.015117
-4.6250 59.595 0.066195 210.01 213.75 1.0520 534.78 0.0018699 187.74 188.51 0.95802 1.5559 2.4596 915.87 -0.0030546 131.91 0.10837 9.0126 0.11096 524.13 569.72 2.3777 1.4022 1.6985 221.68 0.32461 7.2837 0.015226
-3.6250 61.505 0.068225 213.04 216.90 1.0633 533.45 0.0018746 190.19 190.98 0.96711 1.5593 2.4667 909.30 -0.0029800 130.56 0.10785 9.2896 0.10765 525.19 570.84 2.3765 1.4076 1.7070 221.62 0.32207 7.3115 0.015336
-2.6250 63.461 0.070304 216.09 220.07 1.0746 532.12 0.0018793 192.64 193.46 0.97620 1.5627 2.4739 902.73 -0.0029041 129.23 0.10733 9.5733 0.10446 526.25 571.96 2.3753 1.4131 1.7156 221.54 0.31958 7.3394 0.015447
-1.6250 65.462 0.072433 219.16 223.26 1.0859 530.78 0.0018840 195.10 195.95 0.98527 1.5662 2.4811 896.16 -0.0028267 127.91 0.10681 9.8638 0.10138 527.31 573.07 2.3742 1.4185 1.7243 221.45 0.31715 7.3674 0.015559
-0.62500 67.510 0.074614 222.24 226.47 1.0972 529.44 0.0018888 197.56 198.44 0.99434 1.5696 2.4885 889.58 -0.0027478 126.61 0.10629 10.161 0.098414 528.37 574.18 2.3731 1.4240 1.7331 221.36 0.31476 7.3956 0.015671
0.37500 69.606 0.076846 225.34 229.71 1.1086 528.09 0.0018936 200.03 200.94 1.0034 1.5731 2.4960 883.00 -0.0026675 125.32 0.10578 10.466 0.095552 529.42 575.28 2.3720 1.4295 1.7421 221.26 0.31242 7.4239 0.015785
1.3750 71.749 0.079132 228.46 232.96 1.1199 526.73 0.0018985 202.51 203.45 1.0124 1.5767 2.5035 876.42 -0.0025856 124.04 0.10527 10.777 0.092790 530.48 576.38 2.3709 1.4350 1.7512 221.14 0.31013 7.4523 0.015899
2.3750 73.941 0.081472 231.59 236.23 1.1313 525.37 0.0019034 204.99 205.96 1.0215 1.5802 2.5112 869.83 -0.0025022 122.78 0.10476 11.096 0.090123 531.53 577.47 2.3699 1.4406 1.7604 221.02 0.30789 7.4808 0.016015
3.3750 76.183 0.083868 234.75 239.52 1.1428 523.99 0.0019084 207.48 208.48 1.0305 1.5838 2.5190 863.24 -0.0024171 121.53 0.10425 11.422 0.087549 532.58 578.56 2.3688 1.4462 1.7697 220.89 0.30569 7.5095 0.016131
4.3750 78.475 0.086320 237.92 242.84 1.1542 522.62 0.0019134 209.98 211.01 1.0395 1.5874 2.5268 856.64 -0.0023303 120.29 0.10374 11.756 0.085062 533.63 579.65 2.3678 1.4518 1.7792 220.75 0.30354 7.5384 0.016249
5.3750 80.817 0.088831 241.10 246.17 1.1657 521.23 0.0019185 212.48 213.55 1.0486 1.5910 2.5348 850.04 -0.0022417 119.06 0.10324 12.098 0.082660 534.67 580.73 2.3669 1.4575 1.7888 220.60 0.30144 7.5674 0.016368
6.3750 83.211 0.091400 244.31 249.53 1.1772 519.84 0.0019237 215.00 216.10 1.0576 1.5946 2.5429 843.43 -0.0021514 117.85 0.10273 12.447 0.080340 535.72 581.81 2.3659 1.4632 1.7986 220.44 0.29938 7.5966 0.016487
7.3750 85.657 0.094030 247.53 252.90 1.1887 518.44 0.0019289 217.51 218.65 1.0666 1.5983 2.5511 836.82 -0.0020593 116.65 0.10223 12.805 0.078096 536.76 582.88 2.3650 1.4689 1.8085 220.27 0.29736 7.6259 0.016608
8.3750 88.156 0.096722 250.77 256.30 1.2002 517.03 0.0019341 220.04 221.22 1.0756 1.6020 2.5595 830.20 -0.0019652 115.46 0.10173 13.170 0.075928 537.80 583.95 2.3640 1.4746 1.8186 220.08 0.29538 7.6555 0.016730
9.3750 90.708 0.099477 254.03 259.72 1.2118 515.62 0.0019394 222.57 223.79 1.0846 1.6057 2.5679 823.58 -0.0018691 114.28 0.10124 13.545 0.073830 538.84 585.01 2.3631 1.4804 1.8288 219.89 0.29345 7.6852 0.016853
10.375 93.315 0.10230 257.31 263.16 1.2233 514.19 0.0019448 225.11 226.37 1.0936 1.6095 2.5765 816.96 -0.0017710 113.11 0.10074 13.927 0.071802 539.87 586.07 2.3622 1.4863 1.8392 219.69 0.29156 7.7151 0.016978
11.375 95.977 0.10518 260.61 266.63 1.2350 512.76 0.0019502 227.66 228.95 1.1025 1.6132 2.5852 810.32 -0.0016708 111.95 0.10025 14.319 0.069840 540.90 587.12 2.3614 1.4921 1.8498 219.48 0.28971 7.7452 0.017103
12.375 98.694 0.10813 263.92 270.11 1.2466 511.32 0.0019557 230.22 231.55 1.1115 1.6170 2.5940 803.68 -0.0015685 110.80 0.099756 14.719 0.067941 541.93 588.17 2.3605 1.4980 1.8605 219.26 0.28790 7.7756 0.017230
13.375 101.47 0.11116 267.26 273.62 1.2582 509.87 0.0019613 232.78 234.15 1.1205 1.6208 2.6030 797.04 -0.0014639 109.67 0.099267 15.128 0.066103 542.96 589.21 2.3597 1.5040 1.8715 219.03 0.28612 7.8061 0.017359
14.375 104.30 0.11425 270.61 277.15 1.2699 508.42 0.0019669 235.35 236.77 1.1295 1.6247 2.6121 790.39 -0.0013569 108.54 0.098779 15.547 0.064323 543.99 590.24 2.3588 1.5099 1.8826 218.79 0.28439 7.8369 0.017488
15.375 107.19 0.11741 273.99 280.70 1.2816 506.95 0.0019726 237.93 239.39 1.1384 1.6286 2.6214 783.73 -0.0012476 107.43 0.098294 15.974 0.062600 545.01 591.27 2.3580 1.5159 1.8940 218.53 0.28270 7.8680 0.017619
16.375 110.13 0.12065 277.38 284.28 1.2934 505.48 0.0019783 240.52 242.02 1.1474 1.6324 2.6308 777.07 -0.0011357 106.32 0.097810 16.412 0.060931 546.03 592.29 2.3572 1.5220 1.9055 218.27 0.28104 7.8993 0.017752
17.375 113.14 0.12396 280.79 287.88 1.3051 504.00 0.0019841 243.11 244.66 1.1564 1.6364 2.6403 770.40 -0.0010213 105.22 0.097328 16.859 0.059314 547.04 593.31 2.3564 1.5281 1.9172 217.99 0.27942 7.9308 0.017886
18.375 116.21 0.12735 284.22 291.50 1.3169 502.50 0.0019900 245.72 247.31 1.1653 1.6403 2.6501 763.72 -0.00090422 104.14 0.096848 17.317 0.057747 548.05 594.32 2.3557 1.5342 1.9292 217.71 0.27783 7.9626 0.018021
19.375 119.33 0.13082 287.67 295.15 1.3287 501.00 0.0019960 248.33 249.97 1.1743 1.6443 2.6599 757.04 -0.00078435 103.06 0.096371 17.785 0.056228 549.06 595.33 2.3549 1.5404 1.9414 217.41 0.27628 7.9947 0.018159
20.375 122.52 0.13438 291.14 298.82 1.3406 499.49 0.0020020 250.95 252.64 1.1832 1.6483 2.6700 750.35 -0.00066161 101.99 0.095895 18.263 0.054756 550.07 596.32 2.3541 1.5466 1.9538 217.10 0.27477 8.0272 0.018297
21.375 125.77 0.13801 294.63 302.51 1.3525 497.97 0.0020082 253.57 255.32 1.1922 1.6523 2.6802 743.64 -0.00053589 100.93 0.095420 18.752 0.053328 551.07 597.31 2.3534 1.5528 1.9665 216.78 0.27329 8.0599 0.018438
22.375 129.08 0.14173 298.14 306.23 1.3644 496.43 0.0020144 256.21 258.00 1.2012 1.6563 2.6906 736.94 -0.00040708 99.877 0.094948 19.252 0.051943 552.07 598.30 2.3526 1.5591 1.9795 216.45 0.27184 8.0929 0.018580
23.375 132.46 0.14554 301.67 309.98 1.3763 494.89 0.0020206 258.86 260.70 1.2101 1.6604 2.7012 730.22 -0.00027505 98.834 0.094478 19.763 0.050600 553.06 599.27 2.3519 1.5655 1.9927 216.11 0.27043 8.1263 0.018724
24.375 135.90 0.14944 305.23 313.74 1.3882 493.34 0.0020270 261.51 263.41 1.2191 1.6645 2.7120 723.49 -0.00013968 97.800 0.094009 20.285 0.049297 554.05 600.24 2.3512 1.5718 2.0061 215.75 0.26906 8.1600 0.018870
25.375 139.41 0.15343 308.80 317.54 1.4002 491.77 0.0020335 264.17 266.13 1.2280 1.6686 2.7230 716.76 -8.3775e-07 96.773 0.093543 20.820 0.048032 555.03 601.20 2.3504 1.5783 2.0199 215.39 0.26771 8.1941 0.019017
26.375 142.98 0.15751 312.39 321.35 1.4122 490.20 0.0020400 266.84 268.85 1.2370 1.6728 2.7342 710.01 0.00014161 95.755 0.093078 21.366 0.046804 556.01 602.15 2.3497 1.5847 2.0340 215.01 0.26640 8.2286 0.019167
27.375 146.62 0.16170 316.01 325.20 1.4243 488.61 0.0020466 269.52 271.59 1.2459 1.6770 2.7456 703.26 0.00028782 94.745 0.092615 21.924 0.045612 556.99 603.10 2.3490 1.5913 2.0484 214.62 0.26512 8.2634 0.019319
28.375 150.33 0.16598 319.64 329.06 1.4364 487.01 0.0020533 272.21 274.34 1.2549 1.6812 2.7573 696.49 0.00043793 93.742 0.092154 22.495 0.044454 557.96 604.03 2.3483 1.5978 2.0631 214.21 0.26387 8.2987 0.019472
29.375 154.10 0.17036 323.30 332.96 1.4485 485.40 0.0020601 274.91 277.10 1.2638 1.6854 2.7691 689.72 0.00059212 92.747 0.091695 23.079 0.043329 558.92 604.96 2.3476 1.6044 2.0781 213.80 0.26265 8.3344 0.019628
30.375 157.94 0.17486 326.98 336.88 1.4606 483.78 0.0020671 277.62 279.87 1.2728 1.6897 2.7813 682.93 0.00075055 91.760 0.091238 23.676 0.042237 559.88 605.88 2.3469 1.6111 2.0935 213.37 0.26147 8.3705 0.019786
31.375 161.86 0.17946 330.68 340.82 1.4728 482.15 0.0020741 280.34 282.66 1.2818 1.6939 2.7936 676.13 0.00091340 90.779 0.090782 24.287 0.041175 560.84 606.79 2.3462 1.6178 2.1092 212.93 0.26031 8.4071 0.019947
32.375 165.84 0.18417 334.40 344.80 1.4850 480.50 0.0020812 283.07 285.45 1.2908 1.6983 2.8063 669.32 0.0010809 89.806 0.090328 24.911 0.040143 561.79 607.69 2.3455 1.6246 2.1254 212.48 0.25919 8.4442 0.020110
33.375 169.90 0.18899 338.15 348.79 1.4972 478.83 0.0020884 285.81 288.26 1.2997 1.7026 2.8192 662.50 0.0012532 88.840 0.089876 25.549 0.039140 562.73 608.58 2.3448 1.6314 2.1419 212.01 0.25809 8.4818 0.020275
34.375 174.02 0.19394 341.91 352.82 1.5095 477.16 0.0020957 288.56 291.07 1.3087 1.7070 2.8324 655.67 0.0014305 87.880 0.089426 26.202 0.038164 563.67 609.46 2.3440 1.6383 2.1589 211.53 0.25702 8.5199 0.020443
35.375 178.22 0.19901 345.70 356.87 1.5218 475.47 0.0021032 291.32 293.90 1.3177 1.7114 2.8459 648.82 0.0016131 86.927 0.088977 26.870 0.037216 564.60 610.33 2.3433 1.6452 2.1763 211.04 0.25599 8.5586 0.020613
36.375 182.50 0.20420 349.52 360.95 1.5341 473.77 0.0021107 294.09 296.74 1.3267 1.7158 2.8597 641.96 0.0018012 85.980 0.088531 27.553 0.036293 565.52 611.19 2.3426 1.6522 2.1942 210.53 0.25498 8.5978 0.020786
37.375 186.84 0.20953 353.35 365.06 1.5465 472.05 0.0021184 296.87 299.60 1.3357 1.7203 2.8739 635.08 0.0019950 85.040 0.088085 28.252 0.035395 566.44 612.04 2.3419 1.6592 2.2125 210.01 0.25400 8.6376 0.020962
38.375 191.27 0.21499 357.21 369.20 1.5589 470.31 0.0021262 299.66 302.46 1.3447 1.7248 2.8884 628.19 0.0021949 84.105 0.087642 28.967 0.034522 567.35 612.88 2.3411 1.6663 2.2314 209.47 0.25305 8.6780 0.021141
39.375 195.77 0.22059 361.09 373.36 1.5714 468.56 0.0021342 302.46 305.34 1.3537 1.7293 2.9033 621.29 0.0024011 83.177 0.087200 29.699 0.033671 568.26 613.70 2.3404 1.6734 2.2508 208.92 0.25213 8.7190 0.021323
40.375 200.34 0.22633 365.00 377.56 1.5838 466.80 0.0021423 305.27 308.23 1.3627 1.7339 2.9185 614.37 0.0026140 82.254 0.086760 30.447 0.032844 569.15 614.52 2.3396 1.6806 2.2708 208.36 0.25123 8.7608 0.021508
41.375 205.00 0.23222 368.93 381.78 1.5964 465.01 0.0021505 308.10 311.14 1.3718 1.7385 2.9342 607.43 0.0028338 81.338 0.086322 31.214 0.032037 570.04 615.32 2.3389 1.6879 2.2913 207.78 0.25037 8.8032 0.021696
42.375 209.73 0.23827 372.88 386.03 1.6089 463.21 0.0021588 310.94 314.06 1.3808 1.7432 2.9502 600.47 0.0030609 80.426 0.085885 31.998 0.031252 570.92 616.11 2.3381 1.6952 2.3125 207.19 0.24953 8.8463 0.021888
43.375 214.54 0.24447 376.86 390.31 1.6215 461.40 0.0021673 313.79 316.99 1.3899 1.7478 2.9667 593.50 0.0032957 79.520 0.085449 32.800 0.030488 571.79 616.88 2.3373 1.7027 2.3344 206.58 0.24871 8.8902 0.022084
44.375 219.43 0.25085 380.86 394.62 1.6341 459.56 0.0021760 316.65 319.94 1.3989 1.7525 2.9837 586.51 0.0035386 78.619 0.085015 33.622 0.029742 572.65 617.65 2.3365 1.7101 2.3569 205.96 0.24793 8.9349 0.022283
45.375 224.41 0.25739 384.89 398.96 1.6468 457.71 0.0021848 319.52 322.90 1.4080 1.7573 3.0012 579.50 0.0037900 77.723 0.084583 34.463 0.029016 573.50 618.40 2.3357 1.7177 2.3802 205.32 0.24717 8.9805 0.022485
46.375 229.46 0.26411 388.95 403.33 1.6595 455.83 0.0021938 322.41 325.88 1.4171 1.7621 3.0192 572.46 0.0040504 76.832 0.084152 35.325 0.028308 574.34 619.13 2.3349 1.7253 2.4042 204.67 0.24644 9.0269 0.022692
47.375 234.60 0.27102 393.03 407.73 1.6722 453.94 0.0022029 325.31 328.87 1.4262 1.7669 3.0377 565.41 0.0043202 75.946 0.083723 36.208 0.027618 575.17 619.85 2.3340 1.7329 2.4291 204.00 0.24573 9.0742 0.022903
48.375 239.83 0.27812 397.13 412.16 1.6850 452.03 0.0022123 328.22 331.88 1.4353 1.7718 3.0569 558.34 0.0046000 75.064 0.083295 37.112 0.026945 576.00 620.55 2.3332 1.7407 2.4548 203.31 0.24505 9.1224 0.023119
49.375 245.13 0.28542 401.26 416.63 1.6979 450.09 0.0022218 331.15 334.90 1.4445 1.7767 3.0766 551.24 0.0048904 74.186 0.082868 38.039 0.026289 576.81 621.24 2.3323 1.7485 2.4815 202.61 0.24440 9.1716 0.023339
50.375 250.53 0.29293 405.42 421.12 1.7107 448.13 0.0022315 334.09 337.94 1.4536 1.7817 3.0970 544.13 0.0051920 73.313 0.082442 38.989 0.025648 577.61 621.91 2.3314 1.7564 2.5092 201.89 0.24377 9.2219 0.023564
51.375 256.01 0.30065 409.61 425.65 1.7237 446.15 0.0022414 337.04 341.00 1.4628 1.7867 3.1181 536.98 0.0055054 72.443 0.082018 39.962 0.025024 578.39 622.56 2.3304 1.7644 2.5379 201.16 0.24317 9.2733 0.023794
52.375 261.57 0.30861 413.82 430.21 1.7366 444.15 0.0022515 340.01 344.07 1.4720 1.7918 3.1400 529.82 0.0058313 71.577 0.081595 40.961 0.024414 579.17 623.20 2.3295 1.7724 2.5677 200.41 0.24260 9.3258 0.024029
53.375 267.23 0.31680 418.06 434.81 1.7496 442.12 0.0022618 343.00 347.17 1.4812 1.7969 3.1627 522.62 0.0061705 70.715 0.081174 41.985 0.023818 579.93 623.81 2.3285 1.7805 2.5987 199.63 0.24205 9.3795 0.024270
54.375 272.97 0.32525 422.33 439.44 1.7627 440.06 0.0022724 346.00 350.28 1.4904 1.8021 3.1862 515.40 0.0065239 69.856 0.080753 43.036 0.023237 580.68 624.41 2.3274 1.7887 2.6310 198.85 0.24154 9.4344 0.024516
55.375 278.81 0.33395 426.62 444.10 1.7758 437.98 0.0022832 349.02 353.40 1.4997 1.8073 3.2106 508.15 0.0068923 69.001 0.080334 44.114 0.022669 581.41 624.99 2.3264 1.7969 2.6646 198.04 0.24105 9.4907 0.024769
56.375 284.74 0.34293 430.95 448.80 1.7889 435.87 0.0022943 352.05 356.55 1.5090 1.8126 3.2360 500.87 0.0072767 68.148 0.079915 45.221 0.022114 582.13 625.54 2.3253 1.8052 2.6998 197.22 0.24059 9.5484 0.025028
57.375 290.76 0.35219 435.30 453.53 1.8021 433.73 0.0023056 355.10 359.72 1.5183 1.8179 3.2624 493.56 0.0076782 67.299 0.079498 46.358 0.021571 582.83 626.07 2.3241 1.8136 2.7365 196.37 0.24016 9.6075 0.025294
58.375 296.87 0.36176 439.69 458.30 1.8154 431.56 0.0023172 358.17 362.91 1.5276 1.8233 3.2900 486.22 0.0080980 66.451 0.079082 47.525 0.021041 583.52 626.58 2.3230 1.8220 2.7749 195.51 0.23976 9.6682 0.025568
59.375 303.08 0.37165 444.10 463.10 1.8287 429.36 0.0023290 361.25 366.12 1.5370 1.8288 3.3188 478.84 0.0085373 65.606 0.078666 48.726 0.020523 584.18 627.07 2.3218 1.8305 2.8152 194.63 0.23939 9.7305 0.025849
60.375 309.38 0.38188 448.55 467.94 1.8420 427.13 0.0023412 364.36 369.35 1.5464 1.8343 3.3489 471.43 0.0089976 64.763 0.078251 49.960 0.020016 584.83 627.53 2.3205 1.8391 2.8576 193.73 0.23905 9.7945 0.026138
61.375 315.78 0.39246 453.03 472.82 1.8554 424.87 0.0023537 367.48 372.60 1.5558 1.8400 3.3805 463.99 0.0094803 63.922 0.077838 51.229 0.019520 585.46 627.96 2.3192 1.8479 2.9022 192.82 0.23873 9.8603 0.026436
62.375 322.28 0.40342 457.54 477.74 1.8689 422.56 0.0023665 370.62 375.88 1.5653 1.8457 3.4136 456.50 0.0099871 63.083 0.077425 52.535 0.019035 586.07 628.37 2.3178 1.8567 2.9492 191.88 0.23845 9.9281 0.026744
63.375 328.88 0.41478 462.08 482.70 1.8824 420.22 0.0023797 373.79 379.18 1.5748 1.8514 3.4483 448.97 0.010520 62.244 0.077012 53.879 0.018560 586.66 628.74 2.3164 1.8656 2.9989 190.92 0.23819 9.9979 0.027061
64.375 335.58 0.42656 466.66 487.69 1.8960 417.85 0.0023932 376.97 382.51 1.5844 1.8573 3.4850 441.40 0.011081 61.407 0.076600 55.265 0.018095 587.22 629.09 2.3149 1.8747 3.0517 189.95 0.23796 10.070 0.027389
65.375 342.38 0.43880 471.27 492.73 1.9096 415.42 0.0024072 380.18 385.86 1.5939 1.8633 3.5236 433.79 0.011672 60.570 0.076189 56.692 0.017639 587.76 629.40 2.3133 1.8839 3.1077 188.95 0.23775 10.144 0.027729
66.375 349.28 0.45152 475.91 497.81 1.9233 412.96 0.0024215 383.41 389.25 1.6036 1.8693 3.5645 426.12 0.012296 59.733 0.075779 58.165 0.017193 588.28 629.68 2.3117 1.8933 3.1674 187.93 0.23757 10.221 0.028080
67.375 356.28 0.46475 480.59 502.93 1.9371 410.45 0.0024363 386.67 392.65 1.6133 1.8755 3.6078 418.41 0.012956 58.897 0.075368 59.684 0.016755 588.76 629.92 2.3100 1.9030 3.2311 186.89 0.23740 10.300 0.028446
68.375 363.40 0.47854 485.31 508.09 1.9509 407.89 0.0024516 389.95 396.09 1.6230 1.8818 3.6537 410.64 0.013655 58.059 0.074959 61.253 0.016326 589.22 630.13 2.3082 1.9129 3.2994 185.83 0.23724 10.382 0.028825
69.375 370.61 0.49292 490.06 513.29 1.9648 405.28 0.0024674 393.26 399.57 1.6328 1.8882 3.7027 402.81 0.014396 57.221 0.074549 62.875 0.015905 589.65 630.29 2.3064 1.9231 3.3727 184.74 0.23710 10.467 0.029221
70.375 377.94 0.50794 494.86 518.55 1.9788 402.62 0.0024838 396.60 403.07 1.6426 1.8947 3.7550 394.92 0.015183 56.381 0.074141 64.552 0.015491 590.04 630.41 2.3044 1.9336 3.4518 183.63 0.23697 10.555 0.029633
71.375 385.37 0.52366 499.69 523.84 1.9928 399.89 0.0025007 399.96 406.61 1.6525 1.9014 3.8109 386.97 0.016021 55.540 0.073732 66.288 0.015086 590.40 630.49 2.3024 1.9444 3.5371 182.50 0.23684 10.647 0.030064
72.375 392.92 0.54012 504.56 529.19 2.0070 397.11 0.0025182 403.36 410.18 1.6625 1.9083 3.8711 378.95 0.016915 54.696 0.073324 68.087 0.014687 590.73 630.51 2.3002 1.9556 3.6297 181.34 0.23671 10.743 0.030515
73.375 400.57 0.55740 509.48 534.58 2.0212 394.26 0.0025364 406.79 413.80 1.6726 1.9153 3.9359 370.85 0.017871 53.848 0.072917 69.953 0.014295 591.01 630.49 2.2979 1.9673 3.7303 180.16 0.23658 10.842 0.030989
74.375 408.34 0.57558 514.43 540.03 2.0354 391.34 0.0025553 410.26 417.45 1.6827 1.9226 4.0060 362.67 0.018894 52.997 0.072510 71.890 0.013910 591.25 630.41 2.2955 1.9793 3.8401 178.95 0.23643 10.946 0.031488
75.375 416.23 0.59473 519.43 545.52 2.0498 388.34 0.0025751 413.76 421.15 1.6930 1.9301 4.0822 354.41 0.019993 52.142 0.072104 73.904 0.013531 591.44 630.27 2.2930 1.9919 3.9604 177.71 0.23627 11.054 0.032014
76.375 424.23 0.61496 524.48 551.07 2.0643 385.26 0.0025957 417.31 424.90 1.7033 1.9378 4.1654 346.06 0.021177 51.281 0.071699 76.001 0.013158 591.59 630.07 2.2903 2.0050 4.0927 176.44 0.23609 11.168 0.032570
77.375 432.35 0.63638 529.58 556.68 2.0788 382.09 0.0026172 420.89 428.70 1.7137 1.9459 4.2565 337.60 0.022455 50.414 0.071295 78.187 0.012790 591.68 629.80 2.2874 2.0186 4.2389 175.15 0.23588 11.287 0.033161
78.375 440.59 0.65913 534.72 562.34 2.0935 378.83 0.0026397 424.53 432.54 1.7243 1.9543 4.3570 329.05 0.023838 49.539 0.070893 80.469 0.012427 591.71 629.46 2.2844 2.0328 4.4012 173.82 0.23563 11.412 0.033789
79.375 448.95 0.68336 539.92 568.06 2.1082 375.46 0.0026634 428.21 436.45 1.7349 1.9631 4.4684 320.38 0.025341 48.657 0.070494 82.856 0.012069 591.68 629.04 2.2812 2.0475 4.5824 172.46 0.23535 11.544 0.034461
80.375 457.44 0.70927 545.17 573.84 2.1231 371.97 0.0026884 431.94 440.42 1.7457 1.9723 4.5928 311.58 0.026980 47.764 0.070099 85.359 0.011715 591.58 628.53 2.2778 2.0630 4.7859 171.07 0.23501 11.684 0.035181
81.375 466.05 0.73709 550.48 579.69 2.1381 368.36 0.0027147 435.74 444.46 1.7567 1.9820 4.7327 302.66 0.028773 46.860 0.069708 87.988 0.011365 591.40 627.92 2.2742 2.0791 5.0161 169.64 0.23461 11.832 0.035957
82.375 474.79 0.76708 555.84 585.60 2.1532 364.61 0.0027427 439.60 448.58 1.7678 1.9924 4.8914 293.60 0.030744 45.942 0.069323 90.757 0.011018 591.14 627.21 2.2703 2.0959 5.2786 168.17 0.23413 11.989 0.036797
83.375 483.66 0.79960 561.28 591.59 2.1685 360.70 0.0027724 443.53 452.78 1.7791 2.0034 5.0731 284.38 0.032920 45.010 0.068948 93.681 0.010674 590.79 626.38 2.2661 2.1136 5.5807 166.67 0.23357 12.157 0.037711
84.375 492.67 0.83507 566.78 597.66 2.1839 356.61 0.0028041 447.54 457.07 1.7907 2.0153 5.2834 275.00 0.035335 44.059 0.068586 96.781 0.010333 590.33 625.42 2.2616 2.1321 5.9321 165.13 0.23290 12.338 0.038713
85.375 501.81 0.87404 572.35 603.80 2.1995 352.33 0.0028382 451.65 461.47 1.8025 2.0281 5.5302 265.44 0.038030 43.088 0.068241 100.08 0.0099920 589.74 624.31 2.2567 2.1517 6.3459 163.54 0.23209 12.532 0.039819
86.375 511.09 0.91721 578.00 610.03 2.2152 347.82 0.0028751 455.85 465.98 1.8145 2.0420 5.8240 255.69 0.041058 42.092 0.067923 103.61 0.0096520 589.03 623.04 2.2514 2.1723 6.8405 161.91 0.23112 12.743 0.041051
87.375 520.51 0.96553 583.74 616.36 2.2311 343.04 0.0029151 460.18 470.64 1.8269 2.0574 6.1803 245.72 0.044485 41.066 0.067640 107.40 0.0093114 588.15 621.56 2.2456 2.1943 7.4422 160.23 0.22995 12.973 0.042436
88.375 528.55 undefined 588.27 621.40 2.2437 110.00 0.0090909 588.27 621.40 2.2437 2.2046 7.7363 159.52 0.22761 13.145 0.043264 110.00 0.0090909 588.27 621.40 2.2437 2.2046 7.7363 159.52 0.22761 13.145 0.043264
89.375 533.84 undefined 590.46 623.93 2.2498 110.00 0.0090909 590.46 623.93 2.2498 2.1921 7.3137 160.64 0.22359 13.179 0.042856 110.00 0.0090909 590.46 623.93 2.2498 2.1921 7.3137 160.64 0.22359 13.179 0.042856
90.375 539.10 undefined 592.65 626.44 2.2558 110.00 0.0090909 592.65 626.44 2.2558 2.1807 6.9528 161.76 0.21970 13.212 0.042513 110.00 0.0090909 592.65 626.44 2.2558 2.1807 6.9528 161.76 0.21970 13.212 0.042513
91.375 544.31 undefined 594.83 628.94 2.2618 110.00 0.0090909 594.83 628.94 2.2618 2.1703 6.6411 162.88 0.21593 13.246 0.042224 110.00 0.0090909 594.83 628.94 2.2618 2.1703 6.6411 162.88 0.21593 13.246 0.042224
92.375 549.50 undefined 596.99 631.43 2.2677 110.00 0.0090909 596.99 631.43 2.2677 2.1609 6.3695 164.00 0.21228 13.279 0.041979 110.00 0.0090909 596.99 631.43 2.2677 2.1609 6.3695 164.00 0.21228 13.279 0.041979
93.375 554.66 undefined 599.15 633.91 2.2736 110.00 0.0090909 599.15 633.91 2.2736 2.1526 6.1306 165.11 0.20873 13.313 0.041773 110.00 0.0090909 599.15 633.91 2.2736 2.1526 6.1306 165.11 0.20873 13.313 0.041773
94.375 559.79 undefined 601.30 636.38 2.2794 110.00 0.0090909 601.30 636.38 2.2794 2.1452 5.9189 166.21 0.20528 13.348 0.041599 110.00 0.0090909 601.30 636.38 2.2794 2.1452 5.9189 166.21 0.20528 13.348 0.041599
95.375 564.89 undefined 603.44 638.85 2.2853 110.00 0.0090909 603.44 638.85 2.2853 2.1387 5.7302 167.31 0.20192 13.383 0.041452 110.00 0.0090909 603.44 638.85 2.2853 2.1387 5.7302 167.31 0.20192 13.383 0.041452
96.375 569.97 undefined 605.58 641.30 2.2910 110.00 0.0090909 605.58 641.30 2.2910 2.1331 5.5607 168.39 0.19865 13.420 0.041328 110.00 0.0090909 605.58 641.30 2.2910 2.1331 5.5607 168.39 0.19865 13.420 0.041328
97.375 575.03 undefined 607.71 643.75 2.2968 110.00 0.0090909 607.71 643.75 2.2968 2.1282 5.4077 169.47 0.19546 13.452 0.041227 110.00 0.0090909 607.71 643.75 2.2968 2.1282 5.4077 169.47 0.19546 13.452 0.041227
98.375 580.06 undefined 609.83 646.19 2.3025 110.00 0.0090909 609.83 646.19 2.3025 2.1239 5.2689 170.55 0.19235 13.482 0.041146 110.00 0.0090909 609.83 646.19 2.3025 2.1239 5.2689 170.55 0.19235 13.482 0.041146
99.375 585.08 undefined 611.95 648.63 2.3082 110.00 0.0090909 611.95 648.63 2.3082 2.1203 5.1423 171.61 0.18931 13.513 0.041081 110.00 0.0090909 611.95 648.63 2.3082 2.1203 5.1423 171.61 0.18931 13.513 0.041081
100.38 590.08 undefined 614.07 651.06 2.3139 110.00 0.0090909 614.07 651.06 2.3139 2.1172 5.0264 172.66 0.18635 13.545 0.041029 110.00 0.0090909 614.07 651.06 2.3139 2.1172 5.0264 172.66 0.18635 13.545 0.041029
101.38 595.06 undefined 616.19 653.49 2.3196 110.00 0.0090909 616.19 653.49 2.3196 2.1146 4.9199 173.71 0.18346 13.578 0.040990 110.00 0.0090909 616.19 653.49 2.3196 2.1146 4.9199 173.71 0.18346 13.578 0.040990
102.38 600.02 undefined 618.30 655.91 2.3252 110.00 0.0090909 618.30 655.91 2.3252 2.1125 4.8216 174.75 0.18064 13.611 0.040962 110.00 0.0090909 618.30 655.91 2.3252 2.1125 4.8216 174.75 0.18064 13.611 0.040962
103.38 604.97 undefined 620.41 658.33 2.3308 110.00 0.0090909 620.41 658.33 2.3308 2.1107 4.7307 175.79 0.17789 13.643 0.040945 110.00 0.0090909 620.41 658.33 2.3308 2.1107 4.7307 175.79 0.17789 13.643 0.040945
104.38 609.91 undefined 622.52 660.75 2.3364 110.00 0.0090909 622.52 660.75 2.3364 2.1092 4.6463 176.81 0.17520 13.676 0.040937 110.00 0.0090909 622.52 660.75 2.3364 2.1092 4.6463 176.81 0.17520 13.676 0.040937
105.38 614.83 undefined 624.63 663.17 2.3420 110.00 0.0090909 624.63 663.17 2.3420 2.1081 4.5678 177.83 0.17258 13.709 0.040938 110.00 0.0090909 624.63 663.17 2.3420 2.1081 4.5678 177.83 0.17258 13.709 0.040938
106.38 619.73 undefined 626.74 665.58 2.3476 110.00 0.0090909 626.74 665.58 2.3476 2.1072 4.4945 178.85 0.17002 13.742 0.040947 110.00 0.0090909 626.74 665.58 2.3476 2.1072 4.4945 178.85 0.17002 13.742 0.040947
107.38 624.63 undefined 628.85 668.00 2.3531 110.00 0.0090909 628.85 668.00 2.3531 2.1066 4.4260 179.85 0.16751 13.775 0.040962 110.00 0.0090909 628.85 668.00 2.3531 2.1066 4.4260 179.85 0.16751 13.775 0.040962
108.38 629.51 undefined 630.95 670.41 2.3586 110.00 0.0090909 630.95 670.41 2.3586 2.1061 4.3618 180.86 0.16507 13.807 0.040985 110.00 0.0090909 630.95 670.41 2.3586 2.1061 4.3618 180.86 0.16507 13.807 0.040985
109.38 634.38 undefined 633.06 672.82 2.3641 110.00 0.0090909 633.06 672.82 2.3641 2.1059 4.3016 181.85 0.16268 13.840 0.041014 110.00 0.0090909 633.06 672.82 2.3641 2.1059 4.3016 181.85 0.16268 13.840 0.041014
110.38 639.23 undefined 635.16 675.23 2.3696 110.00 0.0090909 635.16 675.23 2.3696 2.1059 4.2449 182.84 0.16035 13.873 0.041048 110.00 0.0090909 635.16 675.23 2.3696 2.1059 4.2449 182.84 0.16035 13.873 0.041048
111.38 644.08 undefined 637.27 677.64 2.3751 110.00 0.0090909 637.27 677.64 2.3751 2.1061 4.1915 183.82 0.15807 13.905 0.041088 110.00 0.0090909 637.27 677.64 2.3751 2.1061 4.1915 183.82 0.15807 13.905 0.041088
112.38 648.92 undefined 639.38 680.05 2.3806 110.00 0.0090909 639.38 680.05 2.3806 2.1064 4.1412 184.80 0.15584 13.938 0.041133 110.00 0.0090909 639.38 680.05 2.3806 2.1064 4.1412 184.80 0.15584 13.938 0.041133
113.38 653.74 undefined 641.48 682.46 2.3860 110.00 0.0090909 641.48 682.46 2.3860 2.1069 4.0937 185.77 0.15366 13.970 0.041183 110.00 0.0090909 641.48 682.46 2.3860 2.1069 4.0937 185.77 0.15366 13.970 0.041183
114.38 658.56 undefined 643.59 684.87 2.3915 110.00 0.0090909 643.59 684.87 2.3915 2.1075 4.0487 186.74 0.15152 14.003 0.041237 110.00 0.0090909 643.59 684.87 2.3915 2.1075 4.0487 186.74 0.15152 14.003 0.041237
115.38 663.36 undefined 645.70 687.28 2.3969 110.00 0.0090909 645.70 687.28 2.3969 2.1083 4.0061 187.70 0.14944 14.035 0.041295 110.00 0.0090909 645.70 687.28 2.3969 2.1083 4.0061 187.70 0.14944 14.035 0.041295
116.38 668.16 undefined 647.81 689.69 2.4023 110.00 0.0090909 647.81 689.69 2.4023 2.1091 3.9658 188.66 0.14740 14.067 0.041356 110.00 0.0090909 647.81 689.69 2.4023 2.1091 3.9658 188.66 0.14740 14.067 0.041356
117.38 672.95 undefined 649.92 692.10 2.4078 110.00 0.0090909 649.92 692.10 2.4078 2.1101 3.9275 189.61 0.14540 14.100 0.041422 110.00 0.0090909 649.92 692.10 2.4078 2.1101 3.9275 189.61 0.14540 14.100 0.041422
118.38 677.73 undefined 652.03 694.51 2.4132 110.00 0.0090909 652.03 694.51 2.4132 2.1112 3.8911 190.56 0.14345 14.132 0.041491 110.00 0.0090909 652.03 694.51 2.4132 2.1112 3.8911 190.56 0.14345 14.132 0.041491
119.38 682.50 undefined 654.14 696.92 2.4185 110.00 0.0090909 654.14 696.92 2.4185 2.1124 3.8565 191.50 0.14153 14.164 0.041563 110.00 0.0090909 654.14 696.92 2.4185 2.1124 3.8565 191.50 0.14153 14.164 0.041563
120.38 687.26 undefined 656.25 699.33 2.4239 110.00 0.0090909 656.25 699.33 2.4239 2.1137 3.8236 192.44 0.13966 14.196 0.041638 110.00 0.0090909 656.25 699.33 2.4239 2.1137 3.8236 192.44 0.13966 14.196 0.041638
121.38 692.02 undefined 658.37 701.74 2.4293 110.00 0.0090909 658.37 701.74 2.4293 2.1151 3.7922 193.37 0.13782 14.228 0.041716 110.00 0.0090909 658.37 701.74 2.4293 2.1151 3.7922 193.37 0.13782 14.228 0.041716
122.38 696.76 undefined 660.48 704.16 2.4346 110.00 0.0090909 660.48 704.16 2.4346 2.1166 3.7623 194.30 0.13602 14.261 0.041797 110.00 0.0090909 660.48 704.16 2.4346 2.1166 3.7623 194.30 0.13602 14.261 0.041797
123.38 701.50 undefined 662.60 706.57 2.4400 110.00 0.0090909 662.60 706.57 2.4400 2.1182 3.7337 195.23 0.13426 14.293 0.041880 110.00 0.0090909 662.60 706.57 2.4400 2.1182 3.7337 195.23 0.13426 14.293 0.041880
124.38 706.23 undefined 664.72 708.99 2.4453 110.00 0.0090909 664.72 708.99 2.4453 2.1198 3.7065 196.14 0.13254 14.325 0.041966 110.00 0.0090909 664.72 708.99 2.4453 2.1198 3.7065 196.14 0.13254 14.325 0.041966
125.38 710.96 undefined 666.84 711.40 2.4506 110.00 0.0090909 666.84 711.40 2.4506 2.1215 3.6805 197.06 0.13085 14.357 0.042055 110.00 0.0090909 666.84 711.40 2.4506 2.1215 3.6805 197.06 0.13085 14.357 0.042055
126.38 715.67 undefined 668.96 713.82 2.4560 110.00 0.0090909 668.96 713.82 2.4560 2.1233 3.6556 197.97 0.12919 14.389 0.042145 110.00 0.0090909 668.96 713.82 2.4560 2.1233 3.6556 197.97 0.12919 14.389 0.042145
127.38 720.39 undefined 671.09 716.24 2.4613 110.00 0.0090909 671.09 716.24 2.4613 2.1252 3.6318 198.88 0.12756 14.421 0.042238 110.00 0.0090909 671.09 716.24 2.4613 2.1252 3.6318 198.88 0.12756 14.421 0.042238
128.38 725.09 undefined 673.21 718.66 2.4666 110.00 0.0090909 673.21 718.66 2.4666 2.1271 3.6090 199.78 0.12597 14.452 0.042333 110.00 0.0090909 673.21 718.66 2.4666 2.1271 3.6090 199.78 0.12597 14.452 0.042333
129.38 729.79 undefined 675.34 721.08 2.4719 110.00 0.0090909 675.34 721.08 2.4719 2.1291 3.5871 200.68 0.12440 14.484 0.042429 110.00 0.0090909 675.34 721.08 2.4719 2.1291 3.5871 200.68 0.12440 14.484 0.042429
130.38 734.48 undefined 677.47 723.51 2.4772 110.00 0.0090909 677.47 723.51 2.4772 2.1311 3.5662 201.57 0.12287 14.516 0.042528 110.00 0.0090909 677.47 723.51 2.4772 2.1311 3.5662 201.57 0.12287 14.516 0.042528
131.38 739.16 undefined 679.60 725.93 2.4824 110.00 0.0090909 679.60 725.93 2.4824 2.1332 3.5461 202.46 0.12136 14.548 0.042628 110.00 0.0090909 679.60 725.93 2.4824 2.1332 3.5461 202.46 0.12136 14.548 0.042628
132.38 743.84 undefined 681.74 728.36 2.4877 110.00 0.0090909 681.74 728.36 2.4877 2.1353 3.5269 203.34 0.11989 14.579 0.042731 110.00 0.0090909 681.74 728.36 2.4877 2.1353 3.5269 203.34 0.11989 14.579 0.042731
133.38 748.52 undefined 683.87 730.79 2.4930 110.00 0.0090909 683.87 730.79 2.4930 2.1375 3.5084 204.23 0.11844 14.611 0.042834 110.00 0.0090909 683.87 730.79 2.4930 2.1375 3.5084 204.23 0.11844 14.611 0.042834
134.38 753.18 undefined 686.01 733.22 2.4982 110.00 0.0090909 686.01 733.22 2.4982 2.1398 3.4907 205.10 0.11702 14.643 0.042940 110.00 0.0090909 686.01 733.22 2.4982 2.1398 3.4907 205.10 0.11702 14.643 0.042940
135.38 757.84 undefined 688.15 735.65 2.5035 110.00 0.0090909 688.15 735.65 2.5035 2.1421 3.4736 205.98 0.11562 14.674 0.043047 110.00 0.0090909 688.15 735.65 2.5035 2.1421 3.4736 205.98 0.11562 14.674 0.043047
136.38 762.50 undefined 690.30 738.09 2.5087 110.00 0.0090909 690.30 738.09 2.5087 2.1444 3.4573 206.85 0.11425 14.706 0.043155 110.00 0.0090909 690.30 738.09 2.5087 2.1444 3.4573 206.85 0.11425 14.706 0.043155
137.38 767.15 undefined 692.44 740.53 2.5139 110.00 0.0090909 692.44 740.53 2.5139 2.1468 3.4415 207.72 0.11290 14.737 0.043265 110.00 0.0090909 692.44 740.53 2.5139 2.1468 3.4415 207.72 0.11290 14.737 0.043265
138.38 771.80 undefined 694.59 742.97 2.5192 110.00 0.0090909 694.59 742.97 2.5192 2.1492 3.4264 208.58 0.11158 14.769 0.043377 110.00 0.0090909 694.59 742.97 2.5192 2.1492 3.4264 208.58 0.11158 14.769 0.043377
139.38 776.44 undefined 696.74 745.41 2.5244 110.00 0.0090909 696.74 745.41 2.5244 2.1516 3.4118 209.44 0.11028 14.800 0.043489 110.00 0.0090909 696.74 745.41 2.5244 2.1516 3.4118 209.44 0.11028 14.800 0.043489
140.38 781.07 undefined 698.89 747.85 2.5296 110.00 0.0090909 698.89 747.85 2.5296 2.1541 3.3978 210.29 0.10901 14.832 0.043603 110.00 0.0090909 698.89 747.85 2.5296 2.1541 3.3978 210.29 0.10901 14.832 0.043603
141.38 785.70 undefined 701.05 750.30 2.5348 110.00 0.0090909 701.05 750.30 2.5348 2.1567 3.3843 211.14 0.10776 14.863 0.043719 110.00 0.0090909 701.05 750.30 2.5348 2.1567 3.3843 211.14 0.10776 14.863 0.043719
142.38 790.33 undefined 703.21 752.74 2.5400 110.00 0.0090909 703.21 752.74 2.5400 2.1592 3.3713 211.99 0.10652 14.894 0.043835 110.00 0.0090909 703.21 752.74 2.5400 2.1592 3.3713 211.99 0.10652 14.894 0.043835
143.38 794.95 undefined 705.37 755.19 2.5452 110.00 0.0090909 705.37 755.19 2.5452 2.1618 3.3588 212.84 0.10532 14.925 0.043953 110.00 0.0090909 705.37 755.19 2.5452 2.1618 3.3588 212.84 0.10532 14.925 0.043953
144.38 799.56 undefined 707.53 757.65 2.5504 110.00 0.0090909 707.53 757.65 2.5504 2.1644 3.3468 213.68 0.10413 14.957 0.044072 110.00 0.0090909 707.53 757.65 2.5504 2.1644 3.3468 213.68 0.10413 14.957 0.044072
145.38 804.18 undefined 709.70 760.10 2.5556 110.00 0.0090909 709.70 760.10 2.5556 2.1671 3.3351 214.52 0.10296 14.988 0.044191 110.00 0.0090909 709.70 760.10 2.5556 2.1671 3.3351 214.52 0.10296 14.988 0.044191
146.38 808.78 undefined 711.86 762.56 2.5607 110.00 0.0090909 711.86 762.56 2.5607 2.1697 3.3239 215.35 0.10181 15.019 0.044312 110.00 0.0090909 711.86 762.56 2.5607 2.1697 3.3239 215.35 0.10181 15.019 0.044312
147.38 813.38 undefined 714.04 765.02 2.5659 110.00 0.0090909 714.04 765.02 2.5659 2.1724 3.3132 216.18 0.10068 15.050 0.044434 110.00 0.0090909 714.04 765.02 2.5659 2.1724 3.3132 216.18 0.10068 15.050 0.044434
148.38 817.98 undefined 716.21 767.48 2.5711 110.00 0.0090909 716.21 767.48 2.5711 2.1751 3.3027 217.01 0.099567 15.081 0.044558 110.00 0.0090909 716.21 767.48 2.5711 2.1751 3.3027 217.01 0.099567 15.081 0.044558
149.38 822.58 undefined 718.39 769.94 2.5762 110.00 0.0090909 718.39 769.94 2.5762 2.1779 3.2927 217.84 0.098475 15.112 0.044682 110.00 0.0090909 718.39 769.94 2.5762 2.1779 3.2927 217.84 0.098475 15.112 0.044682
150.38 827.16 undefined 720.57 772.41 2.5814 110.00 0.0090909 720.57 772.41 2.5814 2.1807 3.2830 218.66 0.097400 15.143 0.044807 110.00 0.0090909 720.57 772.41 2.5814 2.1807 3.2830 218.66 0.097400 15.143 0.044807
151.38 831.75 undefined 722.75 774.88 2.5865 110.00 0.0090909 722.75 774.88 2.5865 2.1835 3.2737 219.48 0.096343 15.174 0.044932 110.00 0.0090909 722.75 774.88 2.5865 2.1835 3.2737 219.48 0.096343 15.174 0.044932
152.38 836.33 undefined 724.93 777.35 2.5917 110.00 0.0090909 724.93 777.35 2.5917 2.1863 3.2647 220.29 0.095304 15.205 0.045059 110.00 0.0090909 724.93 777.35 2.5917 2.1863 3.2647 220.29 0.095304 15.205 0.045059
153.38 840.91 undefined 727.12 779.83 2.5968 110.00 0.0090909 727.12 779.83 2.5968 2.1891 3.2560 221.11 0.094281 15.236 0.045187 110.00 0.0090909 727.12 779.83 2.5968 2.1891 3.2560 221.11 0.094281 15.236 0.045187
154.38 845.48 undefined 729.31 782.30 2.6019 110.00 0.0090909 729.31 782.30 2.6019 2.1920 3.2476 221.92 0.093274 15.267 0.045316 110.00 0.0090909 729.31 782.30 2.6019 2.1920 3.2476 221.92 0.093274 15.267 0.045316
155.38 850.05 undefined 731.50 784.78 2.6071 110.00 0.0090909 731.50 784.78 2.6071 2.1948 3.2395 222.72 0.092284 15.298 0.045445 110.00 0.0090909 731.50 784.78 2.6071 2.1948 3.2395 222.72 0.092284 15.298 0.045445
156.38 854.61 undefined 733.70 787.27 2.6122 110.00 0.0090909 733.70 787.27 2.6122 2.1977 3.2317 223.53 0.091309 15.328 0.045575 110.00 0.0090909 733.70 787.27 2.6122 2.1977 3.2317 223.53 0.091309 15.328 0.045575
157.38 859.17 undefined 735.90 789.75 2.6173 110.00 0.0090909 735.90 789.75 2.6173 2.2006 3.2242 224.33 0.090350 15.359 0.045707 110.00 0.0090909 735.90 789.75 2.6173 2.2006 3.2242 224.33 0.090350 15.359 0.045707
158.38 863.73 undefined 738.10 792.24 2.6224 110.00 0.0090909 738.10 792.24 2.6224 2.2035 3.2170 225.12 0.089405 15.390 0.045838 110.00 0.0090909 738.10 792.24 2.6224 2.2035 3.2170 225.12 0.089405 15.390 0.045838
159.38 868.28 undefined 740.31 794.73 2.6275 110.00 0.0090909 740.31 794.73 2.6275 2.2065 3.2099 225.92 0.088476 15.420 0.045971 110.00 0.0090909 740.31 794.73 2.6275 2.2065 3.2099 225.92 0.088476 15.420 0.045971
160.38 872.83 undefined 742.51 797.22 2.6326 110.00 0.0090909 742.51 797.22 2.6326 2.2094 3.2032 226.71 0.087560 15.451 0.046105 110.00 0.0090909 742.51 797.22 2.6326 2.2094 3.2032 226.71 0.087560 15.451 0.046105
161.38 877.38 undefined 744.72 799.72 2.6377 110.00 0.0090909 744.72 799.72 2.6377 2.2124 3.1966 227.50 0.086659 15.482 0.046239 110.00 0.0090909 744.72 799.72 2.6377 2.2124 3.1966 227.50 0.086659 15.482 0.046239
162.38 881.92 undefined 746.94 802.22 2.6428 110.00 0.0090909 746.94 802.22 2.6428 2.2154 3.1903 228.29 0.085772 15.512 0.046374 110.00 0.0090909 746.94 802.22 2.6428 2.2154 3.1903 228.29 0.085772 15.512 0.046374
163.38 886.46 undefined 749.16 804.72 2.6479 110.00 0.0090909 749.16 804.72 2.6479 2.2184 3.1843 229.07 0.084898 15.543 0.046509 110.00 0.0090909 749.16 804.72 2.6479 2.2184 3.1843 229.07 0.084898 15.543 0.046509
164.38 891.00 undefined 751.38 807.22 2.6529 110.00 0.0090909 751.38 807.22 2.6529 2.2214 3.1784 229.85 0.084037 15.573 0.046646 110.00 0.0090909 751.38 807.22 2.6529 2.2214 3.1784 229.85 0.084037 15.573 0.046646
165.38 895.53 undefined 753.60 809.73 2.6580 110.00 0.0090909 753.60 809.73 2.6580 2.2244 3.1728 230.63 0.083189 15.603 0.046783 110.00 0.0090909 753.60 809.73 2.6580 2.2244 3.1728 230.63 0.083189 15.603 0.046783
166.38 900.06 undefined 755.82 812.24 2.6631 110.00 0.0090909 755.82 812.24 2.6631 2.2275 3.1673 231.40 0.082354 15.634 0.046920 110.00 0.0090909 755.82 812.24 2.6631 2.2275 3.1673 231.40 0.082354 15.634 0.046920
167.38 904.59 undefined 758.05 814.75 2.6682 110.00 0.0090909 758.05 814.75 2.6682 2.2305 3.1620 232.18 0.081531 15.664 0.047059 110.00 0.0090909 758.05 814.75 2.6682 2.2305 3.1620 232.18 0.081531 15.664 0.047059
168.38 909.11 undefined 760.29 817.27 2.6732 110.00 0.0090909 760.29 817.27 2.6732 2.2336 3.1570 232.94 0.080721 15.695 0.047198 110.00 0.0090909 760.29 817.27 2.6732 2.2336 3.1570 232.94 0.080721 15.695 0.047198
169.38 913.63 undefined 762.52 819.79 2.6783 110.00 0.0090909 762.52 819.79 2.6783 2.2367 3.1521 233.71 0.079922 15.725 0.047337 110.00 0.0090909 762.52 819.79 2.6783 2.2367 3.1521 233.71 0.079922 15.725 0.047337
170.38 918.14 undefined 764.76 822.31 2.6833 110.00 0.0090909 764.76 822.31 2.6833 2.2398 3.1474 234.48 0.079135 15.755 0.047478 110.00 0.0090909 764.76 822.31 2.6833 2.2398 3.1474 234.48 0.079135 15.755 0.047478
171.38 922.66 undefined 767.00 824.83 2.6884 110.00 0.0090909 767.00 824.83 2.6884 2.2429 3.1428 235.24 0.078359 15.785 0.047618 110.00 0.0090909 767.00 824.83 2.6884 2.2429 3.1428 235.24 0.078359 15.785 0.047618
172.38 927.16 undefined 769.24 827.36 2.6934 110.00 0.0090909 769.24 827.36 2.6934 2.2460 3.1384 236.00 0.077595 15.815 0.047760 110.00 0.0090909 769.24 827.36 2.6934 2.2460 3.1384 236.00 0.077595 15.815 0.047760
173.38 931.67 undefined 771.49 829.89 2.6985 110.00 0.0090909 771.49 829.89 2.6985 2.2491 3.1342 236.76 0.076842 15.846 0.047902 110.00 0.0090909 771.49 829.89 2.6985 2.2491 3.1342 236.76 0.076842 15.846 0.047902
174.38 936.17 undefined 773.74 832.42 2.7035 110.00 0.0090909 773.74 832.42 2.7035 2.2522 3.1302 237.51 0.076099 15.876 0.048045 110.00 0.0090909 773.74 832.42 2.7035 2.2522 3.1302 237.51 0.076099 15.876 0.048045
175.38 940.68 undefined 776.00 834.96 2.7085 110.00 0.0090909 776.00 834.96 2.7085 2.2553 3.1262 238.26 0.075367 15.906 0.048188 110.00 0.0090909 776.00 834.96 2.7085 2.2553 3.1262 238.26 0.075367 15.906 0.048188
176.38 945.17 undefined 778.25 837.50 2.7136 110.00 0.0090909 778.25 837.50 2.7136 2.2585 3.1225 239.01 0.074645 15.936 0.048332 110.00 0.0090909 778.25 837.50 2.7136 2.2585 3.1225 239.01 0.074645 15.936 0.048332
177.38 949.67 undefined 780.51 840.04 2.7186 110.00 0.0090909 780.51 840.04 2.7186 2.2616 3.1189 239.76 0.073934 15.966 0.048476 110.00 0.0090909 780.51 840.04 2.7186 2.2616 3.1189 239.76 0.073934 15.966 0.048476
178.38 954.16 undefined 782.78 842.58 2.7236 110.00 0.0090909 782.78 842.58 2.7236 2.2648 3.1154 240.50 0.073232 15.996 0.048621 110.00 0.0090909 782.78 842.58 2.7236 2.2648 3.1154 240.50 0.073232 15.996 0.048621
179.38 958.65 undefined 785.04 845.13 2.7286 110.00 0.0090909 785.04 845.13 2.7286 2.2680 3.1120 241.25 0.072540 16.026 0.048766 110.00 0.0090909 785.04 845.13 2.7286 2.2680 3.1120 241.25 0.072540 16.026 0.048766
180.38 963.13 undefined 787.31 847.68 2.7336 110.00 0.0090909 787.31 847.68 2.7336 2.2712 3.1088 241.99 0.071858 16.055 0.048912 110.00 0.0090909 787.31 847.68 2.7336 2.2712 3.1088 241.99 0.071858 16.055 0.048912
181.38 967.62 undefined 789.59 850.24 2.7386 110.00 0.0090909 789.59 850.24 2.7386 2.2743 3.1058 242.72 0.071185 16.085 0.049059 110.00 0.0090909 789.59 850.24 2.7386 2.2743 3.1058 242.72 0.071185 16.085 0.049059
182.38 972.10 undefined 791.86 852.79 2.7436 110.00 0.0090909 791.86 852.79 2.7436 2.2775 3.1028 243.46 0.070522 16.115 0.049206 110.00 0.0090909 791.86 852.79 2.7436 2.2775 3.1028 243.46 0.070522 16.115 0.049206
183.38 976.58 undefined 794.14 855.35 2.7486 110.00 0.0090909 794.14 855.35 2.7486 2.2807 3.1000 244.19 0.069867 16.145 0.049354 110.00 0.0090909 794.14 855.35 2.7486 2.2807 3.1000 244.19 0.069867 16.145 0.049354
184.38 981.05 undefined 796.42 857.91 2.7536 110.00 0.0090909 796.42 857.91 2.7536 2.2839 3.0972 244.92 0.069222 16.175 0.049502 110.00 0.0090909 796.42 857.91 2.7536 2.2839 3.0972 244.92 0.069222 16.175 0.049502
185.38 985.52 undefined 798.71 860.48 2.7586 110.00 0.0090909 798.71 860.48 2.7586 2.2872 3.0946 245.65 0.068585 16.204 0.049650 110.00 0.0090909 798.71 860.48 2.7586 2.2872 3.0946 245.65 0.068585 16.204 0.049650
186.38 989.99 undefined 801.00 863.05 2.7636 110.00 0.0090909 801.00 863.05 2.7636 2.2904 3.0921 246.38 0.067956 16.234 0.049799 110.00 0.0090909 801.00 863.05 2.7636 2.2904 3.0921 246.38 0.067956 16.234 0.049799
187.38 994.46 undefined 803.29 865.62 2.7686 110.00 0.0090909 803.29 865.62 2.7686 2.2936 3.0897 247.10 0.067336 16.264 0.049949 110.00 0.0090909 803.29 865.62 2.7686 2.2936 3.0897 247.10 0.067336 16.264 0.049949
188.38 998.92 undefined 805.58 868.20 2.7736 110.00 0.0090909 805.58 868.20 2.7736 2.2969 3.0875 247.83 0.066725 16.293 0.050099 110.00 0.0090909 805.58 868.20 2.7736 2.2969 3.0875 247.83 0.066725 16.293 0.050099
189.38 1003.4 undefined 807.88 870.77 2.7785 110.00 0.0090909 807.88 870.77 2.7785 2.3001 3.0853 248.55 0.066121 16.323 0.050250 110.00 0.0090909 807.88 870.77 2.7785 2.3001 3.0853 248.55 0.066121 16.323 0.050250
190.38 1007.8 undefined 810.18 873.36 2.7835 110.00 0.0090909 810.18 873.36 2.7835 2.3033 3.0832 249.26 0.065526 16.352 0.050401 110.00 0.0090909 810.18 873.36 2.7835 2.3033 3.0832 249.26 0.065526 16.352 0.050401
191.38 1012.3 undefined 812.49 875.94 2.7885 110.00 0.0090909 812.49 875.94 2.7885 2.3066 3.0812 249.98 0.064938 16.382 0.050552 110.00 0.0090909 812.49 875.94 2.7885 2.3066 3.0812 249.98 0.064938 16.382 0.050552
192.38 1016.8 undefined 814.80 878.53 2.7934 110.00 0.0090909 814.80 878.53 2.7934 2.3099 3.0793 250.69 0.064358 16.411 0.050704 110.00 0.0090909 814.80 878.53 2.7934 2.3099 3.0793 250.69 0.064358 16.411 0.050704
193.38 1021.2 undefined 817.11 881.12 2.7984 110.00 0.0090909 817.11 881.12 2.7984 2.3131 3.0775 251.40 0.063785 16.441 0.050856 110.00 0.0090909 817.11 881.12 2.7984 2.3131 3.0775 251.40 0.063785 16.441 0.050856
194.38 1025.7 undefined 819.42 883.71 2.8033 110.00 0.0090909 819.42 883.71 2.8033 2.3164 3.0758 252.11 0.063220 16.470 0.051009 110.00 0.0090909 819.42 883.71 2.8033 2.3164 3.0758 252.11 0.063220 16.470 0.051009
195.38 1030.1 undefined 821.74 886.31 2.8083 110.00 0.0090909 821.74 886.31 2.8083 2.3197 3.0742 252.82 0.062662 16.499 0.051163 110.00 0.0090909 821.74 886.31 2.8083 2.3197 3.0742 252.82 0.062662 16.499 0.051163
196.38 1034.6 undefined 824.06 888.91 2.8132 110.00 0.0090909 824.06 888.91 2.8132 2.3229 3.0727 253.53 0.062111 16.529 0.051316 110.00 0.0090909 824.06 888.91 2.8132 2.3229 3.0727 253.53 0.062111 16.529 0.051316
197.38 1039.0 undefined 826.39 891.51 2.8182 110.00 0.0090909 826.39 891.51 2.8182 2.3262 3.0712 254.23 0.061568 16.558 0.051470 110.00 0.0090909 826.39 891.51 2.8182 2.3262 3.0712 254.23 0.061568 16.558 0.051470
198.38 1043.4 undefined 828.72 894.12 2.8231 110.00 0.0090909 828.72 894.12 2.8231 2.3295 3.0699 254.93 0.061031 16.587 0.051625 110.00 0.0090909 828.72 894.12 2.8231 2.3295 3.0699 254.93 0.061031 16.587 0.051625
199.38 1047.9 undefined 831.05 896.73 2.8281 110.00 0.0090909 831.05 896.73 2.8281 2.3328 3.0686 255.63 0.060501 16.616 0.051780 110.00 0.0090909 831.05 896.73 2.8281 2.3328 3.0686 255.63 0.060501 16.616 0.051780
200.38 1052.3 undefined 833.38 899.34 2.8330 110.00 0.0090909 833.38 899.34 2.8330 2.3361 3.0674 256.33 0.059977 16.646 0.051936 110.00 0.0090909 833.38 899.34 2.8330 2.3361 3.0674 256.33 0.059977 16.646 0.051936
201.38 1056.7 undefined 835.72 901.96 2.8379 110.00 0.0090909 835.72 901.96 2.8379 2.3394 3.0663 257.02 0.059461 16.675 0.052091 110.00 0.0090909 835.72 901.96 2.8379 2.3394 3.0663 257.02 0.059461 16.675 0.052091
202.38 1061.2 undefined 838.06 904.57 2.8429 110.00 0.0090909 838.06 904.57 2.8429 2.3427 3.0652 257.71 0.058950 16.704 0.052248 110.00 0.0090909 838.06 904.57 2.8429 2.3427 3.0652 257.71 0.058950 16.704 0.052248
203.38 1065.6 undefined 840.40 907.20 2.8478 110.00 0.0090909 840.40 907.20 2.8478 2.3460 3.0642 258.41 0.058446 16.733 0.052404 110.00 0.0090909 840.40 907.20 2.8478 2.3460 3.0642 258.41 0.058446 16.733 0.052404
204.38 1070.0 undefined 842.75 909.82 2.8527 110.00 0.0090909 842.75 909.82 2.8527 2.3493 3.0633 259.10 0.057949 16.762 0.052562 110.00 0.0090909 842.75 909.82 2.8527 2.3493 3.0633 259.10 0.057949 16.762 0.052562
205.38 1074.5 undefined 845.10 912.45 2.8576 110.00 0.0090909 845.10 912.45 2.8576 2.3527 3.0625 259.78 0.057457 16.791 0.052719 110.00 0.0090909 845.10 912.45 2.8576 2.3527 3.0625 259.78 0.057457 16.791 0.052719
206.38 1078.9 undefined 847.46 915.08 2.8625 110.00 0.0090909 847.46 915.08 2.8625 2.3560 3.0617 260.47 0.056972 16.820 0.052877 110.00 0.0090909 847.46 915.08 2.8625 2.3560 3.0617 260.47 0.056972 16.820 0.052877
207.38 1083.3 undefined 849.82 917.72 2.8675 110.00 0.0090909 849.82 917.72 2.8675 2.3593 3.0610 261.15 0.056492 16.849 0.053035 110.00 0.0090909 849.82 917.72 2.8675 2.3593 3.0610 261.15 0.056492 16.849 0.053035
208.38 1087.7 undefined 852.18 920.35 2.8724 110.00 0.0090909 852.18 920.35 2.8724 2.3626 3.0604 261.83 0.056018 16.878 0.053194 110.00 0.0090909 852.18 920.35 2.8724 2.3626 3.0604 261.83 0.056018 16.878 0.053194
209.38 1092.1 undefined 854.54 923.00 2.8773 110.00 0.0090909 854.54 923.00 2.8773 2.3660 3.0598 262.51 0.055550 16.907 0.053353 110.00 0.0090909 854.54 923.00 2.8773 2.3660 3.0598 262.51 0.055550 16.907 0.053353
210.38 1096.6 undefined 856.91 925.64 2.8822 110.00 0.0090909 856.91 925.64 2.8822 2.3693 3.0593 263.19 0.055088 16.936 0.053513 110.00 0.0090909 856.91 925.64 2.8822 2.3693 3.0593 263.19 0.055088 16.936 0.053513
211.38 1101.0 undefined 859.28 928.29 2.8871 110.00 0.0090909 859.28 928.29 2.8871 2.3726 3.0588 263.87 0.054631 16.964 0.053673 110.00 0.0090909 859.28 928.29 2.8871 2.3726 3.0588 263.87 0.054631 16.964 0.053673
212.38 1105.4 undefined 861.65 930.94 2.8920 110.00 0.0090909 861.65 930.94 2.8920 2.3760 3.0584 264.54 0.054179 16.993 0.053833 110.00 0.0090909 861.65 930.94 2.8920 2.3760 3.0584 264.54 0.054179 16.993 0.053833
213.38 1109.8 undefined 864.03 933.59 2.8969 110.00 0.0090909 864.03 933.59 2.8969 2.3793 3.0581 265.22 0.053733 17.022 0.053994 110.00 0.0090909 864.03 933.59 2.8969 2.3793 3.0581 265.22 0.053733 17.022 0.053994
214.38 1114.2 undefined 866.41 936.25 2.9017 110.00 0.0090909 866.41 936.25 2.9017 2.3827 3.0578 265.89 0.053293 17.051 0.054155 110.00 0.0090909 866.41 936.25 2.9017 2.3827 3.0578 265.89 0.053293 17.051 0.054155
215.38 1118.6 undefined 868.80 938.91 2.9066 110.00 0.0090909 868.80 938.91 2.9066 2.3860 3.0575 266.56 0.052857 17.079 0.054316 110.00 0.0090909 868.80 938.91 2.9066 2.3860 3.0575 266.56 0.052857 17.079 0.054316
216.38 1123.0 undefined 871.18 941.57 2.9115 110.00 0.0090909 871.18 941.57 2.9115 2.3894 3.0574 267.22 0.052427 17.108 0.054478 110.00 0.0090909 871.18 941.57 2.9115 2.3894 3.0574 267.22 0.052427 17.108 0.054478
217.38 1127.4 undefined 873.58 944.24 2.9164 110.00 0.0090909 873.58 944.24 2.9164 2.3927 3.0572 267.89 0.052001 17.136 0.054640 110.00 0.0090909 873.58 944.24 2.9164 2.3927 3.0572 267.89 0.052001 17.136 0.054640
218.38 1131.8 undefined 875.97 946.91 2.9213 110.00 0.0090909 875.97 946.91 2.9213 2.3961 3.0572 268.55 0.051581 17.165 0.054802 110.00 0.0090909 875.97 946.91 2.9213 2.3961 3.0572 268.55 0.051581 17.165 0.054802
219.38 1136.2 undefined 878.37 949.58 2.9261 110.00 0.0090909 878.37 949.58 2.9261 2.3994 3.0572 269.22 0.051165 17.194 0.054965 110.00 0.0090909 878.37 949.58 2.9261 2.3994 3.0572 269.22 0.051165 17.194 0.054965
220.38 1140.6 undefined 880.77 952.26 2.9310 110.00 0.0090909 880.77 952.26 2.9310 2.4028 3.0572 269.88 0.050755 17.222 0.055129 110.00 0.0090909 880.77 952.26 2.9310 2.4028 3.0572 269.88 0.050755 17.222 0.055129
221.38 1145.0 undefined 883.17 954.94 2.9359 110.00 0.0090909 883.17 954.94 2.9359 2.4061 3.0573 270.54 0.050349 17.250 0.055292 110.00 0.0090909 883.17 954.94 2.9359 2.4061 3.0573 270.54 0.050349 17.250 0.055292
222.38 1149.4 undefined 885.58 957.62 2.9407 110.00 0.0090909 885.58 957.62 2.9407 2.4095 3.0574 271.19 0.049947 17.279 0.055456 110.00 0.0090909 885.58 957.62 2.9407 2.4095 3.0574 271.19 0.049947 17.279 0.055456
223.38 1153.8 undefined 887.99 960.31 2.9456 110.00 0.0090909 887.99 960.31 2.9456 2.4129 3.0576 271.85 0.049551 17.307 0.055620 110.00 0.0090909 887.99 960.31 2.9456 2.4129 3.0576 271.85 0.049551 17.307 0.055620
224.38 1158.2 undefined 890.41 963.00 2.9505 110.00 0.0090909 890.41 963.00 2.9505 2.4162 3.0578 272.50 0.049158 17.336 0.055785 110.00 0.0090909 890.41 963.00 2.9505 2.4162 3.0578 272.50 0.049158 17.336 0.055785
225.38 1162.6 undefined 892.82 965.69 2.9553 110.00 0.0090909 892.82 965.69 2.9553 2.4196 3.0580 273.16 0.048771 17.364 0.055950 110.00 0.0090909 892.82 965.69 2.9553 2.4196 3.0580 273.16 0.048771 17.364 0.055950
226.38 1166.9 undefined 895.25 968.39 2.9602 110.00 0.0090909 895.25 968.39 2.9602 2.4230 3.0583 273.81 0.048387 17.392 0.056115 110.00 0.0090909 895.25 968.39 2.9602 2.4230 3.0583 273.81 0.048387 17.392 0.056115
227.38 1171.3 undefined 897.67 971.09 2.9650 110.00 0.0090909 897.67 971.09 2.9650 2.4263 3.0587 274.46 0.048008 17.421 0.056281 110.00 0.0090909 897.67 971.09 2.9650 2.4263 3.0587 274.46 0.048008 17.421 0.056281
228.38 1175.7 undefined 900.10 973.79 2.9699 110.00 0.0090909 900.10 973.79 2.9699 2.4297 3.0591 275.10 0.047633 17.449 0.056447 110.00 0.0090909 900.10 973.79 2.9699 2.4297 3.0591 275.10 0.047633 17.449 0.056447
229.38 1180.1 undefined 902.53 976.50 2.9747 110.00 0.0090909 902.53 976.50 2.9747 2.4331 3.0595 275.75 0.047263 17.477 0.056613 110.00 0.0090909 902.53 976.50 2.9747 2.4331 3.0595 275.75 0.047263 17.477 0.056613
230.38 1184.5 undefined 904.96 979.21 2.9796 110.00 0.0090909 904.96 979.21 2.9796 2.4365 3.0600 276.39 0.046896 17.505 0.056780 110.00 0.0090909 904.96 979.21 2.9796 2.4365 3.0600 276.39 0.046896 17.505 0.056780
231.38 1188.9 undefined 907.40 981.92 2.9844 110.00 0.0090909 907.40 981.92 2.9844 2.4398 3.0605 277.04 0.046534 17.533 0.056947 110.00 0.0090909 907.40 981.92 2.9844 2.4398 3.0605 277.04 0.046534 17.533 0.056947
232.38 1193.2 undefined 909.84 984.64 2.9892 110.00 0.0090909 909.84 984.64 2.9892 2.4432 3.0610 277.68 0.046175 17.561 0.057114 110.00 0.0090909 909.84 984.64 2.9892 2.4432 3.0610 277.68 0.046175 17.561 0.057114
233.38 1197.6 undefined 912.29 987.35 2.9941 110.00 0.0090909 912.29 987.35 2.9941 2.4466 3.0616 278.32 0.045821 17.590 0.057282 110.00 0.0090909 912.29 987.35 2.9941 2.4466 3.0616 278.32 0.045821 17.590 0.057282
234.38 1202.0 undefined 914.74 990.08 2.9989 110.00 0.0090909 914.74 990.08 2.9989 2.4500 3.0622 278.96 0.045470 17.618 0.057450 110.00 0.0090909 914.74 990.08 2.9989 2.4500 3.0622 278.96 0.045470 17.618 0.057450
235.38 1206.3 undefined 917.19 992.80 3.0037 110.00 0.0090909 917.19 992.80 3.0037 2.4533 3.0629 279.59 0.045123 17.646 0.057618 110.00 0.0090909 917.19 992.80 3.0037 2.4533 3.0629 279.59 0.045123 17.646 0.057618
236.38 1210.7 undefined 919.64 995.53 3.0085 110.00 0.0090909 919.64 995.53 3.0085 2.4567 3.0636 280.23 0.044780 17.674 0.057786 110.00 0.0090909 919.64 995.53 3.0085 2.4567 3.0636 280.23 0.044780 17.674 0.057786
237.38 1215.1 undefined 922.10 998.26 3.0134 110.00 0.0090909 922.10 998.26 3.0134 2.4601 3.0643 280.86 0.044441 17.702 0.057955 110.00 0.0090909 922.10 998.26 3.0134 2.4601 3.0643 280.86 0.044441 17.702 0.057955
238.38 1219.5 undefined 924.56 1001.0 3.0182 110.00 0.0090909 924.56 1001.0 3.0182 2.4635 3.0651 281.49 0.044105 17.729 0.058124 110.00 0.0090909 924.56 1001.0 3.0182 2.4635 3.0651 281.49 0.044105 17.729 0.058124
239.38 1223.8 undefined 927.03 1003.7 3.0230 110.00 0.0090909 927.03 1003.7 3.0230 2.4669 3.0659 282.12 0.043773 17.757 0.058294 110.00 0.0090909 927.03 1003.7 3.0230 2.4669 3.0659 282.12 0.043773 17.757 0.058294
240.38 1228.2 undefined 929.50 1006.5 3.0278 110.00 0.0090909 929.50 1006.5 3.0278 2.4702 3.0667 282.75 0.043444 17.785 0.058464 110.00 0.0090909 929.50 1006.5 3.0278 2.4702 3.0667 282.75 0.043444 17.785 0.058464
241.38 1232.5 undefined 931.97 1009.2 3.0326 110.00 0.0090909 931.97 1009.2 3.0326 2.4736 3.0676 283.38 0.043119 17.813 0.058634 110.00 0.0090909 931.97 1009.2 3.0326 2.4736 3.0676 283.38 0.043119 17.813 0.058634
242.38 1236.9 undefined 934.45 1012.0 3.0374 110.00 0.0090909 934.45 1012.0 3.0374 2.4770 3.0684 284.01 0.042798 17.841 0.058804 110.00 0.0090909 934.45 1012.0 3.0374 2.4770 3.0684 284.01 0.042798 17.841 0.058804
243.38 1241.3 undefined 936.92 1014.7 3.0422 110.00 0.0090909 936.92 1014.7 3.0422 2.4804 3.0694 284.63 0.042480 17.868 0.058975 110.00 0.0090909 936.92 1014.7 3.0422 2.4804 3.0694 284.63 0.042480 17.868 0.058975
244.38 1245.6 undefined 939.41 1017.5 3.0470 110.00 0.0090909 939.41 1017.5 3.0470 2.4838 3.0703 285.26 0.042165 17.896 0.059146 110.00 0.0090909 939.41 1017.5 3.0470 2.4838 3.0703 285.26 0.042165 17.896 0.059146
245.38 1250.0 undefined 941.89 1020.2 3.0518 110.00 0.0090909 941.89 1020.2 3.0518 2.4871 3.0713 285.88 0.041853 17.924 0.059317 110.00 0.0090909 941.89 1020.2 3.0518 2.4871 3.0713 285.88 0.041853 17.924 0.059317
246.38 1254.3 undefined 944.38 1023.0 3.0566 110.00 0.0090909 944.38 1023.0 3.0566 2.4905 3.0723 286.50 0.041545 17.952 0.059488 110.00 0.0090909 944.38 1023.0 3.0566 2.4905 3.0723 286.50 0.041545 17.952 0.059488
247.38 1258.7 undefined 946.87 1025.8 3.0614 110.00 0.0090909 946.87 1025.8 3.0614 2.4939 3.0733 287.12 0.041240 17.979 0.059660 110.00 0.0090909 946.87 1025.8 3.0614 2.4939 3.0733 287.12 0.041240 17.979 0.059660
248.38 1263.0 undefined 949.37 1028.5 3.0662 110.00 0.0090909 949.37 1028.5 3.0662 2.4973 3.0744 287.74 0.040938 18.007 0.059832 110.00 0.0090909 949.37 1028.5 3.0662 2.4973 3.0744 287.74 0.040938 18.007 0.059832
249.38 1267.4 undefined 951.87 1031.3 3.0710 110.00 0.0090909 951.87 1031.3 3.0710 2.5007 3.0755 288.35 0.040639 18.034 0.060004 110.00 0.0090909 951.87 1031.3 3.0710 2.5007 3.0755 288.35 0.040639 18.034 0.060004
250.38 1271.7 undefined 954.37 1034.1 3.0758 110.00 0.0090909 954.37 1034.1 3.0758 2.5041 3.0766 288.97 0.040344 18.062 0.060177 110.00 0.0090909 954.37 1034.1 3.0758 2.5041 3.0766 288.97 0.040344 18.062 0.060177
251.38 1276.1 undefined 956.88 1036.9 3.0805 110.00 0.0090909 956.88 1036.9 3.0805 2.5074 3.0778 289.58 0.040051 18.089 0.060350 110.00 0.0090909 956.88 1036.9 3.0805 2.5074 3.0778 289.58 0.040051 18.089 0.060350
252.38 1280.4 undefined 959.38 1039.6 3.0853 110.00 0.0090909 959.38 1039.6 3.0853 2.5108 3.0789 290.19 0.039762 18.117 0.060523 110.00 0.0090909 959.38 1039.6 3.0853 2.5108 3.0789 290.19 0.039762 18.117 0.060523
253.38 1284.8 undefined 961.90 1042.4 3.0901 110.00 0.0090909 961.90 1042.4 3.0901 2.5142 3.0801 290.80 0.039475 18.144 0.060696 110.00 0.0090909 961.90 1042.4 3.0901 2.5142 3.0801 290.80 0.039475 18.144 0.060696
254.38 1289.1 undefined 964.41 1045.2 3.0949 110.00 0.0090909 964.41 1045.2 3.0949 2.5176 3.0813 291.41 0.039191 18.172 0.060870 110.00 0.0090909 964.41 1045.2 3.0949 2.5176 3.0813 291.41 0.039191 18.172 0.060870
255.38 1293.5 undefined 966.93 1048.0 3.0996 110.00 0.0090909 966.93 1048.0 3.0996 2.5209 3.0826 292.02 0.038910 18.199 0.061043 110.00 0.0090909 966.93 1048.0 3.0996 2.5209 3.0826 292.02 0.038910 18.199 0.061043
256.38 1297.8 undefined 969.45 1050.8 3.1044 110.00 0.0090909 969.45 1050.8 3.1044 2.5243 3.0839 292.63 0.038632 18.226 0.061217 110.00 0.0090909 969.45 1050.8 3.1044 2.5243 3.0839 292.63 0.038632 18.226 0.061217
257.38 1302.2 undefined 971.98 1053.6 3.1092 110.00 0.0090909 971.98 1053.6 3.1092 2.5277 3.0852 293.23 0.038357 18.254 0.061392 110.00 0.0090909 971.98 1053.6 3.1092 2.5277 3.0852 293.23 0.038357 18.254 0.061392
258.38 1306.5 undefined 974.51 1056.4 3.1139 110.00 0.0090909 974.51 1056.4 3.1139 2.5311 3.0865 293.84 0.038084 18.281 0.061566 110.00 0.0090909 974.51 1056.4 3.1139 2.5311 3.0865 293.84 0.038084 18.281 0.061566
259.38 1310.8 undefined 977.04 1059.2 3.1187 110.00 0.0090909 977.04 1059.2 3.1187 2.5345 3.0878 294.44 0.037815 18.308 0.061741 110.00 0.0090909 977.04 1059.2 3.1187 2.5345 3.0878 294.44 0.037815 18.308 0.061741
260.38 1315.2 undefined 979.58 1062.0 3.1235 110.00 0.0090909 979.58 1062.0 3.1235 2.5378 3.0892 295.04 0.037548 18.335 0.061915 110.00 0.0090909 979.58 1062.0 3.1235 2.5378 3.0892 295.04 0.037548 18.335 0.061915
261.38 1319.5 undefined 982.12 1064.8 3.1282 110.00 0.0090909 982.12 1064.8 3.1282 2.5412 3.0905 295.64 0.037283 18.363 0.062090 110.00 0.0090909 982.12 1064.8 3.1282 2.5412 3.0905 295.64 0.037283 18.363 0.062090
262.38 1323.8 undefined 984.66 1067.6 3.1330 110.00 0.0090909 984.66 1067.6 3.1330 2.5446 3.0919 296.24 0.037021 18.390 0.062265 110.00 0.0090909 984.66 1067.6 3.1330 2.5446 3.0919 296.24 0.037021 18.390 0.062265
263.38 1328.2 undefined 987.21 1070.5 3.1377 110.00 0.0090909 987.21 1070.5 3.1377 2.5480 3.0934 296.84 0.036762 18.417 0.062440 110.00 0.0090909 987.21 1070.5 3.1377 2.5480 3.0934 296.84 0.036762 18.417 0.062440
264.38 1332.5 undefined 989.76 1073.3 3.1425 110.00 0.0090909 989.76 1073.3 3.1425 2.5513 3.0948 297.44 0.036506 18.444 0.062616 110.00 0.0090909 989.76 1073.3 3.1425 2.5513 3.0948 297.44 0.036506 18.444 0.062616
265.38 1336.8 undefined 992.31 1076.1 3.1472 110.00 0.0090909 992.31 1076.1 3.1472 2.5547 3.0963 298.03 0.036251 18.471 0.062791 110.00 0.0090909 992.31 1076.1 3.1472 2.5547 3.0963 298.03 0.036251 18.471 0.062791
266.38 1341.2 undefined 994.87 1078.9 3.1520 110.00 0.0090909 994.87 1078.9 3.1520 2.5581 3.0977 298.63 0.036000 18.498 0.062967 110.00 0.0090909 994.87 1078.9 3.1520 2.5581 3.0977 298.63 0.036000 18.498 0.062967
267.38 1345.5 undefined 997.43 1081.8 3.1567 110.00 0.0090909 997.43 1081.8 3.1567 2.5614 3.0992 299.22 0.035750 18.525 0.063142 110.00 0.0090909 997.43 1081.8 3.1567 2.5614 3.0992 299.22 0.035750 18.525 0.063142
268.38 1349.8 undefined 999.99 1084.6 3.1614 110.00 0.0090909 999.99 1084.6 3.1614 2.5648 3.1008 299.81 0.035504 18.552 0.063318 110.00 0.0090909 999.99 1084.6 3.1614 2.5648 3.1008 299.81 0.035504 18.552 0.063318
269.38 1354.2 undefined 1002.6 1087.4 3.1662 110.00 0.0090909 1002.6 1087.4 3.1662 2.5682 3.1023 300.40 0.035259 18.579 0.063493 110.00 0.0090909 1002.6 1087.4 3.1662 2.5682 3.1023 300.40 0.035259 18.579 0.063493
270.38 1358.5 undefined 1005.1 1090.3 3.1709 110.00 0.0090909 1005.1 1090.3 3.1709 2.5715 3.1038 300.99 0.035017 18.606 0.063669 110.00 0.0090909 1005.1 1090.3 3.1709 2.5715 3.1038 300.99 0.035017 18.606 0.063669
271.38 1362.8 undefined 1007.7 1093.1 3.1756 110.00 0.0090909 1007.7 1093.1 3.1756 2.5749 3.1054 301.58 0.034777 18.633 0.063844 110.00 0.0090909 1007.7 1093.1 3.1756 2.5749 3.1054 301.58 0.034777 18.633 0.063844
272.38 1367.1 undefined 1010.3 1096.0 3.1804 110.00 0.0090909 1010.3 1096.0 3.1804 2.5782 3.1070 302.17 0.034540 18.660 0.064019 110.00 0.0090909 1010.3 1096.0 3.1804 2.5782 3.1070 302.17 0.034540 18.660 0.064019
273.38 1371.5 undefined 1012.9 1098.8 3.1851 110.00 0.0090909 1012.9 1098.8 3.1851 2.5816 3.1086 302.75 0.034305 18.686 0.064194 110.00 0.0090909 1012.9 1098.8 3.1851 2.5816 3.1086 302.75 0.034305 18.686 0.064194
274.38 1375.8 undefined 1015.4 1101.7 3.1898 110.00 0.0090909 1015.4 1101.7 3.1898 2.5850 3.1102 303.34 0.034072 18.713 0.064369 110.00 0.0090909 1015.4 1101.7 3.1898 2.5850 3.1102 303.34 0.034072 18.713 0.064369
275.38 1380.1 undefined 1018.0 1104.5 3.1945 110.00 0.0090909 1018.0 1104.5 3.1945 2.5883 3.1119 303.92 0.033841 18.740 0.064543 110.00 0.0090909 1018.0 1104.5 3.1945 2.5883 3.1119 303.92 0.033841 18.740 0.064543
276.38 1384.4 undefined 1020.6 1107.4 3.1992 110.00 0.0090909 1020.6 1107.4 3.1992 2.5917 3.1135 304.50 0.033612 18.767 0.064716 110.00 0.0090909 1020.6 1107.4 3.1992 2.5917 3.1135 304.50 0.033612 18.767 0.064716
277.38 1388.7 undefined 1023.2 1110.3 3.2040 110.00 0.0090909 1023.2 1110.3 3.2040 2.5950 3.1152 305.08 0.033386 18.793 0.064888 110.00 0.0090909 1023.2 1110.3 3.2040 2.5950 3.1152 305.08 0.033386 18.793 0.064888
278.38 1393.1 undefined 1025.8 1113.1 3.2087 110.00 0.0090909 1025.8 1113.1 3.2087 2.5984 3.1169 305.66 0.033161 18.820 0.065058 110.00 0.0090909 1025.8 1113.1 3.2087 2.5984 3.1169 305.66 0.033161 18.820 0.065058
279.38 1397.4 undefined 1028.4 1116.0 3.2134 110.00 0.0090909 1028.4 1116.0 3.2134 2.6017 3.1186 306.24 0.032939 18.847 0.065225 110.00 0.0090909 1028.4 1116.0 3.2134 2.6017 3.1186 306.24 0.032939 18.847 0.065225
280.38 1401.7 undefined 1031.0 1118.9 3.2181 110.00 0.0090909 1031.0 1118.9 3.2181 2.6051 3.1203 306.82 0.032719 18.873 0.065387 110.00 0.0090909 1031.0 1118.9 3.2181 2.6051 3.1203 306.82 0.032719 18.873 0.065387
281.38 1406.0 undefined 1033.6 1121.7 3.2228 110.00 0.0090909 1033.6 1121.7 3.2228 2.6084 3.1220 307.40 0.032501 18.900 0.065531 110.00 0.0090909 1033.6 1121.7 3.2228 2.6084 3.1220 307.40 0.032501 18.900 0.065531
282.38 1410.3 undefined 1036.2 1124.6 3.2275 110.00 0.0090909 1036.2 1124.6 3.2275 2.6118 3.1238 307.97 0.032285 18.926 0.065690 110.00 0.0090909 1036.2 1124.6 3.2275 2.6118 3.1238 307.97 0.032285 18.926 0.065690
283.38 1414.6 undefined 1038.8 1127.5 3.2322 110.00 0.0090909 1038.8 1127.5 3.2322 2.6151 3.1255 308.55 0.032070 18.953 0.065881 110.00 0.0090909 1038.8 1127.5 3.2322 2.6151 3.1255 308.55 0.032070 18.953 0.065881
284.38 1418.9 undefined 1041.5 1130.4 3.2369 110.00 0.0090909 1041.5 1130.4 3.2369 2.6184 3.1273 309.12 0.031858 18.979 0.066072 110.00 0.0090909 1041.5 1130.4 3.2369 2.6184 3.1273 309.12 0.031858 18.979 0.066072
285.38 1423.3 undefined 1044.1 1133.3 3.2416 110.00 0.0090909 1044.1 1133.3 3.2416 2.6218 3.1291 309.69 0.031648 19.006 0.066263 110.00 0.0090909 1044.1 1133.3 3.2416 2.6218 3.1291 309.69 0.031648 19.006 0.066263
286.38 1427.6 undefined 1046.7 1136.2 3.2463 110.00 0.0090909 1046.7 1136.2 3.2463 2.6251 3.1309 310.26 0.031440 19.032 0.066455 110.00 0.0090909 1046.7 1136.2 3.2463 2.6251 3.1309 310.26 0.031440 19.032 0.066455
287.38 1431.9 undefined 1049.3 1139.1 3.2510 110.00 0.0090909 1049.3 1139.1 3.2510 2.6285 3.1327 310.83 0.031233 19.059 0.066646 110.00 0.0090909 1049.3 1139.1 3.2510 2.6285 3.1327 310.83 0.031233 19.059 0.066646
288.38 1436.2 undefined 1052.0 1142.0 3.2557 110.00 0.0090909 1052.0 1142.0 3.2557 2.6318 3.1345 311.40 0.031029 19.085 0.066839 110.00 0.0090909 1052.0 1142.0 3.2557 2.6318 3.1345 311.40 0.031029 19.085 0.066839
289.38 1440.5 undefined 1054.6 1144.9 3.2603 110.00 0.0090909 1054.6 1144.9 3.2603 2.6351 3.1363 311.97 0.030826 19.111 0.067031 110.00 0.0090909 1054.6 1144.9 3.2603 2.6351 3.1363 311.97 0.030826 19.111 0.067031
290.38 1444.8 undefined 1057.2 1147.8 3.2650 110.00 0.0090909 1057.2 1147.8 3.2650 2.6384 3.1382 312.53 0.030625 19.138 0.067224 110.00 0.0090909 1057.2 1147.8 3.2650 2.6384 3.1382 312.53 0.030625 19.138 0.067224
291.38 1449.1 undefined 1059.9 1150.7 3.2697 110.00 0.0090909 1059.9 1150.7 3.2697 2.6418 3.1401 313.10 0.030426 19.164 0.067417 110.00 0.0090909 1059.9 1150.7 3.2697 2.6418 3.1401 313.10 0.030426 19.164 0.067417
292.38 1453.4 undefined 1062.5 1153.6 3.2744 110.00 0.0090909 1062.5 1153.6 3.2744 2.6451 3.1419 313.66 0.030229 19.190 0.067610 110.00 0.0090909 1062.5 1153.6 3.2744 2.6451 3.1419 313.66 0.030229 19.190 0.067610
293.38 1457.7 undefined 1065.2 1156.5 3.2791 110.00 0.0090909 1065.2 1156.5 3.2791 2.6484 3.1438 314.23 0.030033 19.216 0.067804 110.00 0.0090909 1065.2 1156.5 3.2791 2.6484 3.1438 314.23 0.030033 19.216 0.067804
294.38 1462.0 undefined 1067.8 1159.4 3.2837 110.00 0.0090909 1067.8 1159.4 3.2837 2.6517 3.1457 314.79 0.029840 19.242 0.067998 110.00 0.0090909 1067.8 1159.4 3.2837 2.6517 3.1457 314.79 0.029840 19.242 0.067998
295.38 1466.3 undefined 1070.5 1162.4 3.2884 110.00 0.0090909 1070.5 1162.4 3.2884 2.6550 3.1476 315.35 0.029648 19.269 0.068192 110.00 0.0090909 1070.5 1162.4 3.2884 2.6550 3.1476 315.35 0.029648 19.269 0.068192
296.38 1470.6 undefined 1073.1 1165.3 3.2931 110.00 0.0090909 1073.1 1165.3 3.2931 2.6584 3.1495 315.91 0.029457 19.295 0.068386 110.00 0.0090909 1073.1 1165.3 3.2931 2.6584 3.1495 315.91 0.029457 19.295 0.068386
297.38 1474.9 undefined 1075.8 1168.2 3.2977 110.00 0.0090909 1075.8 1168.2 3.2977 2.6617 3.1515 316.47 0.029268 19.321 0.068581 110.00 0.0090909 1075.8 1168.2 3.2977 2.6617 3.1515 316.47 0.029268 19.321 0.068581
298.38 1479.2 undefined 1078.4 1171.2 3.3024 110.00 0.0090909 1078.4 1171.2 3.3024 2.6650 3.1534 317.03 0.029081 19.347 0.068776 110.00 0.0090909 1078.4 1171.2 3.3024 2.6650 3.1534 317.03 0.029081 19.347 0.068776
299.38 1483.5 undefined 1081.1 1174.1 3.3071 110.00 0.0090909 1081.1 1174.1 3.3071 2.6683 3.1553 317.58 0.028896 19.373 0.068971 110.00 0.0090909 1081.1 1174.1 3.3071 2.6683 3.1553 317.58 0.028896 19.373 0.068971
300.38 1487.8 undefined 1083.8 1177.0 3.3117 110.00 0.0090909 1083.8 1177.0 3.3117 2.6716 3.1573 318.14 0.028712 19.399 0.069167 110.00 0.0090909 1083.8 1177.0 3.3117 2.6716 3.1573 318.14 0.028712 19.399 0.069167