Temperature (C) Pressure (psia) Quality (l+v) Internal Energy (l+v, kJ/kg) Enthalpy (l+v, kJ/kg) Entropy (l+v, J/g*K) Density (l, kg/m3) Volume (l, m3/kg) Internal Energy (l, kJ/kg) Enthalpy (l, kJ/kg) Entropy (l, J/g*K) Cv (l, J/g*K) Cp (l, J/g*K) Sound Spd. (l, m/s) Joule-Thomson (l, F/psia) Viscosity (l, uPa*s) Therm. Cond. (l, W/m*K) Density (v, kg/m3) Volume (v, m3/kg) Internal Energy (v, kJ/kg) Enthalpy (v, kJ/kg) Entropy (v, J/g*K) Cv (v, J/g*K) Cp (v, J/g*K) Sound Spd. (v, m/s) Joule-Thomson (v, F/psia) Viscosity (v, uPa*s) Therm. Cond. (v, W/m*K)
-187.62 2.4953e-08 5.1888e-10 -196.64 -196.64 -1.3959 733.13 0.0013640 -196.64 -196.64 -1.3959 1.3553 1.9158 2136.4 -0.0077592 10960. 0.20792 1.0669e-08 9.3732e+07 350.13 366.26 5.1858 0.69067 0.87923 143.28 6.1051 2.3259 0.0017061
-186.62 3.7339e-08 7.6744e-10 -194.73 -194.73 -1.3736 732.08 0.0013660 -194.73 -194.73 -1.3736 1.3539 1.9166 2129.6 -0.0077546 10073. 0.20765 1.5780e-08 6.3371e+07 350.82 367.14 5.1200 0.69462 0.88317 144.03 5.9178 2.3534 0.0017533
-185.62 5.5322e-08 1.1240e-09 -192.81 -192.81 -1.3516 731.04 0.0013679 -192.81 -192.81 -1.3516 1.3525 1.9174 2122.9 -0.0077498 9276.1 0.20737 2.3112e-08 4.3267e+07 351.52 368.02 5.0561 0.69857 0.88713 144.77 5.7383 2.3808 0.0018007
-184.62 8.1182e-08 1.6307e-09 -190.89 -190.89 -1.3298 730.00 0.0013699 -190.89 -190.89 -1.3298 1.3513 1.9182 2116.1 -0.0077448 8557.8 0.20708 3.3533e-08 2.9821e+07 352.22 368.91 4.9939 0.70253 0.89108 145.51 5.5662 2.4083 0.0018485
-183.62 1.1803e-07 2.3444e-09 -188.97 -188.97 -1.3083 728.96 0.0013718 -188.97 -188.97 -1.3083 1.3501 1.9191 2109.3 -0.0077395 7909.8 0.20678 4.8211e-08 2.0742e+07 352.92 369.81 4.9333 0.70648 0.89504 146.24 5.4011 2.4357 0.0018965
-182.62 1.7009e-07 3.3408e-09 -187.05 -187.05 -1.2869 727.92 0.0013738 -187.05 -187.05 -1.2869 1.3490 1.9201 2102.5 -0.0077340 7324.3 0.20647 6.8704e-08 1.4555e+07 353.63 370.70 4.8744 0.71043 0.89899 146.97 5.2426 2.4632 0.0019448
-181.62 2.4299e-07 4.7204e-09 -185.13 -185.13 -1.2658 726.88 0.0013757 -185.13 -185.13 -1.2658 1.3480 1.9210 2095.7 -0.0077283 6794.5 0.20616 9.7079e-08 1.0301e+07 354.35 371.60 4.8170 0.71438 0.90294 147.69 5.0904 2.4906 0.0019934
-180.62 3.4425e-07 6.6150e-09 -183.21 -183.21 -1.2450 725.85 0.0013777 -183.21 -183.21 -1.2450 1.3470 1.9220 2088.9 -0.0077225 6314.4 0.20584 1.3605e-07 7.3504e+06 355.06 372.51 4.7612 0.71833 0.90688 148.41 4.9442 2.5181 0.0020423
-179.62 4.8378e-07 9.1965e-09 -181.29 -181.29 -1.2243 724.81 0.0013797 -181.29 -181.29 -1.2243 1.3461 1.9231 2082.0 -0.0077164 5878.8 0.20551 1.8915e-07 5.2868e+06 355.78 373.42 4.7068 0.72227 0.91082 149.13 4.8038 2.5456 0.0020915
-178.62 6.7459e-07 1.2688e-08 -179.37 -179.37 -1.2038 723.78 0.0013816 -179.37 -179.37 -1.2038 1.3453 1.9241 2075.2 -0.0077102 5482.9 0.20517 2.6096e-07 3.8320e+06 356.51 374.33 4.6538 0.72620 0.91475 149.84 4.6688 2.5731 0.0021410
-177.62 9.3358e-07 1.7374e-08 -177.44 -177.44 -1.1836 722.75 0.0013836 -177.44 -177.44 -1.1836 1.3445 1.9252 2068.4 -0.0077039 5122.6 0.20483 3.5737e-07 2.7982e+06 357.23 375.25 4.6022 0.73012 0.91867 150.54 4.5390 2.6005 0.0021907
-176.62 1.2826e-06 2.3621e-08 -175.52 -175.52 -1.1635 721.72 0.0013856 -175.52 -175.52 -1.1635 1.3437 1.9263 2061.5 -0.0076973 4794.1 0.20447 4.8588e-07 2.0581e+06 357.97 376.17 4.5519 0.73403 0.92258 151.25 4.4142 2.6280 0.0022408
-175.62 1.7496e-06 3.1890e-08 -173.59 -173.59 -1.1437 720.69 0.0013876 -173.59 -173.59 -1.1437 1.3430 1.9274 2054.7 -0.0076907 4494.3 0.20411 6.5601e-07 1.5244e+06 358.70 377.09 4.5029 0.73792 0.92648 151.95 4.2941 2.6555 0.0022912
-174.62 2.3705e-06 4.2766e-08 -171.66 -171.66 -1.1240 719.66 0.0013895 -171.66 -171.66 -1.1240 1.3423 1.9286 2047.9 -0.0076838 4220.2 0.20375 8.7976e-07 1.1367e+06 359.44 378.02 4.4551 0.74181 0.93036 152.64 4.1784 2.6830 0.0023418
-173.62 3.1903e-06 5.6976e-08 -169.73 -169.73 -1.1045 718.64 0.0013915 -169.73 -169.73 -1.1045 1.3417 1.9298 2041.0 -0.0076769 3969.3 0.20338 1.1721e-06 8.5314e+05 360.19 378.95 4.4085 0.74568 0.93423 153.33 4.0671 2.7105 0.0023928
-172.62 4.2661e-06 7.5428e-08 -167.80 -167.80 -1.0852 717.61 0.0013935 -167.80 -167.80 -1.0852 1.3411 1.9310 2034.2 -0.0076698 3739.3 0.20300 1.5518e-06 6.4441e+05 360.93 379.89 4.3631 0.74953 0.93809 154.02 3.9599 2.7379 0.0024440
-171.62 5.6692e-06 9.9245e-08 -165.87 -165.87 -1.0661 716.58 0.0013955 -165.87 -165.87 -1.0661 1.3405 1.9322 2027.3 -0.0076625 3528.0 0.20261 2.0419e-06 4.8974e+05 361.69 380.83 4.3188 0.75337 0.94193 154.71 3.8566 2.7654 0.0024955
-170.62 7.4884e-06 1.2981e-07 -163.94 -163.94 -1.0472 715.56 0.0013975 -163.94 -163.94 -1.0472 1.3400 1.9334 2020.5 -0.0076552 3333.8 0.20222 2.6708e-06 3.7442e+05 362.44 381.77 4.2755 0.75720 0.94575 155.39 3.7570 2.7929 0.0025473
-169.62 9.8334e-06 1.6880e-07 -162.00 -162.00 -1.0284 714.54 0.0013995 -162.00 -162.00 -1.0284 1.3395 1.9347 2013.6 -0.0076477 3154.9 0.20182 3.4733e-06 2.8791e+05 363.20 382.72 4.2334 0.76100 0.94956 156.07 3.6609 2.8204 0.0025994
-168.62 1.2839e-05 2.1829e-07 -160.07 -160.07 -1.0098 713.52 0.0014015 -160.07 -160.07 -1.0098 1.3390 1.9359 2006.8 -0.0076401 2989.9 0.20141 4.4917e-06 2.2263e+05 363.96 383.67 4.1922 0.76479 0.95335 156.74 3.5683 2.8479 0.0026518
-167.62 1.6672e-05 2.8075e-07 -158.13 -158.13 -0.99134 712.49 0.0014035 -158.13 -158.13 -0.99134 1.3386 1.9372 2000.0 -0.0076323 2837.5 0.20100 5.7771e-06 1.7310e+05 364.73 384.63 4.1521 0.76856 0.95712 157.41 3.4790 2.8754 0.0027045
-166.62 2.1533e-05 3.5918e-07 -156.19 -156.19 -0.97306 711.47 0.0014055 -156.19 -156.19 -0.97306 1.3382 1.9385 1993.1 -0.0076245 2696.5 0.20058 7.3914e-06 1.3529e+05 365.50 385.59 4.1129 0.77232 0.96087 158.08 3.3927 2.9029 0.0027575
-165.62 2.7666e-05 4.5718e-07 -154.25 -154.25 -0.95494 710.45 0.0014075 -154.25 -154.25 -0.95494 1.3378 1.9398 1986.3 -0.0076165 2566.0 0.20016 9.4084e-06 1.0629e+05 366.27 386.55 4.0746 0.77605 0.96460 158.75 3.3095 2.9304 0.0028108
-164.62 3.5367e-05 5.7902e-07 -152.31 -152.31 -0.93698 709.44 0.0014096 -152.31 -152.31 -0.93698 1.3375 1.9411 1979.4 -0.0076084 2444.9 0.19973 1.1916e-05 83918. 367.05 387.52 4.0372 0.77976 0.96832 159.41 3.2291 2.9579 0.0028643
-163.62 4.4989e-05 7.2980e-07 -150.37 -150.37 -0.91917 708.42 0.0014116 -150.37 -150.37 -0.91917 1.3371 1.9424 1972.6 -0.0076002 2332.3 0.19930 1.5020e-05 66577. 367.83 388.49 4.0008 0.78346 0.97201 160.07 3.1514 2.9854 0.0029182
-162.62 5.6956e-05 9.1554e-07 -148.43 -148.43 -0.90151 707.40 0.0014136 -148.43 -148.43 -0.90151 1.3368 1.9437 1965.8 -0.0075919 2227.7 0.19886 1.8844e-05 53068. 368.62 389.46 3.9651 0.78713 0.97569 160.72 3.0764 3.0129 0.0029723
-161.62 7.1773e-05 1.1433e-06 -146.48 -146.48 -0.88399 706.38 0.0014157 -146.48 -146.48 -0.88400 1.3365 1.9451 1959.0 -0.0075834 2130.2 0.19841 2.3533e-05 42494. 369.41 390.44 3.9304 0.79079 0.97935 161.38 3.0038 3.0404 0.0030268
-160.62 9.0036e-05 1.4214e-06 -144.54 -144.54 -0.86662 705.37 0.0014177 -144.54 -144.54 -0.86663 1.3363 1.9465 1952.1 -0.0075748 2039.2 0.19796 2.9258e-05 34178. 370.20 391.42 3.8964 0.79443 0.98298 162.03 2.9337 3.0679 0.0030815
-159.62 0.00011245 1.7596e-06 -142.59 -142.59 -0.84939 704.35 0.0014197 -142.59 -142.59 -0.84940 1.3360 1.9478 1945.3 -0.0075661 1954.2 0.19751 3.6221e-05 27609. 371.00 392.40 3.8632 0.79805 0.98660 162.68 2.8658 3.0955 0.0031365
-158.62 0.00013985 2.1691e-06 -140.64 -140.64 -0.83230 703.34 0.0014218 -140.64 -140.64 -0.83231 1.3358 1.9492 1938.5 -0.0075573 1874.8 0.19705 4.4652e-05 22395. 371.80 393.39 3.8307 0.80164 0.99020 163.32 2.8002 3.1230 0.0031918
-157.62 0.00017320 2.6630e-06 -138.69 -138.69 -0.81535 702.32 0.0014238 -138.69 -138.69 -0.81536 1.3356 1.9506 1931.7 -0.0075484 1800.3 0.19658 5.4822e-05 18241. 372.60 394.38 3.7990 0.80522 0.99378 163.96 2.7367 3.1505 0.0032474
-156.62 0.00021364 3.2564e-06 -136.74 -136.74 -0.79853 701.31 0.0014259 -136.74 -136.74 -0.79854 1.3354 1.9520 1924.9 -0.0075393 1730.5 0.19611 6.7040e-05 14916. 373.41 395.38 3.7680 0.80878 0.99734 164.60 2.6752 3.1780 0.0033033
-155.62 0.00026248 3.9667e-06 -134.79 -134.79 -0.78184 700.30 0.0014280 -134.79 -134.79 -0.78185 1.3352 1.9534 1918.1 -0.0075302 1664.9 0.19564 8.1666e-05 12245. 374.22 396.38 3.7377 0.81232 1.0009 165.24 2.6157 3.2055 0.0033595
-154.62 0.00032125 4.8137e-06 -132.83 -132.83 -0.76528 699.29 0.0014300 -132.83 -132.83 -0.76530 1.3350 1.9548 1911.3 -0.0075209 1603.3 0.19516 9.9109e-05 10090. 375.03 397.38 3.7081 0.81585 1.0044 165.87 2.5580 3.2330 0.0034160
-153.62 0.00039171 5.8203e-06 -130.88 -130.88 -0.74884 698.27 0.0014321 -130.88 -130.88 -0.74887 1.3349 1.9563 1904.5 -0.0075114 1545.3 0.19468 0.00011984 8344.6 375.85 398.39 3.6792 0.81935 1.0079 166.50 2.5022 3.2606 0.0034727
-152.62 0.00047590 7.0122e-06 -128.92 -128.92 -0.73253 697.26 0.0014342 -128.92 -128.92 -0.73256 1.3348 1.9577 1897.8 -0.0075019 1490.6 0.19419 0.00014439 6925.9 376.67 399.40 3.6509 0.82284 1.0114 167.13 2.4481 3.2881 0.0035298
-151.62 0.00057613 8.4189e-06 -126.96 -126.96 -0.71634 696.25 0.0014363 -126.96 -126.96 -0.71638 1.3346 1.9592 1891.0 -0.0074922 1438.9 0.19370 0.00017336 5768.4 377.49 400.41 3.6232 0.82631 1.0149 167.76 2.3957 3.3156 0.0035872
-150.62 0.00069507 1.0074e-05 -125.00 -125.00 -0.70028 695.24 0.0014384 -125.00 -125.00 -0.70032 1.3345 1.9606 1884.2 -0.0074824 1390.2 0.19320 0.00020744 4820.7 378.32 401.42 3.5962 0.82976 1.0183 168.38 2.3448 3.3431 0.0036448
-149.62 0.00083574 1.2014e-05 -123.04 -123.04 -0.68432 694.23 0.0014404 -123.04 -123.04 -0.68438 1.3345 1.9621 1877.4 -0.0074724 1344.0 0.19270 0.00024740 4042.0 379.15 402.44 3.5697 0.83319 1.0218 169.00 2.2956 3.3706 0.0037027
-148.62 0.0010016 1.4282e-05 -121.07 -121.07 -0.66849 693.22 0.0014425 -121.08 -121.08 -0.66855 1.3344 1.9636 1870.7 -0.0074623 1300.3 0.19220 0.00029412 3400.0 379.99 403.47 3.5438 0.83661 1.0252 169.62 2.2478 3.3982 0.0037610
-147.62 0.0011965 1.6924e-05 -119.11 -119.11 -0.65277 692.21 0.0014447 -119.11 -119.11 -0.65284 1.3343 1.9651 1863.9 -0.0074521 1258.9 0.19169 0.00034856 2869.0 380.83 404.49 3.5185 0.84001 1.0286 170.24 2.2014 3.4257 0.0038195
-146.62 0.0014249 1.9995e-05 -117.14 -117.14 -0.63716 691.20 0.0014468 -117.15 -117.15 -0.63724 1.3343 1.9666 1857.2 -0.0074417 1219.6 0.19117 0.00041181 2428.3 381.67 405.52 3.4938 0.84340 1.0320 170.85 2.1565 3.4532 0.0038783
-145.62 0.0016917 2.3552e-05 -115.17 -115.17 -0.62165 690.19 0.0014489 -115.18 -115.18 -0.62175 1.3343 1.9682 1850.4 -0.0074312 1182.3 0.19066 0.00048510 2061.4 382.51 406.56 3.4695 0.84677 1.0353 171.46 2.1128 3.4807 0.0039374
-144.62 0.0020026 2.7661e-05 -113.20 -113.20 -0.60626 689.18 0.0014510 -113.21 -113.21 -0.60637 1.3343 1.9697 1843.7 -0.0074206 1146.8 0.19014 0.00056976 1755.1 383.36 407.59 3.4458 0.85012 1.0387 172.07 2.0705 3.5082 0.0039967
-143.62 0.0023637 3.2396e-05 -111.23 -111.23 -0.59097 688.17 0.0014531 -111.24 -111.24 -0.59110 1.3343 1.9713 1836.9 -0.0074098 1113.0 0.18962 0.00066731 1498.6 384.21 408.63 3.4226 0.85346 1.0420 172.68 2.0294 3.5358 0.0040564
-142.62 0.0027820 3.7835e-05 -109.25 -109.25 -0.57578 687.16 0.0014553 -109.27 -109.27 -0.57593 1.3343 1.9728 1830.2 -0.0073988 1080.8 0.18909 0.00077939 1283.1 385.07 409.68 3.3999 0.85679 1.0454 173.28 1.9896 3.5633 0.0041164
-141.62 0.0032653 4.4069e-05 -107.27 -107.27 -0.56070 686.15 0.0014574 -107.30 -107.30 -0.56087 1.3343 1.9744 1823.5 -0.0073878 1050.1 0.18856 0.00090784 1101.5 385.93 410.72 3.3777 0.86011 1.0487 173.88 1.9508 3.5908 0.0041766
-140.62 0.0038222 5.1194e-05 -105.30 -105.29 -0.54571 685.14 0.0014596 -105.32 -105.32 -0.54591 1.3344 1.9760 1816.7 -0.0073765 1020.7 0.18803 0.0010547 948.16 386.79 411.77 3.3560 0.86341 1.0520 174.48 1.9133 3.6183 0.0042372
-139.62 0.0044623 5.9319e-05 -103.32 -103.31 -0.53082 684.13 0.0014617 -103.34 -103.34 -0.53105 1.3344 1.9776 1810.0 -0.0073651 992.74 0.18749 0.0012221 818.26 387.65 412.83 3.3347 0.86670 1.0553 175.08 1.8768 3.6459 0.0042980
-138.62 0.0051963 6.8560e-05 -101.33 -101.33 -0.51602 683.12 0.0014639 -101.37 -101.37 -0.51629 1.3345 1.9792 1803.3 -0.0073536 965.97 0.18695 0.0014125 707.94 388.52 413.88 3.3139 0.86998 1.0586 175.67 1.8413 3.6734 0.0043592
-137.62 0.0060358 7.9046e-05 -99.347 -99.345 -0.50132 682.11 0.0014660 -99.386 -99.386 -0.50162 1.3346 1.9808 1796.6 -0.0073419 940.35 0.18641 0.0016287 614.00 389.39 414.94 3.2935 0.87325 1.0619 176.26 1.8069 3.7009 0.0044206
-136.62 0.0069938 9.0917e-05 -97.360 -97.358 -0.48671 681.10 0.0014682 -97.404 -97.404 -0.48705 1.3347 1.9825 1789.9 -0.0073301 915.81 0.18586 0.0018733 533.80 390.26 416.00 3.2735 0.87650 1.0651 176.85 1.7734 3.7284 0.0044823
-135.62 0.0080843 0.00010433 -95.370 -95.368 -0.47219 680.09 0.0014704 -95.421 -95.421 -0.47258 1.3348 1.9841 1783.2 -0.0073180 892.30 0.18531 0.0021497 465.17 391.14 417.07 3.2540 0.87975 1.0684 177.44 1.7409 3.7559 0.0045443
-134.62 0.0093230 0.00011944 -93.378 -93.375 -0.45776 679.08 0.0014726 -93.436 -93.436 -0.45820 1.3350 1.9858 1776.5 -0.0073059 869.75 0.18476 0.0024613 406.30 392.02 418.14 3.2348 0.88299 1.0716 178.02 1.7093 3.7834 0.0046066
-133.62 0.010727 0.00013644 -91.383 -91.380 -0.44341 678.07 0.0014748 -91.450 -91.449 -0.44391 1.3351 1.9875 1769.8 -0.0072935 848.11 0.18421 0.0028116 355.67 392.91 419.21 3.2161 0.88622 1.0749 178.61 1.6786 3.8109 0.0046691
-132.62 0.012315 0.00015551 -89.386 -89.382 -0.42914 677.06 0.0014770 -89.461 -89.461 -0.42971 1.3353 1.9892 1763.1 -0.0072810 827.32 0.18365 0.0032049 312.03 393.79 420.29 3.1977 0.88944 1.0781 179.19 1.6488 3.8385 0.0047320
-131.62 0.014106 0.00017687 -87.386 -87.381 -0.41496 676.04 0.0014792 -87.471 -87.471 -0.41560 1.3354 1.9909 1756.4 -0.0072684 807.34 0.18309 0.0036453 274.33 394.68 421.36 3.1798 0.89266 1.0813 179.76 1.6197 3.8660 0.0047951
-130.62 0.016124 0.00020075 -85.383 -85.377 -0.40086 675.03 0.0014814 -85.479 -85.479 -0.40157 1.3356 1.9926 1749.7 -0.0072555 788.12 0.18253 0.0041375 241.69 395.58 422.44 3.1622 0.89586 1.0846 180.34 1.5915 3.8935 0.0048586
-129.62 0.018392 0.00022738 -83.377 -83.370 -0.38683 674.02 0.0014836 -83.486 -83.486 -0.38763 1.3358 1.9944 1743.0 -0.0072425 769.63 0.18196 0.0046867 213.37 396.47 423.53 3.1450 0.89906 1.0878 180.91 1.5641 3.9210 0.0049223
-128.62 0.020935 0.00025704 -81.368 -81.360 -0.37288 673.01 0.0014859 -81.491 -81.490 -0.37378 1.3360 1.9961 1736.3 -0.0072294 751.83 0.18140 0.0052981 188.75 397.37 424.62 3.1281 0.90226 1.0910 181.48 1.5374 3.9485 0.0049863
-127.62 0.023783 0.00028999 -79.355 -79.347 -0.35900 672.00 0.0014881 -79.494 -79.493 -0.36001 1.3363 1.9979 1729.6 -0.0072160 734.67 0.18083 0.0059776 167.29 398.27 425.71 3.1116 0.90545 1.0942 182.05 1.5114 3.9760 0.0050506
-126.62 0.026966 0.00032654 -77.339 -77.330 -0.34520 670.98 0.0014904 -77.495 -77.495 -0.34632 1.3365 1.9997 1722.9 -0.0072025 718.14 0.18025 0.0067313 148.56 399.18 426.80 3.0954 0.90863 1.0974 182.62 1.4861 4.0035 0.0051152
-125.62 0.030515 0.00036701 -75.320 -75.309 -0.33146 669.97 0.0014926 -75.494 -75.494 -0.33272 1.3368 2.0015 1716.2 -0.0071888 702.18 0.17968 0.0075660 132.17 400.09 427.89 3.0795 0.91181 1.1006 183.18 1.4615 4.0310 0.0051800
-124.62 0.034467 0.00041174 -73.297 -73.285 -0.31780 668.95 0.0014949 -73.492 -73.492 -0.31919 1.3371 2.0033 1709.5 -0.0071749 686.79 0.17910 0.0084885 117.81 401.00 428.99 3.0640 0.91499 1.1038 183.74 1.4375 4.0584 0.0052452
-123.62 0.038859 0.00046110 -71.269 -71.256 -0.30419 667.94 0.0014971 -71.488 -71.487 -0.30574 1.3374 2.0051 1702.8 -0.0071609 671.93 0.17852 0.0095065 105.19 401.91 430.10 3.0488 0.91816 1.1070 184.30 1.4141 4.0859 0.0053106
-122.62 0.043731 0.00051547 -69.238 -69.223 -0.29065 666.92 0.0014994 -69.482 -69.481 -0.29237 1.3377 2.0070 1696.2 -0.0071466 657.57 0.17794 0.010628 94.092 402.83 431.20 3.0339 0.92134 1.1102 184.86 1.3913 4.1134 0.0053764
-121.62 0.049128 0.00057526 -67.203 -67.186 -0.27718 665.91 0.0015017 -67.474 -67.473 -0.27907 1.3380 2.0089 1689.5 -0.0071322 643.70 0.17736 0.011861 84.309 403.75 432.31 3.0193 0.92451 1.1134 185.41 1.3691 4.1409 0.0054424
-120.62 0.055096 0.00064091 -65.163 -65.144 -0.26376 664.89 0.0015040 -65.464 -65.463 -0.26585 1.3384 2.0107 1682.8 -0.0071176 630.28 0.17678 0.013215 75.669 404.67 433.42 3.0050 0.92767 1.1166 185.96 1.3475 4.1683 0.0055087
-119.62 0.061684 0.00071287 -63.118 -63.097 -0.25039 663.87 0.0015063 -63.452 -63.452 -0.25271 1.3387 2.0126 1676.1 -0.0071028 617.30 0.17619 0.014700 68.027 405.60 434.53 2.9909 0.93084 1.1198 186.51 1.3264 4.1958 0.0055752
-118.62 0.068946 0.00079164 -61.068 -61.044 -0.23709 662.86 0.0015086 -61.439 -61.438 -0.23963 1.3391 2.0146 1669.4 -0.0070878 604.74 0.17560 0.016325 61.255 406.53 435.64 2.9772 0.93401 1.1231 187.06 1.3058 4.2233 0.0056421
-117.62 0.076937 0.00087774 -59.013 -58.987 -0.22383 661.84 0.0015109 -59.423 -59.422 -0.22663 1.3395 2.0165 1662.8 -0.0070726 592.58 0.17501 0.018101 55.245 407.46 436.76 2.9638 0.93718 1.1263 187.60 1.2857 4.2507 0.0057092
-116.62 0.085718 0.00097169 -56.953 -56.924 -0.21063 660.82 0.0015133 -57.406 -57.405 -0.21370 1.3400 2.0184 1656.1 -0.0070573 580.80 0.17442 0.020040 49.901 408.39 437.88 2.9506 0.94035 1.1295 188.14 1.2660 4.2782 0.0057767
-115.62 0.095353 0.0010741 -54.887 -54.854 -0.19747 659.80 0.0015156 -55.386 -55.385 -0.20084 1.3404 2.0204 1649.4 -0.0070417 569.38 0.17383 0.022152 45.142 409.33 439.01 2.9377 0.94352 1.1327 188.68 1.2468 4.3056 0.0058444
-114.62 0.10591 0.0011855 -52.815 -52.779 -0.18436 658.78 0.0015180 -53.365 -53.364 -0.18805 1.3409 2.0224 1642.7 -0.0070260 558.32 0.17323 0.024451 40.898 410.27 440.13 2.9250 0.94669 1.1360 189.22 1.2281 4.3330 0.0059123
-113.62 0.11746 0.0013066 -50.737 -50.697 -0.17129 657.76 0.0015203 -51.342 -51.340 -0.17533 1.3413 2.0244 1636.0 -0.0070100 547.59 0.17264 0.026949 37.107 411.21 441.26 2.9126 0.94987 1.1392 189.75 1.2097 4.3604 0.0059806
-112.62 0.13008 0.0014379 -48.653 -48.608 -0.15826 656.73 0.0015227 -49.316 -49.315 -0.16267 1.3418 2.0264 1629.3 -0.0069938 537.18 0.17204 0.029661 33.715 412.16 442.39 2.9005 0.95305 1.1424 190.28 1.1918 4.3879 0.0060491
-111.62 0.14384 0.0015803 -46.561 -46.512 -0.14528 655.71 0.0015251 -47.289 -47.287 -0.15008 1.3424 2.0285 1622.7 -0.0069774 527.08 0.17144 0.032600 30.675 413.10 443.53 2.8885 0.95623 1.1457 190.81 1.1742 4.4153 0.0061180
-110.62 0.15884 0.0017345 -44.463 -44.408 -0.13232 654.69 0.0015274 -45.259 -45.258 -0.13755 1.3429 2.0305 1616.0 -0.0069609 517.28 0.17084 0.035781 27.948 414.06 444.66 2.8769 0.95942 1.1490 191.34 1.1570 4.4427 0.0061871
-109.62 0.17516 0.0019011 -42.357 -42.296 -0.11941 653.66 0.0015298 -43.228 -43.226 -0.12509 1.3435 2.0326 1609.3 -0.0069441 507.76 0.17024 0.039220 25.497 415.01 445.80 2.8654 0.96261 1.1522 191.86 1.1402 4.4701 0.0062564
-108.62 0.19290 0.0020810 -40.243 -40.176 -0.10652 652.64 0.0015322 -41.194 -41.192 -0.11269 1.3441 2.0347 1602.6 -0.0069271 498.51 0.16964 0.042933 23.292 415.96 446.94 2.8542 0.96581 1.1555 192.38 1.1236 4.4974 0.0063261
-107.62 0.21215 0.0022750 -38.121 -38.048 -0.093660 651.61 0.0015347 -39.158 -39.156 -0.10036 1.3447 2.0369 1595.9 -0.0069098 489.52 0.16903 0.046937 21.305 416.92 448.09 2.8433 0.96901 1.1588 192.90 1.1075 4.5248 0.0063960
-106.62 0.23301 0.0024839 -35.990 -35.910 -0.080828 650.58 0.0015371 -37.120 -37.118 -0.088082 1.3453 2.0390 1589.2 -0.0068924 480.79 0.16843 0.051250 19.512 417.88 449.23 2.8325 0.97222 1.1621 193.41 1.0916 4.5522 0.0064662
-105.62 0.25561 0.0027087 -33.851 -33.763 -0.068019 649.55 0.0015395 -35.080 -35.078 -0.075868 1.3460 2.0412 1582.6 -0.0068747 472.30 0.16782 0.055891 17.892 418.85 450.38 2.8220 0.97544 1.1655 193.93 1.0760 4.5795 0.0065367
-104.62 0.28004 0.0029503 -31.702 -31.606 -0.055231 648.52 0.0015420 -33.038 -33.035 -0.063714 1.3467 2.0434 1575.9 -0.0068569 464.04 0.16721 0.060878 16.426 419.81 451.53 2.8116 0.97867 1.1688 194.44 1.0608 4.6069 0.0066074
-103.62 0.30643 0.0032096 -29.544 -29.438 -0.042462 647.49 0.0015444 -30.994 -30.991 -0.051619 1.3474 2.0456 1569.2 -0.0068387 456.00 0.16660 0.066231 15.099 420.78 452.68 2.8015 0.98191 1.1722 194.94 1.0458 4.6342 0.0066785
-102.62 0.33490 0.0034876 -27.375 -27.260 -0.029708 646.46 0.0015469 -28.947 -28.944 -0.039582 1.3481 2.0478 1562.5 -0.0068204 448.18 0.16600 0.071971 13.894 421.75 453.84 2.7916 0.98516 1.1755 195.44 1.0310 4.6615 0.0067498
-101.62 0.36558 0.0037854 -25.196 -25.070 -0.016967 645.43 0.0015494 -26.898 -26.894 -0.027602 1.3489 2.0501 1555.8 -0.0068018 440.57 0.16539 0.078120 12.801 422.73 454.99 2.7818 0.98841 1.1789 195.95 1.0166 4.6888 0.0068213
-100.62 0.39862 0.0041040 -23.006 -22.869 -0.0042362 644.39 0.0015519 -24.847 -24.843 -0.015678 1.3497 2.0524 1549.1 -0.0067830 433.16 0.16478 0.084699 11.807 423.70 456.15 2.7723 0.99168 1.1823 196.44 1.0024 4.7161 0.0068932
-99.625 0.43414 0.0044446 -20.805 -20.655 0.0084869 643.36 0.0015544 -22.794 -22.789 -0.0038103 1.3505 2.0547 1542.4 -0.0067639 425.95 0.16416 0.091731 10.901 424.68 457.31 2.7630 0.99496 1.1858 196.94 0.98838 4.7434 0.0069653
-98.625 0.47230 0.0048083 -18.592 -18.429 0.021205 642.32 0.0015569 -20.738 -20.733 0.0080027 1.3514 2.0570 1535.7 -0.0067447 418.92 0.16355 0.099240 10.077 425.66 458.48 2.7538 0.99825 1.1892 197.43 0.97464 4.7707 0.0070377
-97.625 0.51325 0.0051962 -16.366 -16.189 0.033921 641.28 0.0015594 -18.680 -18.674 0.019762 1.3522 2.0594 1529.0 -0.0067251 412.07 0.16294 0.10725 9.3239 426.65 459.64 2.7448 1.0016 1.1927 197.92 0.96112 4.7979 0.0071103
-96.625 0.55714 0.0056096 -14.127 -13.935 0.046639 640.24 0.0015619 -16.620 -16.614 0.031467 1.3531 2.0618 1522.3 -0.0067053 405.39 0.16233 0.11579 8.6365 427.63 460.81 2.7360 1.0049 1.1962 198.40 0.94783 4.8251 0.0071832
-95.625 0.60416 0.0060497 -11.876 -11.667 0.059359 639.20 0.0015645 -14.557 -14.550 0.043120 1.3540 2.0642 1515.7 -0.0066853 398.88 0.16171 0.12488 8.0078 428.62 461.98 2.7274 1.0082 1.1997 198.88 0.93475 4.8524 0.0072564
-94.625 0.65446 0.0065179 -9.6098 -9.3842 0.072086 638.16 0.0015670 -12.491 -12.484 0.054721 1.3550 2.0667 1509.0 -0.0066650 392.53 0.16110 0.13455 7.4323 429.61 463.15 2.7189 1.0116 1.2032 199.36 0.92188 4.8796 0.0073299
-93.625 0.70822 0.0070154 -7.3297 -7.0856 0.084823 637.12 0.0015696 -10.424 -10.416 0.066271 1.3560 2.0691 1502.3 -0.0066444 386.34 0.16048 0.14482 6.9050 430.60 464.32 2.7107 1.0149 1.2068 199.83 0.90921 4.9068 0.0074036
-92.625 0.76564 0.0075437 -5.0347 -4.7707 0.097571 636.07 0.0015722 -8.3535 -8.3452 0.077771 1.3570 2.0716 1495.6 -0.0066236 380.31 0.15987 0.15573 6.4212 431.60 465.49 2.7025 1.0183 1.2104 200.30 0.89673 4.9340 0.0074776
-91.625 0.82689 0.0081042 -2.7241 -2.4391 0.11033 635.02 0.0015747 -6.2808 -6.2719 0.089220 1.3580 2.0742 1488.9 -0.0066025 374.41 0.15925 0.16731 5.9769 432.59 466.67 2.6946 1.0217 1.2140 200.77 0.88445 4.9611 0.0075518
-90.625 0.89218 0.0086982 -0.39758 -0.090007 0.12312 633.98 0.0015773 -4.2056 -4.1959 0.10062 1.3591 2.0767 1482.2 -0.0065811 368.66 0.15864 0.17958 5.5685 433.59 467.84 2.6868 1.0251 1.2177 201.24 0.87236 4.9883 0.0076263
-89.625 0.96172 0.0093274 1.9456 2.2771 0.13592 632.93 0.0015800 -2.1279 -2.1174 0.11197 1.3602 2.0793 1475.5 -0.0065595 363.05 0.15802 0.19258 5.1928 434.59 469.02 2.6791 1.0285 1.2213 201.70 0.86045 5.0154 0.0077011
-88.625 1.0357 0.0099931 4.3059 4.6630 0.14874 631.88 0.0015826 -0.047516 -0.036215 0.12328 1.3613 2.0819 1468.8 -0.0065375 357.56 0.15740 0.20633 4.8466 435.59 470.20 2.6717 1.0320 1.2250 202.15 0.84873 5.0425 0.0077761
-87.625 1.1144 0.010697 6.6840 7.0682 0.16160 630.83 0.0015852 2.0355 2.0476 0.13454 1.3625 2.0846 1462.1 -0.0065153 352.21 0.15679 0.22087 4.5276 436.60 471.39 2.6643 1.0354 1.2288 202.61 0.83718 5.0696 0.0078514
-86.625 1.1979 0.011441 9.0805 9.4934 0.17448 629.77 0.0015879 4.1211 4.1342 0.14575 1.3637 2.0873 1455.4 -0.0064928 346.98 0.15617 0.23623 4.2331 437.61 472.57 2.6571 1.0389 1.2325 203.06 0.82580 5.0967 0.0079270
-85.625 1.2866 0.012226 11.496 11.939 0.18740 628.72 0.0015905 6.2094 6.2235 0.15691 1.3649 2.0900 1448.8 -0.0064701 341.87 0.15555 0.25245 3.9612 438.61 473.75 2.6501 1.0424 1.2363 203.50 0.81460 5.1237 0.0080028
-84.625 1.3806 0.013054 13.931 14.407 0.20035 627.66 0.0015932 8.3004 8.3155 0.16803 1.3661 2.0927 1442.1 -0.0064470 336.87 0.15494 0.26956 3.7097 439.63 474.94 2.6432 1.0460 1.2402 203.95 0.80356 5.1508 0.0080789
-83.625 1.4803 0.013927 16.386 16.897 0.21333 626.60 0.0015959 10.394 10.410 0.17911 1.3674 2.0955 1435.4 -0.0064236 331.99 0.15432 0.28760 3.4771 440.64 476.13 2.6364 1.0495 1.2440 204.38 0.79269 5.1778 0.0081553
-82.625 1.5858 0.014847 18.862 19.409 0.22637 625.54 0.0015986 12.491 12.508 0.19014 1.3687 2.0983 1428.7 -0.0063999 327.22 0.15370 0.30659 3.2616 441.65 477.31 2.6298 1.0531 1.2479 204.82 0.78199 5.2048 0.0082319
-81.625 1.6975 0.015815 21.360 21.945 0.23944 624.48 0.0016013 14.590 14.609 0.20113 1.3700 2.1012 1422.0 -0.0063759 322.55 0.15309 0.32659 3.0619 442.67 478.50 2.6233 1.0567 1.2519 205.25 0.77144 5.2318 0.0083088
-80.625 1.8155 0.016833 23.880 24.506 0.25256 623.42 0.0016041 16.692 16.712 0.21208 1.3714 2.1041 1415.4 -0.0063516 317.99 0.15247 0.34763 2.8766 443.69 479.70 2.6169 1.0603 1.2558 205.67 0.76106 5.2587 0.0083860
-79.625 1.9402 0.017903 26.422 27.091 0.26573 622.36 0.0016068 18.797 18.819 0.22299 1.3728 2.1070 1408.7 -0.0063270 313.52 0.15186 0.36974 2.7046 444.71 480.89 2.6106 1.0639 1.2598 206.10 0.75083 5.2857 0.0084634
-78.625 2.0718 0.019028 28.988 29.703 0.27896 621.29 0.0016096 20.905 20.928 0.23385 1.3742 2.1099 1402.0 -0.0063021 309.15 0.15124 0.39296 2.5448 445.73 482.08 2.6045 1.0676 1.2639 206.51 0.74076 5.3126 0.0085411
-77.625 2.2107 0.020208 31.579 32.341 0.29224 620.22 0.0016123 23.016 23.040 0.24468 1.3757 2.1129 1395.3 -0.0062768 304.88 0.15062 0.41735 2.3961 446.75 483.27 2.5985 1.0712 1.2680 206.93 0.73084 5.3395 0.0086190
-76.625 2.3571 0.021446 34.194 35.006 0.30558 619.15 0.0016151 25.130 25.156 0.25546 1.3772 2.1159 1388.7 -0.0062512 300.69 0.15001 0.44292 2.2577 447.78 484.47 2.5926 1.0749 1.2721 207.34 0.72107 5.3664 0.0086972
-75.625 2.5113 0.022744 36.835 37.700 0.31899 618.08 0.0016179 27.247 27.275 0.26620 1.3787 2.1190 1382.0 -0.0062253 296.59 0.14939 0.46974 2.1288 448.81 485.67 2.5869 1.0787 1.2762 207.74 0.71146 5.3933 0.0087757
-74.625 2.6736 0.024104 39.501 40.423 0.33245 617.01 0.0016207 29.366 29.396 0.27691 1.3802 2.1221 1375.4 -0.0061990 292.58 0.14878 0.49783 2.0087 449.83 486.86 2.5812 1.0824 1.2804 208.14 0.70200 5.4201 0.0088544
-73.625 2.8444 0.025529 42.195 43.176 0.34599 615.93 0.0016236 31.489 31.521 0.28758 1.3818 2.1252 1368.7 -0.0061724 288.65 0.14816 0.52725 1.8966 450.86 488.06 2.5757 1.0862 1.2847 208.54 0.69268 5.4469 0.0089334
-72.625 3.0240 0.027019 44.917 45.959 0.35959 614.85 0.0016264 33.615 33.649 0.29821 1.3834 2.1284 1362.0 -0.0061454 284.81 0.14755 0.55804 1.7920 451.90 489.26 2.5703 1.0900 1.2889 208.93 0.68351 5.4737 0.0090126
-71.625 3.2127 0.028578 47.667 48.774 0.37327 613.78 0.0016293 35.745 35.781 0.30880 1.3851 2.1316 1355.4 -0.0061181 281.03 0.14694 0.59024 1.6942 452.93 490.46 2.5650 1.0938 1.2932 209.32 0.67448 5.5005 0.0090922
-70.625 3.4108 0.030207 50.446 51.622 0.38703 612.69 0.0016321 37.877 37.915 0.31935 1.3867 2.1349 1348.7 -0.0060904 277.34 0.14632 0.62390 1.6028 453.96 491.66 2.5598 1.0976 1.2976 209.70 0.66560 5.5273 0.0091720
-69.625 3.6187 0.031910 53.255 54.502 0.40087 611.61 0.0016350 40.013 40.053 0.32987 1.3884 2.1382 1342.1 -0.0060624 273.72 0.14571 0.65906 1.5173 455.00 492.86 2.5547 1.1015 1.3020 210.08 0.65687 5.5540 0.0092520
-68.625 3.8367 0.033687 56.094 57.417 0.41478 610.53 0.0016379 42.152 42.195 0.34036 1.3902 2.1415 1335.5 -0.0060339 270.17 0.14510 0.69577 1.4372 456.04 494.06 2.5497 1.1054 1.3064 210.45 0.64827 5.5807 0.0093324
-67.625 4.0652 0.035543 58.965 60.367 0.42878 609.44 0.0016409 44.294 44.340 0.35080 1.3919 2.1449 1328.8 -0.0060051 266.69 0.14449 0.73408 1.3622 457.08 495.26 2.5448 1.1093 1.3109 210.82 0.63981 5.6074 0.0094130
-66.625 4.3046 0.037477 61.868 63.352 0.44287 608.35 0.0016438 46.439 46.488 0.36122 1.3937 2.1483 1322.2 -0.0059760 263.28 0.14388 0.77404 1.2919 458.12 496.46 2.5400 1.1133 1.3154 211.18 0.63150 5.6341 0.0094939
-65.625 4.5551 0.039495 64.804 66.374 0.45705 607.26 0.0016467 48.588 48.640 0.37160 1.3955 2.1518 1315.6 -0.0059464 259.93 0.14327 0.81570 1.2259 459.16 497.67 2.5353 1.1172 1.3200 211.54 0.62332 5.6608 0.0095750
-64.625 4.8173 0.041597 67.773 69.434 0.47133 606.16 0.0016497 50.740 50.795 0.38195 1.3974 2.1553 1308.9 -0.0059164 256.65 0.14266 0.85910 1.1640 460.21 498.87 2.5307 1.1212 1.3246 211.89 0.61527 5.6874 0.0096564
-63.625 5.0915 0.043786 70.776 72.532 0.48570 605.07 0.0016527 52.896 52.954 0.39226 1.3993 2.1588 1302.3 -0.0058861 253.42 0.14205 0.90429 1.1058 461.25 500.07 2.5262 1.1252 1.3293 212.24 0.60736 5.7140 0.0097382
-62.625 5.3781 0.046064 73.815 75.669 0.50016 603.97 0.0016557 55.055 55.117 0.40254 1.4012 2.1624 1295.7 -0.0058553 250.26 0.14144 0.95134 1.0511 462.30 501.28 2.5218 1.1293 1.3340 212.58 0.59958 5.7406 0.0098201
-61.625 5.6774 0.048435 76.889 78.846 0.51473 602.87 0.0016587 57.218 57.283 0.41279 1.4031 2.1660 1289.1 -0.0058241 247.16 0.14084 1.0003 0.99972 463.35 502.48 2.5175 1.1333 1.3387 212.92 0.59194 5.7672 0.0099024
-60.625 5.9899 0.050901 80.000 82.065 0.52941 601.77 0.0016618 59.385 59.453 0.42301 1.4051 2.1697 1282.5 -0.0057925 244.12 0.14023 1.0512 0.95131 464.40 503.68 2.5133 1.1374 1.3435 213.26 0.58442 5.7938 0.0099850
-59.625 6.3160 0.053465 83.148 85.326 0.54418 600.66 0.0016648 61.554 61.627 0.43320 1.4071 2.1734 1275.9 -0.0057605 241.13 0.13962 1.1041 0.90573 465.45 504.89 2.5091 1.1415 1.3483 213.58 0.57704 5.8203 0.010068
-58.625 6.6561 0.056128 86.335 88.629 0.55907 599.55 0.0016679 63.728 63.805 0.44335 1.4091 2.1772 1269.3 -0.0057280 238.19 0.13902 1.1591 0.86277 466.50 506.09 2.5051 1.1457 1.3532 213.90 0.56978 5.8468 0.010151
-57.625 7.0107 0.058894 89.560 91.977 0.57407 598.44 0.0016710 65.905 65.986 0.45348 1.4111 2.1810 1262.7 -0.0056951 235.31 0.13842 1.2161 0.82228 467.55 507.30 2.5011 1.1498 1.3581 214.22 0.56265 5.8733 0.010234
-56.625 7.3801 0.061766 92.825 95.369 0.58918 597.33 0.0016741 68.086 68.172 0.46358 1.4132 2.1848 1256.1 -0.0056617 232.48 0.13781 1.2754 0.78408 468.60 508.50 2.4972 1.1540 1.3631 214.53 0.55564 5.8998 0.010318
-55.625 7.7648 0.064746 96.130 98.807 0.60441 596.22 0.0016772 70.271 70.361 0.47364 1.4153 2.1887 1249.5 -0.0056279 229.69 0.13721 1.3369 0.74802 469.66 509.71 2.4934 1.1582 1.3681 214.84 0.54875 5.9263 0.010402
-54.625 8.1652 0.067838 99.477 102.29 0.61976 595.10 0.0016804 72.460 72.554 0.48368 1.4174 2.1927 1242.9 -0.0055937 226.96 0.13661 1.4006 0.71396 470.72 510.91 2.4897 1.1624 1.3731 215.14 0.54199 5.9527 0.010486
-53.625 8.5819 0.071043 102.87 105.82 0.63523 593.98 0.0016836 74.652 74.752 0.49369 1.4196 2.1967 1236.3 -0.0055589 224.27 0.13601 1.4667 0.68178 471.77 512.11 2.4860 1.1667 1.3782 215.43 0.53535 5.9792 0.010571
-52.625 9.0151 0.074366 106.30 109.40 0.65083 592.86 0.0016867 76.849 76.954 0.50368 1.4218 2.2007 1229.8 -0.0055237 221.63 0.13541 1.5353 0.65136 472.83 513.32 2.4824 1.1710 1.3834 215.72 0.52882 6.0056 0.010656
-51.625 9.4655 0.077808 109.77 113.03 0.66655 591.73 0.0016900 79.049 79.159 0.51363 1.4240 2.2048 1223.2 -0.0054880 219.04 0.13482 1.6062 0.62258 473.89 514.52 2.4789 1.1752 1.3886 216.00 0.52241 6.0320 0.010741
-50.625 9.9335 0.081373 113.29 116.71 0.68240 590.60 0.0016932 81.253 81.369 0.52356 1.4262 2.2089 1216.6 -0.0054519 216.48 0.13422 1.6797 0.59534 474.95 515.73 2.4755 1.1796 1.3938 216.28 0.51612 6.0584 0.010827
-49.625 10.419 0.085064 116.85 120.45 0.69838 589.47 0.0016964 83.462 83.584 0.53347 1.4285 2.2131 1210.1 -0.0054152 213.98 0.13363 1.7558 0.56954 476.01 516.93 2.4722 1.1839 1.3991 216.55 0.50994 6.0848 0.010913
-48.625 10.924 0.088885 120.46 124.23 0.71449 588.34 0.0016997 85.674 85.802 0.54334 1.4308 2.2173 1203.5 -0.0053780 211.51 0.13303 1.8345 0.54510 477.07 518.13 2.4689 1.1883 1.4044 216.82 0.50387 6.1112 0.010999
-47.625 11.448 0.092837 124.12 128.07 0.73074 587.20 0.0017030 87.891 88.025 0.55319 1.4331 2.2216 1196.9 -0.0053403 209.08 0.13244 1.9159 0.52194 478.14 519.33 2.4657 1.1927 1.4098 217.08 0.49792 6.1375 0.011085
-46.625 11.991 0.096925 127.82 131.96 0.74713 586.06 0.0017063 90.111 90.252 0.56302 1.4354 2.2259 1190.4 -0.0053020 206.69 0.13185 2.0001 0.49997 479.20 520.53 2.4625 1.1971 1.4153 217.33 0.49207 6.1639 0.011172
-45.625 12.554 0.10115 131.58 135.90 0.76365 584.92 0.0017096 92.336 92.484 0.57282 1.4378 2.2303 1183.8 -0.0052633 204.34 0.13126 2.0872 0.47912 480.27 521.74 2.4594 1.2015 1.4207 217.58 0.48633 6.1902 0.011259
-44.625 13.137 0.10552 135.38 139.91 0.78032 583.77 0.0017130 94.565 94.720 0.58260 1.4402 2.2347 1177.3 -0.0052240 202.03 0.13067 2.1771 0.45933 481.33 522.94 2.4564 1.2060 1.4263 217.82 0.48069 6.2165 0.011347
-43.625 13.741 0.11003 139.23 143.96 0.79713 582.62 0.0017164 96.799 96.961 0.59235 1.4426 2.2392 1170.7 -0.0051841 199.75 0.13008 2.2700 0.44053 482.40 524.14 2.4535 1.2104 1.4319 218.05 0.47516 6.2429 0.011435
-42.625 14.367 0.11469 143.13 148.08 0.81409 581.47 0.0017198 99.036 99.207 0.60208 1.4450 2.2437 1164.2 -0.0051437 197.51 0.12949 2.3659 0.42267 483.46 525.33 2.4506 1.2149 1.4375 218.28 0.46973 6.2692 0.011523
-41.625 15.015 0.11951 147.08 152.26 0.83120 580.32 0.0017232 101.28 101.46 0.61179 1.4475 2.2483 1157.7 -0.0051027 195.30 0.12891 2.4649 0.40569 484.53 526.53 2.4478 1.2195 1.4432 218.50 0.46440 6.2955 0.011612
-40.625 15.686 0.12447 151.08 156.49 0.84846 579.16 0.0017266 103.52 103.71 0.62147 1.4500 2.2529 1151.1 -0.0050611 193.13 0.12832 2.5671 0.38954 485.60 527.73 2.4450 1.2240 1.4489 218.72 0.45917 6.3218 0.011701
-39.625 16.380 0.12960 155.14 160.79 0.86587 578.00 0.0017301 105.78 105.97 0.63113 1.4525 2.2576 1144.6 -0.0050189 190.99 0.12774 2.6725 0.37418 486.67 528.93 2.4423 1.2286 1.4547 218.93 0.45403 6.3481 0.011790
-38.625 17.097 0.13489 159.25 165.14 0.88343 576.83 0.0017336 108.03 108.24 0.64077 1.4550 2.2623 1138.0 -0.0049761 188.88 0.12716 2.7813 0.35955 487.74 530.12 2.4397 1.2332 1.4606 219.13 0.44900 6.3744 0.011880
-37.625 17.838 0.14035 163.42 169.56 0.90115 575.66 0.0017371 110.29 110.51 0.65039 1.4576 2.2671 1131.5 -0.0049327 186.81 0.12658 2.8934 0.34562 488.81 531.32 2.4371 1.2378 1.4665 219.33 0.44405 6.4007 0.011970
-36.625 18.604 0.14597 167.64 174.05 0.91903 574.49 0.0017407 112.56 112.78 0.65999 1.4602 2.2719 1125.0 -0.0048887 184.76 0.12600 3.0089 0.33235 489.88 532.51 2.4346 1.2424 1.4724 219.52 0.43920 6.4270 0.012060
-35.625 19.395 0.15177 171.91 178.60 0.93706 573.32 0.0017442 114.83 115.06 0.66956 1.4628 2.2768 1118.5 -0.0048440 182.75 0.12542 3.1280 0.31969 490.95 533.70 2.4321 1.2471 1.4784 219.70 0.43444 6.4533 0.012151
-34.625 20.212 0.15775 176.24 183.21 0.95526 572.14 0.0017478 117.10 117.34 0.67912 1.4654 2.2818 1111.9 -0.0047987 180.76 0.12485 3.2506 0.30763 492.02 534.89 2.4297 1.2517 1.4845 219.88 0.42977 6.4797 0.012243
-33.625 21.056 0.16390 180.63 187.89 0.97363 570.96 0.0017514 119.38 119.63 0.68865 1.4681 2.2868 1105.4 -0.0047527 178.80 0.12427 3.3770 0.29612 493.09 536.08 2.4273 1.2564 1.4906 220.05 0.42519 6.5060 0.012334
-32.625 21.926 0.17025 185.08 192.64 0.99215 569.77 0.0017551 121.66 121.93 0.69817 1.4708 2.2918 1098.9 -0.0047061 176.87 0.12370 3.5071 0.28514 494.17 537.27 2.4250 1.2611 1.4968 220.21 0.42070 6.5323 0.012426
-31.625 22.823 0.17678 189.58 197.45 1.0108 568.58 0.0017588 123.95 124.23 0.70767 1.4735 2.2970 1092.3 -0.0046587 174.97 0.12313 3.6410 0.27465 495.24 538.46 2.4227 1.2659 1.5031 220.36 0.41629 6.5587 0.012519
-30.625 23.749 0.18350 194.15 202.34 1.0297 567.39 0.0017625 126.24 126.53 0.71714 1.4762 2.3021 1085.8 -0.0046107 173.09 0.12256 3.7787 0.26464 496.31 539.64 2.4205 1.2706 1.5094 220.51 0.41196 6.5850 0.012612
-29.625 24.703 0.19042 198.78 207.29 1.0487 566.19 0.0017662 128.54 128.84 0.72660 1.4790 2.3074 1079.3 -0.0045619 171.24 0.12200 3.9205 0.25507 497.38 540.83 2.4184 1.2754 1.5157 220.65 0.40772 6.6114 0.012706
-28.625 25.687 0.19754 203.46 212.32 1.0680 564.99 0.0017699 130.84 131.16 0.73604 1.4818 2.3126 1072.8 -0.0045124 169.42 0.12143 4.0663 0.24592 498.46 542.01 2.4162 1.2802 1.5222 220.79 0.40356 6.6378 0.012800
-27.625 26.700 0.20487 208.21 217.42 1.0873 563.78 0.0017737 133.15 133.48 0.74547 1.4846 2.3180 1066.2 -0.0044621 167.62 0.12087 4.2163 0.23717 499.53 543.19 2.4142 1.2850 1.5286 220.91 0.39947 6.6642 0.012894
-26.625 27.743 0.21241 213.02 222.59 1.1069 562.57 0.0017775 135.47 135.81 0.75487 1.4874 2.3234 1059.7 -0.0044111 165.84 0.12031 4.3705 0.22881 500.60 544.37 2.4122 1.2899 1.5352 221.03 0.39547 6.6906 0.012989
-25.625 28.817 0.22016 217.90 227.83 1.1266 561.36 0.0017814 137.78 138.14 0.76426 1.4902 2.3289 1053.2 -0.0043593 164.09 0.11975 4.5290 0.22080 501.68 545.55 2.4102 1.2947 1.5418 221.14 0.39154 6.7171 0.013084
-24.625 29.923 0.22813 222.84 233.15 1.1465 560.14 0.0017853 140.11 140.48 0.77363 1.4931 2.3344 1046.7 -0.0043067 162.36 0.11919 4.6918 0.21314 502.75 546.72 2.4083 1.2996 1.5485 221.25 0.38768 6.7436 0.013180
-23.625 31.061 0.23632 227.84 238.55 1.1666 558.92 0.0017892 142.44 142.82 0.78298 1.4960 2.3400 1040.1 -0.0042533 160.65 0.11863 4.8592 0.20580 503.82 547.90 2.4064 1.3045 1.5552 221.35 0.38391 6.7701 0.013277
-22.625 32.232 0.24474 232.91 244.02 1.1869 557.69 0.0017931 144.77 145.17 0.79232 1.4990 2.3457 1033.6 -0.0041990 158.97 0.11807 5.0311 0.19877 504.90 549.07 2.4045 1.3095 1.5621 221.44 0.38020 6.7967 0.013374
-21.625 33.435 0.25339 238.04 249.57 1.2073 556.46 0.0017971 147.11 147.52 0.80164 1.5019 2.3514 1027.1 -0.0041439 157.30 0.11752 5.2076 0.19203 505.97 550.24 2.4027 1.3144 1.5690 221.52 0.37656 6.8232 0.013471
-20.625 34.673 0.26228 243.24 255.20 1.2280 555.23 0.0018011 149.45 149.88 0.81095 1.5049 2.3572 1020.6 -0.0040879 155.66 0.11697 5.3889 0.18557 507.04 551.40 2.4010 1.3194 1.5759 221.59 0.37300 6.8499 0.013569
-19.625 35.946 0.27142 248.51 260.90 1.2488 553.99 0.0018051 151.80 152.25 0.82024 1.5079 2.3630 1014.0 -0.0040311 154.04 0.11642 5.5750 0.17937 508.11 552.57 2.3992 1.3244 1.5829 221.66 0.36950 6.8765 0.013668
-18.625 37.253 0.28080 253.85 266.69 1.2698 552.74 0.0018092 154.16 154.62 0.82952 1.5109 2.3689 1007.5 -0.0039733 152.44 0.11587 5.7660 0.17343 509.19 553.73 2.3976 1.3294 1.5901 221.72 0.36608 6.9032 0.013767
-17.625 38.596 0.29043 259.26 272.56 1.2910 551.49 0.0018133 156.52 157.00 0.83878 1.5140 2.3749 1001.0 -0.0039145 150.86 0.11532 5.9621 0.16773 510.26 554.89 2.3959 1.3345 1.5972 221.77 0.36272 6.9300 0.013867
-16.625 39.976 0.30032 264.73 278.51 1.3124 550.24 0.0018174 158.89 159.39 0.84803 1.5171 2.3810 994.44 -0.0038549 149.29 0.11478 6.1632 0.16225 511.33 556.05 2.3943 1.3395 1.6045 221.81 0.35942 6.9568 0.013968
-15.625 41.392 0.31048 270.28 284.55 1.3340 548.98 0.0018216 161.26 161.78 0.85726 1.5202 2.3871 987.91 -0.0037942 147.75 0.11423 6.3696 0.15700 512.40 557.20 2.3927 1.3446 1.6119 221.85 0.35619 6.9836 0.014069
-14.625 42.846 0.32090 275.90 290.67 1.3558 547.71 0.0018258 163.64 164.18 0.86649 1.5233 2.3933 981.37 -0.0037325 146.22 0.11369 6.5812 0.15195 513.47 558.36 2.3912 1.3497 1.6193 221.87 0.35302 7.0105 0.014170
-13.625 44.338 0.33160 281.59 296.87 1.3777 546.44 0.0018300 166.02 166.58 0.87569 1.5264 2.3996 974.83 -0.0036698 144.72 0.11315 6.7983 0.14710 514.54 559.51 2.3897 1.3549 1.6268 221.89 0.34992 7.0375 0.014273
-12.625 45.870 0.34258 287.35 303.17 1.3999 545.17 0.0018343 168.41 168.99 0.88489 1.5296 2.4059 968.29 -0.0036061 143.23 0.11261 7.0208 0.14243 515.61 560.65 2.3883 1.3600 1.6344 221.90 0.34688 7.0646 0.014376
-11.625 47.440 0.35384 293.19 309.54 1.4223 543.89 0.0018386 170.81 171.41 0.89407 1.5328 2.4124 961.75 -0.0035413 141.76 0.11208 7.2490 0.13795 516.68 561.80 2.3868 1.3652 1.6421 221.91 0.34389 7.0917 0.014479
-10.625 49.051 0.36539 299.10 316.01 1.4448 542.60 0.0018430 173.21 173.83 0.90324 1.5360 2.4189 955.20 -0.0034753 140.30 0.11154 7.4829 0.13364 517.75 562.94 2.3854 1.3704 1.6498 221.90 0.34097 7.1188 0.014584
-9.6250 50.703 0.37725 305.09 322.56 1.4676 541.31 0.0018474 175.61 176.26 0.91240 1.5393 2.4255 948.65 -0.0034082 138.86 0.11101 7.7226 0.12949 518.81 564.08 2.3841 1.3757 1.6577 221.88 0.33810 7.1461 0.014689
-8.6250 52.396 0.38941 311.15 329.21 1.4905 540.02 0.0018518 178.03 178.70 0.92154 1.5426 2.4321 942.10 -0.0033400 137.44 0.11048 7.9683 0.12550 519.88 565.21 2.3827 1.3809 1.6657 221.86 0.33529 7.1734 0.014795
-7.6250 54.131 0.40187 317.28 335.94 1.5137 538.72 0.0018563 180.45 181.14 0.93068 1.5459 2.4389 935.55 -0.0032705 136.03 0.10995 8.2200 0.12165 520.94 566.35 2.3814 1.3862 1.6737 221.83 0.33254 7.2008 0.014902
-6.6250 55.909 0.41466 323.50 342.77 1.5371 537.41 0.0018608 182.87 183.59 0.93980 1.5492 2.4457 928.99 -0.0031998 134.64 0.10942 8.4779 0.11795 522.01 567.48 2.3801 1.3915 1.6819 221.79 0.32984 7.2284 0.015009
-5.6250 57.730 0.42777 329.79 349.69 1.5606 536.10 0.0018653 185.30 186.05 0.94892 1.5525 2.4526 922.43 -0.0031279 133.27 0.10889 8.7420 0.11439 523.07 568.60 2.3789 1.3969 1.6902 221.74 0.32720 7.2560 0.015117
-4.6250 59.595 0.44121 336.16 356.71 1.5844 534.78 0.0018699 187.74 188.51 0.95802 1.5559 2.4596 915.87 -0.0030546 131.91 0.10837 9.0126 0.11096 524.13 569.72 2.3777 1.4022 1.6985 221.68 0.32461 7.2837 0.015226
-3.6250 61.505 0.45499 342.61 363.81 1.6084 533.45 0.0018746 190.19 190.98 0.96711 1.5593 2.4667 909.30 -0.0029800 130.56 0.10785 9.2896 0.10765 525.19 570.84 2.3765 1.4076 1.7070 221.62 0.32207 7.3115 0.015336
-2.6250 63.461 0.46911 349.14 371.02 1.6325 532.12 0.0018793 192.64 193.46 0.97620 1.5627 2.4739 902.73 -0.0029041 129.23 0.10733 9.5733 0.10446 526.25 571.96 2.3753 1.4131 1.7156 221.54 0.31958 7.3394 0.015447
-1.6250 65.462 0.48359 355.75 378.32 1.6569 530.78 0.0018840 195.10 195.95 0.98527 1.5662 2.4811 896.16 -0.0028267 127.91 0.10681 9.8638 0.10138 527.31 573.07 2.3742 1.4185 1.7243 221.45 0.31715 7.3674 0.015559
-0.62500 67.510 0.49843 362.44 385.72 1.6815 529.44 0.0018888 197.56 198.44 0.99434 1.5696 2.4885 889.58 -0.0027478 126.61 0.10629 10.161 0.098414 528.37 574.18 2.3731 1.4240 1.7331 221.36 0.31476 7.3956 0.015671
0.37500 69.606 0.51364 369.22 393.21 1.7063 528.09 0.0018936 200.03 200.94 1.0034 1.5731 2.4960 883.00 -0.0026675 125.32 0.10578 10.466 0.095552 529.42 575.28 2.3720 1.4295 1.7421 221.26 0.31242 7.4239 0.015785
1.3750 71.749 0.52922 376.07 400.81 1.7314 526.73 0.0018985 202.51 203.45 1.0124 1.5767 2.5035 876.42 -0.0025856 124.04 0.10527 10.777 0.092790 530.48 576.38 2.3709 1.4350 1.7512 221.14 0.31013 7.4523 0.015899
2.3750 73.941 0.54519 383.02 408.51 1.7566 525.37 0.0019034 204.99 205.96 1.0215 1.5802 2.5112 869.83 -0.0025022 122.78 0.10476 11.096 0.090123 531.53 577.47 2.3699 1.4406 1.7604 221.02 0.30789 7.4808 0.016015
3.3750 76.183 0.56155 390.04 416.30 1.7821 523.99 0.0019084 207.48 208.48 1.0305 1.5838 2.5190 863.24 -0.0024171 121.53 0.10425 11.422 0.087549 532.58 578.56 2.3688 1.4462 1.7697 220.89 0.30569 7.5095 0.016131
4.3750 78.475 0.57832 397.15 424.20 1.8077 522.62 0.0019134 209.98 211.01 1.0395 1.5874 2.5268 856.64 -0.0023303 120.29 0.10374 11.756 0.085062 533.63 579.65 2.3678 1.4518 1.7792 220.75 0.30354 7.5384 0.016249
5.3750 80.817 0.59550 404.35 432.21 1.8336 521.23 0.0019185 212.48 213.55 1.0486 1.5910 2.5348 850.04 -0.0022417 119.06 0.10324 12.098 0.082660 534.67 580.73 2.3669 1.4575 1.7888 220.60 0.30144 7.5674 0.016368
6.3750 83.211 0.61309 411.63 440.31 1.8597 519.84 0.0019237 215.00 216.10 1.0576 1.5946 2.5429 843.43 -0.0021514 117.85 0.10273 12.447 0.080340 535.72 581.81 2.3659 1.4632 1.7986 220.44 0.29938 7.5966 0.016487
7.3750 85.657 0.63112 419.00 448.53 1.8860 518.44 0.0019289 217.51 218.65 1.0666 1.5983 2.5511 836.82 -0.0020593 116.65 0.10223 12.805 0.078096 536.76 582.88 2.3650 1.4689 1.8085 220.27 0.29736 7.6259 0.016608
8.3750 88.156 0.64960 426.45 456.85 1.9126 517.03 0.0019341 220.04 221.22 1.0756 1.6020 2.5595 830.20 -0.0019652 115.46 0.10173 13.170 0.075928 537.80 583.95 2.3640 1.4746 1.8186 220.08 0.29538 7.6555 0.016730
9.3750 90.708 0.66852 434.00 465.27 1.9393 515.62 0.0019394 222.57 223.79 1.0846 1.6057 2.5679 823.58 -0.0018691 114.28 0.10124 13.545 0.073830 538.84 585.01 2.3631 1.4804 1.8288 219.89 0.29345 7.6852 0.016853
10.375 93.315 0.68791 441.64 473.81 1.9663 514.19 0.0019448 225.11 226.37 1.0936 1.6095 2.5765 816.96 -0.0017710 113.11 0.10074 13.927 0.071802 539.87 586.07 2.3622 1.4863 1.8392 219.69 0.29156 7.7151 0.016978
11.375 95.977 0.70777 449.36 482.45 1.9935 512.76 0.0019502 227.66 228.95 1.1025 1.6132 2.5852 810.32 -0.0016708 111.95 0.10025 14.319 0.069840 540.90 587.12 2.3614 1.4921 1.8498 219.48 0.28971 7.7452 0.017103
12.375 98.694 0.72811 457.18 491.21 2.0209 511.32 0.0019557 230.22 231.55 1.1115 1.6170 2.5940 803.68 -0.0015685 110.80 0.099756 14.719 0.067941 541.93 588.17 2.3605 1.4980 1.8605 219.26 0.28790 7.7756 0.017230
13.375 101.47 0.74895 465.09 500.07 2.0486 509.87 0.0019613 232.78 234.15 1.1205 1.6208 2.6030 797.04 -0.0014639 109.67 0.099267 15.128 0.066103 542.96 589.21 2.3597 1.5040 1.8715 219.03 0.28612 7.8061 0.017359
14.375 104.30 0.77030 473.09 509.05 2.0765 508.42 0.0019669 235.35 236.77 1.1295 1.6247 2.6121 790.39 -0.0013569 108.54 0.098779 15.547 0.064323 543.99 590.24 2.3588 1.5099 1.8826 218.79 0.28439 7.8369 0.017488
15.375 107.19 0.79217 481.19 518.14 2.1046 506.95 0.0019726 237.93 239.39 1.1384 1.6286 2.6214 783.73 -0.0012476 107.43 0.098294 15.974 0.062600 545.01 591.27 2.3580 1.5159 1.8940 218.53 0.28270 7.8680 0.017619
16.375 110.13 0.81458 489.38 527.35 2.1329 505.48 0.0019783 240.52 242.02 1.1474 1.6324 2.6308 777.07 -0.0011357 106.32 0.097810 16.412 0.060931 546.03 592.29 2.3572 1.5220 1.9055 218.27 0.28104 7.8993 0.017752
17.375 113.14 0.83754 497.67 536.67 2.1615 504.00 0.0019841 243.11 244.66 1.1564 1.6364 2.6403 770.40 -0.0010213 105.22 0.097328 16.859 0.059314 547.04 593.31 2.3564 1.5281 1.9172 217.99 0.27942 7.9308 0.017886
18.375 116.21 0.86106 506.05 546.11 2.1903 502.50 0.0019900 245.72 247.31 1.1653 1.6403 2.6501 763.72 -0.00090422 104.14 0.096848 17.317 0.057747 548.05 594.32 2.3557 1.5342 1.9292 217.71 0.27783 7.9626 0.018021
19.375 119.33 0.88516 514.53 555.66 2.2193 501.00 0.0019960 248.33 249.97 1.1743 1.6443 2.6599 757.04 -0.00078435 103.06 0.096371 17.785 0.056228 549.06 595.33 2.3549 1.5404 1.9414 217.41 0.27628 7.9947 0.018159
20.375 122.52 0.90985 523.10 565.34 2.2486 499.49 0.0020020 250.95 252.64 1.1832 1.6483 2.6700 750.35 -0.00066161 101.99 0.095895 18.263 0.054756 550.07 596.32 2.3541 1.5466 1.9538 217.10 0.27477 8.0272 0.018297
21.375 125.77 0.93515 531.78 575.13 2.2781 497.97 0.0020082 253.57 255.32 1.1922 1.6523 2.6802 743.64 -0.00053589 100.93 0.095420 18.752 0.053328 551.07 597.31 2.3534 1.5528 1.9665 216.78 0.27329 8.0599 0.018438
22.375 129.08 0.96108 540.55 585.05 2.3078 496.43 0.0020144 256.21 258.00 1.2012 1.6563 2.6906 736.94 -0.00040708 99.877 0.094948 19.252 0.051943 552.07 598.30 2.3526 1.5591 1.9795 216.45 0.27184 8.0929 0.018580
23.375 132.46 0.98765 549.42 595.09 2.3378 494.89 0.0020206 258.86 260.70 1.2101 1.6604 2.7012 730.22 -0.00027505 98.834 0.094478 19.763 0.050600 553.06 599.27 2.3519 1.5655 1.9927 216.11 0.27043 8.1263 0.018724
24.375 134.39 undefined 554.36 600.69 2.3544 20.000 0.050000 554.36 600.69 2.3544 1.5701 1.9988 216.27 0.26794 8.1577 0.018853 20.000 0.050000 554.36 600.69 2.3544 1.5701 1.9988 216.27 0.26794 8.1577 0.018853
25.375 135.05 undefined 555.94 602.49 2.3597 20.000 0.050000 555.94 602.49 2.3597 1.5734 1.9989 216.85 0.26456 8.1873 0.018968 20.000 0.050000 555.94 602.49 2.3597 1.5734 1.9989 216.85 0.26456 8.1873 0.018968
26.375 135.72 undefined 557.51 604.30 2.3650 20.000 0.050000 557.51 604.30 2.3650 1.5768 1.9990 217.44 0.26124 8.2168 0.019084 20.000 0.050000 557.51 604.30 2.3650 1.5768 1.9990 217.44 0.26124 8.2168 0.019084
27.375 136.38 undefined 559.09 606.11 2.3702 20.000 0.050000 559.09 606.11 2.3702 1.5801 1.9993 218.02 0.25799 8.2463 0.019200 20.000 0.050000 559.09 606.11 2.3702 1.5801 1.9993 218.02 0.25799 8.2463 0.019200
28.375 137.05 undefined 560.67 607.92 2.3755 20.000 0.050000 560.67 607.92 2.3755 1.5834 1.9996 218.60 0.25480 8.2757 0.019317 20.000 0.050000 560.67 607.92 2.3755 1.5834 1.9996 218.60 0.25480 8.2757 0.019317
29.375 137.71 undefined 562.26 609.73 2.3807 20.000 0.050000 562.26 609.73 2.3807 1.5868 2.0001 219.18 0.25166 8.3052 0.019434 20.000 0.050000 562.26 609.73 2.3807 1.5868 2.0001 219.18 0.25166 8.3052 0.019434
30.375 138.37 undefined 563.84 611.55 2.3860 20.000 0.050000 563.84 611.55 2.3860 1.5902 2.0006 219.75 0.24859 8.3346 0.019551 20.000 0.050000 563.84 611.55 2.3860 1.5902 2.0006 219.75 0.24859 8.3346 0.019551
31.375 139.03 undefined 565.44 613.37 2.3912 20.000 0.050000 565.44 613.37 2.3912 1.5936 2.0012 220.32 0.24556 8.3640 0.019668 20.000 0.050000 565.44 613.37 2.3912 1.5936 2.0012 220.32 0.24556 8.3640 0.019668
32.375 139.69 undefined 567.03 615.19 2.3964 20.000 0.050000 567.03 615.19 2.3964 1.5971 2.0019 220.89 0.24260 8.3934 0.019786 20.000 0.050000 567.03 615.19 2.3964 1.5971 2.0019 220.89 0.24260 8.3934 0.019786
33.375 140.35 undefined 568.63 617.01 2.4017 20.000 0.050000 568.63 617.01 2.4017 1.6005 2.0027 221.45 0.23968 8.4228 0.019904 20.000 0.050000 568.63 617.01 2.4017 1.6005 2.0027 221.45 0.23968 8.4228 0.019904
34.375 141.01 undefined 570.23 618.84 2.4069 20.000 0.050000 570.23 618.84 2.4069 1.6040 2.0036 222.02 0.23682 8.4521 0.020023 20.000 0.050000 570.23 618.84 2.4069 1.6040 2.0036 222.02 0.23682 8.4521 0.020023
35.375 141.66 undefined 571.84 620.68 2.4121 20.000 0.050000 571.84 620.68 2.4121 1.6075 2.0045 222.58 0.23401 8.4814 0.020142 20.000 0.050000 571.84 620.68 2.4121 1.6075 2.0045 222.58 0.23401 8.4814 0.020142
36.375 142.32 undefined 573.45 622.51 2.4173 20.000 0.050000 573.45 622.51 2.4173 1.6110 2.0055 223.13 0.23125 8.5107 0.020261 20.000 0.050000 573.45 622.51 2.4173 1.6110 2.0055 223.13 0.23125 8.5107 0.020261
37.375 142.97 undefined 575.06 624.35 2.4225 20.000 0.050000 575.06 624.35 2.4225 1.6145 2.0066 223.69 0.22854 8.5399 0.020381 20.000 0.050000 575.06 624.35 2.4225 1.6145 2.0066 223.69 0.22854 8.5399 0.020381
38.375 143.63 undefined 576.68 626.19 2.4277 20.000 0.050000 576.68 626.19 2.4277 1.6180 2.0077 224.24 0.22587 8.5692 0.020501 20.000 0.050000 576.68 626.19 2.4277 1.6180 2.0077 224.24 0.22587 8.5692 0.020501
39.375 144.28 undefined 578.30 628.04 2.4329 20.000 0.050000 578.30 628.04 2.4329 1.6216 2.0090 224.79 0.22325 8.5984 0.020621 20.000 0.050000 578.30 628.04 2.4329 1.6216 2.0090 224.79 0.22325 8.5984 0.020621
40.375 144.93 undefined 579.92 629.88 2.4381 20.000 0.050000 579.92 629.88 2.4381 1.6252 2.0102 225.34 0.22067 8.6276 0.020742 20.000 0.050000 579.92 629.88 2.4381 1.6252 2.0102 225.34 0.22067 8.6276 0.020742
41.375 145.58 undefined 581.55 631.73 2.4433 20.000 0.050000 581.55 631.73 2.4433 1.6288 2.0116 225.89 0.21814 8.6567 0.020863 20.000 0.050000 581.55 631.73 2.4433 1.6288 2.0116 225.89 0.21814 8.6567 0.020863
42.375 146.23 undefined 583.18 633.59 2.4484 20.000 0.050000 583.18 633.59 2.4484 1.6324 2.0130 226.43 0.21566 8.6859 0.020984 20.000 0.050000 583.18 633.59 2.4484 1.6324 2.0130 226.43 0.21566 8.6859 0.020984
43.375 146.88 undefined 584.81 635.45 2.4536 20.000 0.050000 584.81 635.45 2.4536 1.6360 2.0145 226.97 0.21321 8.7150 0.021106 20.000 0.050000 584.81 635.45 2.4536 1.6360 2.0145 226.97 0.21321 8.7150 0.021106
44.375 147.53 undefined 586.45 637.31 2.4588 20.000 0.050000 586.45 637.31 2.4588 1.6397 2.0160 227.51 0.21080 8.7441 0.021228 20.000 0.050000 586.45 637.31 2.4588 1.6397 2.0160 227.51 0.21080 8.7441 0.021228
45.375 148.18 undefined 588.09 639.17 2.4639 20.000 0.050000 588.09 639.17 2.4639 1.6433 2.0176 228.05 0.20844 8.7731 0.021350 20.000 0.050000 588.09 639.17 2.4639 1.6433 2.0176 228.05 0.20844 8.7731 0.021350
46.375 148.82 undefined 589.74 641.04 2.4691 20.000 0.050000 589.74 641.04 2.4691 1.6470 2.0193 228.58 0.20611 8.8022 0.021472 20.000 0.050000 589.74 641.04 2.4691 1.6470 2.0193 228.58 0.20611 8.8022 0.021472
47.375 149.47 undefined 591.38 642.91 2.4743 20.000 0.050000 591.38 642.91 2.4743 1.6507 2.0210 229.12 0.20383 8.8312 0.021595 20.000 0.050000 591.38 642.91 2.4743 1.6507 2.0210 229.12 0.20383 8.8312 0.021595
48.375 150.12 undefined 593.04 644.79 2.4794 20.000 0.050000 593.04 644.79 2.4794 1.6544 2.0227 229.65 0.20158 8.8602 0.021719 20.000 0.050000 593.04 644.79 2.4794 1.6544 2.0227 229.65 0.20158 8.8602 0.021719
49.375 150.76 undefined 594.69 646.67 2.4845 20.000 0.050000 594.69 646.67 2.4845 1.6581 2.0246 230.18 0.19936 8.8892 0.021842 20.000 0.050000 594.69 646.67 2.4845 1.6581 2.0246 230.18 0.19936 8.8892 0.021842
50.375 151.40 undefined 596.35 648.55 2.4897 20.000 0.050000 596.35 648.55 2.4897 1.6618 2.0264 230.71 0.19718 8.9182 0.021966 20.000 0.050000 596.35 648.55 2.4897 1.6618 2.0264 230.71 0.19718 8.9182 0.021966
51.375 152.05 undefined 598.02 650.43 2.4948 20.000 0.050000 598.02 650.43 2.4948 1.6656 2.0283 231.23 0.19504 8.9471 0.022090 20.000 0.050000 598.02 650.43 2.4948 1.6656 2.0283 231.23 0.19504 8.9471 0.022090
52.375 152.69 undefined 599.68 652.32 2.4999 20.000 0.050000 599.68 652.32 2.4999 1.6693 2.0303 231.75 0.19293 8.9760 0.022215 20.000 0.050000 599.68 652.32 2.4999 1.6693 2.0303 231.75 0.19293 8.9760 0.022215
53.375 153.33 undefined 601.36 654.21 2.5051 20.000 0.050000 601.36 654.21 2.5051 1.6731 2.0323 232.27 0.19086 9.0049 0.022340 20.000 0.050000 601.36 654.21 2.5051 1.6731 2.0323 232.27 0.19086 9.0049 0.022340
54.375 153.97 undefined 603.03 656.11 2.5102 20.000 0.050000 603.03 656.11 2.5102 1.6769 2.0344 232.79 0.18882 9.0337 0.022465 20.000 0.050000 603.03 656.11 2.5102 1.6769 2.0344 232.79 0.18882 9.0337 0.022465
55.375 154.61 undefined 604.71 658.01 2.5153 20.000 0.050000 604.71 658.01 2.5153 1.6807 2.0365 233.31 0.18681 9.0626 0.022590 20.000 0.050000 604.71 658.01 2.5153 1.6807 2.0365 233.31 0.18681 9.0626 0.022590
56.375 155.25 undefined 606.39 659.91 2.5204 20.000 0.050000 606.39 659.91 2.5204 1.6845 2.0386 233.83 0.18483 9.0914 0.022716 20.000 0.050000 606.39 659.91 2.5204 1.6845 2.0386 233.83 0.18483 9.0914 0.022716
57.375 155.89 undefined 608.08 661.82 2.5255 20.000 0.050000 608.08 661.82 2.5255 1.6883 2.0408 234.34 0.18288 9.1202 0.022842 20.000 0.050000 608.08 661.82 2.5255 1.6883 2.0408 234.34 0.18288 9.1202 0.022842
58.375 156.53 undefined 609.77 663.73 2.5306 20.000 0.050000 609.77 663.73 2.5306 1.6921 2.0430 234.85 0.18096 9.1490 0.022969 20.000 0.050000 609.77 663.73 2.5306 1.6921 2.0430 234.85 0.18096 9.1490 0.022969
59.375 157.17 undefined 611.46 665.64 2.5357 20.000 0.050000 611.46 665.64 2.5357 1.6959 2.0453 235.36 0.17907 9.1777 0.023095 20.000 0.050000 611.46 665.64 2.5357 1.6959 2.0453 235.36 0.17907 9.1777 0.023095
60.375 157.80 undefined 613.16 667.56 2.5408 20.000 0.050000 613.16 667.56 2.5408 1.6998 2.0476 235.87 0.17721 9.2064 0.023223 20.000 0.050000 613.16 667.56 2.5408 1.6998 2.0476 235.87 0.17721 9.2064 0.023223
61.375 158.44 undefined 614.86 669.48 2.5459 20.000 0.050000 614.86 669.48 2.5459 1.7036 2.0499 236.38 0.17538 9.2351 0.023350 20.000 0.050000 614.86 669.48 2.5459 1.7036 2.0499 236.38 0.17538 9.2351 0.023350
62.375 159.07 undefined 616.57 671.41 2.5510 20.000 0.050000 616.57 671.41 2.5510 1.7075 2.0523 236.89 0.17358 9.2638 0.023478 20.000 0.050000 616.57 671.41 2.5510 1.7075 2.0523 236.89 0.17358 9.2638 0.023478
63.375 159.71 undefined 618.28 673.34 2.5561 20.000 0.050000 618.28 673.34 2.5561 1.7114 2.0547 237.39 0.17180 9.2925 0.023606 20.000 0.050000 618.28 673.34 2.5561 1.7114 2.0547 237.39 0.17180 9.2925 0.023606
64.375 160.34 undefined 619.99 675.27 2.5612 20.000 0.050000 619.99 675.27 2.5612 1.7153 2.0571 237.89 0.17005 9.3211 0.023734 20.000 0.050000 619.99 675.27 2.5612 1.7153 2.0571 237.89 0.17005 9.3211 0.023734
65.375 160.98 undefined 621.71 677.20 2.5663 20.000 0.050000 621.71 677.20 2.5663 1.7192 2.0596 238.39 0.16833 9.3497 0.023863 20.000 0.050000 621.71 677.20 2.5663 1.7192 2.0596 238.39 0.16833 9.3497 0.023863
66.375 161.61 undefined 623.43 679.14 2.5714 20.000 0.050000 623.43 679.14 2.5714 1.7231 2.0621 238.89 0.16663 9.3783 0.023992 20.000 0.050000 623.43 679.14 2.5714 1.7231 2.0621 238.89 0.16663 9.3783 0.023992
67.375 162.24 undefined 625.15 681.09 2.5764 20.000 0.050000 625.15 681.09 2.5764 1.7270 2.0647 239.39 0.16495 9.4069 0.024121 20.000 0.050000 625.15 681.09 2.5764 1.7270 2.0647 239.39 0.16495 9.4069 0.024121
68.375 162.88 undefined 626.88 683.03 2.5815 20.000 0.050000 626.88 683.03 2.5815 1.7309 2.0673 239.88 0.16330 9.4354 0.024250 20.000 0.050000 626.88 683.03 2.5815 1.7309 2.0673 239.88 0.16330 9.4354 0.024250
69.375 163.51 undefined 628.62 684.98 2.5866 20.000 0.050000 628.62 684.98 2.5866 1.7349 2.0699 240.38 0.16168 9.4639 0.024380 20.000 0.050000 628.62 684.98 2.5866 1.7349 2.0699 240.38 0.16168 9.4639 0.024380
70.375 164.14 undefined 630.35 686.94 2.5916 20.000 0.050000 630.35 686.94 2.5916 1.7388 2.0725 240.87 0.16008 9.4924 0.024510 20.000 0.050000 630.35 686.94 2.5916 1.7388 2.0725 240.87 0.16008 9.4924 0.024510
71.375 164.77 undefined 632.09 688.90 2.5967 20.000 0.050000 632.09 688.90 2.5967 1.7428 2.0752 241.36 0.15850 9.5209 0.024641 20.000 0.050000 632.09 688.90 2.5967 1.7428 2.0752 241.36 0.15850 9.5209 0.024641
72.375 165.40 undefined 633.84 690.86 2.6017 20.000 0.050000 633.84 690.86 2.6017 1.7467 2.0779 241.85 0.15694 9.5493 0.024772 20.000 0.050000 633.84 690.86 2.6017 1.7467 2.0779 241.85 0.15694 9.5493 0.024772
73.375 166.03 undefined 635.59 692.82 2.6068 20.000 0.050000 635.59 692.82 2.6068 1.7507 2.0806 242.34 0.15541 9.5778 0.024903 20.000 0.050000 635.59 692.82 2.6068 1.7507 2.0806 242.34 0.15541 9.5778 0.024903
74.375 166.66 undefined 637.34 694.79 2.6118 20.000 0.050000 637.34 694.79 2.6118 1.7546 2.0834 242.83 0.15390 9.6062 0.025034 20.000 0.050000 637.34 694.79 2.6118 1.7546 2.0834 242.83 0.15390 9.6062 0.025034
75.375 167.29 undefined 639.10 696.77 2.6169 20.000 0.050000 639.10 696.77 2.6169 1.7586 2.0861 243.31 0.15240 9.6346 0.025166 20.000 0.050000 639.10 696.77 2.6169 1.7586 2.0861 243.31 0.15240 9.6346 0.025166
76.375 167.91 undefined 640.86 698.74 2.6219 20.000 0.050000 640.86 698.74 2.6219 1.7626 2.0889 243.79 0.15093 9.6629 0.025298 20.000 0.050000 640.86 698.74 2.6219 1.7626 2.0889 243.79 0.15093 9.6629 0.025298
77.375 168.54 undefined 642.62 700.72 2.6270 20.000 0.050000 642.62 700.72 2.6270 1.7666 2.0918 244.28 0.14949 9.6913 0.025430 20.000 0.050000 642.62 700.72 2.6270 1.7666 2.0918 244.28 0.14949 9.6913 0.025430
78.375 169.17 undefined 644.39 702.71 2.6320 20.000 0.050000 644.39 702.71 2.6320 1.7706 2.0946 244.76 0.14806 9.7196 0.025563 20.000 0.050000 644.39 702.71 2.6320 1.7706 2.0946 244.76 0.14806 9.7196 0.025563
79.375 169.79 undefined 646.16 704.70 2.6371 20.000 0.050000 646.16 704.70 2.6371 1.7746 2.0975 245.24 0.14665 9.7479 0.025696 20.000 0.050000 646.16 704.70 2.6371 1.7746 2.0975 245.24 0.14665 9.7479 0.025696
80.375 170.42 undefined 647.94 706.69 2.6421 20.000 0.050000 647.94 706.69 2.6421 1.7786 2.1004 245.71 0.14526 9.7761 0.025829 20.000 0.050000 647.94 706.69 2.6421 1.7786 2.1004 245.71 0.14526 9.7761 0.025829
81.375 171.05 undefined 649.72 708.69 2.6471 20.000 0.050000 649.72 708.69 2.6471 1.7826 2.1033 246.19 0.14389 9.8044 0.025963 20.000 0.050000 649.72 708.69 2.6471 1.7826 2.1033 246.19 0.14389 9.8044 0.025963
82.375 171.67 undefined 651.50 710.69 2.6521 20.000 0.050000 651.50 710.69 2.6521 1.7866 2.1062 246.67 0.14254 9.8326 0.026097 20.000 0.050000 651.50 710.69 2.6521 1.7866 2.1062 246.67 0.14254 9.8326 0.026097
83.375 172.30 undefined 653.29 712.69 2.6572 20.000 0.050000 653.29 712.69 2.6572 1.7906 2.1092 247.14 0.14120 9.8608 0.026231 20.000 0.050000 653.29 712.69 2.6572 1.7906 2.1092 247.14 0.14120 9.8608 0.026231
84.375 172.92 undefined 655.09 714.70 2.6622 20.000 0.050000 655.09 714.70 2.6622 1.7947 2.1122 247.61 0.13989 9.8890 0.026365 20.000 0.050000 655.09 714.70 2.6622 1.7947 2.1122 247.61 0.13989 9.8890 0.026365
85.375 173.54 undefined 656.88 716.71 2.6672 20.000 0.050000 656.88 716.71 2.6672 1.7987 2.1152 248.09 0.13859 9.9171 0.026500 20.000 0.050000 656.88 716.71 2.6672 1.7987 2.1152 248.09 0.13859 9.9171 0.026500
86.375 174.17 undefined 658.68 718.73 2.6722 20.000 0.050000 658.68 718.73 2.6722 1.8027 2.1182 248.56 0.13731 9.9453 0.026635 20.000 0.050000 658.68 718.73 2.6722 1.8027 2.1182 248.56 0.13731 9.9453 0.026635
87.375 174.79 undefined 660.49 720.74 2.6772 20.000 0.050000 660.49 720.74 2.6772 1.8068 2.1212 249.03 0.13605 9.9734 0.026771 20.000 0.050000 660.49 720.74 2.6772 1.8068 2.1212 249.03 0.13605 9.9734 0.026771
88.375 175.41 undefined 662.30 722.77 2.6822 20.000 0.050000 662.30 722.77 2.6822 1.8108 2.1243 249.49 0.13480 10.001 0.026906 20.000 0.050000 662.30 722.77 2.6822 1.8108 2.1243 249.49 0.13480 10.001 0.026906
89.375 176.03 undefined 664.11 724.80 2.6873 20.000 0.050000 664.11 724.80 2.6873 1.8149 2.1274 249.96 0.13357 10.030 0.027042 20.000 0.050000 664.11 724.80 2.6873 1.8149 2.1274 249.96 0.13357 10.030 0.027042
90.375 176.66 undefined 665.93 726.83 2.6923 20.000 0.050000 665.93 726.83 2.6923 1.8189 2.1305 250.42 0.13236 10.058 0.027179 20.000 0.050000 665.93 726.83 2.6923 1.8189 2.1305 250.42 0.13236 10.058 0.027179
91.375 177.28 undefined 667.75 728.86 2.6973 20.000 0.050000 667.75 728.86 2.6973 1.8230 2.1336 250.89 0.13117 10.086 0.027315 20.000 0.050000 667.75 728.86 2.6973 1.8230 2.1336 250.89 0.13117 10.086 0.027315
92.375 177.90 undefined 669.57 730.90 2.7023 20.000 0.050000 669.57 730.90 2.7023 1.8270 2.1367 251.35 0.12999 10.114 0.027452 20.000 0.050000 669.57 730.90 2.7023 1.8270 2.1367 251.35 0.12999 10.114 0.027452
93.375 178.52 undefined 671.40 732.94 2.7073 20.000 0.050000 671.40 732.94 2.7073 1.8311 2.1399 251.81 0.12882 10.142 0.027589 20.000 0.050000 671.40 732.94 2.7073 1.8311 2.1399 251.81 0.12882 10.142 0.027589
94.375 179.14 undefined 673.23 734.99 2.7123 20.000 0.050000 673.23 734.99 2.7123 1.8352 2.1430 252.27 0.12767 10.170 0.027727 20.000 0.050000 673.23 734.99 2.7123 1.8352 2.1430 252.27 0.12767 10.170 0.027727
95.375 179.76 undefined 675.07 737.04 2.7172 20.000 0.050000 675.07 737.04 2.7172 1.8392 2.1462 252.73 0.12654 10.198 0.027864 20.000 0.050000 675.07 737.04 2.7172 1.8392 2.1462 252.73 0.12654 10.198 0.027864
96.375 180.38 undefined 676.91 739.10 2.7222 20.000 0.050000 676.91 739.10 2.7222 1.8433 2.1494 253.19 0.12541 10.225 0.028003 20.000 0.050000 676.91 739.10 2.7222 1.8433 2.1494 253.19 0.12541 10.225 0.028003
97.375 181.00 undefined 678.76 741.15 2.7272 20.000 0.050000 678.76 741.15 2.7272 1.8474 2.1526 253.65 0.12431 10.253 0.028141 20.000 0.050000 678.76 741.15 2.7272 1.8474 2.1526 253.65 0.12431 10.253 0.028141
98.375 181.61 undefined 680.61 743.22 2.7322 20.000 0.050000 680.61 743.22 2.7322 1.8515 2.1558 254.10 0.12322 10.281 0.028280 20.000 0.050000 680.61 743.22 2.7322 1.8515 2.1558 254.10 0.12322 10.281 0.028280
99.375 182.23 undefined 682.46 745.28 2.7372 20.000 0.050000 682.46 745.28 2.7372 1.8555 2.1591 254.56 0.12214 10.309 0.028419 20.000 0.050000 682.46 745.28 2.7372 1.8555 2.1591 254.56 0.12214 10.309 0.028419
100.38 182.85 undefined 684.32 747.35 2.7422 20.000 0.050000 684.32 747.35 2.7422 1.8596 2.1623 255.01 0.12108 10.337 0.028558 20.000 0.050000 684.32 747.35 2.7422 1.8596 2.1623 255.01 0.12108 10.337 0.028558
101.38 183.47 undefined 686.18 749.43 2.7471 20.000 0.050000 686.18 749.43 2.7471 1.8637 2.1656 255.47 0.12003 10.365 0.028698 20.000 0.050000 686.18 749.43 2.7471 1.8637 2.1656 255.47 0.12003 10.365 0.028698
102.38 184.08 undefined 688.05 751.51 2.7521 20.000 0.050000 688.05 751.51 2.7521 1.8678 2.1689 255.92 0.11899 10.392 0.028837 20.000 0.050000 688.05 751.51 2.7521 1.8678 2.1689 255.92 0.11899 10.392 0.028837
103.38 184.70 undefined 689.92 753.59 2.7571 20.000 0.050000 689.92 753.59 2.7571 1.8719 2.1722 256.37 0.11797 10.420 0.028978 20.000 0.050000 689.92 753.59 2.7571 1.8719 2.1722 256.37 0.11797 10.420 0.028978
104.38 185.32 undefined 691.79 755.68 2.7621 20.000 0.050000 691.79 755.68 2.7621 1.8760 2.1755 256.82 0.11695 10.448 0.029118 20.000 0.050000 691.79 755.68 2.7621 1.8760 2.1755 256.82 0.11695 10.448 0.029118
105.38 185.93 undefined 693.67 757.77 2.7670 20.000 0.050000 693.67 757.77 2.7670 1.8801 2.1788 257.26 0.11596 10.476 0.029259 20.000 0.050000 693.67 757.77 2.7670 1.8801 2.1788 257.26 0.11596 10.476 0.029259
106.38 186.55 undefined 695.55 759.86 2.7720 20.000 0.050000 695.55 759.86 2.7720 1.8842 2.1822 257.71 0.11497 10.503 0.029400 20.000 0.050000 695.55 759.86 2.7720 1.8842 2.1822 257.71 0.11497 10.503 0.029400
107.38 187.16 undefined 697.44 761.96 2.7770 20.000 0.050000 697.44 761.96 2.7770 1.8883 2.1855 258.16 0.11400 10.531 0.029541 20.000 0.050000 697.44 761.96 2.7770 1.8883 2.1855 258.16 0.11400 10.531 0.029541
108.38 187.78 undefined 699.33 764.06 2.7819 20.000 0.050000 699.33 764.06 2.7819 1.8924 2.1889 258.60 0.11304 10.559 0.029683 20.000 0.050000 699.33 764.06 2.7819 1.8924 2.1889 258.60 0.11304 10.559 0.029683
109.38 188.39 undefined 701.22 766.17 2.7869 20.000 0.050000 701.22 766.17 2.7869 1.8965 2.1922 259.05 0.11209 10.586 0.029825 20.000 0.050000 701.22 766.17 2.7869 1.8965 2.1922 259.05 0.11209 10.586 0.029825
110.38 189.01 undefined 703.12 768.28 2.7918 20.000 0.050000 703.12 768.28 2.7918 1.9006 2.1956 259.49 0.11115 10.614 0.029967 20.000 0.050000 703.12 768.28 2.7918 1.9006 2.1956 259.49 0.11115 10.614 0.029967
111.38 189.62 undefined 705.02 770.39 2.7968 20.000 0.050000 705.02 770.39 2.7968 1.9047 2.1990 259.93 0.11022 10.641 0.030110 20.000 0.050000 705.02 770.39 2.7968 1.9047 2.1990 259.93 0.11022 10.641 0.030110
112.38 190.24 undefined 706.93 772.51 2.8017 20.000 0.050000 706.93 772.51 2.8017 1.9088 2.2024 260.37 0.10931 10.669 0.030253 20.000 0.050000 706.93 772.51 2.8017 1.9088 2.2024 260.37 0.10931 10.669 0.030253
113.38 190.85 undefined 708.84 774.63 2.8067 20.000 0.050000 708.84 774.63 2.8067 1.9129 2.2058 260.81 0.10840 10.697 0.030396 20.000 0.050000 708.84 774.63 2.8067 1.9129 2.2058 260.81 0.10840 10.697 0.030396
114.38 191.46 undefined 710.75 776.76 2.8116 20.000 0.050000 710.75 776.76 2.8116 1.9170 2.2092 261.25 0.10751 10.724 0.030540 20.000 0.050000 710.75 776.76 2.8116 1.9170 2.2092 261.25 0.10751 10.724 0.030540
115.38 192.08 undefined 712.67 778.89 2.8166 20.000 0.050000 712.67 778.89 2.8166 1.9211 2.2127 261.69 0.10663 10.752 0.030683 20.000 0.050000 712.67 778.89 2.8166 1.9211 2.2127 261.69 0.10663 10.752 0.030683
116.38 192.69 undefined 714.60 781.02 2.8215 20.000 0.050000 714.60 781.02 2.8215 1.9252 2.2161 262.13 0.10576 10.779 0.030827 20.000 0.050000 714.60 781.02 2.8215 1.9252 2.2161 262.13 0.10576 10.779 0.030827
117.38 193.30 undefined 716.52 783.16 2.8265 20.000 0.050000 716.52 783.16 2.8265 1.9293 2.2195 262.56 0.10490 10.806 0.030972 20.000 0.050000 716.52 783.16 2.8265 1.9293 2.2195 262.56 0.10490 10.806 0.030972
118.38 193.91 undefined 718.46 785.30 2.8314 20.000 0.050000 718.46 785.30 2.8314 1.9335 2.2230 263.00 0.10405 10.834 0.031116 20.000 0.050000 718.46 785.30 2.8314 1.9335 2.2230 263.00 0.10405 10.834 0.031116
119.38 194.52 undefined 720.39 787.45 2.8363 20.000 0.050000 720.39 787.45 2.8363 1.9376 2.2265 263.43 0.10321 10.861 0.031261 20.000 0.050000 720.39 787.45 2.8363 1.9376 2.2265 263.43 0.10321 10.861 0.031261
120.38 195.14 undefined 722.33 789.60 2.8413 20.000 0.050000 722.33 789.60 2.8413 1.9417 2.2299 263.87 0.10237 10.889 0.031407 20.000 0.050000 722.33 789.60 2.8413 1.9417 2.2299 263.87 0.10237 10.889 0.031407
121.38 195.75 undefined 724.27 791.76 2.8462 20.000 0.050000 724.27 791.76 2.8462 1.9458 2.2334 264.30 0.10155 10.916 0.031552 20.000 0.050000 724.27 791.76 2.8462 1.9458 2.2334 264.30 0.10155 10.916 0.031552
122.38 196.36 undefined 726.22 793.91 2.8511 20.000 0.050000 726.22 793.91 2.8511 1.9499 2.2369 264.73 0.10074 10.943 0.031698 20.000 0.050000 726.22 793.91 2.8511 1.9499 2.2369 264.73 0.10074 10.943 0.031698
123.38 196.97 undefined 728.17 796.08 2.8561 20.000 0.050000 728.17 796.08 2.8561 1.9540 2.2404 265.16 0.099942 10.971 0.031844 20.000 0.050000 728.17 796.08 2.8561 1.9540 2.2404 265.16 0.099942 10.971 0.031844
124.38 197.58 undefined 730.13 798.24 2.8610 20.000 0.050000 730.13 798.24 2.8610 1.9581 2.2439 265.59 0.099150 10.998 0.031991 20.000 0.050000 730.13 798.24 2.8610 1.9581 2.2439 265.59 0.099150 10.998 0.031991
125.38 198.19 undefined 732.09 800.41 2.8659 20.000 0.050000 732.09 800.41 2.8659 1.9623 2.2475 266.02 0.098367 11.025 0.032137 20.000 0.050000 732.09 800.41 2.8659 1.9623 2.2475 266.02 0.098367 11.025 0.032137
126.38 198.80 undefined 734.05 802.59 2.8709 20.000 0.050000 734.05 802.59 2.8709 1.9664 2.2510 266.45 0.097594 11.053 0.032284 20.000 0.050000 734.05 802.59 2.8709 1.9664 2.2510 266.45 0.097594 11.053 0.032284
127.38 199.41 undefined 736.02 804.77 2.8758 20.000 0.050000 736.02 804.77 2.8758 1.9705 2.2545 266.88 0.096829 11.080 0.032432 20.000 0.050000 736.02 804.77 2.8758 1.9705 2.2545 266.88 0.096829 11.080 0.032432
128.38 200.02 undefined 738.00 806.95 2.8807 20.000 0.050000 738.00 806.95 2.8807 1.9746 2.2580 267.30 0.096073 11.107 0.032579 20.000 0.050000 738.00 806.95 2.8807 1.9746 2.2580 267.30 0.096073 11.107 0.032579
129.38 200.63 undefined 739.97 809.14 2.8856 20.000 0.050000 739.97 809.14 2.8856 1.9787 2.2616 267.73 0.095326 11.134 0.032727 20.000 0.050000 739.97 809.14 2.8856 1.9787 2.2616 267.73 0.095326 11.134 0.032727
130.38 201.24 undefined 741.95 811.33 2.8905 20.000 0.050000 741.95 811.33 2.8905 1.9828 2.2651 268.15 0.094588 11.161 0.032876 20.000 0.050000 741.95 811.33 2.8905 1.9828 2.2651 268.15 0.094588 11.161 0.032876
131.38 201.84 undefined 743.94 813.52 2.8954 20.000 0.050000 743.94 813.52 2.8954 1.9870 2.2687 268.58 0.093858 11.188 0.033024 20.000 0.050000 743.94 813.52 2.8954 1.9870 2.2687 268.58 0.093858 11.188 0.033024
132.38 202.45 undefined 745.93 815.72 2.9003 20.000 0.050000 745.93 815.72 2.9003 1.9911 2.2723 269.00 0.093136 11.216 0.033173 20.000 0.050000 745.93 815.72 2.9003 1.9911 2.2723 269.00 0.093136 11.216 0.033173
133.38 203.06 undefined 747.92 817.92 2.9053 20.000 0.050000 747.92 817.92 2.9053 1.9952 2.2758 269.42 0.092423 11.243 0.033322 20.000 0.050000 747.92 817.92 2.9053 1.9952 2.2758 269.42 0.092423 11.243 0.033322
134.38 203.67 undefined 749.92 820.13 2.9102 20.000 0.050000 749.92 820.13 2.9102 1.9993 2.2794 269.84 0.091717 11.270 0.033471 20.000 0.050000 749.92 820.13 2.9102 1.9993 2.2794 269.84 0.091717 11.270 0.033471
135.38 204.28 undefined 751.92 822.34 2.9151 20.000 0.050000 751.92 822.34 2.9151 2.0034 2.2830 270.26 0.091020 11.297 0.033621 20.000 0.050000 751.92 822.34 2.9151 2.0034 2.2830 270.26 0.091020 11.297 0.033621
136.38 204.88 undefined 753.92 824.56 2.9200 20.000 0.050000 753.92 824.56 2.9200 2.0075 2.2866 270.68 0.090330 11.324 0.033771 20.000 0.050000 753.92 824.56 2.9200 2.0075 2.2866 270.68 0.090330 11.324 0.033771
137.38 205.49 undefined 755.93 826.77 2.9249 20.000 0.050000 755.93 826.77 2.9249 2.0116 2.2902 271.10 0.089649 11.351 0.033921 20.000 0.050000 755.93 826.77 2.9249 2.0116 2.2902 271.10 0.089649 11.351 0.033921
138.38 206.10 undefined 757.95 829.00 2.9298 20.000 0.050000 757.95 829.00 2.9298 2.0157 2.2938 271.52 0.088974 11.378 0.034072 20.000 0.050000 757.95 829.00 2.9298 2.0157 2.2938 271.52 0.088974 11.378 0.034072
139.38 206.70 undefined 759.97 831.22 2.9347 20.000 0.050000 759.97 831.22 2.9347 2.0198 2.2974 271.93 0.088308 11.405 0.034223 20.000 0.050000 759.97 831.22 2.9347 2.0198 2.2974 271.93 0.088308 11.405 0.034223
140.38 207.31 undefined 761.99 833.46 2.9396 20.000 0.050000 761.99 833.46 2.9396 2.0240 2.3010 272.35 0.087649 11.432 0.034374 20.000 0.050000 761.99 833.46 2.9396 2.0240 2.3010 272.35 0.087649 11.432 0.034374
141.38 207.92 undefined 764.01 835.69 2.9445 20.000 0.050000 764.01 835.69 2.9445 2.0281 2.3046 272.77 0.086997 11.459 0.034526 20.000 0.050000 764.01 835.69 2.9445 2.0281 2.3046 272.77 0.086997 11.459 0.034526
142.38 208.52 undefined 766.04 837.93 2.9493 20.000 0.050000 766.04 837.93 2.9493 2.0322 2.3082 273.18 0.086352 11.486 0.034677 20.000 0.050000 766.04 837.93 2.9493 2.0322 2.3082 273.18 0.086352 11.486 0.034677
143.38 209.13 undefined 768.08 840.17 2.9542 20.000 0.050000 768.08 840.17 2.9542 2.0363 2.3118 273.59 0.085714 11.512 0.034829 20.000 0.050000 768.08 840.17 2.9542 2.0363 2.3118 273.59 0.085714 11.512 0.034829
144.38 209.74 undefined 770.12 842.42 2.9591 20.000 0.050000 770.12 842.42 2.9591 2.0404 2.3154 274.01 0.085083 11.539 0.034982 20.000 0.050000 770.12 842.42 2.9591 2.0404 2.3154 274.01 0.085083 11.539 0.034982
145.38 210.34 undefined 772.16 844.67 2.9640 20.000 0.050000 772.16 844.67 2.9640 2.0445 2.3191 274.42 0.084460 11.566 0.035134 20.000 0.050000 772.16 844.67 2.9640 2.0445 2.3191 274.42 0.084460 11.566 0.035134
146.38 210.95 undefined 774.21 846.93 2.9689 20.000 0.050000 774.21 846.93 2.9689 2.0486 2.3227 274.83 0.083843 11.593 0.035287 20.000 0.050000 774.21 846.93 2.9689 2.0486 2.3227 274.83 0.083843 11.593 0.035287
147.38 211.55 undefined 776.26 849.19 2.9738 20.000 0.050000 776.26 849.19 2.9738 2.0527 2.3263 275.24 0.083232 11.620 0.035441 20.000 0.050000 776.26 849.19 2.9738 2.0527 2.3263 275.24 0.083232 11.620 0.035441
148.38 212.16 undefined 778.31 851.45 2.9787 20.000 0.050000 778.31 851.45 2.9787 2.0568 2.3300 275.65 0.082628 11.647 0.035594 20.000 0.050000 778.31 851.45 2.9787 2.0568 2.3300 275.65 0.082628 11.647 0.035594
149.38 212.76 undefined 780.37 853.72 2.9835 20.000 0.050000 780.37 853.72 2.9835 2.0609 2.3336 276.06 0.082031 11.673 0.035748 20.000 0.050000 780.37 853.72 2.9835 2.0609 2.3336 276.06 0.082031 11.673 0.035748
150.38 213.37 undefined 782.43 855.99 2.9884 20.000 0.050000 782.43 855.99 2.9884 2.0650 2.3372 276.47 0.081440 11.700 0.035902 20.000 0.050000 782.43 855.99 2.9884 2.0650 2.3372 276.47 0.081440 11.700 0.035902
151.38 213.97 undefined 784.50 858.26 2.9933 20.000 0.050000 784.50 858.26 2.9933 2.0691 2.3409 276.88 0.080856 11.727 0.036057 20.000 0.050000 784.50 858.26 2.9933 2.0691 2.3409 276.88 0.080856 11.727 0.036057
152.38 214.57 undefined 786.57 860.54 2.9982 20.000 0.050000 786.57 860.54 2.9982 2.0732 2.3445 277.29 0.080278 11.753 0.036211 20.000 0.050000 786.57 860.54 2.9982 2.0732 2.3445 277.29 0.080278 11.753 0.036211
153.38 215.18 undefined 788.65 862.83 3.0030 20.000 0.050000 788.65 862.83 3.0030 2.0772 2.3482 277.69 0.079706 11.780 0.036366 20.000 0.050000 788.65 862.83 3.0030 2.0772 2.3482 277.69 0.079706 11.780 0.036366
154.38 215.78 undefined 790.72 865.11 3.0079 20.000 0.050000 790.72 865.11 3.0079 2.0813 2.3519 278.10 0.079140 11.807 0.036522 20.000 0.050000 790.72 865.11 3.0079 2.0813 2.3519 278.10 0.079140 11.807 0.036522
155.38 216.39 undefined 792.81 867.40 3.0128 20.000 0.050000 792.81 867.40 3.0128 2.0854 2.3555 278.50 0.078579 11.833 0.036677 20.000 0.050000 792.81 867.40 3.0128 2.0854 2.3555 278.50 0.078579 11.833 0.036677
156.38 216.99 undefined 794.90 869.70 3.0176 20.000 0.050000 794.90 869.70 3.0176 2.0895 2.3592 278.91 0.078025 11.860 0.036833 20.000 0.050000 794.90 869.70 3.0176 2.0895 2.3592 278.91 0.078025 11.860 0.036833
157.38 217.59 undefined 796.99 872.00 3.0225 20.000 0.050000 796.99 872.00 3.0225 2.0936 2.3628 279.31 0.077477 11.887 0.036989 20.000 0.050000 796.99 872.00 3.0225 2.0936 2.3628 279.31 0.077477 11.887 0.036989
158.38 218.19 undefined 799.08 874.30 3.0274 20.000 0.050000 799.08 874.30 3.0274 2.0977 2.3665 279.71 0.076934 11.913 0.037146 20.000 0.050000 799.08 874.30 3.0274 2.0977 2.3665 279.71 0.076934 11.913 0.037146
159.38 218.80 undefined 801.18 876.61 3.0322 20.000 0.050000 801.18 876.61 3.0322 2.1017 2.3702 280.12 0.076397 11.940 0.037302 20.000 0.050000 801.18 876.61 3.0322 2.1017 2.3702 280.12 0.076397 11.940 0.037302
160.38 219.40 undefined 803.29 878.92 3.0371 20.000 0.050000 803.29 878.92 3.0371 2.1058 2.3738 280.52 0.075866 11.966 0.037460 20.000 0.050000 803.29 878.92 3.0371 2.1058 2.3738 280.52 0.075866 11.966 0.037460
161.38 220.00 undefined 805.39 881.24 3.0419 20.000 0.050000 805.39 881.24 3.0419 2.1099 2.3775 280.92 0.075340 11.993 0.037617 20.000 0.050000 805.39 881.24 3.0419 2.1099 2.3775 280.92 0.075340 11.993 0.037617
162.38 220.61 undefined 807.51 883.56 3.0468 20.000 0.050000 807.51 883.56 3.0468 2.1140 2.3812 281.32 0.074819 12.019 0.037775 20.000 0.050000 807.51 883.56 3.0468 2.1140 2.3812 281.32 0.074819 12.019 0.037775
163.38 221.21 undefined 809.62 885.88 3.0516 20.000 0.050000 809.62 885.88 3.0516 2.1180 2.3849 281.72 0.074304 12.046 0.037932 20.000 0.050000 809.62 885.88 3.0516 2.1180 2.3849 281.72 0.074304 12.046 0.037932
164.38 221.81 undefined 811.74 888.21 3.0565 20.000 0.050000 811.74 888.21 3.0565 2.1221 2.3886 282.12 0.073794 12.072 0.038091 20.000 0.050000 811.74 888.21 3.0565 2.1221 2.3886 282.12 0.073794 12.072 0.038091
165.38 222.41 undefined 813.87 890.54 3.0613 20.000 0.050000 813.87 890.54 3.0613 2.1261 2.3922 282.51 0.073290 12.098 0.038249 20.000 0.050000 813.87 890.54 3.0613 2.1261 2.3922 282.51 0.073290 12.098 0.038249
166.38 223.01 undefined 815.99 892.88 3.0662 20.000 0.050000 815.99 892.88 3.0662 2.1302 2.3959 282.91 0.072790 12.125 0.038408 20.000 0.050000 815.99 892.88 3.0662 2.1302 2.3959 282.91 0.072790 12.125 0.038408
167.38 223.61 undefined 818.13 895.21 3.0710 20.000 0.050000 818.13 895.21 3.0710 2.1343 2.3996 283.31 0.072296 12.151 0.038567 20.000 0.050000 818.13 895.21 3.0710 2.1343 2.3996 283.31 0.072296 12.151 0.038567
168.38 224.22 undefined 820.26 897.56 3.0759 20.000 0.050000 820.26 897.56 3.0759 2.1383 2.4033 283.70 0.071806 12.177 0.038727 20.000 0.050000 820.26 897.56 3.0759 2.1383 2.4033 283.70 0.071806 12.177 0.038727
169.38 224.82 undefined 822.40 899.91 3.0807 20.000 0.050000 822.40 899.91 3.0807 2.1424 2.4070 284.10 0.071322 12.204 0.038886 20.000 0.050000 822.40 899.91 3.0807 2.1424 2.4070 284.10 0.071322 12.204 0.038886
170.38 225.42 undefined 824.55 902.26 3.0856 20.000 0.050000 824.55 902.26 3.0856 2.1464 2.4106 284.49 0.070842 12.230 0.039046 20.000 0.050000 824.55 902.26 3.0856 2.1464 2.4106 284.49 0.070842 12.230 0.039046
171.38 226.02 undefined 826.70 904.61 3.0904 20.000 0.050000 826.70 904.61 3.0904 2.1505 2.4143 284.89 0.070367 12.256 0.039207 20.000 0.050000 826.70 904.61 3.0904 2.1505 2.4143 284.89 0.070367 12.256 0.039207
172.38 226.62 undefined 828.85 906.97 3.0952 20.000 0.050000 828.85 906.97 3.0952 2.1545 2.4180 285.28 0.069897 12.283 0.039367 20.000 0.050000 828.85 906.97 3.0952 2.1545 2.4180 285.28 0.069897 12.283 0.039367
173.38 227.22 undefined 831.01 909.34 3.1001 20.000 0.050000 831.01 909.34 3.1001 2.1586 2.4217 285.67 0.069431 12.309 0.039528 20.000 0.050000 831.01 909.34 3.1001 2.1586 2.4217 285.67 0.069431 12.309 0.039528
174.38 227.82 undefined 833.17 911.70 3.1049 20.000 0.050000 833.17 911.70 3.1049 2.1626 2.4254 286.07 0.068970 12.335 0.039689 20.000 0.050000 833.17 911.70 3.1049 2.1626 2.4254 286.07 0.068970 12.335 0.039689
175.38 228.42 undefined 835.33 914.08 3.1097 20.000 0.050000 835.33 914.08 3.1097 2.1666 2.4291 286.46 0.068514 12.361 0.039851 20.000 0.050000 835.33 914.08 3.1097 2.1666 2.4291 286.46 0.068514 12.361 0.039851
176.38 229.02 undefined 837.50 916.45 3.1146 20.000 0.050000 837.50 916.45 3.1146 2.1707 2.4328 286.85 0.068062 12.387 0.040013 20.000 0.050000 837.50 916.45 3.1146 2.1707 2.4328 286.85 0.068062 12.387 0.040013
177.38 229.62 undefined 839.67 918.83 3.1194 20.000 0.050000 839.67 918.83 3.1194 2.1747 2.4365 287.24 0.067615 12.413 0.040175 20.000 0.050000 839.67 918.83 3.1194 2.1747 2.4365 287.24 0.067615 12.413 0.040175
178.38 230.22 undefined 841.85 921.21 3.1242 20.000 0.050000 841.85 921.21 3.1242 2.1787 2.4402 287.63 0.067172 12.440 0.040337 20.000 0.050000 841.85 921.21 3.1242 2.1787 2.4402 287.63 0.067172 12.440 0.040337
179.38 230.82 undefined 844.03 923.60 3.1290 20.000 0.050000 844.03 923.60 3.1290 2.1827 2.4438 288.02 0.066733 12.466 0.040500 20.000 0.050000 844.03 923.60 3.1290 2.1827 2.4438 288.02 0.066733 12.466 0.040500
180.38 231.42 undefined 846.21 925.99 3.1339 20.000 0.050000 846.21 925.99 3.1339 2.1868 2.4475 288.41 0.066298 12.492 0.040663 20.000 0.050000 846.21 925.99 3.1339 2.1868 2.4475 288.41 0.066298 12.492 0.040663
181.38 232.02 undefined 848.40 928.39 3.1387 20.000 0.050000 848.40 928.39 3.1387 2.1908 2.4512 288.80 0.065868 12.518 0.040826 20.000 0.050000 848.40 928.39 3.1387 2.1908 2.4512 288.80 0.065868 12.518 0.040826
182.38 232.62 undefined 850.60 930.79 3.1435 20.000 0.050000 850.60 930.79 3.1435 2.1948 2.4549 289.18 0.065442 12.544 0.040989 20.000 0.050000 850.60 930.79 3.1435 2.1948 2.4549 289.18 0.065442 12.544 0.040989
183.38 233.22 undefined 852.79 933.19 3.1483 20.000 0.050000 852.79 933.19 3.1483 2.1988 2.4586 289.57 0.065020 12.570 0.041153 20.000 0.050000 852.79 933.19 3.1483 2.1988 2.4586 289.57 0.065020 12.570 0.041153
184.38 233.82 undefined 854.99 935.60 3.1531 20.000 0.050000 854.99 935.60 3.1531 2.2028 2.4623 289.96 0.064602 12.596 0.041317 20.000 0.050000 854.99 935.60 3.1531 2.2028 2.4623 289.96 0.064602 12.596 0.041317
185.38 234.42 undefined 857.20 938.01 3.1580 20.000 0.050000 857.20 938.01 3.1580 2.2068 2.4660 290.34 0.064188 12.622 0.041482 20.000 0.050000 857.20 938.01 3.1580 2.2068 2.4660 290.34 0.064188 12.622 0.041482
186.38 235.02 undefined 859.41 940.43 3.1628 20.000 0.050000 859.41 940.43 3.1628 2.2108 2.4697 290.73 0.063778 12.648 0.041646 20.000 0.050000 859.41 940.43 3.1628 2.2108 2.4697 290.73 0.063778 12.648 0.041646
187.38 235.62 undefined 861.62 942.85 3.1676 20.000 0.050000 861.62 942.85 3.1676 2.2148 2.4734 291.11 0.063372 12.674 0.041811 20.000 0.050000 861.62 942.85 3.1676 2.2148 2.4734 291.11 0.063372 12.674 0.041811
188.38 236.21 undefined 863.84 945.27 3.1724 20.000 0.050000 863.84 945.27 3.1724 2.2188 2.4770 291.49 0.062969 12.700 0.041977 20.000 0.050000 863.84 945.27 3.1724 2.2188 2.4770 291.49 0.062969 12.700 0.041977
189.38 236.81 undefined 866.06 947.70 3.1772 20.000 0.050000 866.06 947.70 3.1772 2.2228 2.4807 291.88 0.062571 12.726 0.042142 20.000 0.050000 866.06 947.70 3.1772 2.2228 2.4807 291.88 0.062571 12.726 0.042142
190.38 237.41 undefined 868.28 950.13 3.1820 20.000 0.050000 868.28 950.13 3.1820 2.2268 2.4844 292.26 0.062176 12.751 0.042308 20.000 0.050000 868.28 950.13 3.1820 2.2268 2.4844 292.26 0.062176 12.751 0.042308
191.38 238.01 undefined 870.51 952.56 3.1868 20.000 0.050000 870.51 952.56 3.1868 2.2308 2.4881 292.64 0.061785 12.777 0.042474 20.000 0.050000 870.51 952.56 3.1868 2.2308 2.4881 292.64 0.061785 12.777 0.042474
192.38 238.61 undefined 872.74 955.00 3.1916 20.000 0.050000 872.74 955.00 3.1916 2.2347 2.4918 293.02 0.061398 12.803 0.042641 20.000 0.050000 872.74 955.00 3.1916 2.2347 2.4918 293.02 0.061398 12.803 0.042641
193.38 239.21 undefined 874.98 957.44 3.1964 20.000 0.050000 874.98 957.44 3.1964 2.2387 2.4955 293.40 0.061014 12.829 0.042807 20.000 0.050000 874.98 957.44 3.1964 2.2387 2.4955 293.40 0.061014 12.829 0.042807
194.38 239.80 undefined 877.22 959.89 3.2012 20.000 0.050000 877.22 959.89 3.2012 2.2427 2.4991 293.78 0.060633 12.855 0.042974 20.000 0.050000 877.22 959.89 3.2012 2.2427 2.4991 293.78 0.060633 12.855 0.042974
195.38 240.40 undefined 879.47 962.34 3.2060 20.000 0.050000 879.47 962.34 3.2060 2.2467 2.5028 294.16 0.060257 12.880 0.043142 20.000 0.050000 879.47 962.34 3.2060 2.2467 2.5028 294.16 0.060257 12.880 0.043142
196.38 241.00 undefined 881.71 964.80 3.2108 20.000 0.050000 881.71 964.80 3.2108 2.2506 2.5065 294.54 0.059883 12.906 0.043309 20.000 0.050000 881.71 964.80 3.2108 2.2506 2.5065 294.54 0.059883 12.906 0.043309
197.38 241.60 undefined 883.97 967.25 3.2156 20.000 0.050000 883.97 967.25 3.2156 2.2546 2.5102 294.92 0.059513 12.932 0.043477 20.000 0.050000 883.97 967.25 3.2156 2.2546 2.5102 294.92 0.059513 12.932 0.043477
198.38 242.19 undefined 886.22 969.72 3.2204 20.000 0.050000 886.22 969.72 3.2204 2.2585 2.5139 295.30 0.059147 12.957 0.043645 20.000 0.050000 886.22 969.72 3.2204 2.2585 2.5139 295.30 0.059147 12.957 0.043645
199.38 242.79 undefined 888.48 972.18 3.2252 20.000 0.050000 888.48 972.18 3.2252 2.2625 2.5175 295.68 0.058784 12.983 0.043814 20.000 0.050000 888.48 972.18 3.2252 2.2625 2.5175 295.68 0.058784 12.983 0.043814
200.38 243.39 undefined 890.75 974.65 3.2299 20.000 0.050000 890.75 974.65 3.2299 2.2664 2.5212 296.05 0.058424 13.009 0.043983 20.000 0.050000 890.75 974.65 3.2299 2.2664 2.5212 296.05 0.058424 13.009 0.043983
201.38 243.99 undefined 893.02 977.13 3.2347 20.000 0.050000 893.02 977.13 3.2347 2.2704 2.5249 296.43 0.058067 13.034 0.044152 20.000 0.050000 893.02 977.13 3.2347 2.2704 2.5249 296.43 0.058067 13.034 0.044152
202.38 244.58 undefined 895.29 979.61 3.2395 20.000 0.050000 895.29 979.61 3.2395 2.2743 2.5286 296.81 0.057714 13.060 0.044321 20.000 0.050000 895.29 979.61 3.2395 2.2743 2.5286 296.81 0.057714 13.060 0.044321
203.38 245.18 undefined 897.57 982.09 3.2443 20.000 0.050000 897.57 982.09 3.2443 2.2783 2.5322 297.18 0.057363 13.086 0.044491 20.000 0.050000 897.57 982.09 3.2443 2.2783 2.5322 297.18 0.057363 13.086 0.044491
204.38 245.78 undefined 899.85 984.57 3.2491 20.000 0.050000 899.85 984.57 3.2491 2.2822 2.5359 297.56 0.057016 13.111 0.044661 20.000 0.050000 899.85 984.57 3.2491 2.2822 2.5359 297.56 0.057016 13.111 0.044661
205.38 246.37 undefined 902.13 987.06 3.2539 20.000 0.050000 902.13 987.06 3.2539 2.2861 2.5396 297.93 0.056672 13.137 0.044831 20.000 0.050000 902.13 987.06 3.2539 2.2861 2.5396 297.93 0.056672 13.137 0.044831
206.38 246.97 undefined 904.42 989.56 3.2586 20.000 0.050000 904.42 989.56 3.2586 2.2901 2.5432 298.31 0.056331 13.162 0.045001 20.000 0.050000 904.42 989.56 3.2586 2.2901 2.5432 298.31 0.056331 13.162 0.045001
207.38 247.57 undefined 906.71 992.06 3.2634 20.000 0.050000 906.71 992.06 3.2634 2.2940 2.5469 298.68 0.055993 13.188 0.045172 20.000 0.050000 906.71 992.06 3.2634 2.2940 2.5469 298.68 0.055993 13.188 0.045172
208.38 248.16 undefined 909.01 994.56 3.2682 20.000 0.050000 909.01 994.56 3.2682 2.2979 2.5505 299.05 0.055658 13.213 0.045343 20.000 0.050000 909.01 994.56 3.2682 2.2979 2.5505 299.05 0.055658 13.213 0.045343
209.38 248.76 undefined 911.31 997.06 3.2730 20.000 0.050000 911.31 997.06 3.2730 2.3018 2.5542 299.42 0.055326 13.239 0.045515 20.000 0.050000 911.31 997.06 3.2730 2.3018 2.5542 299.42 0.055326 13.239 0.045515
210.38 249.36 undefined 913.61 999.57 3.2777 20.000 0.050000 913.61 999.57 3.2777 2.3057 2.5579 299.80 0.054997 13.264 0.045687 20.000 0.050000 913.61 999.57 3.2777 2.3057 2.5579 299.80 0.054997 13.264 0.045687
211.38 249.95 undefined 915.92 1002.1 3.2825 20.000 0.050000 915.92 1002.1 3.2825 2.3096 2.5615 300.17 0.054671 13.289 0.045859 20.000 0.050000 915.92 1002.1 3.2825 2.3096 2.5615 300.17 0.054671 13.289 0.045859
212.38 250.55 undefined 918.23 1004.6 3.2873 20.000 0.050000 918.23 1004.6 3.2873 2.3135 2.5652 300.54 0.054348 13.315 0.046031 20.000 0.050000 918.23 1004.6 3.2873 2.3135 2.5652 300.54 0.054348 13.315 0.046031
213.38 251.15 undefined 920.54 1007.1 3.2920 20.000 0.050000 920.54 1007.1 3.2920 2.3174 2.5688 300.91 0.054027 13.340 0.046203 20.000 0.050000 920.54 1007.1 3.2920 2.3174 2.5688 300.91 0.054027 13.340 0.046203
214.38 251.74 undefined 922.86 1009.6 3.2968 20.000 0.050000 922.86 1009.6 3.2968 2.3213 2.5725 301.28 0.053710 13.366 0.046376 20.000 0.050000 922.86 1009.6 3.2968 2.3213 2.5725 301.28 0.053710 13.366 0.046376
215.38 252.34 undefined 925.19 1012.2 3.3015 20.000 0.050000 925.19 1012.2 3.3015 2.3252 2.5761 301.65 0.053395 13.391 0.046549 20.000 0.050000 925.19 1012.2 3.3015 2.3252 2.5761 301.65 0.053395 13.391 0.046549
216.38 252.93 undefined 927.51 1014.7 3.3063 20.000 0.050000 927.51 1014.7 3.3063 2.3291 2.5798 302.01 0.053082 13.416 0.046723 20.000 0.050000 927.51 1014.7 3.3063 2.3291 2.5798 302.01 0.053082 13.416 0.046723
217.38 253.53 undefined 929.84 1017.2 3.3111 20.000 0.050000 929.84 1017.2 3.3111 2.3330 2.5834 302.38 0.052773 13.441 0.046897 20.000 0.050000 929.84 1017.2 3.3111 2.3330 2.5834 302.38 0.052773 13.441 0.046897
218.38 254.12 undefined 932.18 1019.8 3.3158 20.000 0.050000 932.18 1019.8 3.3158 2.3369 2.5870 302.75 0.052466 13.467 0.047071 20.000 0.050000 932.18 1019.8 3.3158 2.3369 2.5870 302.75 0.052466 13.467 0.047071
219.38 254.72 undefined 934.52 1022.3 3.3206 20.000 0.050000 934.52 1022.3 3.3206 2.3407 2.5907 303.12 0.052162 13.492 0.047245 20.000 0.050000 934.52 1022.3 3.3206 2.3407 2.5907 303.12 0.052162 13.492 0.047245
220.38 255.31 undefined 936.86 1024.9 3.3253 20.000 0.050000 936.86 1024.9 3.3253 2.3446 2.5943 303.48 0.051860 13.517 0.047420 20.000 0.050000 936.86 1024.9 3.3253 2.3446 2.5943 303.48 0.051860 13.517 0.047420
221.38 255.91 undefined 939.21 1027.4 3.3301 20.000 0.050000 939.21 1027.4 3.3301 2.3485 2.5979 303.85 0.051561 13.542 0.047595 20.000 0.050000 939.21 1027.4 3.3301 2.3485 2.5979 303.85 0.051561 13.542 0.047595
222.38 256.50 undefined 941.56 1030.0 3.3348 20.000 0.050000 941.56 1030.0 3.3348 2.3523 2.6016 304.22 0.051264 13.567 0.047770 20.000 0.050000 941.56 1030.0 3.3348 2.3523 2.6016 304.22 0.051264 13.567 0.047770
223.38 257.10 undefined 943.91 1032.5 3.3396 20.000 0.050000 943.91 1032.5 3.3396 2.3562 2.6052 304.58 0.050970 13.593 0.047945 20.000 0.050000 943.91 1032.5 3.3396 2.3562 2.6052 304.58 0.050970 13.593 0.047945
224.38 257.69 undefined 946.27 1035.1 3.3443 20.000 0.050000 946.27 1035.1 3.3443 2.3600 2.6088 304.95 0.050678 13.618 0.048121 20.000 0.050000 946.27 1035.1 3.3443 2.3600 2.6088 304.95 0.050678 13.618 0.048121
225.38 258.29 undefined 948.63 1037.7 3.3491 20.000 0.050000 948.63 1037.7 3.3491 2.3639 2.6125 305.31 0.050389 13.643 0.048297 20.000 0.050000 948.63 1037.7 3.3491 2.3639 2.6125 305.31 0.050389 13.643 0.048297
226.38 258.88 undefined 951.00 1040.2 3.3538 20.000 0.050000 951.00 1040.2 3.3538 2.3677 2.6161 305.67 0.050102 13.668 0.048474 20.000 0.050000 951.00 1040.2 3.3538 2.3677 2.6161 305.67 0.050102 13.668 0.048474
227.38 259.48 undefined 953.37 1042.8 3.3585 20.000 0.050000 953.37 1042.8 3.3585 2.3715 2.6197 306.04 0.049818 13.693 0.048650 20.000 0.050000 953.37 1042.8 3.3585 2.3715 2.6197 306.04 0.049818 13.693 0.048650
228.38 260.07 undefined 955.74 1045.4 3.3633 20.000 0.050000 955.74 1045.4 3.3633 2.3754 2.6233 306.40 0.049536 13.718 0.048827 20.000 0.050000 955.74 1045.4 3.3633 2.3754 2.6233 306.40 0.049536 13.718 0.048827
229.38 260.67 undefined 958.12 1048.0 3.3680 20.000 0.050000 958.12 1048.0 3.3680 2.3792 2.6269 306.76 0.049256 13.743 0.049004 20.000 0.050000 958.12 1048.0 3.3680 2.3792 2.6269 306.76 0.049256 13.743 0.049004
230.38 261.26 undefined 960.50 1050.6 3.3727 20.000 0.050000 960.50 1050.6 3.3727 2.3830 2.6305 307.12 0.048979 13.768 0.049182 20.000 0.050000 960.50 1050.6 3.3727 2.3830 2.6305 307.12 0.048979 13.768 0.049182
231.38 261.86 undefined 962.88 1053.2 3.3775 20.000 0.050000 962.88 1053.2 3.3775 2.3868 2.6341 307.49 0.048704 13.793 0.049360 20.000 0.050000 962.88 1053.2 3.3775 2.3868 2.6341 307.49 0.048704 13.793 0.049360
232.38 262.45 undefined 965.27 1055.8 3.3822 20.000 0.050000 965.27 1055.8 3.3822 2.3907 2.6377 307.85 0.048431 13.818 0.049538 20.000 0.050000 965.27 1055.8 3.3822 2.3907 2.6377 307.85 0.048431 13.818 0.049538
233.38 263.05 undefined 967.67 1058.3 3.3869 20.000 0.050000 967.67 1058.3 3.3869 2.3945 2.6413 308.21 0.048160 13.843 0.049716 20.000 0.050000 967.67 1058.3 3.3869 2.3945 2.6413 308.21 0.048160 13.843 0.049716
234.38 263.64 undefined 970.06 1060.9 3.3917 20.000 0.050000 970.06 1060.9 3.3917 2.3983 2.6449 308.57 0.047892 13.868 0.049895 20.000 0.050000 970.06 1060.9 3.3917 2.3983 2.6449 308.57 0.047892 13.868 0.049895
235.38 264.23 undefined 972.46 1063.6 3.3964 20.000 0.050000 972.46 1063.6 3.3964 2.4021 2.6485 308.93 0.047625 13.893 0.050074 20.000 0.050000 972.46 1063.6 3.3964 2.4021 2.6485 308.93 0.047625 13.893 0.050074
236.38 264.83 undefined 974.87 1066.2 3.4011 20.000 0.050000 974.87 1066.2 3.4011 2.4059 2.6521 309.29 0.047361 13.917 0.050253 20.000 0.050000 974.87 1066.2 3.4011 2.4059 2.6521 309.29 0.047361 13.917 0.050253
237.38 265.42 undefined 977.27 1068.8 3.4058 20.000 0.050000 977.27 1068.8 3.4058 2.4097 2.6557 309.64 0.047099 13.942 0.050433 20.000 0.050000 977.27 1068.8 3.4058 2.4097 2.6557 309.64 0.047099 13.942 0.050433
238.38 266.02 undefined 979.69 1071.4 3.4105 20.000 0.050000 979.69 1071.4 3.4105 2.4135 2.6593 310.00 0.046839 13.967 0.050613 20.000 0.050000 979.69 1071.4 3.4105 2.4135 2.6593 310.00 0.046839 13.967 0.050613
239.38 266.61 undefined 982.10 1074.0 3.4153 20.000 0.050000 982.10 1074.0 3.4153 2.4172 2.6629 310.36 0.046581 13.992 0.050793 20.000 0.050000 982.10 1074.0 3.4153 2.4172 2.6629 310.36 0.046581 13.992 0.050793
240.38 267.20 undefined 984.52 1076.6 3.4200 20.000 0.050000 984.52 1076.6 3.4200 2.4210 2.6664 310.72 0.046326 14.017 0.050973 20.000 0.050000 984.52 1076.6 3.4200 2.4210 2.6664 310.72 0.046326 14.017 0.050973
241.38 267.80 undefined 986.94 1079.3 3.4247 20.000 0.050000 986.94 1079.3 3.4247 2.4248 2.6700 311.07 0.046072 14.041 0.051154 20.000 0.050000 986.94 1079.3 3.4247 2.4248 2.6700 311.07 0.046072 14.041 0.051154
242.38 268.39 undefined 989.37 1081.9 3.4294 20.000 0.050000 989.37 1081.9 3.4294 2.4286 2.6736 311.43 0.045820 14.066 0.051335 20.000 0.050000 989.37 1081.9 3.4294 2.4286 2.6736 311.43 0.045820 14.066 0.051335
243.38 268.99 undefined 991.80 1084.5 3.4341 20.000 0.050000 991.80 1084.5 3.4341 2.4323 2.6772 311.79 0.045571 14.091 0.051516 20.000 0.050000 991.80 1084.5 3.4341 2.4323 2.6772 311.79 0.045571 14.091 0.051516
244.38 269.58 undefined 994.23 1087.2 3.4388 20.000 0.050000 994.23 1087.2 3.4388 2.4361 2.6807 312.14 0.045323 14.116 0.051698 20.000 0.050000 994.23 1087.2 3.4388 2.4361 2.6807 312.14 0.045323 14.116 0.051698
245.38 270.17 undefined 996.67 1089.8 3.4435 20.000 0.050000 996.67 1089.8 3.4435 2.4398 2.6843 312.50 0.045077 14.140 0.051880 20.000 0.050000 996.67 1089.8 3.4435 2.4398 2.6843 312.50 0.045077 14.140 0.051880
246.38 270.77 undefined 999.11 1092.5 3.4482 20.000 0.050000 999.11 1092.5 3.4482 2.4436 2.6878 312.85 0.044833 14.165 0.052062 20.000 0.050000 999.11 1092.5 3.4482 2.4436 2.6878 312.85 0.044833 14.165 0.052062
247.38 271.36 undefined 1001.6 1095.1 3.4529 20.000 0.050000 1001.6 1095.1 3.4529 2.4473 2.6914 313.21 0.044591 14.190 0.052245 20.000 0.050000 1001.6 1095.1 3.4529 2.4473 2.6914 313.21 0.044591 14.190 0.052245
248.38 271.95 undefined 1004.0 1097.8 3.4576 20.000 0.050000 1004.0 1097.8 3.4576 2.4511 2.6950 313.56 0.044351 14.214 0.052427 20.000 0.050000 1004.0 1097.8 3.4576 2.4511 2.6950 313.56 0.044351 14.214 0.052427
249.38 272.54 undefined 1006.5 1100.4 3.4623 20.000 0.050000 1006.5 1100.4 3.4623 2.4548 2.6985 313.91 0.044113 14.239 0.052610 20.000 0.050000 1006.5 1100.4 3.4623 2.4548 2.6985 313.91 0.044113 14.239 0.052610
250.38 273.14 undefined 1008.9 1103.1 3.4670 20.000 0.050000 1008.9 1103.1 3.4670 2.4585 2.7020 314.26 0.043877 14.263 0.052794 20.000 0.050000 1008.9 1103.1 3.4670 2.4585 2.7020 314.26 0.043877 14.263 0.052794
251.38 273.73 undefined 1011.4 1105.7 3.4717 20.000 0.050000 1011.4 1105.7 3.4717 2.4623 2.7056 314.62 0.043642 14.288 0.052977 20.000 0.050000 1011.4 1105.7 3.4717 2.4623 2.7056 314.62 0.043642 14.288 0.052977
252.38 274.32 undefined 1013.8 1108.4 3.4764 20.000 0.050000 1013.8 1108.4 3.4764 2.4660 2.7091 314.97 0.043410 14.312 0.053161 20.000 0.050000 1013.8 1108.4 3.4764 2.4660 2.7091 314.97 0.043410 14.312 0.053161
253.38 274.92 undefined 1016.3 1111.1 3.4811 20.000 0.050000 1016.3 1111.1 3.4811 2.4697 2.7127 315.32 0.043179 14.337 0.053345 20.000 0.050000 1016.3 1111.1 3.4811 2.4697 2.7127 315.32 0.043179 14.337 0.053345
254.38 275.51 undefined 1018.8 1113.8 3.4858 20.000 0.050000 1018.8 1113.8 3.4858 2.4734 2.7162 315.67 0.042949 14.361 0.053530 20.000 0.050000 1018.8 1113.8 3.4858 2.4734 2.7162 315.67 0.042949 14.361 0.053530
255.38 276.10 undefined 1021.3 1116.4 3.4905 20.000 0.050000 1021.3 1116.4 3.4905 2.4771 2.7197 316.02 0.042722 14.386 0.053715 20.000 0.050000 1021.3 1116.4 3.4905 2.4771 2.7197 316.02 0.042722 14.386 0.053715
256.38 276.70 undefined 1023.7 1119.1 3.4952 20.000 0.050000 1023.7 1119.1 3.4952 2.4808 2.7232 316.37 0.042496 14.410 0.053900 20.000 0.050000 1023.7 1119.1 3.4952 2.4808 2.7232 316.37 0.042496 14.410 0.053900
257.38 277.29 undefined 1026.2 1121.8 3.4999 20.000 0.050000 1026.2 1121.8 3.4999 2.4845 2.7268 316.72 0.042272 14.435 0.054085 20.000 0.050000 1026.2 1121.8 3.4999 2.4845 2.7268 316.72 0.042272 14.435 0.054085
258.38 277.88 undefined 1028.7 1124.5 3.5045 20.000 0.050000 1028.7 1124.5 3.5045 2.4882 2.7303 317.07 0.042050 14.459 0.054271 20.000 0.050000 1028.7 1124.5 3.5045 2.4882 2.7303 317.07 0.042050 14.459 0.054271
259.38 278.47 undefined 1031.2 1127.2 3.5092 20.000 0.050000 1031.2 1127.2 3.5092 2.4919 2.7338 317.42 0.041830 14.483 0.054457 20.000 0.050000 1031.2 1127.2 3.5092 2.4919 2.7338 317.42 0.041830 14.483 0.054457
260.38 279.07 undefined 1033.7 1129.9 3.5139 20.000 0.050000 1033.7 1129.9 3.5139 2.4956 2.7373 317.77 0.041611 14.508 0.054643 20.000 0.050000 1033.7 1129.9 3.5139 2.4956 2.7373 317.77 0.041611 14.508 0.054643
261.38 279.66 undefined 1036.2 1132.6 3.5186 20.000 0.050000 1036.2 1132.6 3.5186 2.4993 2.7408 318.12 0.041393 14.532 0.054829 20.000 0.050000 1036.2 1132.6 3.5186 2.4993 2.7408 318.12 0.041393 14.532 0.054829
262.38 280.25 undefined 1038.7 1135.3 3.5232 20.000 0.050000 1038.7 1135.3 3.5232 2.5030 2.7443 318.47 0.041178 14.556 0.055016 20.000 0.050000 1038.7 1135.3 3.5232 2.5030 2.7443 318.47 0.041178 14.556 0.055016
263.38 280.84 undefined 1041.2 1138.0 3.5279 20.000 0.050000 1041.2 1138.0 3.5279 2.5066 2.7478 318.81 0.040964 14.580 0.055203 20.000 0.050000 1041.2 1138.0 3.5279 2.5066 2.7478 318.81 0.040964 14.580 0.055203
264.38 281.43 undefined 1043.7 1140.7 3.5326 20.000 0.050000 1043.7 1140.7 3.5326 2.5103 2.7513 319.16 0.040751 14.605 0.055391 20.000 0.050000 1043.7 1140.7 3.5326 2.5103 2.7513 319.16 0.040751 14.605 0.055391
265.38 282.03 undefined 1046.2 1143.4 3.5373 20.000 0.050000 1046.2 1143.4 3.5373 2.5140 2.7548 319.51 0.040540 14.629 0.055578 20.000 0.050000 1046.2 1143.4 3.5373 2.5140 2.7548 319.51 0.040540 14.629 0.055578
266.38 282.62 undefined 1048.7 1146.2 3.5419 20.000 0.050000 1048.7 1146.2 3.5419 2.5176 2.7583 319.85 0.040331 14.653 0.055766 20.000 0.050000 1048.7 1146.2 3.5419 2.5176 2.7583 319.85 0.040331 14.653 0.055766
267.38 283.21 undefined 1051.2 1148.9 3.5466 20.000 0.050000 1051.2 1148.9 3.5466 2.5213 2.7618 320.20 0.040123 14.677 0.055955 20.000 0.050000 1051.2 1148.9 3.5466 2.5213 2.7618 320.20 0.040123 14.677 0.055955
268.38 283.80 undefined 1053.8 1151.6 3.5513 20.000 0.050000 1053.8 1151.6 3.5513 2.5249 2.7653 320.54 0.039917 14.702 0.056143 20.000 0.050000 1053.8 1151.6 3.5513 2.5249 2.7653 320.54 0.039917 14.702 0.056143
269.38 284.39 undefined 1056.3 1154.3 3.5559 20.000 0.050000 1056.3 1154.3 3.5559 2.5285 2.7687 320.89 0.039712 14.726 0.056332 20.000 0.050000 1056.3 1154.3 3.5559 2.5285 2.7687 320.89 0.039712 14.726 0.056332
270.38 284.99 undefined 1058.8 1157.1 3.5606 20.000 0.050000 1058.8 1157.1 3.5606 2.5322 2.7722 321.23 0.039509 14.750 0.056521 20.000 0.050000 1058.8 1157.1 3.5606 2.5322 2.7722 321.23 0.039509 14.750 0.056521
271.38 285.58 undefined 1061.4 1159.8 3.5652 20.000 0.050000 1061.4 1159.8 3.5652 2.5358 2.7757 321.58 0.039307 14.774 0.056710 20.000 0.050000 1061.4 1159.8 3.5652 2.5358 2.7757 321.58 0.039307 14.774 0.056710
272.38 286.17 undefined 1063.9 1162.6 3.5699 20.000 0.050000 1063.9 1162.6 3.5699 2.5394 2.7792 321.92 0.039107 14.798 0.056900 20.000 0.050000 1063.9 1162.6 3.5699 2.5394 2.7792 321.92 0.039107 14.798 0.056900
273.38 286.76 undefined 1066.4 1165.3 3.5745 20.000 0.050000 1066.4 1165.3 3.5745 2.5431 2.7826 322.26 0.038908 14.822 0.057090 20.000 0.050000 1066.4 1165.3 3.5745 2.5431 2.7826 322.26 0.038908 14.822 0.057090
274.38 287.35 undefined 1069.0 1168.0 3.5792 20.000 0.050000 1069.0 1168.0 3.5792 2.5467 2.7861 322.61 0.038711 14.846 0.057280 20.000 0.050000 1069.0 1168.0 3.5792 2.5467 2.7861 322.61 0.038711 14.846 0.057280
275.38 287.94 undefined 1071.5 1170.8 3.5838 20.000 0.050000 1071.5 1170.8 3.5838 2.5503 2.7895 322.95 0.038515 14.870 0.057470 20.000 0.050000 1071.5 1170.8 3.5838 2.5503 2.7895 322.95 0.038515 14.870 0.057470
276.38 288.54 undefined 1074.1 1173.6 3.5885 20.000 0.050000 1074.1 1173.6 3.5885 2.5539 2.7930 323.29 0.038320 14.894 0.057661 20.000 0.050000 1074.1 1173.6 3.5885 2.5539 2.7930 323.29 0.038320 14.894 0.057661
277.38 289.13 undefined 1076.6 1176.3 3.5931 20.000 0.050000 1076.6 1176.3 3.5931 2.5575 2.7964 323.63 0.038127 14.918 0.057852 20.000 0.050000 1076.6 1176.3 3.5931 2.5575 2.7964 323.63 0.038127 14.918 0.057852
278.38 289.72 undefined 1079.2 1179.1 3.5978 20.000 0.050000 1079.2 1179.1 3.5978 2.5611 2.7999 323.98 0.037935 14.942 0.058043 20.000 0.050000 1079.2 1179.1 3.5978 2.5611 2.7999 323.98 0.037935 14.942 0.058043
279.38 290.31 undefined 1081.8 1181.8 3.6024 20.000 0.050000 1081.8 1181.8 3.6024 2.5647 2.8033 324.32 0.037744 14.966 0.058234 20.000 0.050000 1081.8 1181.8 3.6024 2.5647 2.8033 324.32 0.037744 14.966 0.058234
280.38 290.90 undefined 1084.3 1184.6 3.6071 20.000 0.050000 1084.3 1184.6 3.6071 2.5683 2.8067 324.66 0.037555 14.990 0.058426 20.000 0.050000 1084.3 1184.6 3.6071 2.5683 2.8067 324.66 0.037555 14.990 0.058426
281.38 291.49 undefined 1086.9 1187.4 3.6117 20.000 0.050000 1086.9 1187.4 3.6117 2.5719 2.8102 325.00 0.037368 15.014 0.058617 20.000 0.050000 1086.9 1187.4 3.6117 2.5719 2.8102 325.00 0.037368 15.014 0.058617
282.38 292.08 undefined 1089.5 1190.2 3.6163 20.000 0.050000 1089.5 1190.2 3.6163 2.5754 2.8136 325.34 0.037181 15.038 0.058809 20.000 0.050000 1089.5 1190.2 3.6163 2.5754 2.8136 325.34 0.037181 15.038 0.058809
283.38 292.68 undefined 1092.1 1192.9 3.6210 20.000 0.050000 1092.1 1192.9 3.6210 2.5790 2.8170 325.68 0.036996 15.061 0.059002 20.000 0.050000 1092.1 1192.9 3.6210 2.5790 2.8170 325.68 0.036996 15.061 0.059002
284.38 293.27 undefined 1094.6 1195.7 3.6256 20.000 0.050000 1094.6 1195.7 3.6256 2.5826 2.8205 326.02 0.036812 15.085 0.059195 20.000 0.050000 1094.6 1195.7 3.6256 2.5826 2.8205 326.02 0.036812 15.085 0.059195
285.38 293.86 undefined 1097.2 1198.5 3.6302 20.000 0.050000 1097.2 1198.5 3.6302 2.5862 2.8239 326.35 0.036630 15.109 0.059389 20.000 0.050000 1097.2 1198.5 3.6302 2.5862 2.8239 326.35 0.036630 15.109 0.059389
286.38 294.45 undefined 1099.8 1201.3 3.6349 20.000 0.050000 1099.8 1201.3 3.6349 2.5897 2.8273 326.69 0.036448 15.133 0.059583 20.000 0.050000 1099.8 1201.3 3.6349 2.5897 2.8273 326.69 0.036448 15.133 0.059583
287.38 295.04 undefined 1102.4 1204.1 3.6395 20.000 0.050000 1102.4 1204.1 3.6395 2.5933 2.8307 327.03 0.036268 15.157 0.059778 20.000 0.050000 1102.4 1204.1 3.6395 2.5933 2.8307 327.03 0.036268 15.157 0.059778
288.38 295.63 undefined 1105.0 1206.9 3.6441 20.000 0.050000 1105.0 1206.9 3.6441 2.5968 2.8341 327.37 0.036090 15.180 0.059972 20.000 0.050000 1105.0 1206.9 3.6441 2.5968 2.8341 327.37 0.036090 15.180 0.059972
289.38 296.22 undefined 1107.6 1209.7 3.6488 20.000 0.050000 1107.6 1209.7 3.6488 2.6004 2.8375 327.71 0.035912 15.204 0.060167 20.000 0.050000 1107.6 1209.7 3.6488 2.6004 2.8375 327.71 0.035912 15.204 0.060167
290.38 296.81 undefined 1110.2 1212.5 3.6534 20.000 0.050000 1110.2 1212.5 3.6534 2.6039 2.8409 328.04 0.035736 15.228 0.060363 20.000 0.050000 1110.2 1212.5 3.6534 2.6039 2.8409 328.04 0.035736 15.228 0.060363
291.38 297.40 undefined 1112.8 1215.3 3.6580 20.000 0.050000 1112.8 1215.3 3.6580 2.6074 2.8443 328.38 0.035561 15.251 0.060558 20.000 0.050000 1112.8 1215.3 3.6580 2.6074 2.8443 328.38 0.035561 15.251 0.060558
292.38 297.99 undefined 1115.4 1218.1 3.6626 20.000 0.050000 1115.4 1218.1 3.6626 2.6110 2.8477 328.71 0.035387 15.275 0.060754 20.000 0.050000 1115.4 1218.1 3.6626 2.6110 2.8477 328.71 0.035387 15.275 0.060754
293.38 298.58 undefined 1118.0 1221.0 3.6672 20.000 0.050000 1118.0 1221.0 3.6672 2.6145 2.8511 329.05 0.035214 15.299 0.060950 20.000 0.050000 1118.0 1221.0 3.6672 2.6145 2.8511 329.05 0.035214 15.299 0.060950
294.38 299.18 undefined 1120.6 1223.8 3.6718 20.000 0.050000 1120.6 1223.8 3.6718 2.6180 2.8544 329.39 0.035043 15.322 0.061147 20.000 0.050000 1120.6 1223.8 3.6718 2.6180 2.8544 329.39 0.035043 15.322 0.061147
295.38 299.77 undefined 1123.3 1226.6 3.6765 20.000 0.050000 1123.3 1226.6 3.6765 2.6215 2.8578 329.72 0.034872 15.346 0.061343 20.000 0.050000 1123.3 1226.6 3.6765 2.6215 2.8578 329.72 0.034872 15.346 0.061343
296.38 300.36 undefined 1125.9 1229.4 3.6811 20.000 0.050000 1125.9 1229.4 3.6811 2.6250 2.8612 330.06 0.034703 15.369 0.061540 20.000 0.050000 1125.9 1229.4 3.6811 2.6250 2.8612 330.06 0.034703 15.369 0.061540
297.38 300.95 undefined 1128.5 1232.3 3.6857 20.000 0.050000 1128.5 1232.3 3.6857 2.6285 2.8646 330.39 0.034535 15.393 0.061738 20.000 0.050000 1128.5 1232.3 3.6857 2.6285 2.8646 330.39 0.034535 15.393 0.061738
298.38 301.54 undefined 1131.1 1235.1 3.6903 20.000 0.050000 1131.1 1235.1 3.6903 2.6320 2.8679 330.72 0.034368 15.416 0.061935 20.000 0.050000 1131.1 1235.1 3.6903 2.6320 2.8679 330.72 0.034368 15.416 0.061935
299.38 302.13 undefined 1133.8 1237.9 3.6949 20.000 0.050000 1133.8 1237.9 3.6949 2.6355 2.8713 331.06 0.034203 15.440 0.062133 20.000 0.050000 1133.8 1237.9 3.6949 2.6355 2.8713 331.06 0.034203 15.440 0.062133
300.38 302.72 undefined 1136.4 1240.8 3.6995 20.000 0.050000 1136.4 1240.8 3.6995 2.6390 2.8746 331.39 0.034038 15.463 0.062331 20.000 0.050000 1136.4 1240.8 3.6995 2.6390 2.8746 331.39 0.034038 15.463 0.062331