Temperature (C) Pressure (psia) Quality (l+v) Internal Energy (l+v, kJ/kg) Enthalpy (l+v, kJ/kg) Entropy (l+v, J/g*K) Density (l, kg/m3) Volume (l, m3/kg) Internal Energy (l, kJ/kg) Enthalpy (l, kJ/kg) Entropy (l, J/g*K) Cv (l, J/g*K) Cp (l, J/g*K) Sound Spd. (l, m/s) Joule-Thomson (l, F/psia) Viscosity (l, uPa*s) Therm. Cond. (l, W/m*K) Density (v, kg/m3) Volume (v, m3/kg) Internal Energy (v, kJ/kg) Enthalpy (v, kJ/kg) Entropy (v, J/g*K) Cv (v, J/g*K) Cp (v, J/g*K) Sound Spd. (v, m/s) Joule-Thomson (v, F/psia) Viscosity (v, uPa*s) Therm. Cond. (v, W/m*K)
-187.62 2.4953e-08 3.6251e-11 -196.64 -196.64 -1.3959 733.13 0.0013640 -196.64 -196.64 -1.3959 1.3553 1.9158 2136.4 -0.0077592 10960. 0.20792 1.0669e-08 9.3732e+07 350.13 366.26 5.1858 0.69067 0.87923 143.28 6.1051 2.3259 0.0017061
-186.62 3.7339e-08 5.3588e-11 -194.73 -194.73 -1.3736 732.08 0.0013660 -194.73 -194.73 -1.3736 1.3539 1.9166 2129.6 -0.0077546 10073. 0.20765 1.5780e-08 6.3371e+07 350.82 367.14 5.1200 0.69462 0.88317 144.03 5.9178 2.3534 0.0017533
-185.62 5.5322e-08 7.8443e-11 -192.81 -192.81 -1.3516 731.04 0.0013679 -192.81 -192.81 -1.3516 1.3525 1.9174 2122.9 -0.0077498 9276.1 0.20737 2.3112e-08 4.3267e+07 351.52 368.02 5.0561 0.69857 0.88713 144.77 5.7383 2.3808 0.0018007
-184.62 8.1182e-08 1.1375e-10 -190.89 -190.89 -1.3298 730.00 0.0013699 -190.89 -190.89 -1.3298 1.3513 1.9182 2116.1 -0.0077448 8557.8 0.20708 3.3533e-08 2.9821e+07 352.22 368.91 4.9939 0.70253 0.89108 145.51 5.5662 2.4083 0.0018485
-183.62 1.1803e-07 1.6344e-10 -188.97 -188.97 -1.3083 728.96 0.0013718 -188.97 -188.97 -1.3083 1.3501 1.9191 2109.3 -0.0077395 7909.8 0.20678 4.8211e-08 2.0742e+07 352.92 369.81 4.9333 0.70648 0.89504 146.24 5.4011 2.4357 0.0018965
-182.62 1.7009e-07 2.3278e-10 -187.05 -187.05 -1.2869 727.92 0.0013738 -187.05 -187.05 -1.2869 1.3490 1.9201 2102.5 -0.0077340 7324.3 0.20647 6.8704e-08 1.4555e+07 353.63 370.70 4.8744 0.71043 0.89899 146.97 5.2426 2.4632 0.0019448
-181.62 2.4299e-07 3.2872e-10 -185.13 -185.13 -1.2658 726.88 0.0013757 -185.13 -185.13 -1.2658 1.3480 1.9210 2095.7 -0.0077283 6794.5 0.20616 9.7079e-08 1.0301e+07 354.35 371.60 4.8170 0.71438 0.90294 147.69 5.0904 2.4906 0.0019934
-180.62 3.4425e-07 4.6041e-10 -183.21 -183.21 -1.2450 725.85 0.0013777 -183.21 -183.21 -1.2450 1.3470 1.9220 2088.9 -0.0077225 6314.4 0.20584 1.3605e-07 7.3504e+06 355.06 372.51 4.7612 0.71833 0.90688 148.41 4.9442 2.5181 0.0020423
-179.62 4.8378e-07 6.3975e-10 -181.29 -181.29 -1.2243 724.81 0.0013797 -181.29 -181.29 -1.2243 1.3461 1.9231 2082.0 -0.0077164 5878.8 0.20551 1.8915e-07 5.2868e+06 355.78 373.42 4.7068 0.72227 0.91082 149.13 4.8038 2.5456 0.0020915
-178.62 6.7459e-07 8.8212e-10 -179.37 -179.37 -1.2038 723.78 0.0013816 -179.37 -179.37 -1.2038 1.3453 1.9241 2075.2 -0.0077102 5482.9 0.20517 2.6096e-07 3.8320e+06 356.51 374.33 4.6538 0.72620 0.91475 149.84 4.6688 2.5731 0.0021410
-177.62 9.3358e-07 1.2073e-09 -177.44 -177.44 -1.1836 722.75 0.0013836 -177.44 -177.44 -1.1836 1.3445 1.9252 2068.4 -0.0077039 5122.6 0.20483 3.5737e-07 2.7982e+06 357.23 375.25 4.6022 0.73012 0.91867 150.54 4.5390 2.6005 0.0021907
-176.62 1.2826e-06 1.6405e-09 -175.52 -175.52 -1.1635 721.72 0.0013856 -175.52 -175.52 -1.1635 1.3437 1.9263 2061.5 -0.0076973 4794.1 0.20447 4.8588e-07 2.0581e+06 357.97 376.17 4.5519 0.73403 0.92258 151.25 4.4142 2.6280 0.0022408
-175.62 1.7496e-06 2.2136e-09 -173.59 -173.59 -1.1437 720.69 0.0013876 -173.59 -173.59 -1.1437 1.3430 1.9274 2054.7 -0.0076907 4494.3 0.20411 6.5601e-07 1.5244e+06 358.70 377.09 4.5029 0.73792 0.92648 151.95 4.2941 2.6555 0.0022912
-174.62 2.3705e-06 2.9669e-09 -171.66 -171.66 -1.1240 719.66 0.0013895 -171.66 -171.66 -1.1240 1.3423 1.9286 2047.9 -0.0076838 4220.2 0.20375 8.7976e-07 1.1367e+06 359.44 378.02 4.4551 0.74181 0.93036 152.64 4.1784 2.6830 0.0023418
-173.62 3.1903e-06 3.9505e-09 -169.73 -169.73 -1.1045 718.64 0.0013915 -169.73 -169.73 -1.1045 1.3417 1.9298 2041.0 -0.0076769 3969.3 0.20338 1.1721e-06 8.5314e+05 360.19 378.95 4.4085 0.74568 0.93423 153.33 4.0671 2.7105 0.0023928
-172.62 4.2661e-06 5.2271e-09 -167.80 -167.80 -1.0852 717.61 0.0013935 -167.80 -167.80 -1.0852 1.3411 1.9310 2034.2 -0.0076698 3739.3 0.20300 1.5518e-06 6.4441e+05 360.93 379.89 4.3631 0.74953 0.93809 154.02 3.9599 2.7379 0.0024440
-171.62 5.6692e-06 6.8738e-09 -165.87 -165.87 -1.0661 716.58 0.0013955 -165.87 -165.87 -1.0661 1.3405 1.9322 2027.3 -0.0076625 3528.0 0.20261 2.0419e-06 4.8974e+05 361.69 380.83 4.3188 0.75337 0.94193 154.71 3.8566 2.7654 0.0024955
-170.62 7.4884e-06 8.9856e-09 -163.94 -163.94 -1.0472 715.56 0.0013975 -163.94 -163.94 -1.0472 1.3400 1.9334 2020.5 -0.0076552 3333.8 0.20222 2.6708e-06 3.7442e+05 362.44 381.77 4.2755 0.75720 0.94575 155.39 3.7570 2.7929 0.0025473
-169.62 9.8334e-06 1.1679e-08 -162.00 -162.00 -1.0284 714.54 0.0013995 -162.00 -162.00 -1.0284 1.3395 1.9347 2013.6 -0.0076477 3154.9 0.20182 3.4733e-06 2.8791e+05 363.20 382.72 4.2334 0.76100 0.94956 156.07 3.6609 2.8204 0.0025994
-168.62 1.2839e-05 1.5094e-08 -160.07 -160.07 -1.0098 713.52 0.0014015 -160.07 -160.07 -1.0098 1.3390 1.9359 2006.8 -0.0076401 2989.9 0.20141 4.4917e-06 2.2263e+05 363.96 383.67 4.1922 0.76479 0.95335 156.74 3.5683 2.8479 0.0026518
-167.62 1.6672e-05 1.9402e-08 -158.13 -158.13 -0.99134 712.49 0.0014035 -158.13 -158.13 -0.99134 1.3386 1.9372 2000.0 -0.0076323 2837.5 0.20100 5.7771e-06 1.7310e+05 364.73 384.63 4.1521 0.76856 0.95712 157.41 3.4790 2.8754 0.0027045
-166.62 2.1533e-05 2.4808e-08 -156.19 -156.19 -0.97306 711.47 0.0014055 -156.19 -156.19 -0.97306 1.3382 1.9385 1993.1 -0.0076245 2696.5 0.20058 7.3914e-06 1.3529e+05 365.50 385.59 4.1129 0.77232 0.96087 158.08 3.3927 2.9029 0.0027575
-165.62 2.7666e-05 3.1559e-08 -154.25 -154.25 -0.95494 710.45 0.0014075 -154.25 -154.25 -0.95494 1.3378 1.9398 1986.3 -0.0076165 2566.0 0.20016 9.4084e-06 1.0629e+05 366.27 386.55 4.0746 0.77605 0.96460 158.75 3.3095 2.9304 0.0028108
-164.62 3.5367e-05 3.9948e-08 -152.31 -152.31 -0.93698 709.44 0.0014096 -152.31 -152.31 -0.93698 1.3375 1.9411 1979.4 -0.0076084 2444.9 0.19973 1.1916e-05 83918. 367.05 387.52 4.0372 0.77976 0.96832 159.41 3.2291 2.9579 0.0028643
-163.62 4.4989e-05 5.0322e-08 -150.37 -150.37 -0.91917 708.42 0.0014116 -150.37 -150.37 -0.91917 1.3371 1.9424 1972.6 -0.0076002 2332.3 0.19930 1.5020e-05 66577. 367.83 388.49 4.0008 0.78346 0.97201 160.07 3.1514 2.9854 0.0029182
-162.62 5.6956e-05 6.3094e-08 -148.43 -148.43 -0.90151 707.40 0.0014136 -148.43 -148.43 -0.90151 1.3368 1.9437 1965.8 -0.0075919 2227.7 0.19886 1.8844e-05 53068. 368.62 389.46 3.9651 0.78713 0.97569 160.72 3.0764 3.0129 0.0029723
-161.62 7.1773e-05 7.8746e-08 -146.48 -146.48 -0.88400 706.38 0.0014157 -146.48 -146.48 -0.88400 1.3365 1.9451 1959.0 -0.0075834 2130.2 0.19841 2.3533e-05 42494. 369.41 390.44 3.9304 0.79079 0.97935 161.38 3.0038 3.0404 0.0030268
-160.62 9.0036e-05 9.7846e-08 -144.54 -144.54 -0.86663 705.37 0.0014177 -144.54 -144.54 -0.86663 1.3363 1.9465 1952.1 -0.0075748 2039.2 0.19796 2.9258e-05 34178. 370.20 391.42 3.8964 0.79443 0.98298 162.03 2.9337 3.0679 0.0030815
-159.62 0.00011245 1.2106e-07 -142.59 -142.59 -0.84940 704.35 0.0014197 -142.59 -142.59 -0.84940 1.3360 1.9478 1945.3 -0.0075661 1954.2 0.19751 3.6221e-05 27609. 371.00 392.40 3.8632 0.79805 0.98660 162.68 2.8658 3.0955 0.0031365
-158.62 0.00013985 1.4914e-07 -140.64 -140.64 -0.83231 703.34 0.0014218 -140.64 -140.64 -0.83231 1.3358 1.9492 1938.5 -0.0075573 1874.8 0.19705 4.4652e-05 22395. 371.80 393.39 3.8307 0.80164 0.99020 163.32 2.8002 3.1230 0.0031918
-157.62 0.00017320 1.8300e-07 -138.69 -138.69 -0.81536 702.32 0.0014238 -138.69 -138.69 -0.81536 1.3356 1.9506 1931.7 -0.0075484 1800.3 0.19658 5.4822e-05 18241. 372.60 394.38 3.7990 0.80522 0.99378 163.96 2.7367 3.1505 0.0032474
-156.62 0.00021364 2.2365e-07 -136.74 -136.74 -0.79854 701.31 0.0014259 -136.74 -136.74 -0.79854 1.3354 1.9520 1924.9 -0.0075393 1730.5 0.19611 6.7040e-05 14916. 373.41 395.38 3.7680 0.80878 0.99734 164.60 2.6752 3.1780 0.0033033
-155.62 0.00026248 2.7227e-07 -134.79 -134.79 -0.78185 700.30 0.0014280 -134.79 -134.79 -0.78185 1.3352 1.9534 1918.1 -0.0075302 1664.9 0.19564 8.1666e-05 12245. 374.22 396.38 3.7377 0.81232 1.0009 165.24 2.6157 3.2055 0.0033595
-154.62 0.00032125 3.3022e-07 -132.83 -132.83 -0.76530 699.29 0.0014300 -132.83 -132.83 -0.76530 1.3350 1.9548 1911.3 -0.0075209 1603.3 0.19516 9.9109e-05 10090. 375.03 397.38 3.7081 0.81585 1.0044 165.87 2.5580 3.2330 0.0034160
-153.62 0.00039171 3.9904e-07 -130.88 -130.88 -0.74887 698.27 0.0014321 -130.88 -130.88 -0.74887 1.3349 1.9563 1904.5 -0.0075114 1545.3 0.19468 0.00011984 8344.6 375.85 398.39 3.6792 0.81935 1.0079 166.50 2.5022 3.2606 0.0034727
-152.62 0.00047590 4.8047e-07 -128.92 -128.92 -0.73256 697.26 0.0014342 -128.92 -128.92 -0.73256 1.3348 1.9577 1897.8 -0.0075019 1490.6 0.19419 0.00014439 6925.9 376.67 399.40 3.6509 0.82284 1.0114 167.13 2.4481 3.2881 0.0035298
-151.62 0.00057613 5.7652e-07 -126.96 -126.96 -0.71638 696.25 0.0014363 -126.96 -126.96 -0.71638 1.3346 1.9592 1891.0 -0.0074922 1438.9 0.19370 0.00017336 5768.4 377.49 400.41 3.6232 0.82631 1.0149 167.76 2.3957 3.3156 0.0035872
-150.62 0.00069507 6.8943e-07 -125.00 -125.00 -0.70032 695.24 0.0014384 -125.00 -125.00 -0.70032 1.3345 1.9606 1884.2 -0.0074824 1390.2 0.19320 0.00020744 4820.7 378.32 401.42 3.5962 0.82976 1.0183 168.38 2.3448 3.3431 0.0036448
-149.62 0.00083574 8.2174e-07 -123.04 -123.04 -0.68437 694.23 0.0014404 -123.04 -123.04 -0.68438 1.3345 1.9621 1877.4 -0.0074724 1344.0 0.19270 0.00024740 4042.0 379.15 402.44 3.5697 0.83319 1.0218 169.00 2.2956 3.3706 0.0037027
-148.62 0.0010016 9.7628e-07 -121.08 -121.08 -0.66855 693.22 0.0014425 -121.08 -121.08 -0.66855 1.3344 1.9636 1870.7 -0.0074623 1300.3 0.19220 0.00029412 3400.0 379.99 403.47 3.5438 0.83661 1.0252 169.62 2.2478 3.3982 0.0037610
-147.62 0.0011965 1.1563e-06 -119.11 -119.11 -0.65283 692.21 0.0014447 -119.11 -119.11 -0.65284 1.3343 1.9651 1863.9 -0.0074521 1258.9 0.19169 0.00034856 2869.0 380.83 404.49 3.5185 0.84001 1.0286 170.24 2.2014 3.4257 0.0038195
-146.62 0.0014249 1.3652e-06 -117.15 -117.15 -0.63723 691.20 0.0014468 -117.15 -117.15 -0.63724 1.3343 1.9666 1857.2 -0.0074417 1219.6 0.19117 0.00041181 2428.3 381.67 405.52 3.4938 0.84340 1.0320 170.85 2.1565 3.4532 0.0038783
-145.62 0.0016917 1.6071e-06 -115.18 -115.18 -0.62174 690.19 0.0014489 -115.18 -115.18 -0.62175 1.3343 1.9682 1850.4 -0.0074312 1182.3 0.19066 0.00048510 2061.4 382.51 406.56 3.4695 0.84677 1.0353 171.46 2.1128 3.4807 0.0039374
-144.62 0.0020026 1.8864e-06 -113.21 -113.21 -0.60636 689.18 0.0014510 -113.21 -113.21 -0.60637 1.3343 1.9697 1843.7 -0.0074206 1146.8 0.19014 0.00056976 1755.1 383.36 407.59 3.4458 0.85012 1.0387 172.07 2.0705 3.5082 0.0039967
-143.62 0.0023637 2.2080e-06 -111.24 -111.24 -0.59109 688.17 0.0014531 -111.24 -111.24 -0.59110 1.3343 1.9713 1836.9 -0.0074098 1113.0 0.18962 0.00066731 1498.6 384.21 408.63 3.4226 0.85346 1.0420 172.68 2.0294 3.5358 0.0040564
-142.62 0.0027820 2.5772e-06 -109.27 -109.27 -0.57592 687.16 0.0014553 -109.27 -109.27 -0.57593 1.3343 1.9728 1830.2 -0.0073988 1080.8 0.18909 0.00077939 1283.1 385.07 409.68 3.3999 0.85679 1.0454 173.28 1.9896 3.5633 0.0041164
-141.62 0.0032653 3.0000e-06 -107.30 -107.29 -0.56086 686.15 0.0014574 -107.30 -107.30 -0.56087 1.3343 1.9744 1823.5 -0.0073878 1050.1 0.18856 0.00090784 1101.5 385.93 410.72 3.3777 0.86011 1.0487 173.88 1.9508 3.5908 0.0041766
-140.62 0.0038222 3.4829e-06 -105.32 -105.32 -0.54589 685.14 0.0014596 -105.32 -105.32 -0.54591 1.3344 1.9760 1816.7 -0.0073765 1020.7 0.18803 0.0010547 948.16 386.79 411.77 3.3560 0.86341 1.0520 174.48 1.9133 3.6183 0.0042372
-139.62 0.0044623 4.0332e-06 -103.34 -103.34 -0.53103 684.13 0.0014617 -103.34 -103.34 -0.53105 1.3344 1.9776 1810.0 -0.0073651 992.74 0.18749 0.0012221 818.26 387.65 412.83 3.3347 0.86670 1.0553 175.08 1.8768 3.6459 0.0042980
-138.62 0.0051963 4.6586e-06 -101.36 -101.36 -0.51627 683.12 0.0014639 -101.37 -101.37 -0.51629 1.3345 1.9792 1803.3 -0.0073536 965.97 0.18695 0.0014125 707.94 388.52 413.88 3.3139 0.86998 1.0586 175.67 1.8413 3.6734 0.0043592
-137.62 0.0060358 5.3679e-06 -99.383 -99.383 -0.50160 682.11 0.0014660 -99.386 -99.386 -0.50162 1.3346 1.9808 1796.6 -0.0073419 940.35 0.18641 0.0016287 614.00 389.39 414.94 3.2935 0.87325 1.0619 176.26 1.8069 3.7009 0.0044206
-136.62 0.0069938 6.1702e-06 -97.401 -97.401 -0.48703 681.10 0.0014682 -97.404 -97.404 -0.48705 1.3347 1.9825 1789.9 -0.0073301 915.81 0.18586 0.0018733 533.80 390.26 416.00 3.2735 0.87650 1.0651 176.85 1.7734 3.7284 0.0044823
-135.62 0.0080843 7.0759e-06 -95.418 -95.417 -0.47255 680.09 0.0014704 -95.421 -95.421 -0.47258 1.3348 1.9841 1783.2 -0.0073180 892.30 0.18531 0.0021497 465.17 391.14 417.07 3.2540 0.87975 1.0684 177.44 1.7409 3.7559 0.0045443
-134.62 0.0093230 8.0959e-06 -93.432 -93.432 -0.45817 679.08 0.0014726 -93.436 -93.436 -0.45820 1.3350 1.9858 1776.5 -0.0073059 869.75 0.18476 0.0024613 406.30 392.02 418.14 3.2348 0.88299 1.0716 178.02 1.7093 3.7834 0.0046066
-133.62 0.010727 9.2422e-06 -91.445 -91.445 -0.44387 678.07 0.0014748 -91.450 -91.449 -0.44391 1.3351 1.9875 1769.8 -0.0072935 848.11 0.18421 0.0028116 355.67 392.91 419.21 3.2161 0.88622 1.0749 178.61 1.6786 3.8109 0.0046691
-132.62 0.012315 1.0528e-05 -89.456 -89.456 -0.42967 677.06 0.0014770 -89.461 -89.461 -0.42971 1.3353 1.9892 1763.1 -0.0072810 827.32 0.18365 0.0032049 312.03 393.79 420.29 3.1977 0.88944 1.0781 179.19 1.6488 3.8385 0.0047320
-131.62 0.014106 1.1966e-05 -87.465 -87.465 -0.41555 676.04 0.0014792 -87.471 -87.471 -0.41560 1.3354 1.9909 1756.4 -0.0072684 807.34 0.18309 0.0036453 274.33 394.68 421.36 3.1798 0.89266 1.0813 179.76 1.6197 3.8660 0.0047951
-130.62 0.016124 1.3573e-05 -85.473 -85.472 -0.40152 675.03 0.0014814 -85.479 -85.479 -0.40157 1.3356 1.9926 1749.7 -0.0072555 788.12 0.18253 0.0041375 241.69 395.58 422.44 3.1622 0.89586 1.0846 180.34 1.5915 3.8935 0.0048586
-129.62 0.018392 1.5364e-05 -83.479 -83.478 -0.38758 674.02 0.0014836 -83.486 -83.486 -0.38763 1.3358 1.9944 1743.0 -0.0072425 769.63 0.18196 0.0046867 213.37 396.47 423.53 3.1450 0.89906 1.0878 180.91 1.5641 3.9210 0.0049223
-128.62 0.020935 1.7357e-05 -81.482 -81.482 -0.37372 673.01 0.0014859 -81.491 -81.490 -0.37378 1.3360 1.9961 1736.3 -0.0072294 751.83 0.18140 0.0052981 188.75 397.37 424.62 3.1281 0.90226 1.0910 181.48 1.5374 3.9485 0.0049863
-127.62 0.023783 1.9570e-05 -79.484 -79.484 -0.35994 672.00 0.0014881 -79.494 -79.493 -0.36001 1.3363 1.9979 1729.6 -0.0072160 734.67 0.18083 0.0059776 167.29 398.27 425.71 3.1116 0.90545 1.0942 182.05 1.5114 3.9760 0.0050506
-126.62 0.026966 2.2022e-05 -77.484 -77.483 -0.34625 670.98 0.0014904 -77.495 -77.495 -0.34632 1.3365 1.9997 1722.9 -0.0072025 718.14 0.18025 0.0067313 148.56 399.18 426.80 3.0954 0.90863 1.0974 182.62 1.4861 4.0035 0.0051152
-125.62 0.030515 2.4736e-05 -75.483 -75.482 -0.33263 669.97 0.0014926 -75.494 -75.494 -0.33272 1.3368 2.0015 1716.2 -0.0071888 702.18 0.17968 0.0075660 132.17 400.09 427.89 3.0795 0.91181 1.1006 183.18 1.4615 4.0310 0.0051800
-124.62 0.034467 2.7733e-05 -73.479 -73.478 -0.31909 668.95 0.0014949 -73.492 -73.492 -0.31919 1.3371 2.0033 1709.5 -0.0071749 686.79 0.17910 0.0084885 117.81 401.00 428.99 3.0640 0.91499 1.1038 183.74 1.4375 4.0584 0.0052452
-123.62 0.038859 3.1037e-05 -71.473 -71.472 -0.30564 667.94 0.0014971 -71.488 -71.487 -0.30574 1.3374 2.0051 1702.8 -0.0071609 671.93 0.17852 0.0095065 105.19 401.91 430.10 3.0488 0.91816 1.1070 184.30 1.4141 4.0859 0.0053106
-122.62 0.043731 3.4674e-05 -69.465 -69.464 -0.29225 666.92 0.0014994 -69.482 -69.481 -0.29237 1.3377 2.0070 1696.2 -0.0071466 657.57 0.17794 0.010628 94.092 402.83 431.20 3.0339 0.92134 1.1102 184.86 1.3913 4.1134 0.0053764
-121.62 0.049128 3.8670e-05 -67.455 -67.454 -0.27895 665.91 0.0015017 -67.474 -67.473 -0.27907 1.3380 2.0089 1689.5 -0.0071322 643.70 0.17736 0.011861 84.309 403.75 432.31 3.0193 0.92451 1.1134 185.41 1.3691 4.1409 0.0054424
-120.62 0.055096 4.3055e-05 -65.444 -65.442 -0.26571 664.89 0.0015040 -65.464 -65.463 -0.26585 1.3384 2.0107 1682.8 -0.0071176 630.28 0.17678 0.013215 75.669 404.67 433.42 3.0050 0.92767 1.1166 185.96 1.3475 4.1683 0.0055087
-119.62 0.061684 4.7858e-05 -63.430 -63.428 -0.25255 663.87 0.0015063 -63.452 -63.452 -0.25271 1.3387 2.0126 1676.1 -0.0071028 617.30 0.17619 0.014700 68.027 405.60 434.53 2.9909 0.93084 1.1198 186.51 1.3264 4.1958 0.0055752
-118.62 0.068946 5.3111e-05 -61.414 -61.412 -0.23946 662.86 0.0015086 -61.439 -61.438 -0.23963 1.3391 2.0146 1669.4 -0.0070878 604.74 0.17560 0.016325 61.255 406.53 435.64 2.9772 0.93401 1.1231 187.06 1.3058 4.2233 0.0056421
-117.62 0.076937 5.8848e-05 -59.396 -59.393 -0.22644 661.84 0.0015109 -59.423 -59.422 -0.22663 1.3395 2.0165 1662.8 -0.0070726 592.58 0.17501 0.018101 55.245 407.46 436.76 2.9638 0.93718 1.1263 187.60 1.2857 4.2507 0.0057092
-116.62 0.085718 6.5103e-05 -57.375 -57.373 -0.21350 660.82 0.0015133 -57.406 -57.405 -0.21370 1.3400 2.0184 1656.1 -0.0070573 580.80 0.17442 0.020040 49.901 408.39 437.88 2.9506 0.94035 1.1295 188.14 1.2660 4.2782 0.0057767
-115.62 0.095353 7.1915e-05 -55.353 -55.350 -0.20062 659.80 0.0015156 -55.386 -55.385 -0.20084 1.3404 2.0204 1649.4 -0.0070417 569.38 0.17383 0.022152 45.142 409.33 439.01 2.9377 0.94352 1.1327 188.68 1.2468 4.3056 0.0058444
-114.62 0.10591 7.9321e-05 -53.328 -53.325 -0.18780 658.78 0.0015180 -53.365 -53.364 -0.18805 1.3409 2.0224 1642.7 -0.0070260 558.32 0.17323 0.024451 40.898 410.27 440.13 2.9250 0.94669 1.1360 189.22 1.2281 4.3330 0.0059123
-113.62 0.11746 8.7362e-05 -51.301 -51.297 -0.17506 657.76 0.0015203 -51.342 -51.340 -0.17533 1.3413 2.0244 1636.0 -0.0070100 547.59 0.17264 0.026949 37.107 411.21 441.26 2.9126 0.94987 1.1392 189.75 1.2097 4.3604 0.0059806
-112.62 0.13008 9.6082e-05 -49.272 -49.268 -0.16238 656.73 0.0015227 -49.316 -49.315 -0.16267 1.3418 2.0264 1629.3 -0.0069938 537.18 0.17204 0.029661 33.715 412.16 442.39 2.9005 0.95305 1.1424 190.28 1.1918 4.3879 0.0060491
-111.62 0.14384 0.00010552 -47.240 -47.235 -0.14976 655.71 0.0015251 -47.289 -47.287 -0.15008 1.3424 2.0285 1622.7 -0.0069774 527.08 0.17144 0.032600 30.675 413.10 443.53 2.8885 0.95623 1.1457 190.81 1.1742 4.4153 0.0061180
-110.62 0.15884 0.00011574 -45.206 -45.201 -0.13720 654.69 0.0015274 -45.259 -45.258 -0.13755 1.3429 2.0305 1616.0 -0.0069609 517.28 0.17084 0.035781 27.948 414.06 444.66 2.8769 0.95942 1.1490 191.34 1.1570 4.4427 0.0061871
-109.62 0.17516 0.00012677 -43.170 -43.164 -0.12471 653.66 0.0015298 -43.228 -43.226 -0.12509 1.3435 2.0326 1609.3 -0.0069441 507.76 0.17024 0.039220 25.497 415.01 445.80 2.8654 0.96261 1.1522 191.86 1.1402 4.4701 0.0062564
-108.62 0.19290 0.00013867 -41.131 -41.124 -0.11228 652.64 0.0015322 -41.194 -41.192 -0.11269 1.3441 2.0347 1602.6 -0.0069271 498.51 0.16964 0.042933 23.292 415.96 446.94 2.8542 0.96581 1.1555 192.38 1.1236 4.4974 0.0063261
-107.62 0.21215 0.00015149 -39.089 -39.082 -0.099911 651.61 0.0015347 -39.158 -39.156 -0.10036 1.3447 2.0369 1595.9 -0.0069098 489.52 0.16903 0.046937 21.305 416.92 448.09 2.8433 0.96901 1.1588 192.90 1.1075 4.5248 0.0063960
-106.62 0.23301 0.00016529 -37.045 -37.038 -0.087600 650.58 0.0015371 -37.120 -37.118 -0.088082 1.3453 2.0390 1589.2 -0.0068924 480.79 0.16843 0.051250 19.512 417.88 449.23 2.8325 0.97222 1.1621 193.41 1.0916 4.5522 0.0064662
-105.62 0.25561 0.00018012 -34.999 -34.990 -0.075347 649.55 0.0015395 -35.080 -35.078 -0.075868 1.3460 2.0412 1582.6 -0.0068747 472.30 0.16782 0.055891 17.892 418.85 450.38 2.8220 0.97544 1.1655 193.93 1.0760 4.5795 0.0065367
-104.62 0.28004 0.00019604 -32.949 -32.940 -0.063151 648.52 0.0015420 -33.038 -33.035 -0.063714 1.3467 2.0434 1575.9 -0.0068569 464.04 0.16721 0.060878 16.426 419.81 451.53 2.8116 0.97867 1.1688 194.44 1.0608 4.6069 0.0066074
-103.62 0.30643 0.00021312 -30.898 -30.888 -0.051011 647.49 0.0015444 -30.994 -30.991 -0.051619 1.3474 2.0456 1569.2 -0.0068387 456.00 0.16660 0.066231 15.099 420.78 452.68 2.8015 0.98191 1.1722 194.94 1.0458 4.6342 0.0066785
-102.62 0.33490 0.00023141 -28.843 -28.832 -0.038926 646.46 0.0015469 -28.947 -28.944 -0.039582 1.3481 2.0478 1562.5 -0.0068204 448.18 0.16600 0.071971 13.894 421.75 453.84 2.7916 0.98516 1.1755 195.44 1.0310 4.6615 0.0067498
-101.62 0.36558 0.00025099 -26.786 -26.773 -0.026897 645.43 0.0015494 -26.898 -26.894 -0.027602 1.3489 2.0501 1555.8 -0.0068018 440.57 0.16539 0.078120 12.801 422.73 454.99 2.7818 0.98841 1.1789 195.95 1.0166 4.6888 0.0068213
-100.62 0.39862 0.00027192 -24.725 -24.712 -0.014920 644.39 0.0015519 -24.847 -24.843 -0.015678 1.3497 2.0524 1549.1 -0.0067830 433.16 0.16478 0.084699 11.807 423.70 456.15 2.7723 0.99168 1.1823 196.44 1.0024 4.7161 0.0068932
-99.625 0.43414 0.00029427 -22.662 -22.648 -0.0029961 643.36 0.0015544 -22.794 -22.789 -0.0038103 1.3505 2.0547 1542.4 -0.0067639 425.95 0.16416 0.091731 10.901 424.68 457.31 2.7630 0.99496 1.1858 196.94 0.98838 4.7434 0.0069653
-98.625 0.47230 0.00031812 -20.596 -20.581 0.0088762 642.32 0.0015569 -20.738 -20.733 0.0080027 1.3514 2.0570 1535.7 -0.0067447 418.92 0.16355 0.099240 10.077 425.66 458.48 2.7538 0.99825 1.1892 197.43 0.97464 4.7707 0.0070377
-97.625 0.51325 0.00034353 -18.527 -18.510 0.020698 641.28 0.0015594 -18.680 -18.674 0.019762 1.3522 2.0594 1529.0 -0.0067251 412.07 0.16294 0.10725 9.3239 426.65 459.64 2.7448 1.0016 1.1927 197.92 0.96112 4.7979 0.0071103
-96.625 0.55714 0.00037059 -16.455 -16.437 0.032469 640.24 0.0015619 -16.620 -16.614 0.031467 1.3531 2.0618 1522.3 -0.0067053 405.39 0.16233 0.11579 8.6365 427.63 460.81 2.7360 1.0049 1.1962 198.40 0.94783 4.8251 0.0071832
-95.625 0.60416 0.00039937 -14.380 -14.360 0.044192 639.20 0.0015645 -14.557 -14.550 0.043120 1.3540 2.0642 1515.7 -0.0066853 398.88 0.16171 0.12488 8.0078 428.62 461.98 2.7274 1.0082 1.1997 198.88 0.93475 4.8524 0.0072564
-94.625 0.65446 0.00042995 -12.301 -12.280 0.055867 638.16 0.0015670 -12.491 -12.484 0.054721 1.3550 2.0667 1509.0 -0.0066650 392.53 0.16110 0.13455 7.4323 429.61 463.15 2.7189 1.0116 1.2032 199.36 0.92188 4.8796 0.0073299
-93.625 0.70822 0.00046243 -10.220 -10.197 0.067494 637.12 0.0015696 -10.424 -10.416 0.066271 1.3560 2.0691 1502.3 -0.0066444 386.34 0.16048 0.14482 6.9050 430.60 464.32 2.7107 1.0149 1.2068 199.83 0.90921 4.9068 0.0074036
-92.625 0.76564 0.00049688 -8.1349 -8.1098 0.079075 636.07 0.0015722 -8.3535 -8.3452 0.077771 1.3570 2.0716 1495.6 -0.0066236 380.31 0.15987 0.15573 6.4212 431.60 465.49 2.7025 1.0183 1.2104 200.30 0.89673 4.9340 0.0074776
-91.625 0.82689 0.00053339 -6.0468 -6.0196 0.090610 635.02 0.0015747 -6.2808 -6.2719 0.089220 1.3580 2.0742 1488.9 -0.0066025 374.41 0.15925 0.16731 5.9769 432.59 466.67 2.6946 1.0217 1.2140 200.77 0.88445 4.9611 0.0075518
-90.625 0.89218 0.00057205 -3.9552 -3.9259 0.10210 633.98 0.0015773 -4.2056 -4.1959 0.10062 1.3591 2.0767 1482.2 -0.0065811 368.66 0.15864 0.17958 5.5685 433.59 467.84 2.6868 1.0251 1.2177 201.24 0.87236 4.9883 0.0076263
-89.625 0.96172 0.00061295 -1.8602 -1.8286 0.11355 632.93 0.0015800 -2.1279 -2.1174 0.11197 1.3602 2.0793 1475.5 -0.0065595 363.05 0.15802 0.19258 5.1928 434.59 469.02 2.6791 1.0285 1.2213 201.70 0.86045 5.0154 0.0077011
-88.625 1.0357 0.00065620 0.23835 0.27236 0.12495 631.88 0.0015826 -0.047516 -0.036215 0.12328 1.3613 2.0819 1468.8 -0.0065375 357.56 0.15740 0.20633 4.8466 435.59 470.20 2.6717 1.0320 1.2250 202.15 0.84873 5.0425 0.0077761
-87.625 1.1144 0.00070188 2.3405 2.3770 0.13631 630.83 0.0015852 2.0355 2.0476 0.13454 1.3625 2.0846 1462.1 -0.0065153 352.21 0.15679 0.22087 4.5276 436.60 471.39 2.6643 1.0354 1.2288 202.61 0.83718 5.0696 0.0078514
-86.625 1.1979 0.00075009 4.4462 4.4855 0.14763 629.77 0.0015879 4.1211 4.1342 0.14575 1.3637 2.0873 1455.4 -0.0064928 346.98 0.15617 0.23623 4.2331 437.61 472.57 2.6571 1.0389 1.2325 203.06 0.82580 5.0967 0.0079270
-85.625 1.2866 0.00080094 6.5557 6.5979 0.15891 628.72 0.0015905 6.2094 6.2235 0.15691 1.3649 2.0900 1448.8 -0.0064701 341.87 0.15555 0.25245 3.9612 438.61 473.75 2.6501 1.0424 1.2363 203.50 0.81460 5.1237 0.0080028
-84.625 1.3806 0.00085452 8.6689 8.7143 0.17015 627.66 0.0015932 8.3004 8.3155 0.16803 1.3661 2.0927 1442.1 -0.0064470 336.87 0.15494 0.26956 3.7097 439.63 474.94 2.6432 1.0460 1.2402 203.95 0.80356 5.1508 0.0080789
-83.625 1.4803 0.00091095 10.786 10.835 0.18135 626.60 0.0015959 10.394 10.410 0.17911 1.3674 2.0955 1435.4 -0.0064236 331.99 0.15432 0.28760 3.4771 440.64 476.13 2.6364 1.0495 1.2440 204.38 0.79269 5.1778 0.0081553
-82.625 1.5858 0.00097033 12.907 12.959 0.19251 625.54 0.0015986 12.491 12.508 0.19014 1.3687 2.0983 1428.7 -0.0063999 327.22 0.15370 0.30659 3.2616 441.65 477.31 2.6298 1.0531 1.2479 204.82 0.78199 5.2048 0.0082319
-81.625 1.6975 0.0010328 15.032 15.088 0.20364 624.48 0.0016013 14.590 14.609 0.20113 1.3700 2.1012 1422.0 -0.0063759 322.55 0.15309 0.32659 3.0619 442.67 478.50 2.6233 1.0567 1.2519 205.25 0.77144 5.2318 0.0083088
-80.625 1.8155 0.0010984 17.161 17.221 0.21472 623.42 0.0016041 16.692 16.712 0.21208 1.3714 2.1041 1415.4 -0.0063516 317.99 0.15247 0.34763 2.8766 443.69 479.70 2.6169 1.0603 1.2558 205.67 0.76106 5.2587 0.0083860
-79.625 1.9402 0.0011673 19.294 19.358 0.22577 622.36 0.0016068 18.797 18.819 0.22299 1.3728 2.1070 1408.7 -0.0063270 313.52 0.15186 0.36974 2.7046 444.71 480.89 2.6106 1.0639 1.2598 206.10 0.75083 5.2857 0.0084634
-78.625 2.0718 0.0012395 21.432 21.500 0.23679 621.29 0.0016096 20.905 20.928 0.23385 1.3742 2.1099 1402.0 -0.0063021 309.15 0.15124 0.39296 2.5448 445.73 482.08 2.6045 1.0676 1.2639 206.51 0.74076 5.3126 0.0085411
-77.625 2.2107 0.0013153 23.573 23.646 0.24777 620.22 0.0016123 23.016 23.040 0.24468 1.3757 2.1129 1395.3 -0.0062768 304.88 0.15062 0.41735 2.3961 446.75 483.27 2.5985 1.0712 1.2680 206.93 0.73084 5.3395 0.0086190
-76.625 2.3571 0.0013948 25.719 25.797 0.25872 619.15 0.0016151 25.130 25.156 0.25546 1.3772 2.1159 1388.7 -0.0062512 300.69 0.15001 0.44292 2.2577 447.78 484.47 2.5926 1.0749 1.2721 207.34 0.72107 5.3664 0.0086972
-75.625 2.5113 0.0014780 27.870 27.952 0.26963 618.08 0.0016179 27.247 27.275 0.26620 1.3787 2.1190 1382.0 -0.0062253 296.59 0.14939 0.46974 2.1288 448.81 485.67 2.5869 1.0787 1.2762 207.74 0.71146 5.3933 0.0087757
-74.625 2.6736 0.0015651 30.024 30.112 0.28052 617.01 0.0016207 29.366 29.396 0.27691 1.3802 2.1221 1375.4 -0.0061990 292.58 0.14878 0.49783 2.0087 449.83 486.86 2.5812 1.0824 1.2804 208.14 0.70200 5.4201 0.0088544
-73.625 2.8444 0.0016561 32.184 32.277 0.29137 615.93 0.0016236 31.489 31.521 0.28758 1.3818 2.1252 1368.7 -0.0061724 288.65 0.14816 0.52725 1.8966 450.86 488.06 2.5757 1.0862 1.2847 208.54 0.69268 5.4469 0.0089334
-72.625 3.0240 0.0017513 34.348 34.447 0.30218 614.85 0.0016264 33.615 33.649 0.29821 1.3834 2.1284 1362.0 -0.0061454 284.81 0.14755 0.55804 1.7920 451.90 489.26 2.5703 1.0900 1.2889 208.93 0.68351 5.4737 0.0090126
-71.625 3.2127 0.0018508 36.517 36.622 0.31297 613.78 0.0016293 35.745 35.781 0.30880 1.3851 2.1316 1355.4 -0.0061181 281.03 0.14694 0.59024 1.6942 452.93 490.46 2.5650 1.0938 1.2932 209.32 0.67448 5.5005 0.0090922
-70.625 3.4108 0.0019547 38.690 38.802 0.32373 612.69 0.0016321 37.877 37.915 0.31935 1.3867 2.1349 1348.7 -0.0060904 277.34 0.14632 0.62390 1.6028 453.96 491.66 2.5598 1.0976 1.2976 209.70 0.66560 5.5273 0.0091720
-69.625 3.6187 0.0020630 40.869 40.988 0.33446 611.61 0.0016350 40.013 40.053 0.32987 1.3884 2.1382 1342.1 -0.0060624 273.72 0.14571 0.65906 1.5173 455.00 492.86 2.5547 1.1015 1.3020 210.08 0.65687 5.5540 0.0092520
-68.625 3.8367 0.0021761 43.052 43.178 0.34516 610.53 0.0016379 42.152 42.195 0.34036 1.3902 2.1415 1335.5 -0.0060339 270.17 0.14510 0.69577 1.4372 456.04 494.06 2.5497 1.1054 1.3064 210.45 0.64827 5.5807 0.0093324
-67.625 4.0652 0.0022939 45.241 45.374 0.35584 609.44 0.0016409 44.294 44.340 0.35080 1.3919 2.1449 1328.8 -0.0060051 266.69 0.14449 0.73408 1.3622 457.08 495.26 2.5448 1.1093 1.3109 210.82 0.63981 5.6074 0.0094130
-66.625 4.3046 0.0024166 47.434 47.575 0.36648 608.35 0.0016438 46.439 46.488 0.36122 1.3937 2.1483 1322.2 -0.0059760 263.28 0.14388 0.77404 1.2919 458.12 496.46 2.5400 1.1133 1.3154 211.18 0.63150 5.6341 0.0094939
-65.625 4.5551 0.0025444 49.633 49.782 0.37710 607.26 0.0016467 48.588 48.640 0.37160 1.3955 2.1518 1315.6 -0.0059464 259.93 0.14327 0.81570 1.2259 459.16 497.67 2.5353 1.1172 1.3200 211.54 0.62332 5.6608 0.0095750
-64.625 4.8173 0.0026775 51.837 51.995 0.38770 606.16 0.0016497 50.740 50.795 0.38195 1.3974 2.1553 1308.9 -0.0059164 256.65 0.14266 0.85910 1.1640 460.21 498.87 2.5307 1.1212 1.3246 211.89 0.61527 5.6874 0.0096564
-63.625 5.0915 0.0028158 54.046 54.213 0.39827 605.07 0.0016527 52.896 52.954 0.39226 1.3993 2.1588 1302.3 -0.0058861 253.42 0.14205 0.90429 1.1058 461.25 500.07 2.5262 1.1252 1.3293 212.24 0.60736 5.7140 0.0097382
-62.625 5.3781 0.0029597 56.261 56.437 0.40881 603.97 0.0016557 55.055 55.117 0.40254 1.4012 2.1624 1295.7 -0.0058553 250.26 0.14144 0.95134 1.0511 462.30 501.28 2.5218 1.1293 1.3340 212.58 0.59958 5.7406 0.0098201
-61.625 5.6774 0.0031092 58.481 58.667 0.41933 602.87 0.0016587 57.218 57.283 0.41279 1.4031 2.1660 1289.1 -0.0058241 247.16 0.14084 1.0003 0.99972 463.35 502.48 2.5175 1.1333 1.3387 212.92 0.59194 5.7672 0.0099024
-60.625 5.9899 0.0032645 60.707 60.903 0.42983 601.77 0.0016618 59.385 59.453 0.42301 1.4051 2.1697 1282.5 -0.0057925 244.12 0.14023 1.0512 0.95131 464.40 503.68 2.5133 1.1374 1.3435 213.26 0.58442 5.7938 0.0099850
-59.625 6.3160 0.0034257 62.938 63.145 0.44031 600.66 0.0016648 61.554 61.627 0.43320 1.4071 2.1734 1275.9 -0.0057605 241.13 0.13962 1.1041 0.90573 465.45 504.89 2.5091 1.1415 1.3483 213.58 0.57704 5.8203 0.010068
-58.625 6.6561 0.0035931 65.175 65.394 0.45076 599.55 0.0016679 63.728 63.805 0.44335 1.4091 2.1772 1269.3 -0.0057280 238.19 0.13902 1.1591 0.86277 466.50 506.09 2.5051 1.1457 1.3532 213.90 0.56978 5.8468 0.010151
-57.625 7.0107 0.0037666 67.418 67.648 0.46119 598.44 0.0016710 65.905 65.986 0.45348 1.4111 2.1810 1262.7 -0.0056951 235.31 0.13842 1.2161 0.82228 467.55 507.30 2.5011 1.1498 1.3581 214.22 0.56265 5.8733 0.010234
-56.625 7.3801 0.0039466 69.667 69.909 0.47160 597.33 0.0016741 68.086 68.172 0.46358 1.4132 2.1848 1256.1 -0.0056617 232.48 0.13781 1.2754 0.78408 468.60 508.50 2.4972 1.1540 1.3631 214.53 0.55564 5.8998 0.010318
-55.625 7.7648 0.0041331 71.922 72.177 0.48199 596.22 0.0016772 70.271 70.361 0.47364 1.4153 2.1887 1249.5 -0.0056279 229.69 0.13721 1.3369 0.74802 469.66 509.71 2.4934 1.1582 1.3681 214.84 0.54875 5.9263 0.010402
-54.625 8.1652 0.0043263 74.183 74.451 0.49236 595.10 0.0016804 72.460 72.554 0.48368 1.4174 2.1927 1242.9 -0.0055937 226.96 0.13661 1.4006 0.71396 470.72 510.91 2.4897 1.1624 1.3731 215.14 0.54199 5.9527 0.010486
-53.625 8.5819 0.0045263 76.450 76.732 0.50271 593.98 0.0016836 74.652 74.752 0.49369 1.4196 2.1967 1236.3 -0.0055589 224.27 0.13601 1.4667 0.68178 471.77 512.11 2.4860 1.1667 1.3782 215.43 0.53535 5.9792 0.010571
-52.625 9.0151 0.0047334 78.723 79.019 0.51304 592.86 0.0016867 76.849 76.954 0.50368 1.4218 2.2007 1229.8 -0.0055237 221.63 0.13541 1.5353 0.65136 472.83 513.32 2.4824 1.1710 1.3834 215.72 0.52882 6.0056 0.010656
-51.625 9.4655 0.0049477 81.003 81.313 0.52336 591.73 0.0016900 79.049 79.159 0.51363 1.4240 2.2048 1223.2 -0.0054880 219.04 0.13482 1.6062 0.62258 473.89 514.52 2.4789 1.1752 1.3886 216.00 0.52241 6.0320 0.010741
-50.625 9.9335 0.0051693 83.289 83.615 0.53365 590.60 0.0016932 81.253 81.369 0.52356 1.4262 2.2089 1216.6 -0.0054519 216.48 0.13422 1.6797 0.59534 474.95 515.73 2.4755 1.1796 1.3938 216.28 0.51612 6.0584 0.010827
-49.625 10.419 0.0053984 85.581 85.923 0.54393 589.47 0.0016964 83.462 83.584 0.53347 1.4285 2.2131 1210.1 -0.0054152 213.98 0.13363 1.7558 0.56954 476.01 516.93 2.4722 1.1839 1.3991 216.55 0.50994 6.0848 0.010913
-48.625 10.924 0.0056352 87.880 88.238 0.55419 588.34 0.0016997 85.674 85.802 0.54334 1.4308 2.2173 1203.5 -0.0053780 211.51 0.13303 1.8345 0.54510 477.07 518.13 2.4689 1.1883 1.4044 216.82 0.50387 6.1112 0.010999
-47.625 11.448 0.0058799 90.185 90.561 0.56444 587.20 0.0017030 87.891 88.025 0.55319 1.4331 2.2216 1196.9 -0.0053403 209.08 0.13244 1.9159 0.52194 478.14 519.33 2.4657 1.1927 1.4098 217.08 0.49792 6.1375 0.011085
-46.625 11.991 0.0061325 92.497 92.891 0.57467 586.06 0.0017063 90.111 90.252 0.56302 1.4354 2.2259 1190.4 -0.0053020 206.69 0.13185 2.0001 0.49997 479.20 520.53 2.4625 1.1971 1.4153 217.33 0.49207 6.1639 0.011172
-45.625 12.554 0.0063934 94.816 95.229 0.58488 584.92 0.0017096 92.336 92.484 0.57282 1.4378 2.2303 1183.8 -0.0052633 204.34 0.13126 2.0872 0.47912 480.27 521.74 2.4594 1.2015 1.4207 217.58 0.48633 6.1902 0.011259
-44.625 13.137 0.0066626 97.142 97.573 0.59508 583.77 0.0017130 94.565 94.720 0.58260 1.4402 2.2347 1177.3 -0.0052240 202.03 0.13067 2.1771 0.45933 481.33 522.94 2.4564 1.2060 1.4263 217.82 0.48069 6.2165 0.011347
-43.625 13.741 0.0069404 99.475 99.926 0.60527 582.62 0.0017164 96.799 96.961 0.59235 1.4426 2.2392 1170.7 -0.0051841 199.75 0.13008 2.2700 0.44053 482.40 524.14 2.4535 1.2104 1.4319 218.05 0.47516 6.2429 0.011435
-42.625 14.367 0.0072268 101.81 102.29 0.61544 581.47 0.0017198 99.036 99.207 0.60208 1.4450 2.2437 1164.2 -0.0051437 197.51 0.12949 2.3659 0.42267 483.46 525.33 2.4506 1.2149 1.4375 218.28 0.46973 6.2692 0.011523
-41.625 15.015 0.0075222 104.16 104.65 0.62560 580.32 0.0017232 101.28 101.46 0.61179 1.4475 2.2483 1157.7 -0.0051027 195.30 0.12891 2.4649 0.40569 484.53 526.53 2.4478 1.2195 1.4432 218.50 0.46440 6.2955 0.011612
-40.625 15.686 0.0078266 106.52 107.03 0.63574 579.16 0.0017266 103.52 103.71 0.62147 1.4500 2.2529 1151.1 -0.0050611 193.13 0.12832 2.5671 0.38954 485.60 527.73 2.4450 1.2240 1.4489 218.72 0.45917 6.3218 0.011701
-39.625 16.380 0.0081402 108.88 109.41 0.64588 578.00 0.0017301 105.78 105.97 0.63113 1.4525 2.2576 1144.6 -0.0050189 190.99 0.12774 2.6725 0.37418 486.67 528.93 2.4423 1.2286 1.4547 218.93 0.45403 6.3481 0.011790
-38.625 17.097 0.0084633 111.25 111.81 0.65600 576.83 0.0017336 108.03 108.24 0.64077 1.4550 2.2623 1138.0 -0.0049761 188.88 0.12716 2.7813 0.35955 487.74 530.12 2.4397 1.2332 1.4606 219.13 0.44900 6.3744 0.011880
-37.625 17.838 0.0087960 113.62 114.21 0.66611 575.66 0.0017371 110.29 110.51 0.65039 1.4576 2.2671 1131.5 -0.0049327 186.81 0.12658 2.8934 0.34562 488.81 531.32 2.4371 1.2378 1.4665 219.33 0.44405 6.4007 0.011970
-36.625 18.604 0.0091385 116.00 116.62 0.67620 574.49 0.0017407 112.56 112.78 0.65999 1.4602 2.2719 1125.0 -0.0048887 184.76 0.12600 3.0089 0.33235 489.88 532.51 2.4346 1.2424 1.4724 219.52 0.43920 6.4270 0.012060
-35.625 19.395 0.0094910 118.40 119.03 0.68629 573.32 0.0017442 114.83 115.06 0.66956 1.4628 2.2768 1118.5 -0.0048440 182.75 0.12542 3.1280 0.31969 490.95 533.70 2.4321 1.2471 1.4784 219.70 0.43444 6.4533 0.012151
-34.625 20.212 0.0098537 120.79 121.46 0.69637 572.14 0.0017478 117.10 117.34 0.67912 1.4654 2.2818 1111.9 -0.0047987 180.76 0.12485 3.2506 0.30763 492.02 534.89 2.4297 1.2517 1.4845 219.88 0.42977 6.4797 0.012243
-33.625 21.056 0.010227 123.20 123.89 0.70643 570.96 0.0017514 119.38 119.63 0.68865 1.4681 2.2868 1105.4 -0.0047527 178.80 0.12427 3.3770 0.29612 493.09 536.08 2.4273 1.2564 1.4906 220.05 0.42519 6.5060 0.012334
-32.625 21.926 0.010610 125.61 126.33 0.71649 569.77 0.0017551 121.66 121.93 0.69817 1.4708 2.2918 1098.9 -0.0047061 176.87 0.12370 3.5071 0.28514 494.17 537.27 2.4250 1.2611 1.4968 220.21 0.42070 6.5323 0.012426
-31.625 22.823 0.011005 128.04 128.79 0.72654 568.58 0.0017588 123.95 124.23 0.70767 1.4735 2.2970 1092.3 -0.0046587 174.97 0.12313 3.6410 0.27465 495.24 538.46 2.4227 1.2659 1.5031 220.36 0.41629 6.5587 0.012519
-30.625 23.749 0.011410 130.47 131.25 0.73658 567.39 0.0017625 126.24 126.53 0.71714 1.4762 2.3021 1085.8 -0.0046107 173.09 0.12256 3.7787 0.26464 496.31 539.64 2.4205 1.2706 1.5094 220.51 0.41196 6.5850 0.012612
-29.625 24.703 0.011827 132.90 133.71 0.74661 566.19 0.0017662 128.54 128.84 0.72660 1.4790 2.3074 1079.3 -0.0045619 171.24 0.12200 3.9205 0.25507 497.38 540.83 2.4184 1.2754 1.5157 220.65 0.40772 6.6114 0.012706
-28.625 25.687 0.012254 135.35 136.19 0.75663 564.99 0.0017699 130.84 131.16 0.73604 1.4818 2.3126 1072.8 -0.0045124 169.42 0.12143 4.0663 0.24592 498.46 542.01 2.4162 1.2802 1.5222 220.79 0.40356 6.6378 0.012800
-27.625 26.700 0.012694 137.80 138.68 0.76665 563.78 0.0017737 133.15 133.48 0.74547 1.4846 2.3180 1066.2 -0.0044621 167.62 0.12087 4.2163 0.23717 499.53 543.19 2.4142 1.2850 1.5286 220.91 0.39947 6.6642 0.012894
-26.625 27.743 0.013145 140.27 141.18 0.77666 562.57 0.0017775 135.47 135.81 0.75487 1.4874 2.3234 1059.7 -0.0044111 165.84 0.12031 4.3705 0.22881 500.60 544.37 2.4122 1.2899 1.5352 221.03 0.39547 6.6906 0.012989
-25.625 28.817 0.013608 142.74 143.68 0.78666 561.36 0.0017814 137.78 138.14 0.76426 1.4902 2.3289 1053.2 -0.0043593 164.09 0.11975 4.5290 0.22080 501.68 545.55 2.4102 1.2947 1.5418 221.14 0.39154 6.7171 0.013084
-24.625 29.923 0.014084 145.21 146.20 0.79665 560.14 0.0017853 140.11 140.48 0.77363 1.4931 2.3344 1046.7 -0.0043067 162.36 0.11919 4.6918 0.21314 502.75 546.72 2.4083 1.2996 1.5485 221.25 0.38768 6.7436 0.013180
-23.625 31.061 0.014572 147.70 148.72 0.80664 558.92 0.0017892 142.44 142.82 0.78298 1.4960 2.3400 1040.1 -0.0042533 160.65 0.11863 4.8592 0.20580 503.82 547.90 2.4064 1.3045 1.5552 221.35 0.38391 6.7701 0.013277
-22.625 32.232 0.015072 150.20 151.26 0.81662 557.69 0.0017931 144.77 145.17 0.79232 1.4990 2.3457 1033.6 -0.0041990 158.97 0.11807 5.0311 0.19877 504.90 549.07 2.4045 1.3095 1.5621 221.44 0.38020 6.7967 0.013374
-21.625 33.435 0.015586 152.70 153.80 0.82660 556.46 0.0017971 147.11 147.52 0.80164 1.5019 2.3514 1027.1 -0.0041439 157.30 0.11752 5.2076 0.19203 505.97 550.24 2.4027 1.3144 1.5690 221.52 0.37656 6.8232 0.013471
-20.625 34.673 0.016112 155.22 156.35 0.83657 555.23 0.0018011 149.45 149.88 0.81095 1.5049 2.3572 1020.6 -0.0040879 155.66 0.11697 5.3889 0.18557 507.04 551.40 2.4010 1.3194 1.5759 221.59 0.37300 6.8499 0.013569
-19.625 35.946 0.016652 157.74 158.92 0.84654 553.99 0.0018051 151.80 152.25 0.82024 1.5079 2.3630 1014.0 -0.0040311 154.04 0.11642 5.5750 0.17937 508.11 552.57 2.3992 1.3244 1.5829 221.66 0.36950 6.8765 0.013668
-18.625 37.253 0.017205 160.27 161.49 0.85650 552.74 0.0018092 154.16 154.62 0.82952 1.5109 2.3689 1007.5 -0.0039733 152.44 0.11587 5.7660 0.17343 509.19 553.73 2.3976 1.3294 1.5901 221.72 0.36608 6.9032 0.013767
-17.625 38.596 0.017772 162.81 164.07 0.86646 551.49 0.0018133 156.52 157.00 0.83878 1.5140 2.3749 1001.0 -0.0039145 150.86 0.11532 5.9621 0.16773 510.26 554.89 2.3959 1.3345 1.5972 221.77 0.36272 6.9300 0.013867
-16.625 39.976 0.018353 165.36 166.67 0.87641 550.24 0.0018174 158.89 159.39 0.84803 1.5171 2.3810 994.44 -0.0038549 149.29 0.11478 6.1632 0.16225 511.33 556.05 2.3943 1.3395 1.6045 221.81 0.35942 6.9568 0.013968
-15.625 41.392 0.018948 167.91 169.27 0.88636 548.98 0.0018216 161.26 161.78 0.85726 1.5202 2.3871 987.91 -0.0037942 147.75 0.11423 6.3696 0.15700 512.40 557.20 2.3927 1.3446 1.6119 221.85 0.35619 6.9836 0.014069
-14.625 42.846 0.019558 170.48 171.89 0.89631 547.71 0.0018258 163.64 164.18 0.86649 1.5233 2.3933 981.37 -0.0037325 146.22 0.11369 6.5812 0.15195 513.47 558.36 2.3912 1.3497 1.6193 221.87 0.35302 7.0105 0.014170
-13.625 44.338 0.020183 173.06 174.51 0.90625 546.44 0.0018300 166.02 166.58 0.87569 1.5264 2.3996 974.83 -0.0036698 144.72 0.11315 6.7983 0.14710 514.54 559.51 2.3897 1.3549 1.6268 221.89 0.34992 7.0375 0.014273
-12.625 45.870 0.020822 175.64 177.15 0.91619 545.17 0.0018343 168.41 168.99 0.88489 1.5296 2.4059 968.29 -0.0036061 143.23 0.11261 7.0208 0.14243 515.61 560.65 2.3883 1.3600 1.6344 221.90 0.34688 7.0646 0.014376
-11.625 47.440 0.021477 178.23 179.79 0.92613 543.89 0.0018386 170.81 171.41 0.89407 1.5328 2.4124 961.75 -0.0035413 141.76 0.11208 7.2490 0.13795 516.68 561.80 2.3868 1.3652 1.6421 221.91 0.34389 7.0917 0.014479
-10.625 49.051 0.022148 180.84 182.45 0.93607 542.60 0.0018430 173.21 173.83 0.90324 1.5360 2.4189 955.20 -0.0034753 140.30 0.11154 7.4829 0.13364 517.75 562.94 2.3854 1.3704 1.6498 221.90 0.34097 7.1188 0.014584
-9.6250 50.703 0.022834 183.45 185.12 0.94600 541.31 0.0018474 175.61 176.26 0.91240 1.5393 2.4255 948.65 -0.0034082 138.86 0.11101 7.7226 0.12949 518.81 564.08 2.3841 1.3757 1.6577 221.88 0.33810 7.1461 0.014689
-8.6250 52.396 0.023536 186.07 187.79 0.95593 540.02 0.0018518 178.03 178.70 0.92154 1.5426 2.4321 942.10 -0.0033400 137.44 0.11048 7.9683 0.12550 519.88 565.21 2.3827 1.3809 1.6657 221.86 0.33529 7.1734 0.014795
-7.6250 54.131 0.024254 188.71 190.48 0.96587 538.72 0.0018563 180.45 181.14 0.93068 1.5459 2.4389 935.55 -0.0032705 136.03 0.10995 8.2200 0.12165 520.94 566.35 2.3814 1.3862 1.6737 221.83 0.33254 7.2008 0.014902
-6.6250 55.909 0.024990 191.35 193.18 0.97580 537.41 0.0018608 182.87 183.59 0.93980 1.5492 2.4457 928.99 -0.0031998 134.64 0.10942 8.4779 0.11795 522.01 567.48 2.3801 1.3915 1.6819 221.79 0.32984 7.2284 0.015009
-5.6250 57.730 0.025742 194.00 195.89 0.98573 536.10 0.0018653 185.30 186.05 0.94892 1.5525 2.4526 922.43 -0.0031279 133.27 0.10889 8.7420 0.11439 523.07 568.60 2.3789 1.3969 1.6902 221.74 0.32720 7.2560 0.015117
-4.6250 59.595 0.026511 196.66 198.62 0.99566 534.78 0.0018699 187.74 188.51 0.95802 1.5559 2.4596 915.87 -0.0030546 131.91 0.10837 9.0126 0.11096 524.13 569.72 2.3777 1.4022 1.6985 221.68 0.32461 7.2837 0.015226
-3.6250 61.505 0.027297 199.33 201.35 1.0056 533.45 0.0018746 190.19 190.98 0.96711 1.5593 2.4667 909.30 -0.0029800 130.56 0.10785 9.2896 0.10765 525.19 570.84 2.3765 1.4076 1.7070 221.62 0.32207 7.3115 0.015336
-2.6250 63.461 0.028102 202.01 204.10 1.0155 532.12 0.0018793 192.64 193.46 0.97620 1.5627 2.4739 902.73 -0.0029041 129.23 0.10733 9.5733 0.10446 526.25 571.96 2.3753 1.4131 1.7156 221.54 0.31958 7.3394 0.015447
-1.6250 65.462 0.028924 204.70 206.85 1.0254 530.78 0.0018840 195.10 195.95 0.98527 1.5662 2.4811 896.16 -0.0028267 127.91 0.10681 9.8638 0.10138 527.31 573.07 2.3742 1.4185 1.7243 221.45 0.31715 7.3674 0.015559
-0.62500 67.510 0.029765 207.41 209.62 1.0354 529.44 0.0018888 197.56 198.44 0.99434 1.5696 2.4885 889.58 -0.0027478 126.61 0.10629 10.161 0.098414 528.37 574.18 2.3731 1.4240 1.7331 221.36 0.31476 7.3956 0.015671
0.37500 69.606 0.030625 210.12 212.40 1.0453 528.09 0.0018936 200.03 200.94 1.0034 1.5731 2.4960 883.00 -0.0026675 125.32 0.10578 10.466 0.095552 529.42 575.28 2.3720 1.4295 1.7421 221.26 0.31242 7.4239 0.015785
1.3750 71.749 0.031504 212.84 215.19 1.0552 526.73 0.0018985 202.51 203.45 1.0124 1.5767 2.5035 876.42 -0.0025856 124.04 0.10527 10.777 0.092790 530.48 576.38 2.3709 1.4350 1.7512 221.14 0.31013 7.4523 0.015899
2.3750 73.941 0.032402 215.57 218.00 1.0652 525.37 0.0019034 204.99 205.96 1.0215 1.5802 2.5112 869.83 -0.0025022 122.78 0.10476 11.096 0.090123 531.53 577.47 2.3699 1.4406 1.7604 221.02 0.30789 7.4808 0.016015
3.3750 76.183 0.033319 218.31 220.81 1.0751 523.99 0.0019084 207.48 208.48 1.0305 1.5838 2.5190 863.24 -0.0024171 121.53 0.10425 11.422 0.087549 532.58 578.56 2.3688 1.4462 1.7697 220.89 0.30569 7.5095 0.016131
4.3750 78.475 0.034257 221.07 223.64 1.0850 522.62 0.0019134 209.98 211.01 1.0395 1.5874 2.5268 856.64 -0.0023303 120.29 0.10374 11.756 0.085062 533.63 579.65 2.3678 1.4518 1.7792 220.75 0.30354 7.5384 0.016249
5.3750 80.817 0.035216 223.83 226.48 1.0950 521.23 0.0019185 212.48 213.55 1.0486 1.5910 2.5348 850.04 -0.0022417 119.06 0.10324 12.098 0.082660 534.67 580.73 2.3669 1.4575 1.7888 220.60 0.30144 7.5674 0.016368
6.3750 83.211 0.036195 226.60 229.34 1.1049 519.84 0.0019237 215.00 216.10 1.0576 1.5946 2.5429 843.43 -0.0021514 117.85 0.10273 12.447 0.080340 535.72 581.81 2.3659 1.4632 1.7986 220.44 0.29938 7.5966 0.016487
7.3750 85.657 0.037195 229.39 232.20 1.1149 518.44 0.0019289 217.51 218.65 1.0666 1.5983 2.5511 836.82 -0.0020593 116.65 0.10223 12.805 0.078096 536.76 582.88 2.3650 1.4689 1.8085 220.27 0.29736 7.6259 0.016608
8.3750 88.156 0.038217 232.18 235.08 1.1248 517.03 0.0019341 220.04 221.22 1.0756 1.6020 2.5595 830.20 -0.0019652 115.46 0.10173 13.170 0.075928 537.80 583.95 2.3640 1.4746 1.8186 220.08 0.29538 7.6555 0.016730
9.3750 90.708 0.039260 234.99 237.97 1.1348 515.62 0.0019394 222.57 223.79 1.0846 1.6057 2.5679 823.58 -0.0018691 114.28 0.10124 13.545 0.073830 538.84 585.01 2.3631 1.4804 1.8288 219.89 0.29345 7.6852 0.016853
10.375 93.315 0.040327 237.81 240.87 1.1447 514.19 0.0019448 225.11 226.37 1.0936 1.6095 2.5765 816.96 -0.0017710 113.11 0.10074 13.927 0.071802 539.87 586.07 2.3622 1.4863 1.8392 219.69 0.29156 7.7151 0.016978
11.375 95.977 0.041416 240.64 243.79 1.1547 512.76 0.0019502 227.66 228.95 1.1025 1.6132 2.5852 810.32 -0.0016708 111.95 0.10025 14.319 0.069840 540.90 587.12 2.3614 1.4921 1.8498 219.48 0.28971 7.7452 0.017103
12.375 98.694 0.042528 243.47 246.71 1.1646 511.32 0.0019557 230.22 231.55 1.1115 1.6170 2.5940 803.68 -0.0015685 110.80 0.099756 14.719 0.067941 541.93 588.17 2.3605 1.4980 1.8605 219.26 0.28790 7.7756 0.017230
13.375 101.47 0.043664 246.32 249.66 1.1746 509.87 0.0019613 232.78 234.15 1.1205 1.6208 2.6030 797.04 -0.0014639 109.67 0.099267 15.128 0.066103 542.96 589.21 2.3597 1.5040 1.8715 219.03 0.28612 7.8061 0.017359
14.375 104.30 0.044823 249.19 252.61 1.1846 508.42 0.0019669 235.35 236.77 1.1295 1.6247 2.6121 790.39 -0.0013569 108.54 0.098779 15.547 0.064323 543.99 590.24 2.3588 1.5099 1.8826 218.79 0.28439 7.8369 0.017488
15.375 107.19 0.046008 252.06 255.58 1.1946 506.95 0.0019726 237.93 239.39 1.1384 1.6286 2.6214 783.73 -0.0012476 107.43 0.098294 15.974 0.062600 545.01 591.27 2.3580 1.5159 1.8940 218.53 0.28270 7.8680 0.017619
16.375 110.13 0.047217 254.94 258.56 1.2045 505.48 0.0019783 240.52 242.02 1.1474 1.6324 2.6308 777.07 -0.0011357 106.32 0.097810 16.412 0.060931 546.03 592.29 2.3572 1.5220 1.9055 218.27 0.28104 7.8993 0.017752
17.375 113.14 0.048452 257.84 261.55 1.2145 504.00 0.0019841 243.11 244.66 1.1564 1.6364 2.6403 770.40 -0.0010213 105.22 0.097328 16.859 0.059314 547.04 593.31 2.3564 1.5281 1.9172 217.99 0.27942 7.9308 0.017886
18.375 116.21 0.049713 260.75 264.56 1.2245 502.50 0.0019900 245.72 247.31 1.1653 1.6403 2.6501 763.72 -0.00090422 104.14 0.096848 17.317 0.057747 548.05 594.32 2.3557 1.5342 1.9292 217.71 0.27783 7.9626 0.018021
19.375 119.33 0.051001 263.66 267.58 1.2345 501.00 0.0019960 248.33 249.97 1.1743 1.6443 2.6599 757.04 -0.00078435 103.06 0.096371 17.785 0.056228 549.06 595.33 2.3549 1.5404 1.9414 217.41 0.27628 7.9947 0.018159
20.375 122.52 0.052316 266.59 270.62 1.2445 499.49 0.0020020 250.95 252.64 1.1832 1.6483 2.6700 750.35 -0.00066161 101.99 0.095895 18.263 0.054756 550.07 596.32 2.3541 1.5466 1.9538 217.10 0.27477 8.0272 0.018297
21.375 125.77 0.053658 269.54 273.67 1.2545 497.97 0.0020082 253.57 255.32 1.1922 1.6523 2.6802 743.64 -0.00053589 100.93 0.095420 18.752 0.053328 551.07 597.31 2.3534 1.5528 1.9665 216.78 0.27329 8.0599 0.018438
22.375 129.08 0.055029 272.49 276.73 1.2645 496.43 0.0020144 256.21 258.00 1.2012 1.6563 2.6906 736.94 -0.00040708 99.877 0.094948 19.252 0.051943 552.07 598.30 2.3526 1.5591 1.9795 216.45 0.27184 8.0929 0.018580
23.375 132.46 0.056428 275.46 279.81 1.2745 494.89 0.0020206 258.86 260.70 1.2101 1.6604 2.7012 730.22 -0.00027505 98.834 0.094478 19.763 0.050600 553.06 599.27 2.3519 1.5655 1.9927 216.11 0.27043 8.1263 0.018724
24.375 135.90 0.057857 278.43 282.90 1.2846 493.34 0.0020270 261.51 263.41 1.2191 1.6645 2.7120 723.49 -0.00013968 97.800 0.094009 20.285 0.049297 554.05 600.24 2.3512 1.5718 2.0061 215.75 0.26906 8.1600 0.018870
25.375 139.41 0.059317 281.42 286.00 1.2946 491.77 0.0020335 264.17 266.13 1.2280 1.6686 2.7230 716.76 -8.3775e-07 96.773 0.093543 20.820 0.048032 555.03 601.20 2.3504 1.5783 2.0199 215.39 0.26771 8.1941 0.019017
26.375 142.98 0.060806 284.43 289.12 1.3046 490.20 0.0020400 266.84 268.85 1.2370 1.6728 2.7342 710.01 0.00014161 95.755 0.093078 21.366 0.046804 556.01 602.15 2.3497 1.5847 2.0340 215.01 0.26640 8.2286 0.019167
27.375 146.62 0.062328 287.44 292.25 1.3147 488.61 0.0020466 269.52 271.59 1.2459 1.6770 2.7456 703.26 0.00028782 94.745 0.092615 21.924 0.045612 556.99 603.10 2.3490 1.5913 2.0484 214.62 0.26512 8.2634 0.019319
28.375 150.33 0.063881 290.47 295.40 1.3247 487.01 0.0020533 272.21 274.34 1.2549 1.6812 2.7573 696.49 0.00043793 93.742 0.092154 22.495 0.044454 557.96 604.03 2.3483 1.5978 2.0631 214.21 0.26387 8.2987 0.019472
29.375 154.10 0.065467 293.51 298.57 1.3348 485.40 0.0020601 274.91 277.10 1.2638 1.6854 2.7691 689.72 0.00059212 92.747 0.091695 23.079 0.043329 558.92 604.96 2.3476 1.6044 2.0781 213.80 0.26265 8.3344 0.019628
30.375 157.94 0.067087 296.56 301.74 1.3449 483.78 0.0020671 277.62 279.87 1.2728 1.6897 2.7813 682.93 0.00075055 91.760 0.091238 23.676 0.042237 559.88 605.88 2.3469 1.6111 2.0935 213.37 0.26147 8.3705 0.019786
31.375 161.86 0.068741 299.62 304.94 1.3549 482.15 0.0020741 280.34 282.66 1.2818 1.6939 2.7936 676.13 0.00091340 90.779 0.090782 24.287 0.041175 560.84 606.79 2.3462 1.6178 2.1092 212.93 0.26031 8.4071 0.019947
32.375 165.84 0.070431 302.70 308.15 1.3650 480.50 0.0020812 283.07 285.45 1.2908 1.6983 2.8063 669.32 0.0010809 89.806 0.090328 24.911 0.040143 561.79 607.69 2.3455 1.6246 2.1254 212.48 0.25919 8.4442 0.020110
33.375 169.90 0.072157 305.79 311.37 1.3751 478.83 0.0020884 285.81 288.26 1.2997 1.7026 2.8192 662.50 0.0012532 88.840 0.089876 25.549 0.039140 562.73 608.58 2.3448 1.6314 2.1419 212.01 0.25809 8.4818 0.020275
34.375 174.02 0.073919 308.89 314.61 1.3852 477.16 0.0020957 288.56 291.07 1.3087 1.7070 2.8324 655.67 0.0014305 87.880 0.089426 26.202 0.038164 563.67 609.46 2.3440 1.6383 2.1589 211.53 0.25702 8.5199 0.020443
35.375 178.22 0.075720 312.01 317.86 1.3954 475.47 0.0021032 291.32 293.90 1.3177 1.7114 2.8459 648.82 0.0016131 86.927 0.088977 26.870 0.037216 564.60 610.33 2.3433 1.6452 2.1763 211.04 0.25599 8.5586 0.020613
36.375 182.50 0.077559 315.14 321.13 1.4055 473.77 0.0021107 294.09 296.74 1.3267 1.7158 2.8597 641.96 0.0018012 85.980 0.088531 27.553 0.036293 565.52 611.19 2.3426 1.6522 2.1942 210.53 0.25498 8.5978 0.020786
37.375 186.84 0.079439 318.28 324.42 1.4156 472.05 0.0021184 296.87 299.60 1.3357 1.7203 2.8739 635.08 0.0019950 85.040 0.088085 28.252 0.035395 566.44 612.04 2.3419 1.6592 2.2125 210.01 0.25400 8.6376 0.020962
38.375 191.27 0.081359 321.44 327.72 1.4258 470.31 0.0021262 299.66 302.46 1.3447 1.7248 2.8884 628.19 0.0021949 84.105 0.087642 28.967 0.034522 567.35 612.88 2.3411 1.6663 2.2314 209.47 0.25305 8.6780 0.021141
39.375 195.77 0.083321 324.61 331.03 1.4359 468.56 0.0021342 302.46 305.34 1.3537 1.7293 2.9033 621.29 0.0024011 83.177 0.087200 29.699 0.033671 568.26 613.70 2.3404 1.6734 2.2508 208.92 0.25213 8.7190 0.021323
40.375 200.34 0.085327 327.79 334.37 1.4461 466.80 0.0021423 305.27 308.23 1.3627 1.7339 2.9185 614.37 0.0026140 82.254 0.086760 30.447 0.032844 569.15 614.52 2.3396 1.6806 2.2708 208.36 0.25123 8.7608 0.021508
41.375 205.00 0.087377 330.99 337.72 1.4563 465.01 0.0021505 308.10 311.14 1.3718 1.7385 2.9342 607.43 0.0028338 81.338 0.086322 31.214 0.032037 570.04 615.32 2.3389 1.6879 2.2913 207.78 0.25037 8.8032 0.021696
42.375 209.73 0.089473 334.20 341.08 1.4665 463.21 0.0021588 310.94 314.06 1.3808 1.7432 2.9502 600.47 0.0030609 80.426 0.085885 31.998 0.031252 570.92 616.11 2.3381 1.6952 2.3125 207.19 0.24953 8.8463 0.021888
43.375 214.54 0.091616 337.42 344.47 1.4767 461.40 0.0021673 313.79 316.99 1.3899 1.7478 2.9667 593.50 0.0032957 79.520 0.085449 32.800 0.030488 571.79 616.88 2.3373 1.7027 2.3344 206.58 0.24871 8.8902 0.022084
44.375 219.43 0.093807 340.66 347.87 1.4869 459.56 0.0021760 316.65 319.94 1.3989 1.7525 2.9837 586.51 0.0035386 78.619 0.085015 33.622 0.029742 572.65 617.65 2.3365 1.7101 2.3569 205.96 0.24793 8.9349 0.022283
45.375 224.41 0.096048 343.92 351.28 1.4971 457.71 0.0021848 319.52 322.90 1.4080 1.7573 3.0012 579.50 0.0037900 77.723 0.084583 34.463 0.029016 573.50 618.40 2.3357 1.7177 2.3802 205.32 0.24717 8.9805 0.022485
46.375 229.46 0.098340 347.18 354.72 1.5074 455.83 0.0021938 322.41 325.88 1.4171 1.7621 3.0192 572.46 0.0040504 76.832 0.084152 35.325 0.028308 574.34 619.13 2.3349 1.7253 2.4042 204.67 0.24644 9.0269 0.022692
47.375 234.60 0.10069 350.47 358.17 1.5176 453.94 0.0022029 325.31 328.87 1.4262 1.7669 3.0377 565.41 0.0043202 75.946 0.083723 36.208 0.027618 575.17 619.85 2.3340 1.7329 2.4291 204.00 0.24573 9.0742 0.022903
48.375 239.83 0.10309 353.76 361.64 1.5279 452.03 0.0022123 328.22 331.88 1.4353 1.7718 3.0569 558.34 0.0046000 75.064 0.083295 37.112 0.026945 576.00 620.55 2.3332 1.7407 2.4548 203.31 0.24505 9.1224 0.023119
49.375 245.13 0.10554 357.08 365.12 1.5382 450.09 0.0022218 331.15 334.90 1.4445 1.7767 3.0766 551.24 0.0048904 74.186 0.082868 38.039 0.026289 576.81 621.24 2.3323 1.7485 2.4815 202.61 0.24440 9.1716 0.023339
50.375 250.53 0.10806 360.40 368.63 1.5485 448.13 0.0022315 334.09 337.94 1.4536 1.7817 3.0970 544.13 0.0051920 73.313 0.082442 38.989 0.025648 577.61 621.91 2.3314 1.7564 2.5092 201.89 0.24377 9.2219 0.023564
51.375 256.01 0.11064 363.75 372.15 1.5588 446.15 0.0022414 337.04 341.00 1.4628 1.7867 3.1181 536.98 0.0055054 72.443 0.082018 39.962 0.025024 578.39 622.56 2.3304 1.7644 2.5379 201.16 0.24317 9.2733 0.023794
52.375 261.57 0.11327 367.10 375.69 1.5691 444.15 0.0022515 340.01 344.07 1.4720 1.7918 3.1400 529.82 0.0058313 71.577 0.081595 40.961 0.024414 579.17 623.20 2.3295 1.7724 2.5677 200.41 0.24260 9.3258 0.024029
53.375 267.23 0.11598 370.48 379.25 1.5795 442.12 0.0022618 343.00 347.17 1.4812 1.7969 3.1627 522.62 0.0061705 70.715 0.081174 41.985 0.023818 579.93 623.81 2.3285 1.7805 2.5987 199.63 0.24205 9.3795 0.024270
54.375 272.97 0.11875 373.87 382.83 1.5898 440.06 0.0022724 346.00 350.28 1.4904 1.8021 3.1862 515.40 0.0065239 69.856 0.080753 43.036 0.023237 580.68 624.41 2.3274 1.7887 2.6310 198.85 0.24154 9.4344 0.024516
55.375 278.81 0.12159 377.27 386.43 1.6002 437.98 0.0022832 349.02 353.40 1.4997 1.8073 3.2106 508.15 0.0068923 69.001 0.080334 44.114 0.022669 581.41 624.99 2.3264 1.7969 2.6646 198.04 0.24105 9.4907 0.024769
56.375 284.74 0.12451 380.69 390.04 1.6106 435.87 0.0022943 352.05 356.55 1.5090 1.8126 3.2360 500.87 0.0072767 68.148 0.079915 45.221 0.022114 582.13 625.54 2.3253 1.8052 2.6998 197.22 0.24059 9.5484 0.025028
57.375 290.76 0.12750 384.13 393.68 1.6210 433.73 0.0023056 355.10 359.72 1.5183 1.8179 3.2624 493.56 0.0076782 67.299 0.079498 46.358 0.021571 582.83 626.07 2.3241 1.8136 2.7365 196.37 0.24016 9.6075 0.025294
58.375 296.87 0.13057 387.59 397.34 1.6315 431.56 0.0023172 358.17 362.91 1.5276 1.8233 3.2900 486.22 0.0080980 66.451 0.079082 47.525 0.021041 583.52 626.58 2.3230 1.8220 2.7749 195.51 0.23976 9.6682 0.025568
59.375 303.08 0.13372 391.06 401.01 1.6419 429.36 0.0023290 361.25 366.12 1.5370 1.8288 3.3188 478.84 0.0085373 65.606 0.078666 48.726 0.020523 584.18 627.07 2.3218 1.8305 2.8152 194.63 0.23939 9.7305 0.025849
60.375 309.38 0.13696 394.55 404.71 1.6524 427.13 0.0023412 364.36 369.35 1.5464 1.8343 3.3489 471.43 0.0089976 64.763 0.078251 49.960 0.020016 584.83 627.53 2.3205 1.8391 2.8576 193.73 0.23905 9.7945 0.026138
61.375 315.78 0.14029 398.06 408.43 1.6629 424.87 0.0023537 367.48 372.60 1.5558 1.8400 3.3805 463.99 0.0094803 63.922 0.077838 51.229 0.019520 585.46 627.96 2.3192 1.8479 2.9022 192.82 0.23873 9.8603 0.026436
62.375 322.28 0.14371 401.58 412.17 1.6734 422.56 0.0023665 370.62 375.88 1.5653 1.8457 3.4136 456.50 0.0099871 63.083 0.077425 52.535 0.019035 586.07 628.37 2.3178 1.8567 2.9492 191.88 0.23845 9.9281 0.026744
63.375 328.88 0.14723 405.13 415.93 1.6840 420.22 0.0023797 373.79 379.18 1.5748 1.8514 3.4483 448.97 0.010520 62.244 0.077012 53.879 0.018560 586.66 628.74 2.3164 1.8656 2.9989 190.92 0.23819 9.9979 0.027061
64.375 335.58 0.15086 408.69 419.71 1.6946 417.85 0.0023932 376.97 382.51 1.5844 1.8573 3.4850 441.40 0.011081 61.407 0.076600 55.265 0.018095 587.22 629.09 2.3149 1.8747 3.0517 189.95 0.23796 10.070 0.027389
65.375 342.38 0.15459 412.27 423.51 1.7052 415.42 0.0024072 380.18 385.86 1.5939 1.8633 3.5236 433.79 0.011672 60.570 0.076189 56.692 0.017639 587.76 629.40 2.3133 1.8839 3.1077 188.95 0.23775 10.144 0.027729
66.375 349.28 0.15844 415.87 427.34 1.7158 412.96 0.0024215 383.41 389.25 1.6036 1.8693 3.5645 426.12 0.012296 59.733 0.075779 58.165 0.017193 588.28 629.68 2.3117 1.8933 3.1674 187.93 0.23757 10.221 0.028080
67.375 356.28 0.16242 419.49 431.19 1.7264 410.45 0.0024363 386.67 392.65 1.6133 1.8755 3.6078 418.41 0.012956 58.897 0.075368 59.684 0.016755 588.76 629.92 2.3100 1.9030 3.2311 186.89 0.23740 10.300 0.028446
68.375 363.40 0.16652 423.13 435.06 1.7371 407.89 0.0024516 389.95 396.09 1.6230 1.8818 3.6537 410.64 0.013655 58.059 0.074959 61.253 0.016326 589.22 630.13 2.3082 1.9129 3.2994 185.83 0.23724 10.382 0.028825
69.375 370.61 0.17076 426.80 438.96 1.7478 405.28 0.0024674 393.26 399.57 1.6328 1.8882 3.7027 402.81 0.014396 57.221 0.074549 62.875 0.015905 589.65 630.29 2.3064 1.9231 3.3727 184.74 0.23710 10.467 0.029221
70.375 377.94 0.17514 430.48 442.89 1.7585 402.62 0.0024838 396.60 403.07 1.6426 1.8947 3.7550 394.92 0.015183 56.381 0.074141 64.552 0.015491 590.04 630.41 2.3044 1.9336 3.4518 183.63 0.23697 10.555 0.029633
71.375 385.37 0.17968 434.18 446.83 1.7693 399.89 0.0025007 399.96 406.61 1.6525 1.9014 3.8109 386.97 0.016021 55.540 0.073732 66.288 0.015086 590.40 630.49 2.3024 1.9444 3.5371 182.50 0.23684 10.647 0.030064
72.375 392.92 0.18438 437.91 450.81 1.7801 397.11 0.0025182 403.36 410.18 1.6625 1.9083 3.8711 378.95 0.016915 54.696 0.073324 68.087 0.014687 590.73 630.51 2.3002 1.9556 3.6297 181.34 0.23671 10.743 0.030515
73.375 400.57 0.18926 441.66 454.81 1.7909 394.26 0.0025364 406.79 413.80 1.6726 1.9153 3.9359 370.85 0.017871 53.848 0.072917 69.953 0.014295 591.01 630.49 2.2979 1.9673 3.7303 180.16 0.23658 10.842 0.030989
74.375 408.34 0.19433 445.43 458.84 1.8018 391.34 0.0025553 410.26 417.45 1.6827 1.9226 4.0060 362.67 0.018894 52.997 0.072510 71.890 0.013910 591.25 630.41 2.2955 1.9793 3.8401 178.95 0.23643 10.946 0.031488
75.375 416.23 0.19960 449.23 462.89 1.8127 388.34 0.0025751 413.76 421.15 1.6930 1.9301 4.0822 354.41 0.019993 52.142 0.072104 73.904 0.013531 591.44 630.27 2.2930 1.9919 3.9604 177.71 0.23627 11.054 0.032014
76.375 424.23 0.20510 453.05 466.98 1.8237 385.26 0.0025957 417.31 424.90 1.7033 1.9378 4.1654 346.06 0.021177 51.281 0.071699 76.001 0.013158 591.59 630.07 2.2903 2.0050 4.0927 176.44 0.23609 11.168 0.032570
77.375 432.35 0.21083 456.90 471.09 1.8347 382.09 0.0026172 420.89 428.70 1.7137 1.9459 4.2565 337.60 0.022455 50.414 0.071295 78.187 0.012790 591.68 629.80 2.2874 2.0186 4.2389 175.15 0.23588 11.287 0.033161
78.375 440.59 0.21683 460.78 475.24 1.8457 378.83 0.0026397 424.53 432.54 1.7243 1.9543 4.3570 329.05 0.023838 49.539 0.070893 80.469 0.012427 591.71 629.46 2.2844 2.0328 4.4012 173.82 0.23563 11.412 0.033789
79.375 448.95 0.22311 464.68 479.42 1.8568 375.46 0.0026634 428.21 436.45 1.7349 1.9631 4.4684 320.38 0.025341 48.657 0.070494 82.856 0.012069 591.68 629.04 2.2812 2.0475 4.5824 172.46 0.23535 11.544 0.034461
80.375 457.44 0.22971 468.61 483.63 1.8679 371.97 0.0026884 431.94 440.42 1.7457 1.9723 4.5928 311.58 0.026980 47.764 0.070099 85.359 0.011715 591.58 628.53 2.2778 2.0630 4.7859 171.07 0.23501 11.684 0.035181
81.375 466.05 0.23665 472.58 487.88 1.8791 368.36 0.0027147 435.74 444.46 1.7567 1.9820 4.7327 302.66 0.028773 46.860 0.069708 87.988 0.011365 591.40 627.92 2.2742 2.0791 5.0161 169.64 0.23461 11.832 0.035957
82.375 474.79 0.24399 476.58 492.16 1.8904 364.61 0.0027427 439.60 448.58 1.7678 1.9924 4.8914 293.60 0.030744 45.942 0.069323 90.757 0.011018 591.14 627.21 2.2703 2.0959 5.2786 168.17 0.23413 11.989 0.036797
83.375 483.66 0.25177 480.61 496.49 1.9017 360.70 0.0027724 443.53 452.78 1.7791 2.0034 5.0731 284.38 0.032920 45.010 0.068948 93.681 0.010674 590.79 626.38 2.2661 2.1136 5.5807 166.67 0.23357 12.157 0.037711
84.375 492.67 0.26005 484.67 500.85 1.9131 356.61 0.0028041 447.54 457.07 1.7907 2.0153 5.2834 275.00 0.035335 44.059 0.068586 96.781 0.010333 590.33 625.42 2.2616 2.1321 5.9321 165.13 0.23290 12.338 0.038713
85.375 501.81 0.26890 488.78 505.26 1.9246 352.33 0.0028382 451.65 461.47 1.8025 2.0281 5.5302 265.44 0.038030 43.088 0.068241 100.08 0.0099920 589.74 624.31 2.2567 2.1517 6.3459 163.54 0.23209 12.532 0.039819
86.375 511.09 0.27842 492.93 509.71 1.9362 347.82 0.0028751 455.85 465.98 1.8145 2.0420 5.8240 255.69 0.041058 42.092 0.067923 103.61 0.0096520 589.03 623.04 2.2514 2.1723 6.8405 161.91 0.23112 12.743 0.041051
87.375 520.51 0.28873 497.13 514.21 1.9478 343.04 0.0029151 460.18 470.64 1.8269 2.0574 6.1803 245.72 0.044485 41.066 0.067640 107.40 0.0093114 588.15 621.56 2.2456 2.1943 7.4422 160.23 0.22995 12.973 0.042436
88.375 530.07 0.29998 501.37 518.77 1.9596 337.95 0.0029590 464.64 475.45 1.8397 2.0745 6.6221 235.52 0.048397 40.005 0.067412 111.50 0.0089689 587.08 619.86 2.2392 2.2178 8.1900 158.49 0.22854 13.226 0.044014
89.375 539.79 0.31241 505.67 523.39 1.9714 332.48 0.0030077 469.27 480.46 1.8530 2.0936 7.1851 225.04 0.052906 38.901 0.067265 115.97 0.0086228 585.79 617.88 2.2321 2.2433 9.1445 156.69 0.22681 13.508 0.045839
90.375 549.66 0.32631 510.03 528.08 1.9835 326.55 0.0030623 474.10 485.71 1.8669 2.1156 7.9284 214.26 0.058166 37.742 0.067243 120.91 0.0082708 584.22 615.56 2.2241 2.2711 10.405 154.82 0.22467 13.825 0.047992
91.375 559.68 0.34215 514.47 532.84 1.9956 320.03 0.0031247 479.19 491.25 1.8815 2.1412 8.9568 203.11 0.064389 36.514 0.067421 126.43 0.0079097 582.29 612.82 2.2150 2.3019 12.146 152.85 0.22200 14.189 0.050600
92.375 569.87 0.36069 518.99 537.70 2.0080 312.73 0.0031976 484.62 497.18 1.8972 2.1718 10.475 191.54 0.071885 35.195 0.067931 132.72 0.0075346 579.91 609.51 2.2045 2.3370 14.705 150.75 0.21862 14.618 0.053877
93.375 580.24 0.38326 523.61 542.67 2.0207 304.34 0.0032858 490.52 503.67 1.9143 2.2100 12.945 179.43 0.081133 33.755 0.069025 140.11 0.0071373 576.87 605.42 2.1919 2.3779 18.828 148.48 0.21421 15.146 0.058225
94.375 590.79 0.41265 528.39 547.78 2.0337 294.25 0.0033985 497.17 511.01 1.9336 2.2603 17.657 166.61 0.092934 32.154 0.071243 149.20 0.0067025 572.82 600.12 2.1761 2.4283 26.557 145.93 0.20825 15.847 0.064529
95.375 601.53 0.45658 533.39 553.13 2.0472 280.99 0.0035589 505.21 519.97 1.9572 2.3343 30.014 152.73 0.10888 30.366 0.076197 161.45 0.0061937 566.92 592.61 2.1544 2.4956 46.113 142.79 0.19953 16.960 0.075419
96.375 612.50 0.56211 538.89 559.00 2.0622 258.02 0.0038757 517.56 533.93 1.9943 2.4799 125.86 136.81 0.13399 28.436 0.097271 183.41 0.0054523 555.50 578.53 2.1150 2.6070 182.91 137.67 0.18336 19.789 0.10964
97.375 623.45 undefined 543.05 563.51 2.0734 210.00 0.0047619 543.05 563.51 2.0734 2.6262 245.63 134.29 0.16417 23.215 0.11610 210.00 0.0047619 543.05 563.51 2.0734 2.6262 245.63 134.29 0.16417 23.215 0.11610
98.375 634.28 undefined 545.64 566.46 2.0804 210.00 0.0047619 545.64 566.46 2.0804 2.5559 97.286 137.31 0.16131 22.267 0.092469 210.00 0.0047619 545.64 566.46 2.0804 2.5559 97.286 137.31 0.16131 22.267 0.092469
99.375 645.10 undefined 548.16 569.34 2.0872 210.00 0.0047619 548.16 569.34 2.0872 2.4976 59.831 140.17 0.15840 21.792 0.083208 210.00 0.0047619 548.16 569.34 2.0872 2.4976 59.831 140.17 0.15840 21.792 0.083208
100.38 655.92 undefined 550.63 572.17 2.0938 210.00 0.0047619 550.63 572.17 2.0938 2.4494 42.958 142.87 0.15549 21.559 0.077699 210.00 0.0047619 550.63 572.17 2.0938 2.4494 42.958 142.87 0.15549 21.559 0.077699
101.38 666.74 undefined 553.06 574.95 2.1003 210.00 0.0047619 553.06 574.95 2.1003 2.4095 33.447 145.41 0.15258 21.452 0.073895 210.00 0.0047619 553.06 574.95 2.1003 2.4095 33.447 145.41 0.15258 21.452 0.073895
102.38 677.57 undefined 555.46 577.70 2.1067 210.00 0.0047619 555.46 577.70 2.1067 2.3767 27.385 147.82 0.14970 21.409 0.071064 210.00 0.0047619 555.46 577.70 2.1067 2.3767 27.385 147.82 0.14970 21.409 0.071064
103.38 688.39 undefined 557.82 580.42 2.1130 210.00 0.0047619 557.82 580.42 2.1130 2.3496 23.208 150.11 0.14686 21.401 0.068858 210.00 0.0047619 557.82 580.42 2.1130 2.3496 23.208 150.11 0.14686 21.401 0.068858
104.38 699.22 undefined 560.16 583.11 2.1192 210.00 0.0047619 560.16 583.11 2.1192 2.3271 20.167 152.30 0.14407 21.410 0.067086 210.00 0.0047619 560.16 583.11 2.1192 2.3271 20.167 152.30 0.14407 21.410 0.067086
105.38 710.06 undefined 562.47 585.79 2.1253 210.00 0.0047619 562.47 585.79 2.1253 2.3085 17.863 154.40 0.14133 21.430 0.065630 210.00 0.0047619 562.47 585.79 2.1253 2.3085 17.863 154.40 0.14133 21.430 0.065630
106.38 720.90 undefined 564.77 588.44 2.1314 210.00 0.0047619 564.77 588.44 2.1314 2.2929 16.061 156.42 0.13864 21.454 0.064411 210.00 0.0047619 564.77 588.44 2.1314 2.2929 16.061 156.42 0.13864 21.454 0.064411
107.38 731.74 undefined 567.06 591.08 2.1374 210.00 0.0047619 567.06 591.08 2.1374 2.2798 14.616 158.37 0.13602 21.482 0.063376 210.00 0.0047619 567.06 591.08 2.1374 2.2798 14.616 158.37 0.13602 21.482 0.063376
108.38 742.59 undefined 569.33 593.72 2.1433 210.00 0.0047619 569.33 593.72 2.1433 2.2687 13.434 160.27 0.13345 21.511 0.062489 210.00 0.0047619 569.33 593.72 2.1433 2.2687 13.434 160.27 0.13345 21.511 0.062489
109.38 753.45 undefined 571.60 596.34 2.1493 210.00 0.0047619 571.60 596.34 2.1493 2.2593 12.449 162.13 0.13095 21.541 0.061720 210.00 0.0047619 571.60 596.34 2.1493 2.2593 12.449 162.13 0.13095 21.541 0.061720
110.38 764.30 undefined 573.85 598.95 2.1551 210.00 0.0047619 573.85 598.95 2.1551 2.2512 11.618 163.94 0.12851 21.572 0.061050 210.00 0.0047619 573.85 598.95 2.1551 2.2512 11.618 163.94 0.12851 21.572 0.061050
111.38 775.17 undefined 576.10 601.55 2.1610 210.00 0.0047619 576.10 601.55 2.1610 2.2442 10.908 165.72 0.12614 21.604 0.060462 210.00 0.0047619 576.10 601.55 2.1610 2.2442 10.908 165.72 0.12614 21.604 0.060462
112.38 786.04 undefined 578.34 604.15 2.1668 210.00 0.0047619 578.34 604.15 2.1668 2.2381 10.294 167.47 0.12382 21.635 0.059944 210.00 0.0047619 578.34 604.15 2.1668 2.2381 10.294 167.47 0.12382 21.635 0.059944
113.38 796.91 undefined 580.58 606.74 2.1726 210.00 0.0047619 580.58 606.74 2.1726 2.2328 9.7590 169.20 0.12157 21.667 0.059485 210.00 0.0047619 580.58 606.74 2.1726 2.2328 9.7590 169.20 0.12157 21.667 0.059485
114.38 807.79 undefined 582.81 609.33 2.1784 210.00 0.0047619 582.81 609.33 2.1784 2.2281 9.2883 170.90 0.11937 21.699 0.059078 210.00 0.0047619 582.81 609.33 2.1784 2.2281 9.2883 170.90 0.11937 21.699 0.059078
115.38 818.68 undefined 585.03 611.91 2.1841 210.00 0.0047619 585.03 611.91 2.1841 2.2240 8.8714 172.58 0.11724 21.731 0.058715 210.00 0.0047619 585.03 611.91 2.1841 2.2240 8.8714 172.58 0.11724 21.731 0.058715
116.38 829.57 undefined 587.26 614.49 2.1898 210.00 0.0047619 587.26 614.49 2.1898 2.2204 8.4997 174.23 0.11516 21.763 0.058393 210.00 0.0047619 587.26 614.49 2.1898 2.2204 8.4997 174.23 0.11516 21.763 0.058393
117.38 840.46 undefined 589.47 617.07 2.1955 210.00 0.0047619 589.47 617.07 2.1955 2.2172 8.1665 175.87 0.11313 21.796 0.058105 210.00 0.0047619 589.47 617.07 2.1955 2.2172 8.1665 175.87 0.11313 21.796 0.058105
118.38 851.35 undefined 591.69 619.64 2.2012 210.00 0.0047619 591.69 619.64 2.2012 2.2145 7.8661 177.50 0.11116 21.828 0.057848 210.00 0.0047619 591.69 619.64 2.2012 2.2145 7.8661 177.50 0.11116 21.828 0.057848
119.38 862.25 undefined 593.90 622.21 2.2068 210.00 0.0047619 593.90 622.21 2.2068 2.2121 7.5940 179.10 0.10923 21.860 0.057620 210.00 0.0047619 593.90 622.21 2.2068 2.2121 7.5940 179.10 0.10923 21.860 0.057620
120.38 873.16 undefined 596.11 624.78 2.2125 210.00 0.0047619 596.11 624.78 2.2125 2.2100 7.3466 180.69 0.10736 21.892 0.057416 210.00 0.0047619 596.11 624.78 2.2125 2.2100 7.3466 180.69 0.10736 21.892 0.057416
121.38 884.06 undefined 598.32 627.35 2.2181 210.00 0.0047619 598.32 627.35 2.2181 2.2082 7.1207 182.26 0.10554 21.924 0.057234 210.00 0.0047619 598.32 627.35 2.2181 2.2082 7.1207 182.26 0.10554 21.924 0.057234
122.38 894.97 undefined 600.53 629.92 2.2236 210.00 0.0047619 600.53 629.92 2.2236 2.2067 6.9137 183.82 0.10376 21.956 0.057073 210.00 0.0047619 600.53 629.92 2.2236 2.2067 6.9137 183.82 0.10376 21.956 0.057073
123.38 905.89 undefined 602.74 632.48 2.2292 210.00 0.0047619 602.74 632.48 2.2292 2.2054 6.7234 185.37 0.10203 21.988 0.056930 210.00 0.0047619 602.74 632.48 2.2292 2.2054 6.7234 185.37 0.10203 21.988 0.056930
124.38 916.81 undefined 604.94 635.04 2.2348 210.00 0.0047619 604.94 635.04 2.2348 2.2044 6.5479 186.90 0.10034 22.020 0.056804 210.00 0.0047619 604.94 635.04 2.2348 2.2044 6.5479 186.90 0.10034 22.020 0.056804
125.38 927.72 undefined 607.15 637.61 2.2403 210.00 0.0047619 607.15 637.61 2.2403 2.2036 6.3856 188.42 0.098688 22.052 0.056693 210.00 0.0047619 607.15 637.61 2.2403 2.2036 6.3856 188.42 0.098688 22.052 0.056693
126.38 938.65 undefined 609.35 640.17 2.2458 210.00 0.0047619 609.35 640.17 2.2458 2.2031 6.2351 189.92 0.097081 22.084 0.056597 210.00 0.0047619 609.35 640.17 2.2458 2.2031 6.2351 189.92 0.097081 22.084 0.056597
127.38 949.57 undefined 611.55 642.73 2.2513 210.00 0.0047619 611.55 642.73 2.2513 2.2027 6.0952 191.42 0.095512 22.116 0.056513 210.00 0.0047619 611.55 642.73 2.2513 2.2027 6.0952 191.42 0.095512 22.116 0.056513
128.38 960.50 undefined 613.75 645.29 2.2568 210.00 0.0047619 613.75 645.29 2.2568 2.2025 5.9649 192.90 0.093982 22.148 0.056441 210.00 0.0047619 613.75 645.29 2.2568 2.2025 5.9649 192.90 0.093982 22.148 0.056441
129.38 971.43 undefined 615.96 647.85 2.2623 210.00 0.0047619 615.96 647.85 2.2623 2.2025 5.8433 194.37 0.092489 22.179 0.056380 210.00 0.0047619 615.96 647.85 2.2623 2.2025 5.8433 194.37 0.092489 22.179 0.056380
130.38 982.36 undefined 618.16 650.41 2.2678 210.00 0.0047619 618.16 650.41 2.2678 2.2026 5.7296 195.83 0.091031 22.211 0.056329 210.00 0.0047619 618.16 650.41 2.2678 2.2026 5.7296 195.83 0.091031 22.211 0.056329
131.38 993.29 undefined 620.36 652.97 2.2732 210.00 0.0047619 620.36 652.97 2.2732 2.2030 5.6230 197.27 0.089607 22.243 0.056287 210.00 0.0047619 620.36 652.97 2.2732 2.2030 5.6230 197.27 0.089607 22.243 0.056287
132.38 1004.2 undefined 622.57 655.54 2.2787 210.00 0.0047619 622.57 655.54 2.2787 2.2034 5.5229 198.71 0.088216 22.275 0.056254 210.00 0.0047619 622.57 655.54 2.2787 2.2034 5.5229 198.71 0.088216 22.275 0.056254
133.38 1015.2 undefined 624.77 658.10 2.2841 210.00 0.0047619 624.77 658.10 2.2841 2.2040 5.4289 200.13 0.086858 22.306 0.056229 210.00 0.0047619 624.77 658.10 2.2841 2.2040 5.4289 200.13 0.086858 22.306 0.056229
134.38 1026.1 undefined 626.97 660.66 2.2895 210.00 0.0047619 626.97 660.66 2.2895 2.2047 5.3403 201.55 0.085531 22.338 0.056212 210.00 0.0047619 626.97 660.66 2.2895 2.2047 5.3403 201.55 0.085531 22.338 0.056212
135.38 1037.1 undefined 629.18 663.23 2.2949 210.00 0.0047619 629.18 663.23 2.2949 2.2056 5.2568 202.95 0.084234 22.369 0.056201 210.00 0.0047619 629.18 663.23 2.2949 2.2056 5.2568 202.95 0.084234 22.369 0.056201
136.38 1048.0 undefined 631.39 665.79 2.3003 210.00 0.0047619 631.39 665.79 2.3003 2.2066 5.1779 204.35 0.082967 22.401 0.056197 210.00 0.0047619 631.39 665.79 2.3003 2.2066 5.1779 204.35 0.082967 22.401 0.056197
137.38 1058.9 undefined 633.59 668.36 2.3057 210.00 0.0047619 633.59 668.36 2.3057 2.2076 5.1034 205.74 0.081728 22.432 0.056199 210.00 0.0047619 633.59 668.36 2.3057 2.2076 5.1034 205.74 0.081728 22.432 0.056199
138.38 1069.9 undefined 635.80 670.93 2.3111 210.00 0.0047619 635.80 670.93 2.3111 2.2088 5.0328 207.11 0.080516 22.464 0.056207 210.00 0.0047619 635.80 670.93 2.3111 2.2088 5.0328 207.11 0.080516 22.464 0.056207
139.38 1080.8 undefined 638.01 673.50 2.3164 210.00 0.0047619 638.01 673.50 2.3164 2.2101 4.9658 208.48 0.079331 22.495 0.056220 210.00 0.0047619 638.01 673.50 2.3164 2.2101 4.9658 208.48 0.079331 22.495 0.056220
140.38 1091.8 undefined 640.22 676.07 2.3218 210.00 0.0047619 640.22 676.07 2.3218 2.2115 4.9024 209.84 0.078172 22.527 0.056238 210.00 0.0047619 640.22 676.07 2.3218 2.2115 4.9024 209.84 0.078172 22.527 0.056238
141.38 1102.7 undefined 642.43 678.64 2.3271 210.00 0.0047619 642.43 678.64 2.3271 2.2130 4.8420 211.19 0.077039 22.558 0.056261 210.00 0.0047619 642.43 678.64 2.3271 2.2130 4.8420 211.19 0.077039 22.558 0.056261
142.38 1113.7 undefined 644.65 681.21 2.3325 210.00 0.0047619 644.65 681.21 2.3325 2.2145 4.7847 212.53 0.075929 22.589 0.056289 210.00 0.0047619 644.65 681.21 2.3325 2.2145 4.7847 212.53 0.075929 22.589 0.056289
143.38 1124.6 undefined 646.86 683.79 2.3378 210.00 0.0047619 646.86 683.79 2.3378 2.2161 4.7301 213.86 0.074844 22.621 0.056320 210.00 0.0047619 646.86 683.79 2.3378 2.2161 4.7301 213.86 0.074844 22.621 0.056320
144.38 1135.6 undefined 649.08 686.36 2.3431 210.00 0.0047619 649.08 686.36 2.3431 2.2179 4.6781 215.19 0.073781 22.652 0.056356 210.00 0.0047619 649.08 686.36 2.3431 2.2179 4.6781 215.19 0.073781 22.652 0.056356
145.38 1146.5 undefined 651.30 688.94 2.3484 210.00 0.0047619 651.30 688.94 2.3484 2.2196 4.6286 216.51 0.072741 22.683 0.056395 210.00 0.0047619 651.30 688.94 2.3484 2.2196 4.6286 216.51 0.072741 22.683 0.056395
146.38 1157.5 undefined 653.52 691.52 2.3537 210.00 0.0047619 653.52 691.52 2.3537 2.2215 4.5813 217.82 0.071723 22.714 0.056438 210.00 0.0047619 653.52 691.52 2.3537 2.2215 4.5813 217.82 0.071723 22.714 0.056438
147.38 1168.5 undefined 655.74 694.10 2.3590 210.00 0.0047619 655.74 694.10 2.3590 2.2234 4.5361 219.12 0.070725 22.745 0.056484 210.00 0.0047619 655.74 694.10 2.3590 2.2234 4.5361 219.12 0.070725 22.745 0.056484
148.38 1179.4 undefined 657.97 696.69 2.3643 210.00 0.0047619 657.97 696.69 2.3643 2.2253 4.4929 220.41 0.069749 22.777 0.056533 210.00 0.0047619 657.97 696.69 2.3643 2.2253 4.4929 220.41 0.069749 22.777 0.056533
149.38 1190.4 undefined 660.19 699.27 2.3696 210.00 0.0047619 660.19 699.27 2.3696 2.2274 4.4516 221.70 0.068792 22.808 0.056586 210.00 0.0047619 660.19 699.27 2.3696 2.2274 4.4516 221.70 0.068792 22.808 0.056586
150.38 1201.3 undefined 662.42 701.86 2.3748 210.00 0.0047619 662.42 701.86 2.3748 2.2295 4.4121 222.98 0.067854 22.839 0.056641 210.00 0.0047619 662.42 701.86 2.3748 2.2295 4.4121 222.98 0.067854 22.839 0.056641
151.38 1212.3 undefined 664.65 704.45 2.3801 210.00 0.0047619 664.65 704.45 2.3801 2.2316 4.3742 224.25 0.066936 22.870 0.056699 210.00 0.0047619 664.65 704.45 2.3801 2.2316 4.3742 224.25 0.066936 22.870 0.056699
152.38 1223.3 undefined 666.88 707.05 2.3853 210.00 0.0047619 666.88 707.05 2.3853 2.2338 4.3380 225.52 0.066035 22.900 0.056760 210.00 0.0047619 666.88 707.05 2.3853 2.2338 4.3380 225.52 0.066035 22.900 0.056760
153.38 1234.2 undefined 669.12 709.64 2.3906 210.00 0.0047619 669.12 709.64 2.3906 2.2360 4.3032 226.78 0.065153 22.931 0.056823 210.00 0.0047619 669.12 709.64 2.3906 2.2360 4.3032 226.78 0.065153 22.931 0.056823
154.38 1245.2 undefined 671.36 712.24 2.3958 210.00 0.0047619 671.36 712.24 2.3958 2.2383 4.2698 228.03 0.064288 22.962 0.056889 210.00 0.0047619 671.36 712.24 2.3958 2.2383 4.2698 228.03 0.064288 22.962 0.056889
155.38 1256.1 undefined 673.59 714.84 2.4010 210.00 0.0047619 673.59 714.84 2.4010 2.2406 4.2377 229.28 0.063439 22.993 0.056957 210.00 0.0047619 673.59 714.84 2.4010 2.2406 4.2377 229.28 0.063439 22.993 0.056957
156.38 1267.1 undefined 675.84 717.44 2.4063 210.00 0.0047619 675.84 717.44 2.4063 2.2429 4.2069 230.52 0.062608 23.024 0.057027 210.00 0.0047619 675.84 717.44 2.4063 2.2429 4.2069 230.52 0.062608 23.024 0.057027
157.38 1278.1 undefined 678.08 720.04 2.4115 210.00 0.0047619 678.08 720.04 2.4115 2.2453 4.1773 231.75 0.061792 23.055 0.057099 210.00 0.0047619 678.08 720.04 2.4115 2.2453 4.1773 231.75 0.061792 23.055 0.057099
158.38 1289.0 undefined 680.33 722.65 2.4167 210.00 0.0047619 680.33 722.65 2.4167 2.2478 4.1489 232.98 0.060992 23.085 0.057173 210.00 0.0047619 680.33 722.65 2.4167 2.2478 4.1489 232.98 0.060992 23.085 0.057173
159.38 1300.0 undefined 682.58 725.26 2.4219 210.00 0.0047619 682.58 725.26 2.4219 2.2502 4.1215 234.20 0.060207 23.116 0.057249 210.00 0.0047619 682.58 725.26 2.4219 2.2502 4.1215 234.20 0.060207 23.116 0.057249
160.38 1311.0 undefined 684.83 727.87 2.4271 210.00 0.0047619 684.83 727.87 2.4271 2.2527 4.0951 235.42 0.059436 23.147 0.057327 210.00 0.0047619 684.83 727.87 2.4271 2.2527 4.0951 235.42 0.059436 23.147 0.057327
161.38 1321.9 undefined 687.08 730.48 2.4323 210.00 0.0047619 687.08 730.48 2.4323 2.2552 4.0698 236.62 0.058681 23.177 0.057407 210.00 0.0047619 687.08 730.48 2.4323 2.2552 4.0698 236.62 0.058681 23.177 0.057407
162.38 1332.9 undefined 689.34 733.10 2.4375 210.00 0.0047619 689.34 733.10 2.4375 2.2578 4.0453 237.83 0.057939 23.208 0.057489 210.00 0.0047619 689.34 733.10 2.4375 2.2578 4.0453 237.83 0.057939 23.208 0.057489
163.38 1343.8 undefined 691.60 735.72 2.4427 210.00 0.0047619 691.60 735.72 2.4427 2.2604 4.0218 239.03 0.057211 23.238 0.057572 210.00 0.0047619 691.60 735.72 2.4427 2.2604 4.0218 239.03 0.057211 23.238 0.057572
164.38 1354.8 undefined 693.86 738.34 2.4478 210.00 0.0047619 693.86 738.34 2.4478 2.2630 3.9990 240.22 0.056496 23.269 0.057656 210.00 0.0047619 693.86 738.34 2.4478 2.2630 3.9990 240.22 0.056496 23.269 0.057656
165.38 1365.8 undefined 696.12 740.96 2.4530 210.00 0.0047619 696.12 740.96 2.4530 2.2656 3.9771 241.41 0.055794 23.299 0.057743 210.00 0.0047619 696.12 740.96 2.4530 2.2656 3.9771 241.41 0.055794 23.299 0.057743
166.38 1376.7 undefined 698.39 743.59 2.4582 210.00 0.0047619 698.39 743.59 2.4582 2.2683 3.9560 242.59 0.055105 23.330 0.057830 210.00 0.0047619 698.39 743.59 2.4582 2.2683 3.9560 242.59 0.055105 23.330 0.057830
167.38 1387.7 undefined 700.66 746.22 2.4633 210.00 0.0047619 700.66 746.22 2.4633 2.2710 3.9356 243.76 0.054428 23.360 0.057919 210.00 0.0047619 700.66 746.22 2.4633 2.2710 3.9356 243.76 0.054428 23.360 0.057919
168.38 1398.7 undefined 702.93 748.85 2.4685 210.00 0.0047619 702.93 748.85 2.4685 2.2737 3.9159 244.94 0.053763 23.390 0.058010 210.00 0.0047619 702.93 748.85 2.4685 2.2737 3.9159 244.94 0.053763 23.390 0.058010
169.38 1409.6 undefined 705.21 751.49 2.4736 210.00 0.0047619 705.21 751.49 2.4736 2.2764 3.8969 246.10 0.053110 23.421 0.058102 210.00 0.0047619 705.21 751.49 2.4736 2.2764 3.8969 246.10 0.053110 23.421 0.058102
170.38 1420.6 undefined 707.48 754.13 2.4788 210.00 0.0047619 707.48 754.13 2.4788 2.2791 3.8785 247.26 0.052469 23.451 0.058195 210.00 0.0047619 707.48 754.13 2.4788 2.2791 3.8785 247.26 0.052469 23.451 0.058195
171.38 1431.6 undefined 709.76 756.77 2.4839 210.00 0.0047619 709.76 756.77 2.4839 2.2819 3.8607 248.42 0.051838 23.481 0.058289 210.00 0.0047619 709.76 756.77 2.4839 2.2819 3.8607 248.42 0.051838 23.481 0.058289
172.38 1442.5 undefined 712.05 759.41 2.4890 210.00 0.0047619 712.05 759.41 2.4890 2.2847 3.8435 249.57 0.051219 23.511 0.058385 210.00 0.0047619 712.05 759.41 2.4890 2.2847 3.8435 249.57 0.051219 23.511 0.058385
173.38 1453.5 undefined 714.33 762.06 2.4942 210.00 0.0047619 714.33 762.06 2.4942 2.2875 3.8269 250.71 0.050610 23.541 0.058482 210.00 0.0047619 714.33 762.06 2.4942 2.2875 3.8269 250.71 0.050610 23.541 0.058482
174.38 1464.4 undefined 716.62 764.70 2.4993 210.00 0.0047619 716.62 764.70 2.4993 2.2903 3.8109 251.85 0.050012 23.572 0.058579 210.00 0.0047619 716.62 764.70 2.4993 2.2903 3.8109 251.85 0.050012 23.572 0.058579
175.38 1475.4 undefined 718.92 767.36 2.5044 210.00 0.0047619 718.92 767.36 2.5044 2.2932 3.7953 252.99 0.049424 23.602 0.058678 210.00 0.0047619 718.92 767.36 2.5044 2.2932 3.7953 252.99 0.049424 23.602 0.058678
176.38 1486.4 undefined 721.21 770.01 2.5095 210.00 0.0047619 721.21 770.01 2.5095 2.2960 3.7803 254.12 0.048845 23.632 0.058778 210.00 0.0047619 721.21 770.01 2.5095 2.2960 3.7803 254.12 0.048845 23.632 0.058778
177.38 1497.3 undefined 723.51 772.67 2.5146 210.00 0.0047619 723.51 772.67 2.5146 2.2989 3.7657 255.25 0.048277 23.662 0.058880 210.00 0.0047619 723.51 772.67 2.5146 2.2989 3.7657 255.25 0.048277 23.662 0.058880
178.38 1508.3 undefined 725.81 775.33 2.5197 210.00 0.0047619 725.81 775.33 2.5197 2.3018 3.7516 256.37 0.047718 23.692 0.058982 210.00 0.0047619 725.81 775.33 2.5197 2.3018 3.7516 256.37 0.047718 23.692 0.058982
179.38 1519.2 undefined 728.11 777.99 2.5248 210.00 0.0047619 728.11 777.99 2.5248 2.3047 3.7380 257.49 0.047168 23.722 0.059085 210.00 0.0047619 728.11 777.99 2.5248 2.3047 3.7380 257.49 0.047168 23.722 0.059085
180.38 1530.2 undefined 730.42 780.66 2.5299 210.00 0.0047619 730.42 780.66 2.5299 2.3076 3.7248 258.60 0.046627 23.752 0.059189 210.00 0.0047619 730.42 780.66 2.5299 2.3076 3.7248 258.60 0.046627 23.752 0.059189
181.38 1541.2 undefined 732.73 783.33 2.5350 210.00 0.0047619 732.73 783.33 2.5350 2.3105 3.7120 259.71 0.046095 23.781 0.059294 210.00 0.0047619 732.73 783.33 2.5350 2.3105 3.7120 259.71 0.046095 23.781 0.059294
182.38 1552.1 undefined 735.04 786.00 2.5401 210.00 0.0047619 735.04 786.00 2.5401 2.3135 3.6996 260.81 0.045572 23.811 0.059400 210.00 0.0047619 735.04 786.00 2.5401 2.3135 3.6996 260.81 0.045572 23.811 0.059400
183.38 1563.1 undefined 737.35 788.67 2.5452 210.00 0.0047619 737.35 788.67 2.5452 2.3164 3.6876 261.91 0.045057 23.841 0.059506 210.00 0.0047619 737.35 788.67 2.5452 2.3164 3.6876 261.91 0.045057 23.841 0.059506
184.38 1574.0 undefined 739.67 791.35 2.5502 210.00 0.0047619 739.67 791.35 2.5502 2.3194 3.6759 263.01 0.044550 23.871 0.059614 210.00 0.0047619 739.67 791.35 2.5502 2.3194 3.6759 263.01 0.044550 23.871 0.059614
185.38 1585.0 undefined 741.99 794.03 2.5553 210.00 0.0047619 741.99 794.03 2.5553 2.3223 3.6646 264.10 0.044052 23.901 0.059722 210.00 0.0047619 741.99 794.03 2.5553 2.3223 3.6646 264.10 0.044052 23.901 0.059722
186.38 1595.9 undefined 744.32 796.71 2.5604 210.00 0.0047619 744.32 796.71 2.5604 2.3253 3.6537 265.18 0.043561 23.930 0.059832 210.00 0.0047619 744.32 796.71 2.5604 2.3253 3.6537 265.18 0.043561 23.930 0.059832
187.38 1606.9 undefined 746.64 799.40 2.5654 210.00 0.0047619 746.64 799.40 2.5654 2.3283 3.6431 266.27 0.043078 23.960 0.059942 210.00 0.0047619 746.64 799.40 2.5654 2.3283 3.6431 266.27 0.043078 23.960 0.059942
188.38 1617.9 undefined 748.97 802.09 2.5705 210.00 0.0047619 748.97 802.09 2.5705 2.3313 3.6328 267.34 0.042602 23.990 0.060053 210.00 0.0047619 748.97 802.09 2.5705 2.3313 3.6328 267.34 0.042602 23.990 0.060053
189.38 1628.8 undefined 751.30 804.78 2.5755 210.00 0.0047619 751.30 804.78 2.5755 2.3343 3.6228 268.42 0.042134 24.019 0.060164 210.00 0.0047619 751.30 804.78 2.5755 2.3343 3.6228 268.42 0.042134 24.019 0.060164
190.38 1639.8 undefined 753.64 807.48 2.5806 210.00 0.0047619 753.64 807.48 2.5806 2.3374 3.6132 269.49 0.041674 24.049 0.060277 210.00 0.0047619 753.64 807.48 2.5806 2.3374 3.6132 269.49 0.041674 24.049 0.060277
191.38 1650.7 undefined 755.98 810.18 2.5856 210.00 0.0047619 755.98 810.18 2.5856 2.3404 3.6038 270.55 0.041220 24.078 0.060390 210.00 0.0047619 755.98 810.18 2.5856 2.3404 3.6038 270.55 0.041220 24.078 0.060390
192.38 1661.7 undefined 758.32 812.88 2.5906 210.00 0.0047619 758.32 812.88 2.5906 2.3434 3.5947 271.62 0.040773 24.108 0.060504 210.00 0.0047619 758.32 812.88 2.5906 2.3434 3.5947 271.62 0.040773 24.108 0.060504
193.38 1672.6 undefined 760.67 815.58 2.5957 210.00 0.0047619 760.67 815.58 2.5957 2.3465 3.5859 272.68 0.040333 24.137 0.060618 210.00 0.0047619 760.67 815.58 2.5957 2.3465 3.5859 272.68 0.040333 24.137 0.060618
194.38 1683.6 undefined 763.01 818.29 2.6007 210.00 0.0047619 763.01 818.29 2.6007 2.3496 3.5773 273.73 0.039900 24.167 0.060733 210.00 0.0047619 763.01 818.29 2.6007 2.3496 3.5773 273.73 0.039900 24.167 0.060733
195.38 1694.5 undefined 765.37 821.00 2.6057 210.00 0.0047619 765.37 821.00 2.6057 2.3526 3.5690 274.78 0.039473 24.196 0.060849 210.00 0.0047619 765.37 821.00 2.6057 2.3526 3.5690 274.78 0.039473 24.196 0.060849
196.38 1705.5 undefined 767.72 823.71 2.6107 210.00 0.0047619 767.72 823.71 2.6107 2.3557 3.5609 275.83 0.039052 24.225 0.060966 210.00 0.0047619 767.72 823.71 2.6107 2.3557 3.5609 275.83 0.039052 24.225 0.060966
197.38 1716.4 undefined 770.08 826.43 2.6158 210.00 0.0047619 770.08 826.43 2.6158 2.3588 3.5531 276.87 0.038638 24.255 0.061083 210.00 0.0047619 770.08 826.43 2.6158 2.3588 3.5531 276.87 0.038638 24.255 0.061083
198.38 1727.4 undefined 772.44 829.15 2.6208 210.00 0.0047619 772.44 829.15 2.6208 2.3619 3.5455 277.91 0.038230 24.284 0.061201 210.00 0.0047619 772.44 829.15 2.6208 2.3619 3.5455 277.91 0.038230 24.284 0.061201
199.38 1738.3 undefined 774.80 831.87 2.6258 210.00 0.0047619 774.80 831.87 2.6258 2.3650 3.5381 278.95 0.037828 24.313 0.061319 210.00 0.0047619 774.80 831.87 2.6258 2.3650 3.5381 278.95 0.037828 24.313 0.061319
200.38 1749.2 undefined 777.17 834.60 2.6308 210.00 0.0047619 777.17 834.60 2.6308 2.3681 3.5310 279.98 0.037432 24.343 0.061438 210.00 0.0047619 777.17 834.60 2.6308 2.3681 3.5310 279.98 0.037432 24.343 0.061438
201.38 1760.2 undefined 779.54 837.33 2.6358 210.00 0.0047619 779.54 837.33 2.6358 2.3712 3.5240 281.01 0.037041 24.372 0.061558 210.00 0.0047619 779.54 837.33 2.6358 2.3712 3.5240 281.01 0.037041 24.372 0.061558
202.38 1771.1 undefined 781.91 840.06 2.6408 210.00 0.0047619 781.91 840.06 2.6408 2.3743 3.5173 282.03 0.036656 24.401 0.061678 210.00 0.0047619 781.91 840.06 2.6408 2.3743 3.5173 282.03 0.036656 24.401 0.061678
203.38 1782.1 undefined 784.29 842.79 2.6458 210.00 0.0047619 784.29 842.79 2.6458 2.3774 3.5108 283.05 0.036277 24.430 0.061799 210.00 0.0047619 784.29 842.79 2.6458 2.3774 3.5108 283.05 0.036277 24.430 0.061799
204.38 1793.0 undefined 786.66 845.53 2.6507 210.00 0.0047619 786.66 845.53 2.6507 2.3805 3.5044 284.07 0.035903 24.459 0.061921 210.00 0.0047619 786.66 845.53 2.6507 2.3805 3.5044 284.07 0.035903 24.459 0.061921
205.38 1804.0 undefined 789.05 848.27 2.6557 210.00 0.0047619 789.05 848.27 2.6557 2.3837 3.4983 285.09 0.035534 24.488 0.062043 210.00 0.0047619 789.05 848.27 2.6557 2.3837 3.4983 285.09 0.035534 24.488 0.062043
206.38 1814.9 undefined 791.43 851.02 2.6607 210.00 0.0047619 791.43 851.02 2.6607 2.3868 3.4923 286.10 0.035171 24.517 0.062165 210.00 0.0047619 791.43 851.02 2.6607 2.3868 3.4923 286.10 0.035171 24.517 0.062165
207.38 1825.8 undefined 793.82 853.77 2.6657 210.00 0.0047619 793.82 853.77 2.6657 2.3900 3.4865 287.11 0.034812 24.546 0.062288 210.00 0.0047619 793.82 853.77 2.6657 2.3900 3.4865 287.11 0.034812 24.546 0.062288
208.38 1836.8 undefined 796.21 856.52 2.6707 210.00 0.0047619 796.21 856.52 2.6707 2.3931 3.4809 288.11 0.034459 24.575 0.062412 210.00 0.0047619 796.21 856.52 2.6707 2.3931 3.4809 288.11 0.034459 24.575 0.062412
209.38 1847.7 undefined 798.61 859.27 2.6756 210.00 0.0047619 798.61 859.27 2.6756 2.3963 3.4755 289.11 0.034111 24.604 0.062536 210.00 0.0047619 798.61 859.27 2.6756 2.3963 3.4755 289.11 0.034111 24.604 0.062536
210.38 1858.6 undefined 801.00 862.03 2.6806 210.00 0.0047619 801.00 862.03 2.6806 2.3994 3.4702 290.11 0.033767 24.633 0.062660 210.00 0.0047619 801.00 862.03 2.6806 2.3994 3.4702 290.11 0.033767 24.633 0.062660
211.38 1869.6 undefined 803.41 864.79 2.6855 210.00 0.0047619 803.41 864.79 2.6855 2.4026 3.4651 291.10 0.033428 24.662 0.062785 210.00 0.0047619 803.41 864.79 2.6855 2.4026 3.4651 291.10 0.033428 24.662 0.062785
212.38 1880.5 undefined 805.81 867.55 2.6905 210.00 0.0047619 805.81 867.55 2.6905 2.4058 3.4601 292.09 0.033094 24.690 0.062911 210.00 0.0047619 805.81 867.55 2.6905 2.4058 3.4601 292.09 0.033094 24.690 0.062911
213.38 1891.4 undefined 808.22 870.32 2.6955 210.00 0.0047619 808.22 870.32 2.6955 2.4089 3.4553 293.08 0.032764 24.719 0.063037 210.00 0.0047619 808.22 870.32 2.6955 2.4089 3.4553 293.08 0.032764 24.719 0.063037
214.38 1902.4 undefined 810.63 873.09 2.7004 210.00 0.0047619 810.63 873.09 2.7004 2.4121 3.4506 294.07 0.032439 24.748 0.063164 210.00 0.0047619 810.63 873.09 2.7004 2.4121 3.4506 294.07 0.032439 24.748 0.063164
215.38 1913.3 undefined 813.04 875.86 2.7054 210.00 0.0047619 813.04 875.86 2.7054 2.4153 3.4461 295.05 0.032118 24.777 0.063291 210.00 0.0047619 813.04 875.86 2.7054 2.4153 3.4461 295.05 0.032118 24.777 0.063291
216.38 1924.2 undefined 815.46 878.63 2.7103 210.00 0.0047619 815.46 878.63 2.7103 2.4185 3.4417 296.03 0.031801 24.805 0.063418 210.00 0.0047619 815.46 878.63 2.7103 2.4185 3.4417 296.03 0.031801 24.805 0.063418
217.38 1935.1 undefined 817.88 881.41 2.7152 210.00 0.0047619 817.88 881.41 2.7152 2.4217 3.4374 297.00 0.031489 24.834 0.063546 210.00 0.0047619 817.88 881.41 2.7152 2.4217 3.4374 297.00 0.031489 24.834 0.063546
218.38 1946.1 undefined 820.30 884.19 2.7202 210.00 0.0047619 820.30 884.19 2.7202 2.4249 3.4333 297.97 0.031181 24.863 0.063675 210.00 0.0047619 820.30 884.19 2.7202 2.4249 3.4333 297.97 0.031181 24.863 0.063675
219.38 1957.0 undefined 822.73 886.98 2.7251 210.00 0.0047619 822.73 886.98 2.7251 2.4281 3.4293 298.94 0.030877 24.891 0.063803 210.00 0.0047619 822.73 886.98 2.7251 2.4281 3.4293 298.94 0.030877 24.891 0.063803
220.38 1967.9 undefined 825.16 889.77 2.7300 210.00 0.0047619 825.16 889.77 2.7300 2.4313 3.4254 299.91 0.030576 24.920 0.063933 210.00 0.0047619 825.16 889.77 2.7300 2.4313 3.4254 299.91 0.030576 24.920 0.063933
221.38 1978.8 undefined 827.59 892.56 2.7350 210.00 0.0047619 827.59 892.56 2.7350 2.4345 3.4217 300.87 0.030280 24.948 0.064062 210.00 0.0047619 827.59 892.56 2.7350 2.4345 3.4217 300.87 0.030280 24.948 0.064062
222.38 1989.8 undefined 830.03 895.35 2.7399 210.00 0.0047619 830.03 895.35 2.7399 2.4377 3.4180 301.83 0.029988 24.977 0.064192 210.00 0.0047619 830.03 895.35 2.7399 2.4377 3.4180 301.83 0.029988 24.977 0.064192
223.38 2000.7 undefined 832.47 898.15 2.7448 210.00 0.0047619 832.47 898.15 2.7448 2.4409 3.4145 302.79 0.029699 25.005 0.064323 210.00 0.0047619 832.47 898.15 2.7448 2.4409 3.4145 302.79 0.029699 25.005 0.064323
224.38 2011.6 undefined 834.91 900.95 2.7497 210.00 0.0047619 834.91 900.95 2.7497 2.4441 3.4111 303.74 0.029414 25.034 0.064454 210.00 0.0047619 834.91 900.95 2.7497 2.4441 3.4111 303.74 0.029414 25.034 0.064454
225.38 2022.5 undefined 837.35 903.76 2.7546 210.00 0.0047619 837.35 903.76 2.7546 2.4473 3.4078 304.69 0.029133 25.062 0.064585 210.00 0.0047619 837.35 903.76 2.7546 2.4473 3.4078 304.69 0.029133 25.062 0.064585
226.38 2033.4 undefined 839.80 906.56 2.7595 210.00 0.0047619 839.80 906.56 2.7595 2.4505 3.4047 305.64 0.028856 25.090 0.064717 210.00 0.0047619 839.80 906.56 2.7595 2.4505 3.4047 305.64 0.028856 25.090 0.064717
227.38 2044.3 undefined 842.25 909.38 2.7644 210.00 0.0047619 842.25 909.38 2.7644 2.4538 3.4016 306.59 0.028581 25.119 0.064849 210.00 0.0047619 842.25 909.38 2.7644 2.4538 3.4016 306.59 0.028581 25.119 0.064849
228.38 2055.3 undefined 844.71 912.19 2.7693 210.00 0.0047619 844.71 912.19 2.7693 2.4570 3.3986 307.53 0.028311 25.147 0.064982 210.00 0.0047619 844.71 912.19 2.7693 2.4570 3.3986 307.53 0.028311 25.147 0.064982
229.38 2066.2 undefined 847.17 915.01 2.7742 210.00 0.0047619 847.17 915.01 2.7742 2.4602 3.3957 308.47 0.028044 25.175 0.065114 210.00 0.0047619 847.17 915.01 2.7742 2.4602 3.3957 308.47 0.028044 25.175 0.065114
230.38 2077.1 undefined 849.63 917.83 2.7791 210.00 0.0047619 849.63 917.83 2.7791 2.4635 3.3929 309.41 0.027780 25.203 0.065248 210.00 0.0047619 849.63 917.83 2.7791 2.4635 3.3929 309.41 0.027780 25.203 0.065248
231.38 2088.0 undefined 852.10 920.65 2.7840 210.00 0.0047619 852.10 920.65 2.7840 2.4667 3.3903 310.34 0.027519 25.232 0.065381 210.00 0.0047619 852.10 920.65 2.7840 2.4667 3.3903 310.34 0.027519 25.232 0.065381
232.38 2098.9 undefined 854.56 923.48 2.7889 210.00 0.0047619 854.56 923.48 2.7889 2.4699 3.3877 311.27 0.027262 25.260 0.065515 210.00 0.0047619 854.56 923.48 2.7889 2.4699 3.3877 311.27 0.027262 25.260 0.065515
233.38 2109.8 undefined 857.04 926.31 2.7938 210.00 0.0047619 857.04 926.31 2.7938 2.4732 3.3852 312.20 0.027008 25.288 0.065650 210.00 0.0047619 857.04 926.31 2.7938 2.4732 3.3852 312.20 0.027008 25.288 0.065650
234.38 2120.7 undefined 859.51 929.14 2.7987 210.00 0.0047619 859.51 929.14 2.7987 2.4764 3.3828 313.13 0.026757 25.316 0.065784 210.00 0.0047619 859.51 929.14 2.7987 2.4764 3.3828 313.13 0.026757 25.316 0.065784
235.38 2131.6 undefined 861.99 931.97 2.8035 210.00 0.0047619 861.99 931.97 2.8035 2.4796 3.3805 314.05 0.026509 25.344 0.065919 210.00 0.0047619 861.99 931.97 2.8035 2.4796 3.3805 314.05 0.026509 25.344 0.065919
236.38 2142.5 undefined 864.47 934.81 2.8084 210.00 0.0047619 864.47 934.81 2.8084 2.4829 3.3782 314.97 0.026264 25.372 0.066055 210.00 0.0047619 864.47 934.81 2.8084 2.4829 3.3782 314.97 0.026264 25.372 0.066055
237.38 2153.4 undefined 866.95 937.66 2.8133 210.00 0.0047619 866.95 937.66 2.8133 2.4861 3.3761 315.89 0.026022 25.400 0.066190 210.00 0.0047619 866.95 937.66 2.8133 2.4861 3.3761 315.89 0.026022 25.400 0.066190
238.38 2164.3 undefined 869.44 940.50 2.8182 210.00 0.0047619 869.44 940.50 2.8182 2.4894 3.3740 316.80 0.025783 25.428 0.066326 210.00 0.0047619 869.44 940.50 2.8182 2.4894 3.3740 316.80 0.025783 25.428 0.066326
239.38 2175.2 undefined 871.93 943.35 2.8230 210.00 0.0047619 871.93 943.35 2.8230 2.4926 3.3720 317.72 0.025547 25.456 0.066462 210.00 0.0047619 871.93 943.35 2.8230 2.4926 3.3720 317.72 0.025547 25.456 0.066462
240.38 2186.1 undefined 874.43 946.20 2.8279 210.00 0.0047619 874.43 946.20 2.8279 2.4959 3.3701 318.63 0.025314 25.484 0.066599 210.00 0.0047619 874.43 946.20 2.8279 2.4959 3.3701 318.63 0.025314 25.484 0.066599
241.38 2197.0 undefined 876.92 949.06 2.8327 210.00 0.0047619 876.92 949.06 2.8327 2.4991 3.3683 319.53 0.025083 25.512 0.066736 210.00 0.0047619 876.92 949.06 2.8327 2.4991 3.3683 319.53 0.025083 25.512 0.066736
242.38 2207.9 undefined 879.43 951.92 2.8376 210.00 0.0047619 879.43 951.92 2.8376 2.5024 3.3665 320.44 0.024855 25.540 0.066873 210.00 0.0047619 879.43 951.92 2.8376 2.5024 3.3665 320.44 0.024855 25.540 0.066873
243.38 2218.8 undefined 881.93 954.78 2.8424 210.00 0.0047619 881.93 954.78 2.8424 2.5056 3.3648 321.34 0.024630 25.567 0.067010 210.00 0.0047619 881.93 954.78 2.8424 2.5056 3.3648 321.34 0.024630 25.567 0.067010
244.38 2229.7 undefined 884.44 957.64 2.8473 210.00 0.0047619 884.44 957.64 2.8473 2.5089 3.3632 322.24 0.024408 25.595 0.067148 210.00 0.0047619 884.44 957.64 2.8473 2.5089 3.3632 322.24 0.024408 25.595 0.067148
245.38 2240.6 undefined 886.95 960.51 2.8521 210.00 0.0047619 886.95 960.51 2.8521 2.5122 3.3616 323.14 0.024188 25.623 0.067286 210.00 0.0047619 886.95 960.51 2.8521 2.5122 3.3616 323.14 0.024188 25.623 0.067286
246.38 2251.5 undefined 889.46 963.38 2.8570 210.00 0.0047619 889.46 963.38 2.8570 2.5154 3.3602 324.03 0.023971 25.651 0.067424 210.00 0.0047619 889.46 963.38 2.8570 2.5154 3.3602 324.03 0.023971 25.651 0.067424
247.38 2262.4 undefined 891.98 966.26 2.8618 210.00 0.0047619 891.98 966.26 2.8618 2.5187 3.3587 324.93 0.023756 25.678 0.067562 210.00 0.0047619 891.98 966.26 2.8618 2.5187 3.3587 324.93 0.023756 25.678 0.067562
248.38 2273.2 undefined 894.50 969.13 2.8667 210.00 0.0047619 894.50 969.13 2.8667 2.5219 3.3574 325.82 0.023544 25.706 0.067701 210.00 0.0047619 894.50 969.13 2.8667 2.5219 3.3574 325.82 0.023544 25.706 0.067701
249.38 2284.1 undefined 897.02 972.02 2.8715 210.00 0.0047619 897.02 972.02 2.8715 2.5252 3.3561 326.70 0.023334 25.734 0.067840 210.00 0.0047619 897.02 972.02 2.8715 2.5252 3.3561 326.70 0.023334 25.734 0.067840
250.38 2295.0 undefined 899.55 974.90 2.8763 210.00 0.0047619 899.55 974.90 2.8763 2.5285 3.3549 327.59 0.023127 25.761 0.067979 210.00 0.0047619 899.55 974.90 2.8763 2.5285 3.3549 327.59 0.023127 25.761 0.067979
251.38 2305.9 undefined 902.08 977.79 2.8812 210.00 0.0047619 902.08 977.79 2.8812 2.5317 3.3537 328.47 0.022922 25.789 0.068118 210.00 0.0047619 902.08 977.79 2.8812 2.5317 3.3537 328.47 0.022922 25.789 0.068118
252.38 2316.8 undefined 904.61 980.68 2.8860 210.00 0.0047619 904.61 980.68 2.8860 2.5350 3.3526 329.35 0.022719 25.816 0.068258 210.00 0.0047619 904.61 980.68 2.8860 2.5350 3.3526 329.35 0.022719 25.816 0.068258
253.38 2327.7 undefined 907.15 983.57 2.8908 210.00 0.0047619 907.15 983.57 2.8908 2.5383 3.3516 330.23 0.022519 25.844 0.068397 210.00 0.0047619 907.15 983.57 2.8908 2.5383 3.3516 330.23 0.022519 25.844 0.068397
254.38 2338.5 undefined 909.69 986.47 2.8956 210.00 0.0047619 909.69 986.47 2.8956 2.5415 3.3506 331.11 0.022321 25.871 0.068537 210.00 0.0047619 909.69 986.47 2.8956 2.5415 3.3506 331.11 0.022321 25.871 0.068537
255.38 2349.4 undefined 912.23 989.37 2.9004 210.00 0.0047619 912.23 989.37 2.9004 2.5448 3.3497 331.98 0.022125 25.899 0.068677 210.00 0.0047619 912.23 989.37 2.9004 2.5448 3.3497 331.98 0.022125 25.899 0.068677
256.38 2360.3 undefined 914.78 992.27 2.9053 210.00 0.0047619 914.78 992.27 2.9053 2.5481 3.3488 332.85 0.021931 25.926 0.068817 210.00 0.0047619 914.78 992.27 2.9053 2.5481 3.3488 332.85 0.021931 25.926 0.068817
257.38 2371.2 undefined 917.33 995.18 2.9101 210.00 0.0047619 917.33 995.18 2.9101 2.5513 3.3480 333.72 0.021740 25.953 0.068957 210.00 0.0047619 917.33 995.18 2.9101 2.5513 3.3480 333.72 0.021740 25.953 0.068957
258.38 2382.0 undefined 919.88 998.09 2.9149 210.00 0.0047619 919.88 998.09 2.9149 2.5546 3.3472 334.59 0.021551 25.981 0.069097 210.00 0.0047619 919.88 998.09 2.9149 2.5546 3.3472 334.59 0.021551 25.981 0.069097
259.38 2392.9 undefined 922.44 1001.0 2.9197 210.00 0.0047619 922.44 1001.0 2.9197 2.5579 3.3465 335.45 0.021364 26.008 0.069237 210.00 0.0047619 922.44 1001.0 2.9197 2.5579 3.3465 335.45 0.021364 26.008 0.069237
260.38 2403.8 undefined 925.00 1003.9 2.9245 210.00 0.0047619 925.00 1003.9 2.9245 2.5611 3.3459 336.31 0.021178 26.035 0.069378 210.00 0.0047619 925.00 1003.9 2.9245 2.5611 3.3459 336.31 0.021178 26.035 0.069378
261.38 2414.6 undefined 927.56 1006.8 2.9293 210.00 0.0047619 927.56 1006.8 2.9293 2.5644 3.3452 337.17 0.020995 26.062 0.069518 210.00 0.0047619 927.56 1006.8 2.9293 2.5644 3.3452 337.17 0.020995 26.062 0.069518
262.38 2425.5 undefined 930.13 1009.8 2.9341 210.00 0.0047619 930.13 1009.8 2.9341 2.5677 3.3447 338.03 0.020814 26.090 0.069658 210.00 0.0047619 930.13 1009.8 2.9341 2.5677 3.3447 338.03 0.020814 26.090 0.069658
263.38 2436.4 undefined 932.69 1012.7 2.9389 210.00 0.0047619 932.69 1012.7 2.9389 2.5709 3.3442 338.88 0.020635 26.117 0.069798 210.00 0.0047619 932.69 1012.7 2.9389 2.5709 3.3442 338.88 0.020635 26.117 0.069798
264.38 2447.2 undefined 935.27 1015.6 2.9437 210.00 0.0047619 935.27 1015.6 2.9437 2.5742 3.3437 339.74 0.020458 26.144 0.069939 210.00 0.0047619 935.27 1015.6 2.9437 2.5742 3.3437 339.74 0.020458 26.144 0.069939
265.38 2458.1 undefined 937.84 1018.5 2.9484 210.00 0.0047619 937.84 1018.5 2.9484 2.5775 3.3433 340.59 0.020283 26.171 0.070079 210.00 0.0047619 937.84 1018.5 2.9484 2.5775 3.3433 340.59 0.020283 26.171 0.070079
266.38 2469.0 undefined 940.42 1021.5 2.9532 210.00 0.0047619 940.42 1021.5 2.9532 2.5807 3.3429 341.44 0.020109 26.198 0.070218 210.00 0.0047619 940.42 1021.5 2.9532 2.5807 3.3429 341.44 0.020109 26.198 0.070218
267.38 2479.8 undefined 943.00 1024.4 2.9580 210.00 0.0047619 943.00 1024.4 2.9580 2.5840 3.3426 342.28 0.019938 26.225 0.070358 210.00 0.0047619 943.00 1024.4 2.9580 2.5840 3.3426 342.28 0.019938 26.225 0.070358
268.38 2490.7 undefined 945.59 1027.4 2.9628 210.00 0.0047619 945.59 1027.4 2.9628 2.5873 3.3423 343.13 0.019768 26.252 0.070497 210.00 0.0047619 945.59 1027.4 2.9628 2.5873 3.3423 343.13 0.019768 26.252 0.070497
269.38 2501.5 undefined 948.18 1030.3 2.9676 210.00 0.0047619 948.18 1030.3 2.9676 2.5905 3.3420 343.97 0.019601 26.279 0.070636 210.00 0.0047619 948.18 1030.3 2.9676 2.5905 3.3420 343.97 0.019601 26.279 0.070636
270.38 2512.4 undefined 950.77 1033.3 2.9723 210.00 0.0047619 950.77 1033.3 2.9723 2.5938 3.3418 344.81 0.019435 26.306 0.070774 210.00 0.0047619 950.77 1033.3 2.9723 2.5938 3.3418 344.81 0.019435 26.306 0.070774
271.38 2523.2 undefined 953.37 1036.2 2.9771 210.00 0.0047619 953.37 1036.2 2.9771 2.5971 3.3417 345.65 0.019270 26.333 0.070912 210.00 0.0047619 953.37 1036.2 2.9771 2.5971 3.3417 345.65 0.019270 26.333 0.070912
272.38 2534.1 undefined 955.97 1039.2 2.9819 210.00 0.0047619 955.97 1039.2 2.9819 2.6003 3.3415 346.49 0.019108 26.360 0.071049 210.00 0.0047619 955.97 1039.2 2.9819 2.6003 3.3415 346.49 0.019108 26.360 0.071049
273.38 2545.0 undefined 958.57 1042.1 2.9866 210.00 0.0047619 958.57 1042.1 2.9866 2.6036 3.3415 347.32 0.018947 26.387 0.071185 210.00 0.0047619 958.57 1042.1 2.9866 2.6036 3.3415 347.32 0.018947 26.387 0.071185
274.38 2555.8 undefined 961.17 1045.1 2.9914 210.00 0.0047619 961.17 1045.1 2.9914 2.6069 3.3414 348.15 0.018788 26.414 0.071319 210.00 0.0047619 961.17 1045.1 2.9914 2.6069 3.3414 348.15 0.018788 26.414 0.071319
275.38 2566.6 undefined 963.78 1048.1 2.9962 210.00 0.0047619 963.78 1048.1 2.9962 2.6101 3.3414 348.98 0.018631 26.440 0.071452 210.00 0.0047619 963.78 1048.1 2.9962 2.6101 3.3414 348.98 0.018631 26.440 0.071452
276.38 2577.5 undefined 966.39 1051.0 3.0009 210.00 0.0047619 966.39 1051.0 3.0009 2.6134 3.3415 349.81 0.018475 26.467 0.071583 210.00 0.0047619 966.39 1051.0 3.0009 2.6134 3.3415 349.81 0.018475 26.467 0.071583
277.38 2588.3 undefined 969.01 1054.0 3.0057 210.00 0.0047619 969.01 1054.0 3.0057 2.6167 3.3415 350.63 0.018321 26.494 0.071711 210.00 0.0047619 969.01 1054.0 3.0057 2.6167 3.3415 350.63 0.018321 26.494 0.071711
278.38 2599.2 undefined 971.63 1057.0 3.0104 210.00 0.0047619 971.63 1057.0 3.0104 2.6199 3.3416 351.46 0.018168 26.521 0.071835 210.00 0.0047619 971.63 1057.0 3.0104 2.6199 3.3416 351.46 0.018168 26.521 0.071835
279.38 2610.0 undefined 974.25 1059.9 3.0152 210.00 0.0047619 974.25 1059.9 3.0152 2.6232 3.3418 352.28 0.018017 26.547 0.071952 210.00 0.0047619 974.25 1059.9 3.0152 2.6232 3.3418 352.28 0.018017 26.547 0.071952
280.38 2620.9 undefined 976.87 1062.9 3.0199 210.00 0.0047619 976.87 1062.9 3.0199 2.6265 3.3419 353.10 0.017868 26.574 0.072057 210.00 0.0047619 976.87 1062.9 3.0199 2.6265 3.3419 353.10 0.017868 26.574 0.072057
281.38 2631.7 undefined 979.50 1065.9 3.0247 210.00 0.0047619 979.50 1065.9 3.0247 2.6297 3.3421 353.92 0.017720 26.601 0.072122 210.00 0.0047619 979.50 1065.9 3.0247 2.6297 3.3421 353.92 0.017720 26.601 0.072122
282.38 2642.5 undefined 982.13 1068.9 3.0294 210.00 0.0047619 982.13 1068.9 3.0294 2.6330 3.3424 354.73 0.017574 26.627 0.072219 210.00 0.0047619 982.13 1068.9 3.0294 2.6330 3.3424 354.73 0.017574 26.627 0.072219
283.38 2653.4 undefined 984.77 1071.9 3.0342 210.00 0.0047619 984.77 1071.9 3.0342 2.6362 3.3427 355.55 0.017429 26.654 0.072385 210.00 0.0047619 984.77 1071.9 3.0342 2.6362 3.3427 355.55 0.017429 26.654 0.072385
284.38 2664.2 undefined 987.40 1074.9 3.0389 210.00 0.0047619 987.40 1074.9 3.0389 2.6395 3.3430 356.36 0.017285 26.680 0.072552 210.00 0.0047619 987.40 1074.9 3.0389 2.6395 3.3430 356.36 0.017285 26.680 0.072552
285.38 2675.0 undefined 990.05 1077.9 3.0436 210.00 0.0047619 990.05 1077.9 3.0436 2.6427 3.3433 357.17 0.017143 26.707 0.072719 210.00 0.0047619 990.05 1077.9 3.0436 2.6427 3.3433 357.17 0.017143 26.707 0.072719
286.38 2685.9 undefined 992.69 1080.9 3.0483 210.00 0.0047619 992.69 1080.9 3.0483 2.6460 3.3437 357.98 0.017003 26.733 0.072886 210.00 0.0047619 992.69 1080.9 3.0483 2.6460 3.3437 357.98 0.017003 26.733 0.072886
287.38 2696.7 undefined 995.34 1083.9 3.0531 210.00 0.0047619 995.34 1083.9 3.0531 2.6493 3.3441 358.79 0.016864 26.760 0.073053 210.00 0.0047619 995.34 1083.9 3.0531 2.6493 3.3441 358.79 0.016864 26.760 0.073053
288.38 2707.5 undefined 997.99 1086.9 3.0578 210.00 0.0047619 997.99 1086.9 3.0578 2.6525 3.3445 359.59 0.016726 26.786 0.073221 210.00 0.0047619 997.99 1086.9 3.0578 2.6525 3.3445 359.59 0.016726 26.786 0.073221
289.38 2718.4 undefined 1000.6 1089.9 3.0625 210.00 0.0047619 1000.6 1089.9 3.0625 2.6558 3.3450 360.39 0.016590 26.813 0.073389 210.00 0.0047619 1000.6 1089.9 3.0625 2.6558 3.3450 360.39 0.016590 26.813 0.073389
290.38 2729.2 undefined 1003.3 1092.9 3.0672 210.00 0.0047619 1003.3 1092.9 3.0672 2.6590 3.3455 361.19 0.016455 26.839 0.073558 210.00 0.0047619 1003.3 1092.9 3.0672 2.6590 3.3455 361.19 0.016455 26.839 0.073558
291.38 2740.0 undefined 1006.0 1095.9 3.0720 210.00 0.0047619 1006.0 1095.9 3.0720 2.6623 3.3460 361.99 0.016321 26.865 0.073726 210.00 0.0047619 1006.0 1095.9 3.0720 2.6623 3.3460 361.99 0.016321 26.865 0.073726
292.38 2750.8 undefined 1008.6 1098.9 3.0767 210.00 0.0047619 1008.6 1098.9 3.0767 2.6655 3.3465 362.79 0.016189 26.892 0.073895 210.00 0.0047619 1008.6 1098.9 3.0767 2.6655 3.3465 362.79 0.016189 26.892 0.073895
293.38 2761.7 undefined 1011.3 1102.0 3.0814 210.00 0.0047619 1011.3 1102.0 3.0814 2.6688 3.3471 363.59 0.016058 26.918 0.074064 210.00 0.0047619 1011.3 1102.0 3.0814 2.6688 3.3471 363.59 0.016058 26.918 0.074064
294.38 2772.5 undefined 1014.0 1105.0 3.0861 210.00 0.0047619 1014.0 1105.0 3.0861 2.6720 3.3477 364.38 0.015928 26.944 0.074234 210.00 0.0047619 1014.0 1105.0 3.0861 2.6720 3.3477 364.38 0.015928 26.944 0.074234
295.38 2783.3 undefined 1016.6 1108.0 3.0908 210.00 0.0047619 1016.6 1108.0 3.0908 2.6752 3.3483 365.17 0.015799 26.970 0.074404 210.00 0.0047619 1016.6 1108.0 3.0908 2.6752 3.3483 365.17 0.015799 26.970 0.074404
296.38 2794.1 undefined 1019.3 1111.0 3.0955 210.00 0.0047619 1019.3 1111.0 3.0955 2.6785 3.3490 365.96 0.015672 26.996 0.074574 210.00 0.0047619 1019.3 1111.0 3.0955 2.6785 3.3490 365.96 0.015672 26.996 0.074574
297.38 2804.9 undefined 1022.0 1114.1 3.1002 210.00 0.0047619 1022.0 1114.1 3.1002 2.6817 3.3496 366.75 0.015546 27.023 0.074744 210.00 0.0047619 1022.0 1114.1 3.1002 2.6817 3.3496 366.75 0.015546 27.023 0.074744
298.38 2815.7 undefined 1024.7 1117.1 3.1049 210.00 0.0047619 1024.7 1117.1 3.1049 2.6850 3.3504 367.54 0.015422 27.049 0.074915 210.00 0.0047619 1024.7 1117.1 3.1049 2.6850 3.3504 367.54 0.015422 27.049 0.074915
299.38 2826.6 undefined 1027.4 1120.2 3.1096 210.00 0.0047619 1027.4 1120.2 3.1096 2.6882 3.3511 368.32 0.015298 27.075 0.075086 210.00 0.0047619 1027.4 1120.2 3.1096 2.6882 3.3511 368.32 0.015298 27.075 0.075086
300.38 2837.4 undefined 1030.1 1123.2 3.1143 210.00 0.0047619 1030.1 1123.2 3.1143 2.6914 3.3518 369.10 0.015176 27.101 0.075257 210.00 0.0047619 1030.1 1123.2 3.1143 2.6914 3.3518 369.10 0.015176 27.101 0.075257