Temperature (C) Pressure (psia) Quality (l+v) Internal Energy (l+v, kJ/kg) Enthalpy (l+v, kJ/kg) Entropy (l+v, J/g*K) Density (l, kg/m3) Volume (l, m3/kg) Internal Energy (l, kJ/kg) Enthalpy (l, kJ/kg) Entropy (l, J/g*K) Cv (l, J/g*K) Cp (l, J/g*K) Sound Spd. (l, m/s) Joule-Thomson (l, F/psia) Viscosity (l, uPa*s) Therm. Cond. (l, W/m*K) Density (v, kg/m3) Volume (v, m3/kg) Internal Energy (v, kJ/kg) Enthalpy (v, kJ/kg) Entropy (v, J/g*K) Cv (v, J/g*K) Cp (v, J/g*K) Sound Spd. (v, m/s) Joule-Thomson (v, F/psia) Viscosity (v, uPa*s) Therm. Cond. (v, W/m*K)
-187.62 2.4953e-08 3.1833e-11 -196.64 -196.64 -1.3959 733.13 0.0013640 -196.64 -196.64 -1.3959 1.3553 1.9158 2136.4 -0.0077592 10960. 0.20792 1.0669e-08 9.3732e+07 350.13 366.26 5.1858 0.69067 0.87923 143.28 6.1051 2.3259 0.0017061
-186.62 3.7339e-08 4.7054e-11 -194.73 -194.73 -1.3736 732.08 0.0013660 -194.73 -194.73 -1.3736 1.3539 1.9166 2129.6 -0.0077546 10073. 0.20765 1.5780e-08 6.3371e+07 350.82 367.14 5.1200 0.69462 0.88317 144.03 5.9178 2.3534 0.0017533
-185.62 5.5322e-08 6.8873e-11 -192.81 -192.81 -1.3516 731.04 0.0013679 -192.81 -192.81 -1.3516 1.3525 1.9174 2122.9 -0.0077498 9276.1 0.20737 2.3112e-08 4.3267e+07 351.52 368.02 5.0561 0.69857 0.88713 144.77 5.7383 2.3808 0.0018007
-184.62 8.1182e-08 9.9861e-11 -190.89 -190.89 -1.3298 730.00 0.0013699 -190.89 -190.89 -1.3298 1.3513 1.9182 2116.1 -0.0077448 8557.8 0.20708 3.3533e-08 2.9821e+07 352.22 368.91 4.9939 0.70253 0.89108 145.51 5.5662 2.4083 0.0018485
-183.62 1.1803e-07 1.4348e-10 -188.97 -188.97 -1.3083 728.96 0.0013718 -188.97 -188.97 -1.3083 1.3501 1.9191 2109.3 -0.0077395 7909.8 0.20678 4.8211e-08 2.0742e+07 352.92 369.81 4.9333 0.70648 0.89504 146.24 5.4011 2.4357 0.0018965
-182.62 1.7009e-07 2.0433e-10 -187.05 -187.05 -1.2869 727.92 0.0013738 -187.05 -187.05 -1.2869 1.3490 1.9201 2102.5 -0.0077340 7324.3 0.20647 6.8704e-08 1.4555e+07 353.63 370.70 4.8744 0.71043 0.89899 146.97 5.2426 2.4632 0.0019448
-181.62 2.4299e-07 2.8853e-10 -185.13 -185.13 -1.2658 726.88 0.0013757 -185.13 -185.13 -1.2658 1.3480 1.9210 2095.7 -0.0077283 6794.5 0.20616 9.7079e-08 1.0301e+07 354.35 371.60 4.8170 0.71438 0.90294 147.69 5.0904 2.4906 0.0019934
-180.62 3.4425e-07 4.0408e-10 -183.21 -183.21 -1.2450 725.85 0.0013777 -183.21 -183.21 -1.2450 1.3470 1.9220 2088.9 -0.0077225 6314.4 0.20584 1.3605e-07 7.3504e+06 355.06 372.51 4.7612 0.71833 0.90688 148.41 4.9442 2.5181 0.0020423
-179.62 4.8378e-07 5.6143e-10 -181.29 -181.29 -1.2243 724.81 0.0013797 -181.29 -181.29 -1.2243 1.3461 1.9231 2082.0 -0.0077164 5878.8 0.20551 1.8915e-07 5.2868e+06 355.78 373.42 4.7068 0.72227 0.91082 149.13 4.8038 2.5456 0.0020915
-178.62 6.7459e-07 7.7406e-10 -179.37 -179.37 -1.2038 723.78 0.0013816 -179.37 -179.37 -1.2038 1.3453 1.9241 2075.2 -0.0077102 5482.9 0.20517 2.6096e-07 3.8320e+06 356.51 374.33 4.6538 0.72620 0.91475 149.84 4.6688 2.5731 0.0021410
-177.62 9.3358e-07 1.0593e-09 -177.44 -177.44 -1.1836 722.75 0.0013836 -177.44 -177.44 -1.1836 1.3445 1.9252 2068.4 -0.0077039 5122.6 0.20483 3.5737e-07 2.7982e+06 357.23 375.25 4.6022 0.73012 0.91867 150.54 4.5390 2.6005 0.0021907
-176.62 1.2826e-06 1.4393e-09 -175.52 -175.52 -1.1635 721.72 0.0013856 -175.52 -175.52 -1.1635 1.3437 1.9263 2061.5 -0.0076973 4794.1 0.20447 4.8588e-07 2.0581e+06 357.97 376.17 4.5519 0.73403 0.92258 151.25 4.4142 2.6280 0.0022408
-175.62 1.7496e-06 1.9420e-09 -173.59 -173.59 -1.1437 720.69 0.0013876 -173.59 -173.59 -1.1437 1.3430 1.9274 2054.7 -0.0076907 4494.3 0.20411 6.5601e-07 1.5244e+06 358.70 377.09 4.5029 0.73792 0.92648 151.95 4.2941 2.6555 0.0022912
-174.62 2.3705e-06 2.6026e-09 -171.66 -171.66 -1.1240 719.66 0.0013895 -171.66 -171.66 -1.1240 1.3423 1.9286 2047.9 -0.0076838 4220.2 0.20375 8.7976e-07 1.1367e+06 359.44 378.02 4.4551 0.74181 0.93036 152.64 4.1784 2.6830 0.0023418
-173.62 3.1903e-06 3.4652e-09 -169.73 -169.73 -1.1045 718.64 0.0013915 -169.73 -169.73 -1.1045 1.3417 1.9298 2041.0 -0.0076769 3969.3 0.20338 1.1721e-06 8.5314e+05 360.19 378.95 4.4085 0.74568 0.93423 153.33 4.0671 2.7105 0.0023928
-172.62 4.2661e-06 4.5845e-09 -167.80 -167.80 -1.0852 717.61 0.0013935 -167.80 -167.80 -1.0852 1.3411 1.9310 2034.2 -0.0076698 3739.3 0.20300 1.5518e-06 6.4441e+05 360.93 379.89 4.3631 0.74953 0.93809 154.02 3.9599 2.7379 0.0024440
-171.62 5.6692e-06 6.0283e-09 -165.87 -165.87 -1.0661 716.58 0.0013955 -165.87 -165.87 -1.0661 1.3405 1.9322 2027.3 -0.0076625 3528.0 0.20261 2.0419e-06 4.8974e+05 361.69 380.83 4.3188 0.75337 0.94193 154.71 3.8566 2.7654 0.0024955
-170.62 7.4884e-06 7.8797e-09 -163.94 -163.94 -1.0472 715.56 0.0013975 -163.94 -163.94 -1.0472 1.3400 1.9334 2020.5 -0.0076552 3333.8 0.20222 2.6708e-06 3.7442e+05 362.44 381.77 4.2755 0.75720 0.94575 155.39 3.7570 2.7929 0.0025473
-169.62 9.8334e-06 1.0240e-08 -162.00 -162.00 -1.0284 714.54 0.0013995 -162.00 -162.00 -1.0284 1.3395 1.9347 2013.6 -0.0076477 3154.9 0.20182 3.4733e-06 2.8791e+05 363.20 382.72 4.2334 0.76100 0.94956 156.07 3.6609 2.8204 0.0025994
-168.62 1.2839e-05 1.3234e-08 -160.07 -160.07 -1.0098 713.52 0.0014015 -160.07 -160.07 -1.0098 1.3390 1.9359 2006.8 -0.0076401 2989.9 0.20141 4.4917e-06 2.2263e+05 363.96 383.67 4.1922 0.76479 0.95335 156.74 3.5683 2.8479 0.0026518
-167.62 1.6672e-05 1.7010e-08 -158.13 -158.13 -0.99134 712.49 0.0014035 -158.13 -158.13 -0.99134 1.3386 1.9372 2000.0 -0.0076323 2837.5 0.20100 5.7771e-06 1.7310e+05 364.73 384.63 4.1521 0.76856 0.95712 157.41 3.4790 2.8754 0.0027045
-166.62 2.1533e-05 2.1748e-08 -156.19 -156.19 -0.97306 711.47 0.0014055 -156.19 -156.19 -0.97306 1.3382 1.9385 1993.1 -0.0076245 2696.5 0.20058 7.3914e-06 1.3529e+05 365.50 385.59 4.1129 0.77232 0.96087 158.08 3.3927 2.9029 0.0027575
-165.62 2.7666e-05 2.7663e-08 -154.25 -154.25 -0.95494 710.45 0.0014075 -154.25 -154.25 -0.95494 1.3378 1.9398 1986.3 -0.0076165 2566.0 0.20016 9.4084e-06 1.0629e+05 366.27 386.55 4.0746 0.77605 0.96460 158.75 3.3095 2.9304 0.0028108
-164.62 3.5367e-05 3.5013e-08 -152.31 -152.31 -0.93698 709.44 0.0014096 -152.31 -152.31 -0.93698 1.3375 1.9411 1979.4 -0.0076084 2444.9 0.19973 1.1916e-05 83918. 367.05 387.52 4.0372 0.77976 0.96832 159.41 3.2291 2.9579 0.0028643
-163.62 4.4989e-05 4.4103e-08 -150.37 -150.37 -0.91917 708.42 0.0014116 -150.37 -150.37 -0.91917 1.3371 1.9424 1972.6 -0.0076002 2332.3 0.19930 1.5020e-05 66577. 367.83 388.49 4.0008 0.78346 0.97201 160.07 3.1514 2.9854 0.0029182
-162.62 5.6956e-05 5.5291e-08 -148.43 -148.43 -0.90151 707.40 0.0014136 -148.43 -148.43 -0.90151 1.3368 1.9437 1965.8 -0.0075919 2227.7 0.19886 1.8844e-05 53068. 368.62 389.46 3.9651 0.78713 0.97569 160.72 3.0764 3.0129 0.0029723
-161.62 7.1773e-05 6.9002e-08 -146.48 -146.48 -0.88400 706.38 0.0014157 -146.48 -146.48 -0.88400 1.3365 1.9451 1959.0 -0.0075834 2130.2 0.19841 2.3533e-05 42494. 369.41 390.44 3.9304 0.79079 0.97935 161.38 3.0038 3.0404 0.0030268
-160.62 9.0036e-05 8.5731e-08 -144.54 -144.54 -0.86663 705.37 0.0014177 -144.54 -144.54 -0.86663 1.3363 1.9465 1952.1 -0.0075748 2039.2 0.19796 2.9258e-05 34178. 370.20 391.42 3.8964 0.79443 0.98298 162.03 2.9337 3.0679 0.0030815
-159.62 0.00011245 1.0606e-07 -142.59 -142.59 -0.84940 704.35 0.0014197 -142.59 -142.59 -0.84940 1.3360 1.9478 1945.3 -0.0075661 1954.2 0.19751 3.6221e-05 27609. 371.00 392.40 3.8632 0.79805 0.98660 162.68 2.8658 3.0955 0.0031365
-158.62 0.00013985 1.3065e-07 -140.64 -140.64 -0.83231 703.34 0.0014218 -140.64 -140.64 -0.83231 1.3358 1.9492 1938.5 -0.0075573 1874.8 0.19705 4.4652e-05 22395. 371.80 393.39 3.8307 0.80164 0.99020 163.32 2.8002 3.1230 0.0031918
-157.62 0.00017320 1.6030e-07 -138.69 -138.69 -0.81536 702.32 0.0014238 -138.69 -138.69 -0.81536 1.3356 1.9506 1931.7 -0.0075484 1800.3 0.19658 5.4822e-05 18241. 372.60 394.38 3.7990 0.80522 0.99378 163.96 2.7367 3.1505 0.0032474
-156.62 0.00021364 1.9589e-07 -136.74 -136.74 -0.79854 701.31 0.0014259 -136.74 -136.74 -0.79854 1.3354 1.9520 1924.9 -0.0075393 1730.5 0.19611 6.7040e-05 14916. 373.41 395.38 3.7680 0.80878 0.99734 164.60 2.6752 3.1780 0.0033033
-155.62 0.00026248 2.3845e-07 -134.79 -134.79 -0.78185 700.30 0.0014280 -134.79 -134.79 -0.78185 1.3352 1.9534 1918.1 -0.0075302 1664.9 0.19564 8.1666e-05 12245. 374.22 396.38 3.7377 0.81232 1.0009 165.24 2.6157 3.2055 0.0033595
-154.62 0.00032125 2.8918e-07 -132.83 -132.83 -0.76530 699.29 0.0014300 -132.83 -132.83 -0.76530 1.3350 1.9548 1911.3 -0.0075209 1603.3 0.19516 9.9109e-05 10090. 375.03 397.38 3.7081 0.81585 1.0044 165.87 2.5580 3.2330 0.0034160
-153.62 0.00039171 3.4941e-07 -130.88 -130.88 -0.74887 698.27 0.0014321 -130.88 -130.88 -0.74887 1.3349 1.9563 1904.5 -0.0075114 1545.3 0.19468 0.00011984 8344.6 375.85 398.39 3.6792 0.81935 1.0079 166.50 2.5022 3.2606 0.0034727
-152.62 0.00047590 4.2069e-07 -128.92 -128.92 -0.73256 697.26 0.0014342 -128.92 -128.92 -0.73256 1.3348 1.9577 1897.8 -0.0075019 1490.6 0.19419 0.00014439 6925.9 376.67 399.40 3.6509 0.82284 1.0114 167.13 2.4481 3.2881 0.0035298
-151.62 0.00057613 5.0474e-07 -126.96 -126.96 -0.71638 696.25 0.0014363 -126.96 -126.96 -0.71638 1.3346 1.9592 1891.0 -0.0074922 1438.9 0.19370 0.00017336 5768.4 377.49 400.41 3.6232 0.82631 1.0149 167.76 2.3957 3.3156 0.0035872
-150.62 0.00069507 6.0354e-07 -125.00 -125.00 -0.70032 695.24 0.0014384 -125.00 -125.00 -0.70032 1.3345 1.9606 1884.2 -0.0074824 1390.2 0.19320 0.00020744 4820.7 378.32 401.42 3.5962 0.82976 1.0183 168.38 2.3448 3.3431 0.0036448
-149.62 0.00083574 7.1929e-07 -123.04 -123.04 -0.68437 694.23 0.0014404 -123.04 -123.04 -0.68438 1.3345 1.9621 1877.4 -0.0074724 1344.0 0.19270 0.00024740 4042.0 379.15 402.44 3.5697 0.83319 1.0218 169.00 2.2956 3.3706 0.0037027
-148.62 0.0010016 8.5449e-07 -121.08 -121.08 -0.66855 693.22 0.0014425 -121.08 -121.08 -0.66855 1.3344 1.9636 1870.7 -0.0074623 1300.3 0.19220 0.00029412 3400.0 379.99 403.47 3.5438 0.83661 1.0252 169.62 2.2478 3.3982 0.0037610
-147.62 0.0011965 1.0119e-06 -119.11 -119.11 -0.65283 692.21 0.0014447 -119.11 -119.11 -0.65284 1.3343 1.9651 1863.9 -0.0074521 1258.9 0.19169 0.00034856 2869.0 380.83 404.49 3.5185 0.84001 1.0286 170.24 2.2014 3.4257 0.0038195
-146.62 0.0014249 1.1947e-06 -117.15 -117.15 -0.63723 691.20 0.0014468 -117.15 -117.15 -0.63724 1.3343 1.9666 1857.2 -0.0074417 1219.6 0.19117 0.00041181 2428.3 381.67 405.52 3.4938 0.84340 1.0320 170.85 2.1565 3.4532 0.0038783
-145.62 0.0016917 1.4063e-06 -115.18 -115.18 -0.62174 690.19 0.0014489 -115.18 -115.18 -0.62175 1.3343 1.9682 1850.4 -0.0074312 1182.3 0.19066 0.00048510 2061.4 382.51 406.56 3.4695 0.84677 1.0353 171.46 2.1128 3.4807 0.0039374
-144.62 0.0020026 1.6505e-06 -113.21 -113.21 -0.60636 689.18 0.0014510 -113.21 -113.21 -0.60637 1.3343 1.9697 1843.7 -0.0074206 1146.8 0.19014 0.00056976 1755.1 383.36 407.59 3.4458 0.85012 1.0387 172.07 2.0705 3.5082 0.0039967
-143.62 0.0023637 1.9317e-06 -111.24 -111.24 -0.59109 688.17 0.0014531 -111.24 -111.24 -0.59110 1.3343 1.9713 1836.9 -0.0074098 1113.0 0.18962 0.00066731 1498.6 384.21 408.63 3.4226 0.85346 1.0420 172.68 2.0294 3.5358 0.0040564
-142.62 0.0027820 2.2544e-06 -109.27 -109.27 -0.57592 687.16 0.0014553 -109.27 -109.27 -0.57593 1.3343 1.9728 1830.2 -0.0073988 1080.8 0.18909 0.00077939 1283.1 385.07 409.68 3.3999 0.85679 1.0454 173.28 1.9896 3.5633 0.0041164
-141.62 0.0032653 2.6240e-06 -107.30 -107.30 -0.56086 686.15 0.0014574 -107.30 -107.30 -0.56087 1.3343 1.9744 1823.5 -0.0073878 1050.1 0.18856 0.00090784 1101.5 385.93 410.72 3.3777 0.86011 1.0487 173.88 1.9508 3.5908 0.0041766
-140.62 0.0038222 3.0462e-06 -105.32 -105.32 -0.54590 685.14 0.0014596 -105.32 -105.32 -0.54591 1.3344 1.9760 1816.7 -0.0073765 1020.7 0.18803 0.0010547 948.16 386.79 411.77 3.3560 0.86341 1.0520 174.48 1.9133 3.6183 0.0042372
-139.62 0.0044623 3.5271e-06 -103.34 -103.34 -0.53103 684.13 0.0014617 -103.34 -103.34 -0.53105 1.3344 1.9776 1810.0 -0.0073651 992.74 0.18749 0.0012221 818.26 387.65 412.83 3.3347 0.86670 1.0553 175.08 1.8768 3.6459 0.0042980
-138.62 0.0051963 4.0737e-06 -101.36 -101.36 -0.51627 683.12 0.0014639 -101.37 -101.37 -0.51629 1.3345 1.9792 1803.3 -0.0073536 965.97 0.18695 0.0014125 707.94 388.52 413.88 3.3139 0.86998 1.0586 175.67 1.8413 3.6734 0.0043592
-137.62 0.0060358 4.6935e-06 -99.384 -99.384 -0.50160 682.11 0.0014660 -99.386 -99.386 -0.50162 1.3346 1.9808 1796.6 -0.0073419 940.35 0.18641 0.0016287 614.00 389.39 414.94 3.2935 0.87325 1.0619 176.26 1.8069 3.7009 0.0044206
-136.62 0.0069938 5.3945e-06 -97.402 -97.402 -0.48703 681.10 0.0014682 -97.404 -97.404 -0.48705 1.3347 1.9825 1789.9 -0.0073301 915.81 0.18586 0.0018733 533.80 390.26 416.00 3.2735 0.87650 1.0651 176.85 1.7734 3.7284 0.0044823
-135.62 0.0080843 6.1857e-06 -95.418 -95.418 -0.47256 680.09 0.0014704 -95.421 -95.421 -0.47258 1.3348 1.9841 1783.2 -0.0073180 892.30 0.18531 0.0021497 465.17 391.14 417.07 3.2540 0.87975 1.0684 177.44 1.7409 3.7559 0.0045443
-134.62 0.0093230 7.0768e-06 -93.433 -93.432 -0.45817 679.08 0.0014726 -93.436 -93.436 -0.45820 1.3350 1.9858 1776.5 -0.0073059 869.75 0.18476 0.0024613 406.30 392.02 418.14 3.2348 0.88299 1.0716 178.02 1.7093 3.7834 0.0046066
-133.62 0.010727 8.0780e-06 -91.446 -91.445 -0.44388 678.07 0.0014748 -91.450 -91.449 -0.44391 1.3351 1.9875 1769.8 -0.0072935 848.11 0.18421 0.0028116 355.67 392.91 419.21 3.2161 0.88622 1.0749 178.61 1.6786 3.8109 0.0046691
-132.62 0.012315 9.2007e-06 -89.457 -89.456 -0.42967 677.06 0.0014770 -89.461 -89.461 -0.42971 1.3353 1.9892 1763.1 -0.0072810 827.32 0.18365 0.0032049 312.03 393.79 420.29 3.1977 0.88944 1.0781 179.19 1.6488 3.8385 0.0047320
-131.62 0.014106 1.0457e-05 -87.466 -87.466 -0.41556 676.04 0.0014792 -87.471 -87.471 -0.41560 1.3354 1.9909 1756.4 -0.0072684 807.34 0.18309 0.0036453 274.33 394.68 421.36 3.1798 0.89266 1.0813 179.76 1.6197 3.8660 0.0047951
-130.62 0.016124 1.1860e-05 -85.474 -85.473 -0.40153 675.03 0.0014814 -85.479 -85.479 -0.40157 1.3356 1.9926 1749.7 -0.0072555 788.12 0.18253 0.0041375 241.69 395.58 422.44 3.1622 0.89586 1.0846 180.34 1.5915 3.8935 0.0048586
-129.62 0.018392 1.3424e-05 -83.479 -83.479 -0.38759 674.02 0.0014836 -83.486 -83.486 -0.38763 1.3358 1.9944 1743.0 -0.0072425 769.63 0.18196 0.0046867 213.37 396.47 423.53 3.1450 0.89906 1.0878 180.91 1.5641 3.9210 0.0049223
-128.62 0.020935 1.5163e-05 -81.483 -81.483 -0.37373 673.01 0.0014859 -81.491 -81.490 -0.37378 1.3360 1.9961 1736.3 -0.0072294 751.83 0.18140 0.0052981 188.75 397.37 424.62 3.1281 0.90226 1.0910 181.48 1.5374 3.9485 0.0049863
-127.62 0.023783 1.7094e-05 -79.485 -79.485 -0.35995 672.00 0.0014881 -79.494 -79.493 -0.36001 1.3363 1.9979 1729.6 -0.0072160 734.67 0.18083 0.0059776 167.29 398.27 425.71 3.1116 0.90545 1.0942 182.05 1.5114 3.9760 0.0050506
-126.62 0.026966 1.9235e-05 -77.486 -77.485 -0.34626 670.98 0.0014904 -77.495 -77.495 -0.34632 1.3365 1.9997 1722.9 -0.0072025 718.14 0.18025 0.0067313 148.56 399.18 426.80 3.0954 0.90863 1.0974 182.62 1.4861 4.0035 0.0051152
-125.62 0.030515 2.1603e-05 -75.484 -75.483 -0.33264 669.97 0.0014926 -75.494 -75.494 -0.33272 1.3368 2.0015 1716.2 -0.0071888 702.18 0.17968 0.0075660 132.17 400.09 427.89 3.0795 0.91181 1.1006 183.18 1.4615 4.0310 0.0051800
-124.62 0.034467 2.4218e-05 -73.480 -73.479 -0.31911 668.95 0.0014949 -73.492 -73.492 -0.31919 1.3371 2.0033 1709.5 -0.0071749 686.79 0.17910 0.0084885 117.81 401.00 428.99 3.0640 0.91499 1.1038 183.74 1.4375 4.0584 0.0052452
-123.62 0.038859 2.7100e-05 -71.475 -71.474 -0.30565 667.94 0.0014971 -71.488 -71.487 -0.30574 1.3374 2.0051 1702.8 -0.0071609 671.93 0.17852 0.0095065 105.19 401.91 430.10 3.0488 0.91816 1.1070 184.30 1.4141 4.0859 0.0053106
-122.62 0.043731 3.0273e-05 -69.467 -69.466 -0.29227 666.92 0.0014994 -69.482 -69.481 -0.29237 1.3377 2.0070 1696.2 -0.0071466 657.57 0.17794 0.010628 94.092 402.83 431.20 3.0339 0.92134 1.1102 184.86 1.3913 4.1134 0.0053764
-121.62 0.049128 3.3759e-05 -67.458 -67.456 -0.27896 665.91 0.0015017 -67.474 -67.473 -0.27907 1.3380 2.0089 1689.5 -0.0071322 643.70 0.17736 0.011861 84.309 403.75 432.31 3.0193 0.92451 1.1134 185.41 1.3691 4.1409 0.0054424
-120.62 0.055096 3.7583e-05 -65.446 -65.445 -0.26573 664.89 0.0015040 -65.464 -65.463 -0.26585 1.3384 2.0107 1682.8 -0.0071176 630.28 0.17678 0.013215 75.669 404.67 433.42 3.0050 0.92767 1.1166 185.96 1.3475 4.1683 0.0055087
-119.62 0.061684 4.1771e-05 -63.433 -63.431 -0.25257 663.87 0.0015063 -63.452 -63.452 -0.25271 1.3387 2.0126 1676.1 -0.0071028 617.30 0.17619 0.014700 68.027 405.60 434.53 2.9909 0.93084 1.1198 186.51 1.3264 4.1958 0.0055752
-118.62 0.068946 4.6351e-05 -61.417 -61.415 -0.23948 662.86 0.0015086 -61.439 -61.438 -0.23963 1.3391 2.0146 1669.4 -0.0070878 604.74 0.17560 0.016325 61.255 406.53 435.64 2.9772 0.93401 1.1231 187.06 1.3058 4.2233 0.0056421
-117.62 0.076937 5.1352e-05 -59.399 -59.397 -0.22647 661.84 0.0015109 -59.423 -59.422 -0.22663 1.3395 2.0165 1662.8 -0.0070726 592.58 0.17501 0.018101 55.245 407.46 436.76 2.9638 0.93718 1.1263 187.60 1.2857 4.2507 0.0057092
-116.62 0.085718 5.6805e-05 -57.379 -57.377 -0.21352 660.82 0.0015133 -57.406 -57.405 -0.21370 1.3400 2.0184 1656.1 -0.0070573 580.80 0.17442 0.020040 49.901 408.39 437.88 2.9506 0.94035 1.1295 188.14 1.2660 4.2782 0.0057767
-115.62 0.095353 6.2742e-05 -55.357 -55.354 -0.20064 659.80 0.0015156 -55.386 -55.385 -0.20084 1.3404 2.0204 1649.4 -0.0070417 569.38 0.17383 0.022152 45.142 409.33 439.01 2.9377 0.94352 1.1327 188.68 1.2468 4.3056 0.0058444
-114.62 0.10591 6.9196e-05 -53.333 -53.330 -0.18783 658.78 0.0015180 -53.365 -53.364 -0.18805 1.3409 2.0224 1642.7 -0.0070260 558.32 0.17323 0.024451 40.898 410.27 440.13 2.9250 0.94669 1.1360 189.22 1.2281 4.3330 0.0059123
-113.62 0.11746 7.6203e-05 -51.306 -51.303 -0.17509 657.76 0.0015203 -51.342 -51.340 -0.17533 1.3413 2.0244 1636.0 -0.0070100 547.59 0.17264 0.026949 37.107 411.21 441.26 2.9126 0.94987 1.1392 189.75 1.2097 4.3604 0.0059806
-112.62 0.13008 8.3800e-05 -49.277 -49.274 -0.16241 656.73 0.0015227 -49.316 -49.315 -0.16267 1.3418 2.0264 1629.3 -0.0069938 537.18 0.17204 0.029661 33.715 412.16 442.39 2.9005 0.95305 1.1424 190.28 1.1918 4.3879 0.0060491
-111.62 0.14384 9.2025e-05 -47.246 -47.242 -0.14980 655.71 0.0015251 -47.289 -47.287 -0.15008 1.3424 2.0285 1622.7 -0.0069774 527.08 0.17144 0.032600 30.675 413.10 443.53 2.8885 0.95623 1.1457 190.81 1.1742 4.4153 0.0061180
-110.62 0.15884 0.00010092 -45.213 -45.208 -0.13725 654.69 0.0015274 -45.259 -45.258 -0.13755 1.3429 2.0305 1616.0 -0.0069609 517.28 0.17084 0.035781 27.948 414.06 444.66 2.8769 0.95942 1.1490 191.34 1.1570 4.4427 0.0061871
-109.62 0.17516 0.00011053 -43.177 -43.172 -0.12476 653.66 0.0015298 -43.228 -43.226 -0.12509 1.3435 2.0326 1609.3 -0.0069441 507.76 0.17024 0.039220 25.497 415.01 445.80 2.8654 0.96261 1.1522 191.86 1.1402 4.4701 0.0062564
-108.62 0.19290 0.00012089 -41.139 -41.133 -0.11233 652.64 0.0015322 -41.194 -41.192 -0.11269 1.3441 2.0347 1602.6 -0.0069271 498.51 0.16964 0.042933 23.292 415.96 446.94 2.8542 0.96581 1.1555 192.38 1.1236 4.4974 0.0063261
-107.62 0.21215 0.00013205 -39.098 -39.092 -0.099968 651.61 0.0015347 -39.158 -39.156 -0.10036 1.3447 2.0369 1595.9 -0.0069098 489.52 0.16903 0.046937 21.305 416.92 448.09 2.8433 0.96901 1.1588 192.90 1.1075 4.5248 0.0063960
-106.62 0.23301 0.00014406 -37.055 -37.048 -0.087662 650.58 0.0015371 -37.120 -37.118 -0.088082 1.3453 2.0390 1589.2 -0.0068924 480.79 0.16843 0.051250 19.512 417.88 449.23 2.8325 0.97222 1.1621 193.41 1.0916 4.5522 0.0064662
-105.62 0.25561 0.00015697 -35.009 -35.002 -0.075414 649.55 0.0015395 -35.080 -35.078 -0.075868 1.3460 2.0412 1582.6 -0.0068747 472.30 0.16782 0.055891 17.892 418.85 450.38 2.8220 0.97544 1.1655 193.93 1.0760 4.5795 0.0065367
-104.62 0.28004 0.00017083 -32.961 -32.952 -0.063223 648.52 0.0015420 -33.038 -33.035 -0.063714 1.3467 2.0434 1575.9 -0.0068569 464.04 0.16721 0.060878 16.426 419.81 451.53 2.8116 0.97867 1.1688 194.44 1.0608 4.6069 0.0066074
-103.62 0.30643 0.00018569 -30.910 -30.901 -0.051089 647.49 0.0015444 -30.994 -30.991 -0.051619 1.3474 2.0456 1569.2 -0.0068387 456.00 0.16660 0.066231 15.099 420.78 452.68 2.8015 0.98191 1.1722 194.94 1.0458 4.6342 0.0066785
-102.62 0.33490 0.00020161 -28.856 -28.846 -0.039011 646.46 0.0015469 -28.947 -28.944 -0.039582 1.3481 2.0478 1562.5 -0.0068204 448.18 0.16600 0.071971 13.894 421.75 453.84 2.7916 0.98516 1.1755 195.44 1.0310 4.6615 0.0067498
-101.62 0.36558 0.00021864 -26.800 -26.789 -0.026987 645.43 0.0015494 -26.898 -26.894 -0.027602 1.3489 2.0501 1555.8 -0.0068018 440.57 0.16539 0.078120 12.801 422.73 454.99 2.7818 0.98841 1.1789 195.95 1.0166 4.6888 0.0068213
-100.62 0.39862 0.00023685 -24.741 -24.729 -0.015018 644.39 0.0015519 -24.847 -24.843 -0.015678 1.3497 2.0524 1549.1 -0.0067830 433.16 0.16478 0.084699 11.807 423.70 456.15 2.7723 0.99168 1.1823 196.44 1.0024 4.7161 0.0068932
-99.625 0.43414 0.00025628 -22.679 -22.666 -0.0031012 643.36 0.0015544 -22.794 -22.789 -0.0038103 1.3505 2.0547 1542.4 -0.0067639 425.95 0.16416 0.091731 10.901 424.68 457.31 2.7630 0.99496 1.1858 196.94 0.98838 4.7434 0.0069653
-98.625 0.47230 0.00027702 -20.614 -20.600 0.0087634 642.32 0.0015569 -20.738 -20.733 0.0080027 1.3514 2.0570 1535.7 -0.0067447 418.92 0.16355 0.099240 10.077 425.66 458.48 2.7538 0.99825 1.1892 197.43 0.97464 4.7707 0.0070377
-97.625 0.51325 0.00029911 -18.547 -18.531 0.020577 641.28 0.0015594 -18.680 -18.674 0.019762 1.3522 2.0594 1529.0 -0.0067251 412.07 0.16294 0.10725 9.3239 426.65 459.64 2.7448 1.0016 1.1927 197.92 0.96112 4.7979 0.0071103
-96.625 0.55714 0.00032263 -16.476 -16.459 0.032340 640.24 0.0015619 -16.620 -16.614 0.031467 1.3531 2.0618 1522.3 -0.0067053 405.39 0.16233 0.11579 8.6365 427.63 460.81 2.7360 1.0049 1.1962 198.40 0.94783 4.8251 0.0071832
-95.625 0.60416 0.00034765 -14.403 -14.384 0.044053 639.20 0.0015645 -14.557 -14.550 0.043120 1.3540 2.0642 1515.7 -0.0066853 398.88 0.16171 0.12488 8.0078 428.62 461.98 2.7274 1.0082 1.1997 198.88 0.93475 4.8524 0.0072564
-94.625 0.65446 0.00037423 -12.326 -12.306 0.055718 638.16 0.0015670 -12.491 -12.484 0.054721 1.3550 2.0667 1509.0 -0.0066650 392.53 0.16110 0.13455 7.4323 429.61 463.15 2.7189 1.0116 1.2032 199.36 0.92188 4.8796 0.0073299
-93.625 0.70822 0.00040245 -10.246 -10.225 0.067335 637.12 0.0015696 -10.424 -10.416 0.066271 1.3560 2.0691 1502.3 -0.0066444 386.34 0.16048 0.14482 6.9050 430.60 464.32 2.7107 1.0149 1.2068 199.83 0.90921 4.9068 0.0074036
-92.625 0.76564 0.00043237 -8.1633 -8.1403 0.078905 636.07 0.0015722 -8.3535 -8.3452 0.077771 1.3570 2.0716 1495.6 -0.0066236 380.31 0.15987 0.15573 6.4212 431.60 465.49 2.7025 1.0183 1.2104 200.30 0.89673 4.9340 0.0074776
-91.625 0.82689 0.00046409 -6.0772 -6.0524 0.090429 635.02 0.0015747 -6.2808 -6.2719 0.089220 1.3580 2.0742 1488.9 -0.0066025 374.41 0.15925 0.16731 5.9769 432.59 466.67 2.6946 1.0217 1.2140 200.77 0.88445 4.9611 0.0075518
-90.625 0.89218 0.00049767 -3.9878 -3.9610 0.10191 633.98 0.0015773 -4.2056 -4.1959 0.10062 1.3591 2.0767 1482.2 -0.0065811 368.66 0.15864 0.17958 5.5685 433.59 467.84 2.6868 1.0251 1.2177 201.24 0.87236 4.9883 0.0076263
-89.625 0.96172 0.00053319 -1.8950 -1.8662 0.11334 632.93 0.0015800 -2.1279 -2.1174 0.11197 1.3602 2.0793 1475.5 -0.0065595 363.05 0.15802 0.19258 5.1928 434.59 469.02 2.6791 1.0285 1.2213 201.70 0.86045 5.0154 0.0077011
-88.625 1.0357 0.00057073 0.20112 0.23217 0.12473 631.88 0.0015826 -0.047516 -0.036215 0.12328 1.3613 2.0819 1468.8 -0.0065375 357.56 0.15740 0.20633 4.8466 435.59 470.20 2.6717 1.0320 1.2250 202.15 0.84873 5.0425 0.0077761
-87.625 1.1144 0.00061039 2.3007 2.3341 0.13608 630.83 0.0015852 2.0355 2.0476 0.13454 1.3625 2.0846 1462.1 -0.0065153 352.21 0.15679 0.22087 4.5276 436.60 471.39 2.6643 1.0354 1.2288 202.61 0.83718 5.0696 0.0078514
-86.625 1.1979 0.00065223 4.4038 4.4397 0.14739 629.77 0.0015879 4.1211 4.1342 0.14575 1.3637 2.0873 1455.4 -0.0064928 346.98 0.15617 0.23623 4.2331 437.61 472.57 2.6571 1.0389 1.2325 203.06 0.82580 5.0967 0.0079270
-85.625 1.2866 0.00069636 6.5105 6.5490 0.15865 628.72 0.0015905 6.2094 6.2235 0.15691 1.3649 2.0900 1448.8 -0.0064701 341.87 0.15555 0.25245 3.9612 438.61 473.75 2.6501 1.0424 1.2363 203.50 0.81460 5.1237 0.0080028
-84.625 1.3806 0.00074285 8.6208 8.6622 0.16987 627.66 0.0015932 8.3004 8.3155 0.16803 1.3661 2.0927 1442.1 -0.0064470 336.87 0.15494 0.26956 3.7097 439.63 474.94 2.6432 1.0460 1.2402 203.95 0.80356 5.1508 0.0080789
-83.625 1.4803 0.00079181 10.735 10.779 0.18106 626.60 0.0015959 10.394 10.410 0.17911 1.3674 2.0955 1435.4 -0.0064236 331.99 0.15432 0.28760 3.4771 440.64 476.13 2.6364 1.0495 1.2440 204.38 0.79269 5.1778 0.0081553
-82.625 1.5858 0.00084331 12.853 12.900 0.19220 625.54 0.0015986 12.491 12.508 0.19014 1.3687 2.0983 1428.7 -0.0063999 327.22 0.15370 0.30659 3.2616 441.65 477.31 2.6298 1.0531 1.2479 204.82 0.78199 5.2048 0.0082319
-81.625 1.6975 0.00089746 14.974 15.025 0.20331 624.48 0.0016013 14.590 14.609 0.20113 1.3700 2.1012 1422.0 -0.0063759 322.55 0.15309 0.32659 3.0619 442.67 478.50 2.6233 1.0567 1.2519 205.25 0.77144 5.2318 0.0083088
-80.625 1.8155 0.00095434 17.100 17.154 0.21438 623.42 0.0016041 16.692 16.712 0.21208 1.3714 2.1041 1415.4 -0.0063516 317.99 0.15247 0.34763 2.8766 443.69 479.70 2.6169 1.0603 1.2558 205.67 0.76106 5.2587 0.0083860
-79.625 1.9402 0.0010141 19.229 19.287 0.22541 622.36 0.0016068 18.797 18.819 0.22299 1.3728 2.1070 1408.7 -0.0063270 313.52 0.15186 0.36974 2.7046 444.71 480.89 2.6106 1.0639 1.2598 206.10 0.75083 5.2857 0.0084634
-78.625 2.0718 0.0010767 21.362 21.425 0.23640 621.29 0.0016096 20.905 20.928 0.23385 1.3742 2.1099 1402.0 -0.0063021 309.15 0.15124 0.39296 2.5448 445.73 482.08 2.6045 1.0676 1.2639 206.51 0.74076 5.3126 0.0085411
-77.625 2.2107 0.0011424 23.500 23.566 0.24736 620.22 0.0016123 23.016 23.040 0.24468 1.3757 2.1129 1395.3 -0.0062768 304.88 0.15062 0.41735 2.3961 446.75 483.27 2.5985 1.0712 1.2680 206.93 0.73084 5.3395 0.0086190
-76.625 2.3571 0.0012112 25.642 25.712 0.25829 619.15 0.0016151 25.130 25.156 0.25546 1.3772 2.1159 1388.7 -0.0062512 300.69 0.15001 0.44292 2.2577 447.78 484.47 2.5926 1.0749 1.2721 207.34 0.72107 5.3664 0.0086972
-75.625 2.5113 0.0012833 27.788 27.863 0.26918 618.08 0.0016179 27.247 27.275 0.26620 1.3787 2.1190 1382.0 -0.0062253 296.59 0.14939 0.46974 2.1288 448.81 485.67 2.5869 1.0787 1.2762 207.74 0.71146 5.3933 0.0087757
-74.625 2.6736 0.0013587 29.938 30.018 0.28004 617.01 0.0016207 29.366 29.396 0.27691 1.3802 2.1221 1375.4 -0.0061990 292.58 0.14878 0.49783 2.0087 449.83 486.86 2.5812 1.0824 1.2804 208.14 0.70200 5.4201 0.0088544
-73.625 2.8444 0.0014376 32.092 32.178 0.29087 615.93 0.0016236 31.489 31.521 0.28758 1.3818 2.1252 1368.7 -0.0061724 288.65 0.14816 0.52725 1.8966 450.86 488.06 2.5757 1.0862 1.2847 208.54 0.69268 5.4469 0.0089334
-72.625 3.0240 0.0015200 34.251 34.342 0.30166 614.85 0.0016264 33.615 33.649 0.29821 1.3834 2.1284 1362.0 -0.0061454 284.81 0.14755 0.55804 1.7920 451.90 489.26 2.5703 1.0900 1.2889 208.93 0.68351 5.4737 0.0090126
-71.625 3.2127 0.0016062 36.415 36.511 0.31242 613.78 0.0016293 35.745 35.781 0.30880 1.3851 2.1316 1355.4 -0.0061181 281.03 0.14694 0.59024 1.6942 452.93 490.46 2.5650 1.0938 1.2932 209.32 0.67448 5.5005 0.0090922
-70.625 3.4108 0.0016960 38.583 38.685 0.32315 612.69 0.0016321 37.877 37.915 0.31935 1.3867 2.1349 1348.7 -0.0060904 277.34 0.14632 0.62390 1.6028 453.96 491.66 2.5598 1.0976 1.2976 209.70 0.66560 5.5273 0.0091720
-69.625 3.6187 0.0017898 40.755 40.864 0.33385 611.61 0.0016350 40.013 40.053 0.32987 1.3884 2.1382 1342.1 -0.0060624 273.72 0.14571 0.65906 1.5173 455.00 492.86 2.5547 1.1015 1.3020 210.08 0.65687 5.5540 0.0092520
-68.625 3.8367 0.0018876 42.933 43.048 0.34453 610.53 0.0016379 42.152 42.195 0.34036 1.3902 2.1415 1335.5 -0.0060339 270.17 0.14510 0.69577 1.4372 456.04 494.06 2.5497 1.1054 1.3064 210.45 0.64827 5.5807 0.0093324
-67.625 4.0652 0.0019895 45.115 45.237 0.35517 609.44 0.0016409 44.294 44.340 0.35080 1.3919 2.1449 1328.8 -0.0060051 266.69 0.14449 0.73408 1.3622 457.08 495.26 2.5448 1.1093 1.3109 210.82 0.63981 5.6074 0.0094130
-66.625 4.3046 0.0020957 47.302 47.431 0.36579 608.35 0.0016438 46.439 46.488 0.36122 1.3937 2.1483 1322.2 -0.0059760 263.28 0.14388 0.77404 1.2919 458.12 496.46 2.5400 1.1133 1.3154 211.18 0.63150 5.6341 0.0094939
-65.625 4.5551 0.0022062 49.494 49.630 0.37637 607.26 0.0016467 48.588 48.640 0.37160 1.3955 2.1518 1315.6 -0.0059464 259.93 0.14327 0.81570 1.2259 459.16 497.67 2.5353 1.1172 1.3200 211.54 0.62332 5.6608 0.0095750
-64.625 4.8173 0.0023212 51.691 51.835 0.38693 606.16 0.0016497 50.740 50.795 0.38195 1.3974 2.1553 1308.9 -0.0059164 256.65 0.14266 0.85910 1.1640 460.21 498.87 2.5307 1.1212 1.3246 211.89 0.61527 5.6874 0.0096564
-63.625 5.0915 0.0024408 53.893 54.046 0.39747 605.07 0.0016527 52.896 52.954 0.39226 1.3993 2.1588 1302.3 -0.0058861 253.42 0.14205 0.90429 1.1058 461.25 500.07 2.5262 1.1252 1.3293 212.24 0.60736 5.7140 0.0097382
-62.625 5.3781 0.0025652 56.100 56.261 0.40798 603.97 0.0016557 55.055 55.117 0.40254 1.4012 2.1624 1295.7 -0.0058553 250.26 0.14144 0.95134 1.0511 462.30 501.28 2.5218 1.1293 1.3340 212.58 0.59958 5.7406 0.0098201
-61.625 5.6774 0.0026943 58.312 58.483 0.41846 602.87 0.0016587 57.218 57.283 0.41279 1.4031 2.1660 1289.1 -0.0058241 247.16 0.14084 1.0003 0.99972 463.35 502.48 2.5175 1.1333 1.3387 212.92 0.59194 5.7672 0.0099024
-60.625 5.9899 0.0028285 60.530 60.710 0.42892 601.77 0.0016618 59.385 59.453 0.42301 1.4051 2.1697 1282.5 -0.0057925 244.12 0.14023 1.0512 0.95131 464.40 503.68 2.5133 1.1374 1.3435 213.26 0.58442 5.7938 0.0099850
-59.625 6.3160 0.0029677 62.753 62.942 0.43936 600.66 0.0016648 61.554 61.627 0.43320 1.4071 2.1734 1275.9 -0.0057605 241.13 0.13962 1.1041 0.90573 465.45 504.89 2.5091 1.1415 1.3483 213.58 0.57704 5.8203 0.010068
-58.625 6.6561 0.0031122 64.982 65.181 0.44977 599.55 0.0016679 63.728 63.805 0.44335 1.4091 2.1772 1269.3 -0.0057280 238.19 0.13902 1.1591 0.86277 466.50 506.09 2.5051 1.1457 1.3532 213.90 0.56978 5.8468 0.010151
-57.625 7.0107 0.0032620 67.216 67.426 0.46016 598.44 0.0016710 65.905 65.986 0.45348 1.4111 2.1810 1262.7 -0.0056951 235.31 0.13842 1.2161 0.82228 467.55 507.30 2.5011 1.1498 1.3581 214.22 0.56265 5.8733 0.010234
-56.625 7.3801 0.0034173 69.455 69.676 0.47053 597.33 0.0016741 68.086 68.172 0.46358 1.4132 2.1848 1256.1 -0.0056617 232.48 0.13781 1.2754 0.78408 468.60 508.50 2.4972 1.1540 1.3631 214.53 0.55564 5.8998 0.010318
-55.625 7.7648 0.0035782 71.700 71.933 0.48087 596.22 0.0016772 70.271 70.361 0.47364 1.4153 2.1887 1249.5 -0.0056279 229.69 0.13721 1.3369 0.74802 469.66 509.71 2.4934 1.1582 1.3681 214.84 0.54875 5.9263 0.010402
-54.625 8.1652 0.0037449 73.951 74.196 0.49120 595.10 0.0016804 72.460 72.554 0.48368 1.4174 2.1927 1242.9 -0.0055937 226.96 0.13661 1.4006 0.71396 470.72 510.91 2.4897 1.1624 1.3731 215.14 0.54199 5.9527 0.010486
-53.625 8.5819 0.0039175 76.208 76.465 0.50150 593.98 0.0016836 74.652 74.752 0.49369 1.4196 2.1967 1236.3 -0.0055589 224.27 0.13601 1.4667 0.68178 471.77 512.11 2.4860 1.1667 1.3782 215.43 0.53535 5.9792 0.010571
-52.625 9.0151 0.0040960 78.471 78.741 0.51178 592.86 0.0016867 76.849 76.954 0.50368 1.4218 2.2007 1229.8 -0.0055237 221.63 0.13541 1.5353 0.65136 472.83 513.32 2.4824 1.1710 1.3834 215.72 0.52882 6.0056 0.010656
-51.625 9.4655 0.0042808 80.739 81.023 0.52205 591.73 0.0016900 79.049 79.159 0.51363 1.4240 2.2048 1223.2 -0.0054880 219.04 0.13482 1.6062 0.62258 473.89 514.52 2.4789 1.1752 1.3886 216.00 0.52241 6.0320 0.010741
-50.625 9.9335 0.0044718 83.014 83.312 0.53229 590.60 0.0016932 81.253 81.369 0.52356 1.4262 2.2089 1216.6 -0.0054519 216.48 0.13422 1.6797 0.59534 474.95 515.73 2.4755 1.1796 1.3938 216.28 0.51612 6.0584 0.010827
-49.625 10.419 0.0046692 85.295 85.607 0.54252 589.47 0.0016964 83.462 83.584 0.53347 1.4285 2.2131 1210.1 -0.0054152 213.98 0.13363 1.7558 0.56954 476.01 516.93 2.4722 1.1839 1.3991 216.55 0.50994 6.0848 0.010913
-48.625 10.924 0.0048732 87.581 87.909 0.55273 588.34 0.0016997 85.674 85.802 0.54334 1.4308 2.2173 1203.5 -0.0053780 211.51 0.13303 1.8345 0.54510 477.07 518.13 2.4689 1.1883 1.4044 216.82 0.50387 6.1112 0.010999
-47.625 11.448 0.0050839 89.875 90.218 0.56292 587.20 0.0017030 87.891 88.025 0.55319 1.4331 2.2216 1196.9 -0.0053403 209.08 0.13244 1.9159 0.52194 478.14 519.33 2.4657 1.1927 1.4098 217.08 0.49792 6.1375 0.011085
-46.625 11.991 0.0053015 92.174 92.533 0.57309 586.06 0.0017063 90.111 90.252 0.56302 1.4354 2.2259 1190.4 -0.0053020 206.69 0.13185 2.0001 0.49997 479.20 520.53 2.4625 1.1971 1.4153 217.33 0.49207 6.1639 0.011172
-45.625 12.554 0.0055260 94.480 94.856 0.58325 584.92 0.0017096 92.336 92.484 0.57282 1.4378 2.2303 1183.8 -0.0052633 204.34 0.13126 2.0872 0.47912 480.27 521.74 2.4594 1.2015 1.4207 217.58 0.48633 6.1902 0.011259
-44.625 13.137 0.0057577 96.792 97.186 0.59339 583.77 0.0017130 94.565 94.720 0.58260 1.4402 2.2347 1177.3 -0.0052240 202.03 0.13067 2.1771 0.45933 481.33 522.94 2.4564 1.2060 1.4263 217.82 0.48069 6.2165 0.011347
-43.625 13.741 0.0059967 99.111 99.523 0.60351 582.62 0.0017164 96.799 96.961 0.59235 1.4426 2.2392 1170.7 -0.0051841 199.75 0.13008 2.2700 0.44053 482.40 524.14 2.4535 1.2104 1.4319 218.05 0.47516 6.2429 0.011435
-42.625 14.367 0.0062431 101.44 101.87 0.61362 581.47 0.0017198 99.036 99.207 0.60208 1.4450 2.2437 1164.2 -0.0051437 197.51 0.12949 2.3659 0.42267 483.46 525.33 2.4506 1.2149 1.4375 218.28 0.46973 6.2692 0.011523
-41.625 15.015 0.0064971 103.77 104.22 0.62372 580.32 0.0017232 101.28 101.46 0.61179 1.4475 2.2483 1157.7 -0.0051027 195.30 0.12891 2.4649 0.40569 484.53 526.53 2.4478 1.2195 1.4432 218.50 0.46440 6.2955 0.011612
-40.625 15.686 0.0067588 106.11 106.58 0.63380 579.16 0.0017266 103.52 103.71 0.62147 1.4500 2.2529 1151.1 -0.0050611 193.13 0.12832 2.5671 0.38954 485.60 527.73 2.4450 1.2240 1.4489 218.72 0.45917 6.3218 0.011701
-39.625 16.380 0.0070284 108.45 108.94 0.64386 578.00 0.0017301 105.78 105.97 0.63113 1.4525 2.2576 1144.6 -0.0050189 190.99 0.12774 2.6725 0.37418 486.67 528.93 2.4423 1.2286 1.4547 218.93 0.45403 6.3481 0.011790
-38.625 17.097 0.0073061 110.81 111.32 0.65391 576.83 0.0017336 108.03 108.24 0.64077 1.4550 2.2623 1138.0 -0.0049761 188.88 0.12716 2.7813 0.35955 487.74 530.12 2.4397 1.2332 1.4606 219.13 0.44900 6.3744 0.011880
-37.625 17.838 0.0075919 113.17 113.70 0.66395 575.66 0.0017371 110.29 110.51 0.65039 1.4576 2.2671 1131.5 -0.0049327 186.81 0.12658 2.8934 0.34562 488.81 531.32 2.4371 1.2378 1.4665 219.33 0.44405 6.4007 0.011970
-36.625 18.604 0.0078860 115.53 116.09 0.67398 574.49 0.0017407 112.56 112.78 0.65999 1.4602 2.2719 1125.0 -0.0048887 184.76 0.12600 3.0089 0.33235 489.88 532.51 2.4346 1.2424 1.4724 219.52 0.43920 6.4270 0.012060
-35.625 19.395 0.0081887 117.91 118.49 0.68400 573.32 0.0017442 114.83 115.06 0.66956 1.4628 2.2768 1118.5 -0.0048440 182.75 0.12542 3.1280 0.31969 490.95 533.70 2.4321 1.2471 1.4784 219.70 0.43444 6.4533 0.012151
-34.625 20.212 0.0085000 120.29 120.89 0.69400 572.14 0.0017478 117.10 117.34 0.67912 1.4654 2.2818 1111.9 -0.0047987 180.76 0.12485 3.2506 0.30763 492.02 534.89 2.4297 1.2517 1.4845 219.88 0.42977 6.4797 0.012243
-33.625 21.056 0.0088201 122.67 123.31 0.70399 570.96 0.0017514 119.38 119.63 0.68865 1.4681 2.2868 1105.4 -0.0047527 178.80 0.12427 3.3770 0.29612 493.09 536.08 2.4273 1.2564 1.4906 220.05 0.42519 6.5060 0.012334
-32.625 21.926 0.0091492 125.07 125.73 0.71397 569.77 0.0017551 121.66 121.93 0.69817 1.4708 2.2918 1098.9 -0.0047061 176.87 0.12370 3.5071 0.28514 494.17 537.27 2.4250 1.2611 1.4968 220.21 0.42070 6.5323 0.012426
-31.625 22.823 0.0094874 127.47 128.16 0.72394 568.58 0.0017588 123.95 124.23 0.70767 1.4735 2.2970 1092.3 -0.0046587 174.97 0.12313 3.6410 0.27465 495.24 538.46 2.4227 1.2659 1.5031 220.36 0.41629 6.5587 0.012519
-30.625 23.749 0.0098349 129.88 130.59 0.73390 567.39 0.0017625 126.24 126.53 0.71714 1.4762 2.3021 1085.8 -0.0046107 173.09 0.12256 3.7787 0.26464 496.31 539.64 2.4205 1.2706 1.5094 220.51 0.41196 6.5850 0.012612
-29.625 24.703 0.010192 132.30 133.04 0.74384 566.19 0.0017662 128.54 128.84 0.72660 1.4790 2.3074 1079.3 -0.0045619 171.24 0.12200 3.9205 0.25507 497.38 540.83 2.4184 1.2754 1.5157 220.65 0.40772 6.6114 0.012706
-28.625 25.687 0.010559 134.73 135.50 0.75378 564.99 0.0017699 130.84 131.16 0.73604 1.4818 2.3126 1072.8 -0.0045124 169.42 0.12143 4.0663 0.24592 498.46 542.01 2.4162 1.2802 1.5222 220.79 0.40356 6.6378 0.012800
-27.625 26.700 0.010935 137.16 137.96 0.76371 563.78 0.0017737 133.15 133.48 0.74547 1.4846 2.3180 1066.2 -0.0044621 167.62 0.12087 4.2163 0.23717 499.53 543.19 2.4142 1.2850 1.5286 220.91 0.39947 6.6642 0.012894
-26.625 27.743 0.011321 139.60 140.43 0.77363 562.57 0.0017775 135.47 135.81 0.75487 1.4874 2.3234 1059.7 -0.0044111 165.84 0.12031 4.3705 0.22881 500.60 544.37 2.4122 1.2899 1.5352 221.03 0.39547 6.6906 0.012989
-25.625 28.817 0.011718 142.05 142.91 0.78354 561.36 0.0017814 137.78 138.14 0.76426 1.4902 2.3289 1053.2 -0.0043593 164.09 0.11975 4.5290 0.22080 501.68 545.55 2.4102 1.2947 1.5418 221.14 0.39154 6.7171 0.013084
-24.625 29.923 0.012125 144.50 145.40 0.79345 560.14 0.0017853 140.11 140.48 0.77363 1.4931 2.3344 1046.7 -0.0043067 162.36 0.11919 4.6918 0.21314 502.75 546.72 2.4083 1.2996 1.5485 221.25 0.38768 6.7436 0.013180
-23.625 31.061 0.012542 146.97 147.90 0.80334 558.92 0.0017892 142.44 142.82 0.78298 1.4960 2.3400 1040.1 -0.0042533 160.65 0.11863 4.8592 0.20580 503.82 547.90 2.4064 1.3045 1.5552 221.35 0.38391 6.7701 0.013277
-22.625 32.232 0.012970 149.44 150.41 0.81323 557.69 0.0017931 144.77 145.17 0.79232 1.4990 2.3457 1033.6 -0.0041990 158.97 0.11807 5.0311 0.19877 504.90 549.07 2.4045 1.3095 1.5621 221.44 0.38020 6.7967 0.013374
-21.625 33.435 0.013409 151.92 152.92 0.82311 556.46 0.0017971 147.11 147.52 0.80164 1.5019 2.3514 1027.1 -0.0041439 157.30 0.11752 5.2076 0.19203 505.97 550.24 2.4027 1.3144 1.5690 221.52 0.37656 6.8232 0.013471
-20.625 34.673 0.013859 154.41 155.45 0.83299 555.23 0.0018011 149.45 149.88 0.81095 1.5049 2.3572 1020.6 -0.0040879 155.66 0.11697 5.3889 0.18557 507.04 551.40 2.4010 1.3194 1.5759 221.59 0.37300 6.8499 0.013569
-19.625 35.946 0.014320 156.91 157.98 0.84285 553.99 0.0018051 151.80 152.25 0.82024 1.5079 2.3630 1014.0 -0.0040311 154.04 0.11642 5.5750 0.17937 508.11 552.57 2.3992 1.3244 1.5829 221.66 0.36950 6.8765 0.013668
-18.625 37.253 0.014792 159.41 160.53 0.85271 552.74 0.0018092 154.16 154.62 0.82952 1.5109 2.3689 1007.5 -0.0039733 152.44 0.11587 5.7660 0.17343 509.19 553.73 2.3976 1.3294 1.5901 221.72 0.36608 6.9032 0.013767
-17.625 38.596 0.015276 161.92 163.08 0.86257 551.49 0.0018133 156.52 157.00 0.83878 1.5140 2.3749 1001.0 -0.0039145 150.86 0.11532 5.9621 0.16773 510.26 554.89 2.3959 1.3345 1.5972 221.77 0.36272 6.9300 0.013867
-16.625 39.976 0.015772 164.45 165.64 0.87242 550.24 0.0018174 158.89 159.39 0.84803 1.5171 2.3810 994.44 -0.0038549 149.29 0.11478 6.1632 0.16225 511.33 556.05 2.3943 1.3395 1.6045 221.81 0.35942 6.9568 0.013968
-15.625 41.392 0.016280 166.98 168.22 0.88226 548.98 0.0018216 161.26 161.78 0.85726 1.5202 2.3871 987.91 -0.0037942 147.75 0.11423 6.3696 0.15700 512.40 557.20 2.3927 1.3446 1.6119 221.85 0.35619 6.9836 0.014069
-14.625 42.846 0.016800 169.51 170.80 0.89210 547.71 0.0018258 163.64 164.18 0.86649 1.5233 2.3933 981.37 -0.0037325 146.22 0.11369 6.5812 0.15195 513.47 558.36 2.3912 1.3497 1.6193 221.87 0.35302 7.0105 0.014170
-13.625 44.338 0.017332 172.06 173.39 0.90193 546.44 0.0018300 166.02 166.58 0.87569 1.5264 2.3996 974.83 -0.0036698 144.72 0.11315 6.7983 0.14710 514.54 559.51 2.3897 1.3549 1.6268 221.89 0.34992 7.0375 0.014273
-12.625 45.870 0.017877 174.62 175.99 0.91176 545.17 0.0018343 168.41 168.99 0.88489 1.5296 2.4059 968.29 -0.0036061 143.23 0.11261 7.0208 0.14243 515.61 560.65 2.3883 1.3600 1.6344 221.90 0.34688 7.0646 0.014376
-11.625 47.440 0.018435 177.18 178.60 0.92159 543.89 0.0018386 170.81 171.41 0.89407 1.5328 2.4124 961.75 -0.0035413 141.76 0.11208 7.2490 0.13795 516.68 561.80 2.3868 1.3652 1.6421 221.91 0.34389 7.0917 0.014479
-10.625 49.051 0.019006 179.76 181.23 0.93141 542.60 0.0018430 173.21 173.83 0.90324 1.5360 2.4189 955.20 -0.0034753 140.30 0.11154 7.4829 0.13364 517.75 562.94 2.3854 1.3704 1.6498 221.90 0.34097 7.1188 0.014584
-9.6250 50.703 0.019590 182.34 183.86 0.94123 541.31 0.0018474 175.61 176.26 0.91240 1.5393 2.4255 948.65 -0.0034082 138.86 0.11101 7.7226 0.12949 518.81 564.08 2.3841 1.3757 1.6577 221.88 0.33810 7.1461 0.014689
-8.6250 52.396 0.020187 184.93 186.50 0.95104 540.02 0.0018518 178.03 178.70 0.92154 1.5426 2.4321 942.10 -0.0033400 137.44 0.11048 7.9683 0.12550 519.88 565.21 2.3827 1.3809 1.6657 221.86 0.33529 7.1734 0.014795
-7.6250 54.131 0.020798 187.53 189.15 0.96085 538.72 0.0018563 180.45 181.14 0.93068 1.5459 2.4389 935.55 -0.0032705 136.03 0.10995 8.2200 0.12165 520.94 566.35 2.3814 1.3862 1.6737 221.83 0.33254 7.2008 0.014902
-6.6250 55.909 0.021423 190.14 191.81 0.97066 537.41 0.0018608 182.87 183.59 0.93980 1.5492 2.4457 928.99 -0.0031998 134.64 0.10942 8.4779 0.11795 522.01 567.48 2.3801 1.3915 1.6819 221.79 0.32984 7.2284 0.015009
-5.6250 57.730 0.022062 192.76 194.49 0.98047 536.10 0.0018653 185.30 186.05 0.94892 1.5525 2.4526 922.43 -0.0031279 133.27 0.10889 8.7420 0.11439 523.07 568.60 2.3789 1.3969 1.6902 221.74 0.32720 7.2560 0.015117
-4.6250 59.595 0.022715 195.38 197.17 0.99027 534.78 0.0018699 187.74 188.51 0.95802 1.5559 2.4596 915.87 -0.0030546 131.91 0.10837 9.0126 0.11096 524.13 569.72 2.3777 1.4022 1.6985 221.68 0.32461 7.2837 0.015226
-3.6250 61.505 0.023383 198.02 199.86 1.0001 533.45 0.0018746 190.19 190.98 0.96711 1.5593 2.4667 909.30 -0.0029800 130.56 0.10785 9.2896 0.10765 525.19 570.84 2.3765 1.4076 1.7070 221.62 0.32207 7.3115 0.015336
-2.6250 63.461 0.024065 200.67 202.57 1.0099 532.12 0.0018793 192.64 193.46 0.97620 1.5627 2.4739 902.73 -0.0029041 129.23 0.10733 9.5733 0.10446 526.25 571.96 2.3753 1.4131 1.7156 221.54 0.31958 7.3394 0.015447
-1.6250 65.462 0.024763 203.32 205.28 1.0197 530.78 0.0018840 195.10 195.95 0.98527 1.5662 2.4811 896.16 -0.0028267 127.91 0.10681 9.8638 0.10138 527.31 573.07 2.3742 1.4185 1.7243 221.45 0.31715 7.3674 0.015559
-0.62500 67.510 0.025475 205.99 208.01 1.0295 529.44 0.0018888 197.56 198.44 0.99434 1.5696 2.4885 889.58 -0.0027478 126.61 0.10629 10.161 0.098414 528.37 574.18 2.3731 1.4240 1.7331 221.36 0.31476 7.3956 0.015671
0.37500 69.606 0.026204 208.66 210.75 1.0393 528.09 0.0018936 200.03 200.94 1.0034 1.5731 2.4960 883.00 -0.0026675 125.32 0.10578 10.466 0.095552 529.42 575.28 2.3720 1.4295 1.7421 221.26 0.31242 7.4239 0.015785
1.3750 71.749 0.026948 211.34 213.50 1.0491 526.73 0.0018985 202.51 203.45 1.0124 1.5767 2.5035 876.42 -0.0025856 124.04 0.10527 10.777 0.092790 530.48 576.38 2.3709 1.4350 1.7512 221.14 0.31013 7.4523 0.015899
2.3750 73.941 0.027708 214.04 216.25 1.0588 525.37 0.0019034 204.99 205.96 1.0215 1.5802 2.5112 869.83 -0.0025022 122.78 0.10476 11.096 0.090123 531.53 577.47 2.3699 1.4406 1.7604 221.02 0.30789 7.4808 0.016015
3.3750 76.183 0.028484 216.74 219.03 1.0686 523.99 0.0019084 207.48 208.48 1.0305 1.5838 2.5190 863.24 -0.0024171 121.53 0.10425 11.422 0.087549 532.58 578.56 2.3688 1.4462 1.7697 220.89 0.30569 7.5095 0.016131
4.3750 78.475 0.029277 219.45 221.81 1.0784 522.62 0.0019134 209.98 211.01 1.0395 1.5874 2.5268 856.64 -0.0023303 120.29 0.10374 11.756 0.085062 533.63 579.65 2.3678 1.4518 1.7792 220.75 0.30354 7.5384 0.016249
5.3750 80.817 0.030087 222.18 224.60 1.0882 521.23 0.0019185 212.48 213.55 1.0486 1.5910 2.5348 850.04 -0.0022417 119.06 0.10324 12.098 0.082660 534.67 580.73 2.3669 1.4575 1.7888 220.60 0.30144 7.5674 0.016368
6.3750 83.211 0.030914 224.91 227.40 1.0980 519.84 0.0019237 215.00 216.10 1.0576 1.5946 2.5429 843.43 -0.0021514 117.85 0.10273 12.447 0.080340 535.72 581.81 2.3659 1.4632 1.7986 220.44 0.29938 7.5966 0.016487
7.3750 85.657 0.031758 227.65 230.22 1.1078 518.44 0.0019289 217.51 218.65 1.0666 1.5983 2.5511 836.82 -0.0020593 116.65 0.10223 12.805 0.078096 536.76 582.88 2.3650 1.4689 1.8085 220.27 0.29736 7.6259 0.016608
8.3750 88.156 0.032621 230.41 233.05 1.1176 517.03 0.0019341 220.04 221.22 1.0756 1.6020 2.5595 830.20 -0.0019652 115.46 0.10173 13.170 0.075928 537.80 583.95 2.3640 1.4746 1.8186 220.08 0.29538 7.6555 0.016730
9.3750 90.708 0.033501 233.17 235.89 1.1274 515.62 0.0019394 222.57 223.79 1.0846 1.6057 2.5679 823.58 -0.0018691 114.28 0.10124 13.545 0.073830 538.84 585.01 2.3631 1.4804 1.8288 219.89 0.29345 7.6852 0.016853
10.375 93.315 0.034399 235.94 238.74 1.1372 514.19 0.0019448 225.11 226.37 1.0936 1.6095 2.5765 816.96 -0.0017710 113.11 0.10074 13.927 0.071802 539.87 586.07 2.3622 1.4863 1.8392 219.69 0.29156 7.7151 0.016978
11.375 95.977 0.035316 238.72 241.60 1.1470 512.76 0.0019502 227.66 228.95 1.1025 1.6132 2.5852 810.32 -0.0016708 111.95 0.10025 14.319 0.069840 540.90 587.12 2.3614 1.4921 1.8498 219.48 0.28971 7.7452 0.017103
12.375 98.694 0.036252 241.52 244.48 1.1568 511.32 0.0019557 230.22 231.55 1.1115 1.6170 2.5940 803.68 -0.0015685 110.80 0.099756 14.719 0.067941 541.93 588.17 2.3605 1.4980 1.8605 219.26 0.28790 7.7756 0.017230
13.375 101.47 0.037208 244.32 247.36 1.1666 509.87 0.0019613 232.78 234.15 1.1205 1.6208 2.6030 797.04 -0.0014639 109.67 0.099267 15.128 0.066103 542.96 589.21 2.3597 1.5040 1.8715 219.03 0.28612 7.8061 0.017359
14.375 104.30 0.038183 247.14 250.26 1.1764 508.42 0.0019669 235.35 236.77 1.1295 1.6247 2.6121 790.39 -0.0013569 108.54 0.098779 15.547 0.064323 543.99 590.24 2.3588 1.5099 1.8826 218.79 0.28439 7.8369 0.017488
15.375 107.19 0.039178 249.96 253.17 1.1862 506.95 0.0019726 237.93 239.39 1.1384 1.6286 2.6214 783.73 -0.0012476 107.43 0.098294 15.974 0.062600 545.01 591.27 2.3580 1.5159 1.8940 218.53 0.28270 7.8680 0.017619
16.375 110.13 0.040193 252.80 256.10 1.1960 505.48 0.0019783 240.52 242.02 1.1474 1.6324 2.6308 777.07 -0.0011357 106.32 0.097810 16.412 0.060931 546.03 592.29 2.3572 1.5220 1.9055 218.27 0.28104 7.8993 0.017752
17.375 113.14 0.041230 255.64 259.04 1.2058 504.00 0.0019841 243.11 244.66 1.1564 1.6364 2.6403 770.40 -0.0010213 105.22 0.097328 16.859 0.059314 547.04 593.31 2.3564 1.5281 1.9172 217.99 0.27942 7.9308 0.017886
18.375 116.21 0.042287 258.50 261.98 1.2157 502.50 0.0019900 245.72 247.31 1.1653 1.6403 2.6501 763.72 -0.00090422 104.14 0.096848 17.317 0.057747 548.05 594.32 2.3557 1.5342 1.9292 217.71 0.27783 7.9626 0.018021
19.375 119.33 0.043366 261.37 264.95 1.2255 501.00 0.0019960 248.33 249.97 1.1743 1.6443 2.6599 757.04 -0.00078435 103.06 0.096371 17.785 0.056228 549.06 595.33 2.3549 1.5404 1.9414 217.41 0.27628 7.9947 0.018159
20.375 122.52 0.044467 264.25 267.92 1.2353 499.49 0.0020020 250.95 252.64 1.1832 1.6483 2.6700 750.35 -0.00066161 101.99 0.095895 18.263 0.054756 550.07 596.32 2.3541 1.5466 1.9538 217.10 0.27477 8.0272 0.018297
21.375 125.77 0.045590 267.14 270.91 1.2451 497.97 0.0020082 253.57 255.32 1.1922 1.6523 2.6802 743.64 -0.00053589 100.93 0.095420 18.752 0.053328 551.07 597.31 2.3534 1.5528 1.9665 216.78 0.27329 8.0599 0.018438
22.375 129.08 0.046736 270.04 273.91 1.2550 496.43 0.0020144 256.21 258.00 1.2012 1.6563 2.6906 736.94 -0.00040708 99.877 0.094948 19.252 0.051943 552.07 598.30 2.3526 1.5591 1.9795 216.45 0.27184 8.0929 0.018580
23.375 132.46 0.047905 272.95 276.92 1.2648 494.89 0.0020206 258.86 260.70 1.2101 1.6604 2.7012 730.22 -0.00027505 98.834 0.094478 19.763 0.050600 553.06 599.27 2.3519 1.5655 1.9927 216.11 0.27043 8.1263 0.018724
24.375 135.90 0.049098 275.87 279.95 1.2746 493.34 0.0020270 261.51 263.41 1.2191 1.6645 2.7120 723.49 -0.00013968 97.800 0.094009 20.285 0.049297 554.05 600.24 2.3512 1.5718 2.0061 215.75 0.26906 8.1600 0.018870
25.375 139.41 0.050314 278.81 282.99 1.2845 491.77 0.0020335 264.17 266.13 1.2280 1.6686 2.7230 716.76 -8.3775e-07 96.773 0.093543 20.820 0.048032 555.03 601.20 2.3504 1.5783 2.0199 215.39 0.26771 8.1941 0.019017
26.375 142.98 0.051556 281.75 286.04 1.2943 490.20 0.0020400 266.84 268.85 1.2370 1.6728 2.7342 710.01 0.00014161 95.755 0.093078 21.366 0.046804 556.01 602.15 2.3497 1.5847 2.0340 215.01 0.26640 8.2286 0.019167
27.375 146.62 0.052823 284.71 289.10 1.3042 488.61 0.0020466 269.52 271.59 1.2459 1.6770 2.7456 703.26 0.00028782 94.745 0.092615 21.924 0.045612 556.99 603.10 2.3490 1.5913 2.0484 214.62 0.26512 8.2634 0.019319
28.375 150.33 0.054115 287.68 292.18 1.3141 487.01 0.0020533 272.21 274.34 1.2549 1.6812 2.7573 696.49 0.00043793 93.742 0.092154 22.495 0.044454 557.96 604.03 2.3483 1.5978 2.0631 214.21 0.26387 8.2987 0.019472
29.375 154.10 0.055433 290.66 295.28 1.3239 485.40 0.0020601 274.91 277.10 1.2638 1.6854 2.7691 689.72 0.00059212 92.747 0.091695 23.079 0.043329 558.92 604.96 2.3476 1.6044 2.0781 213.80 0.26265 8.3344 0.019628
30.375 157.94 0.056779 293.65 298.38 1.3338 483.78 0.0020671 277.62 279.87 1.2728 1.6897 2.7813 682.93 0.00075055 91.760 0.091238 23.676 0.042237 559.88 605.88 2.3469 1.6111 2.0935 213.37 0.26147 8.3705 0.019786
31.375 161.86 0.058151 296.65 301.50 1.3437 482.15 0.0020741 280.34 282.66 1.2818 1.6939 2.7936 676.13 0.00091340 90.779 0.090782 24.287 0.041175 560.84 606.79 2.3462 1.6178 2.1092 212.93 0.26031 8.4071 0.019947
32.375 165.84 0.059552 299.67 304.64 1.3536 480.50 0.0020812 283.07 285.45 1.2908 1.6983 2.8063 669.32 0.0010809 89.806 0.090328 24.911 0.040143 561.79 607.69 2.3455 1.6246 2.1254 212.48 0.25919 8.4442 0.020110
33.375 169.90 0.060981 302.70 307.79 1.3635 478.83 0.0020884 285.81 288.26 1.2997 1.7026 2.8192 662.50 0.0012532 88.840 0.089876 25.549 0.039140 562.73 608.58 2.3448 1.6314 2.1419 212.01 0.25809 8.4818 0.020275
34.375 174.02 0.062439 305.74 310.95 1.3734 477.16 0.0020957 288.56 291.07 1.3087 1.7070 2.8324 655.67 0.0014305 87.880 0.089426 26.202 0.038164 563.67 609.46 2.3440 1.6383 2.1589 211.53 0.25702 8.5199 0.020443
35.375 178.22 0.063927 308.79 314.13 1.3833 475.47 0.0021032 291.32 293.90 1.3177 1.7114 2.8459 648.82 0.0016131 86.927 0.088977 26.870 0.037216 564.60 610.33 2.3433 1.6452 2.1763 211.04 0.25599 8.5586 0.020613
36.375 182.50 0.065445 311.85 317.32 1.3932 473.77 0.0021107 294.09 296.74 1.3267 1.7158 2.8597 641.96 0.0018012 85.980 0.088531 27.553 0.036293 565.52 611.19 2.3426 1.6522 2.1942 210.53 0.25498 8.5978 0.020786
37.375 186.84 0.066995 314.93 320.53 1.4031 472.05 0.0021184 296.87 299.60 1.3357 1.7203 2.8739 635.08 0.0019950 85.040 0.088085 28.252 0.035395 566.44 612.04 2.3419 1.6592 2.2125 210.01 0.25400 8.6376 0.020962
38.375 191.27 0.068577 318.02 323.75 1.4130 470.31 0.0021262 299.66 302.46 1.3447 1.7248 2.8884 628.19 0.0021949 84.105 0.087642 28.967 0.034522 567.35 612.88 2.3411 1.6663 2.2314 209.47 0.25305 8.6780 0.021141
39.375 195.77 0.070191 321.12 326.99 1.4230 468.56 0.0021342 302.46 305.34 1.3537 1.7293 2.9033 621.29 0.0024011 83.177 0.087200 29.699 0.033671 568.26 613.70 2.3404 1.6734 2.2508 208.92 0.25213 8.7190 0.021323
40.375 200.34 0.071840 324.23 330.24 1.4329 466.80 0.0021423 305.27 308.23 1.3627 1.7339 2.9185 614.37 0.0026140 82.254 0.086760 30.447 0.032844 569.15 614.52 2.3396 1.6806 2.2708 208.36 0.25123 8.7608 0.021508
41.375 205.00 0.073522 327.36 333.50 1.4429 465.01 0.0021505 308.10 311.14 1.3718 1.7385 2.9342 607.43 0.0028338 81.338 0.086322 31.214 0.032037 570.04 615.32 2.3389 1.6879 2.2913 207.78 0.25037 8.8032 0.021696
42.375 209.73 0.075240 330.50 336.79 1.4528 463.21 0.0021588 310.94 314.06 1.3808 1.7432 2.9502 600.47 0.0030609 80.426 0.085885 31.998 0.031252 570.92 616.11 2.3381 1.6952 2.3125 207.19 0.24953 8.8463 0.021888
43.375 214.54 0.076994 333.65 340.08 1.4628 461.40 0.0021673 313.79 316.99 1.3899 1.7478 2.9667 593.50 0.0032957 79.520 0.085449 32.800 0.030488 571.79 616.88 2.3373 1.7027 2.3344 206.58 0.24871 8.8902 0.022084
44.375 219.43 0.078786 336.82 343.39 1.4728 459.56 0.0021760 316.65 319.94 1.3989 1.7525 2.9837 586.51 0.0035386 78.619 0.085015 33.622 0.029742 572.65 617.65 2.3365 1.7101 2.3569 205.96 0.24793 8.9349 0.022283
45.375 224.41 0.080615 340.00 346.72 1.4828 457.71 0.0021848 319.52 322.90 1.4080 1.7573 3.0012 579.50 0.0037900 77.723 0.084583 34.463 0.029016 573.50 618.40 2.3357 1.7177 2.3802 205.32 0.24717 8.9805 0.022485
46.375 229.46 0.082484 343.19 350.07 1.4928 455.83 0.0021938 322.41 325.88 1.4171 1.7621 3.0192 572.46 0.0040504 76.832 0.084152 35.325 0.028308 574.34 619.13 2.3349 1.7253 2.4042 204.67 0.24644 9.0269 0.022692
47.375 234.60 0.084394 346.40 353.43 1.5028 453.94 0.0022029 325.31 328.87 1.4262 1.7669 3.0377 565.41 0.0043202 75.946 0.083723 36.208 0.027618 575.17 619.85 2.3340 1.7329 2.4291 204.00 0.24573 9.0742 0.022903
48.375 239.83 0.086345 349.62 356.80 1.5129 452.03 0.0022123 328.22 331.88 1.4353 1.7718 3.0569 558.34 0.0046000 75.064 0.083295 37.112 0.026945 576.00 620.55 2.3332 1.7407 2.4548 203.31 0.24505 9.1224 0.023119
49.375 245.13 0.088338 352.85 360.20 1.5229 450.09 0.0022218 331.15 334.90 1.4445 1.7767 3.0766 551.24 0.0048904 74.186 0.082868 38.039 0.026289 576.81 621.24 2.3323 1.7485 2.4815 202.61 0.24440 9.1716 0.023339
50.375 250.53 0.090376 356.10 363.61 1.5330 448.13 0.0022315 334.09 337.94 1.4536 1.7817 3.0970 544.13 0.0051920 73.313 0.082442 38.989 0.025648 577.61 621.91 2.3314 1.7564 2.5092 201.89 0.24377 9.2219 0.023564
51.375 256.01 0.092460 359.36 367.03 1.5430 446.15 0.0022414 337.04 341.00 1.4628 1.7867 3.1181 536.98 0.0055054 72.443 0.082018 39.962 0.025024 578.39 622.56 2.3304 1.7644 2.5379 201.16 0.24317 9.2733 0.023794
52.375 261.57 0.094590 362.64 370.48 1.5531 444.15 0.0022515 340.01 344.07 1.4720 1.7918 3.1400 529.82 0.0058313 71.577 0.081595 40.961 0.024414 579.17 623.20 2.3295 1.7724 2.5677 200.41 0.24260 9.3258 0.024029
53.375 267.23 0.096769 365.93 373.94 1.5632 442.12 0.0022618 343.00 347.17 1.4812 1.7969 3.1627 522.62 0.0061705 70.715 0.081174 41.985 0.023818 579.93 623.81 2.3285 1.7805 2.5987 199.63 0.24205 9.3795 0.024270
54.375 272.97 0.098998 369.23 377.41 1.5733 440.06 0.0022724 346.00 350.28 1.4904 1.8021 3.1862 515.40 0.0065239 69.856 0.080753 43.036 0.023237 580.68 624.41 2.3274 1.7887 2.6310 198.85 0.24154 9.4344 0.024516
55.375 278.81 0.10128 372.55 380.91 1.5834 437.98 0.0022832 349.02 353.40 1.4997 1.8073 3.2106 508.15 0.0068923 69.001 0.080334 44.114 0.022669 581.41 624.99 2.3264 1.7969 2.6646 198.04 0.24105 9.4907 0.024769
56.375 284.74 0.10361 375.89 384.42 1.5936 435.87 0.0022943 352.05 356.55 1.5090 1.8126 3.2360 500.87 0.0072767 68.148 0.079915 45.221 0.022114 582.13 625.54 2.3253 1.8052 2.6998 197.22 0.24059 9.5484 0.025028
57.375 290.76 0.10600 379.24 387.96 1.6037 433.73 0.0023056 355.10 359.72 1.5183 1.8179 3.2624 493.56 0.0076782 67.299 0.079498 46.358 0.021571 582.83 626.07 2.3241 1.8136 2.7365 196.37 0.24016 9.6075 0.025294
58.375 296.87 0.10845 382.61 391.50 1.6139 431.56 0.0023172 358.17 362.91 1.5276 1.8233 3.2900 486.22 0.0080980 66.451 0.079082 47.525 0.021041 583.52 626.58 2.3230 1.8220 2.7749 195.51 0.23976 9.6682 0.025568
59.375 303.08 0.11096 385.99 395.07 1.6241 429.36 0.0023290 361.25 366.12 1.5370 1.8288 3.3188 478.84 0.0085373 65.606 0.078666 48.726 0.020523 584.18 627.07 2.3218 1.8305 2.8152 194.63 0.23939 9.7305 0.025849
60.375 309.38 0.11353 389.39 398.66 1.6343 427.13 0.0023412 364.36 369.35 1.5464 1.8343 3.3489 471.43 0.0089976 64.763 0.078251 49.960 0.020016 584.83 627.53 2.3205 1.8391 2.8576 193.73 0.23905 9.7945 0.026138
61.375 315.78 0.11616 392.80 402.27 1.6445 424.87 0.0023537 367.48 372.60 1.5558 1.8400 3.3805 463.99 0.0094803 63.922 0.077838 51.229 0.019520 585.46 627.96 2.3192 1.8479 2.9022 192.82 0.23873 9.8603 0.026436
62.375 322.28 0.11887 396.23 405.89 1.6547 422.56 0.0023665 370.62 375.88 1.5653 1.8457 3.4136 456.50 0.0099871 63.083 0.077425 52.535 0.019035 586.07 628.37 2.3178 1.8567 2.9492 191.88 0.23845 9.9281 0.026744
63.375 328.88 0.12164 399.68 409.54 1.6650 420.22 0.0023797 373.79 379.18 1.5748 1.8514 3.4483 448.97 0.010520 62.244 0.077012 53.879 0.018560 586.66 628.74 2.3164 1.8656 2.9989 190.92 0.23819 9.9979 0.027061
64.375 335.58 0.12448 403.15 413.21 1.6753 417.85 0.0023932 376.97 382.51 1.5844 1.8573 3.4850 441.40 0.011081 61.407 0.076600 55.265 0.018095 587.22 629.09 2.3149 1.8747 3.0517 189.95 0.23796 10.070 0.027389
65.375 342.38 0.12741 406.63 416.89 1.6856 415.42 0.0024072 380.18 385.86 1.5939 1.8633 3.5236 433.79 0.011672 60.570 0.076189 56.692 0.017639 587.76 629.40 2.3133 1.8839 3.1077 188.95 0.23775 10.144 0.027729
66.375 349.28 0.13041 410.13 420.60 1.6959 412.96 0.0024215 383.41 389.25 1.6036 1.8693 3.5645 426.12 0.012296 59.733 0.075779 58.165 0.017193 588.28 629.68 2.3117 1.8933 3.1674 187.93 0.23757 10.221 0.028080
67.375 356.28 0.13350 413.65 424.33 1.7063 410.45 0.0024363 386.67 392.65 1.6133 1.8755 3.6078 418.41 0.012956 58.897 0.075368 59.684 0.016755 588.76 629.92 2.3100 1.9030 3.2311 186.89 0.23740 10.300 0.028446
68.375 363.40 0.13667 417.19 428.08 1.7166 407.89 0.0024516 389.95 396.09 1.6230 1.8818 3.6537 410.64 0.013655 58.059 0.074959 61.253 0.016326 589.22 630.13 2.3082 1.9129 3.2994 185.83 0.23724 10.382 0.028825
69.375 370.61 0.13994 420.74 431.85 1.7270 405.28 0.0024674 393.26 399.57 1.6328 1.8882 3.7027 402.81 0.014396 57.221 0.074549 62.875 0.015905 589.65 630.29 2.3064 1.9231 3.3727 184.74 0.23710 10.467 0.029221
70.375 377.94 0.14331 424.32 435.65 1.7375 402.62 0.0024838 396.60 403.07 1.6426 1.8947 3.7550 394.92 0.015183 56.381 0.074141 64.552 0.015491 590.04 630.41 2.3044 1.9336 3.4518 183.63 0.23697 10.555 0.029633
71.375 385.37 0.14677 427.92 439.47 1.7479 399.89 0.0025007 399.96 406.61 1.6525 1.9014 3.8109 386.97 0.016021 55.540 0.073732 66.288 0.015086 590.40 630.49 2.3024 1.9444 3.5371 182.50 0.23684 10.647 0.030064
72.375 392.92 0.15035 431.53 443.31 1.7584 397.11 0.0025182 403.36 410.18 1.6625 1.9083 3.8711 378.95 0.016915 54.696 0.073324 68.087 0.014687 590.73 630.51 2.3002 1.9556 3.6297 181.34 0.23671 10.743 0.030515
73.375 400.57 0.15405 435.17 447.18 1.7689 394.26 0.0025364 406.79 413.80 1.6726 1.9153 3.9359 370.85 0.017871 53.848 0.072917 69.953 0.014295 591.01 630.49 2.2979 1.9673 3.7303 180.16 0.23658 10.842 0.030989
74.375 408.34 0.15786 438.83 451.07 1.7795 391.34 0.0025553 410.26 417.45 1.6827 1.9226 4.0060 362.67 0.018894 52.997 0.072510 71.890 0.013910 591.25 630.41 2.2955 1.9793 3.8401 178.95 0.23643 10.946 0.031488
75.375 416.23 0.16181 442.51 454.99 1.7900 388.34 0.0025751 413.76 421.15 1.6930 1.9301 4.0822 354.41 0.019993 52.142 0.072104 73.904 0.013531 591.44 630.27 2.2930 1.9919 3.9604 177.71 0.23627 11.054 0.032014
76.375 424.23 0.16589 446.22 458.94 1.8007 385.26 0.0025957 417.31 424.90 1.7033 1.9378 4.1654 346.06 0.021177 51.281 0.071699 76.001 0.013158 591.59 630.07 2.2903 2.0050 4.0927 176.44 0.23609 11.168 0.032570
77.375 432.35 0.17013 449.95 462.91 1.8113 382.09 0.0026172 420.89 428.70 1.7137 1.9459 4.2565 337.60 0.022455 50.414 0.071295 78.187 0.012790 591.68 629.80 2.2874 2.0186 4.2389 175.15 0.23588 11.287 0.033161
78.375 440.59 0.17452 453.70 466.91 1.8220 378.83 0.0026397 424.53 432.54 1.7243 1.9543 4.3570 329.05 0.023838 49.539 0.070893 80.469 0.012427 591.71 629.46 2.2844 2.0328 4.4012 173.82 0.23563 11.412 0.033789
79.375 448.95 0.17908 457.48 470.94 1.8328 375.46 0.0026634 428.21 436.45 1.7349 1.9631 4.4684 320.38 0.025341 48.657 0.070494 82.856 0.012069 591.68 629.04 2.2812 2.0475 4.5824 172.46 0.23535 11.544 0.034461
80.375 457.44 0.18383 461.29 475.00 1.8435 371.97 0.0026884 431.94 440.42 1.7457 1.9723 4.5928 311.58 0.026980 47.764 0.070099 85.359 0.011715 591.58 628.53 2.2778 2.0630 4.7859 171.07 0.23501 11.684 0.035181
81.375 466.05 0.18879 465.13 479.10 1.8544 368.36 0.0027147 435.74 444.46 1.7567 1.9820 4.7327 302.66 0.028773 46.860 0.069708 87.988 0.011365 591.40 627.92 2.2742 2.0791 5.0161 169.64 0.23461 11.832 0.035957
82.375 474.79 0.19396 468.99 483.23 1.8653 364.61 0.0027427 439.60 448.58 1.7678 1.9924 4.8914 293.60 0.030744 45.942 0.069323 90.757 0.011018 591.14 627.21 2.2703 2.0959 5.2786 168.17 0.23413 11.989 0.036797
83.375 483.66 0.19937 472.89 487.39 1.8762 360.70 0.0027724 443.53 452.78 1.7791 2.0034 5.0731 284.38 0.032920 45.010 0.068948 93.681 0.010674 590.79 626.38 2.2661 2.1136 5.5807 166.67 0.23357 12.157 0.037711
84.375 492.67 0.20505 476.82 491.59 1.8872 356.61 0.0028041 447.54 457.07 1.7907 2.0153 5.2834 275.00 0.035335 44.059 0.068586 96.781 0.010333 590.33 625.42 2.2616 2.1321 5.9321 165.13 0.23290 12.338 0.038713
85.375 501.81 0.21102 480.79 495.83 1.8983 352.33 0.0028382 451.65 461.47 1.8025 2.0281 5.5302 265.44 0.038030 43.088 0.068241 100.08 0.0099920 589.74 624.31 2.2567 2.1517 6.3459 163.54 0.23209 12.532 0.039819
86.375 511.09 0.21732 484.79 500.11 1.9095 347.82 0.0028751 455.85 465.98 1.8145 2.0420 5.8240 255.69 0.041058 42.092 0.067923 103.61 0.0096520 589.03 623.04 2.2514 2.1723 6.8405 161.91 0.23112 12.743 0.041051
87.375 520.51 0.22399 488.84 504.44 1.9207 343.04 0.0029151 460.18 470.64 1.8269 2.0574 6.1803 245.72 0.044485 41.066 0.067640 107.40 0.0093114 588.15 621.56 2.2456 2.1943 7.4422 160.23 0.22995 12.973 0.042436
88.375 530.07 0.23108 492.93 508.82 1.9320 337.95 0.0029590 464.64 475.45 1.8397 2.0745 6.6221 235.52 0.048397 40.005 0.067412 111.50 0.0089689 587.08 619.86 2.2392 2.2178 8.1900 158.49 0.22854 13.226 0.044014
89.375 539.79 0.23866 497.08 513.26 1.9435 332.48 0.0030077 469.27 480.46 1.8530 2.0936 7.1851 225.04 0.052906 38.901 0.067265 115.97 0.0086228 585.79 617.88 2.2321 2.2433 9.1445 156.69 0.22681 13.508 0.045839
90.375 549.66 0.24681 501.28 517.75 1.9551 326.55 0.0030623 474.10 485.71 1.8669 2.1156 7.9284 214.26 0.058166 37.742 0.067243 120.91 0.0082708 584.22 615.56 2.2241 2.2711 10.405 154.82 0.22467 13.825 0.047992
91.375 559.68 0.25561 505.54 522.32 1.9668 320.03 0.0031247 479.19 491.25 1.8815 2.1412 8.9568 203.11 0.064389 36.514 0.067421 126.43 0.0079097 582.29 612.82 2.2150 2.3019 12.146 152.85 0.22200 14.189 0.050600
92.375 569.87 0.26521 509.89 526.97 1.9787 312.73 0.0031976 484.62 497.18 1.8972 2.1718 10.475 191.54 0.071885 35.195 0.067931 132.72 0.0075346 579.91 609.51 2.2045 2.3370 14.705 150.75 0.21862 14.618 0.053877
93.375 580.24 0.27575 514.33 531.73 1.9908 304.34 0.0032858 490.52 503.67 1.9143 2.2100 12.945 179.43 0.081133 33.755 0.069025 140.11 0.0071373 576.87 605.42 2.1919 2.3779 18.828 148.48 0.21421 15.146 0.058225
94.375 590.79 0.28733 518.91 536.62 2.0033 294.25 0.0033985 497.17 511.01 1.9336 2.2603 17.657 166.61 0.092934 32.154 0.071243 149.20 0.0067025 572.82 600.12 2.1761 2.4283 26.557 145.93 0.20825 15.847 0.064529
95.375 601.53 0.29942 523.69 541.72 2.0163 280.99 0.0035589 505.21 519.97 1.9572 2.3343 30.014 152.73 0.10888 30.366 0.076197 161.45 0.0061937 566.92 592.61 2.1544 2.4956 46.113 142.79 0.19953 16.960 0.075419
96.375 612.50 0.29947 528.92 547.29 2.0305 258.02 0.0038757 517.56 533.93 1.9943 2.4799 125.86 136.81 0.13399 28.436 0.097271 183.41 0.0054523 555.50 578.53 2.1150 2.6070 182.91 137.67 0.18336 19.789 0.10964
97.375 623.98 undefined 532.94 551.64 2.0413 230.00 0.0043478 532.94 551.64 2.0413 2.5907 224.39 133.20 0.15208 25.607 0.11148 230.00 0.0043478 532.94 551.64 2.0413 2.5907 224.39 133.20 0.15208 25.607 0.11148
98.375 635.70 undefined 535.49 554.55 2.0482 230.00 0.0043478 535.49 554.55 2.0482 2.5239 88.975 137.17 0.14817 24.555 0.090567 230.00 0.0043478 535.49 554.55 2.0482 2.5239 88.975 137.17 0.14817 24.555 0.090567
99.375 647.49 undefined 537.99 557.40 2.0549 230.00 0.0043478 537.99 557.40 2.0549 2.4685 55.065 140.85 0.14447 24.026 0.082409 230.00 0.0043478 537.99 557.40 2.0549 2.4685 55.065 140.85 0.14447 24.026 0.082409
100.38 659.34 undefined 540.44 560.20 2.0615 230.00 0.0043478 540.44 560.20 2.0615 2.4228 39.784 144.26 0.14097 23.764 0.077529 230.00 0.0043478 540.44 560.20 2.0615 2.4228 39.784 144.26 0.14097 23.764 0.077529
101.38 671.24 undefined 542.84 562.96 2.0679 230.00 0.0043478 542.84 562.96 2.0679 2.3851 31.151 147.43 0.13764 23.641 0.074130 230.00 0.0043478 542.84 562.96 2.0679 2.3851 31.151 147.43 0.13764 23.641 0.074130
102.38 683.19 undefined 545.21 565.69 2.0742 230.00 0.0043478 545.21 565.69 2.0742 2.3541 25.634 150.39 0.13446 23.590 0.071580 230.00 0.0043478 545.21 565.69 2.0742 2.3541 25.634 150.39 0.13446 23.590 0.071580
103.38 695.18 undefined 547.55 568.39 2.0804 230.00 0.0043478 547.55 568.39 2.0804 2.3286 21.820 153.17 0.13142 23.576 0.069580 230.00 0.0043478 547.55 568.39 2.0804 2.3286 21.820 153.17 0.13142 23.576 0.069580
104.38 707.21 undefined 549.87 571.07 2.0866 230.00 0.0043478 549.87 571.07 2.0866 2.3075 19.036 155.79 0.12850 23.582 0.067964 230.00 0.0043478 549.87 571.07 2.0866 2.3075 19.036 155.79 0.12850 23.582 0.067964
105.38 719.27 undefined 552.16 573.73 2.0927 230.00 0.0043478 552.16 573.73 2.0927 2.2901 16.920 158.28 0.12569 23.600 0.066630 230.00 0.0043478 552.16 573.73 2.0927 2.2901 16.920 158.28 0.12569 23.600 0.066630
106.38 731.36 undefined 554.45 576.37 2.0987 230.00 0.0043478 554.45 576.37 2.0987 2.2756 15.262 160.66 0.12299 23.623 0.065511 230.00 0.0043478 554.45 576.37 2.0987 2.2756 15.262 160.66 0.12299 23.623 0.065511
107.38 743.48 undefined 556.72 579.00 2.1047 230.00 0.0043478 556.72 579.00 2.1047 2.2635 13.929 162.95 0.12038 23.649 0.064560 230.00 0.0043478 556.72 579.00 2.1047 2.2635 13.929 162.95 0.12038 23.649 0.064560
108.38 755.63 undefined 558.97 581.63 2.1106 230.00 0.0043478 558.97 581.63 2.1106 2.2532 12.836 165.16 0.11786 23.677 0.063744 230.00 0.0043478 558.97 581.63 2.1106 2.2532 12.836 165.16 0.11786 23.677 0.063744
109.38 767.80 undefined 561.22 584.24 2.1165 230.00 0.0043478 561.22 584.24 2.1165 2.2446 11.925 167.31 0.11543 23.707 0.063038 230.00 0.0043478 561.22 584.24 2.1165 2.2446 11.925 167.31 0.11543 23.707 0.063038
110.38 779.99 undefined 563.46 586.85 2.1223 230.00 0.0043478 563.46 586.85 2.1223 2.2372 11.155 169.40 0.11308 23.737 0.062424 230.00 0.0043478 563.46 586.85 2.1223 2.2372 11.155 169.40 0.11308 23.737 0.062424
111.38 792.20 undefined 565.70 589.45 2.1281 230.00 0.0043478 565.70 589.45 2.1281 2.2309 10.495 171.44 0.11081 23.768 0.061886 230.00 0.0043478 565.70 589.45 2.1281 2.2309 10.495 171.44 0.11081 23.768 0.061886
112.38 804.44 undefined 567.93 592.04 2.1339 230.00 0.0043478 567.93 592.04 2.1339 2.2254 9.9238 173.44 0.10862 23.799 0.061414 230.00 0.0043478 567.93 592.04 2.1339 2.2254 9.9238 173.44 0.10862 23.799 0.061414
113.38 816.69 undefined 570.15 594.63 2.1397 230.00 0.0043478 570.15 594.63 2.1397 2.2207 9.4252 175.40 0.10649 23.830 0.060997 230.00 0.0043478 570.15 594.63 2.1397 2.2207 9.4252 175.40 0.10649 23.830 0.060997
114.38 828.96 undefined 572.37 597.22 2.1454 230.00 0.0043478 572.37 597.22 2.1454 2.2165 8.9863 177.32 0.10443 23.861 0.060629 230.00 0.0043478 572.37 597.22 2.1454 2.2165 8.9863 177.32 0.10443 23.861 0.060629
115.38 841.25 undefined 574.58 599.80 2.1511 230.00 0.0043478 574.58 599.80 2.1511 2.2130 8.5971 179.22 0.10243 23.893 0.060303 230.00 0.0043478 574.58 599.80 2.1511 2.2130 8.5971 179.22 0.10243 23.893 0.060303
116.38 853.55 undefined 576.79 602.38 2.1568 230.00 0.0043478 576.79 602.38 2.1568 2.2098 8.2496 181.09 0.10050 23.924 0.060014 230.00 0.0043478 576.79 602.38 2.1568 2.2098 8.2496 181.09 0.10050 23.924 0.060014
117.38 865.87 undefined 579.00 604.96 2.1625 230.00 0.0043478 579.00 604.96 2.1625 2.2071 7.9378 182.93 0.098627 23.956 0.059758 230.00 0.0043478 579.00 604.96 2.1625 2.2071 7.9378 182.93 0.098627 23.956 0.059758
118.38 878.20 undefined 581.21 607.53 2.1681 230.00 0.0043478 581.21 607.53 2.1681 2.2048 7.6564 184.75 0.096808 23.988 0.059530 230.00 0.0043478 581.21 607.53 2.1681 2.2048 7.6564 184.75 0.096808 23.988 0.059530
119.38 890.55 undefined 583.41 610.11 2.1737 230.00 0.0043478 583.41 610.11 2.1737 2.2028 7.4012 186.54 0.095043 24.019 0.059329 230.00 0.0043478 583.41 610.11 2.1737 2.2028 7.4012 186.54 0.095043 24.019 0.059329
120.38 902.91 undefined 585.61 612.68 2.1793 230.00 0.0043478 585.61 612.68 2.1793 2.2011 7.1689 188.32 0.093329 24.051 0.059151 230.00 0.0043478 585.61 612.68 2.1793 2.2011 7.1689 188.32 0.093329 24.051 0.059151
121.38 915.28 undefined 587.81 615.25 2.1849 230.00 0.0043478 587.81 615.25 2.1849 2.1997 6.9566 190.07 0.091664 24.082 0.058993 230.00 0.0043478 587.81 615.25 2.1849 2.1997 6.9566 190.07 0.091664 24.082 0.058993
122.38 927.67 undefined 590.01 617.82 2.1905 230.00 0.0043478 590.01 617.82 2.1905 2.1985 6.7618 191.80 0.090046 24.114 0.058855 230.00 0.0043478 590.01 617.82 2.1905 2.1985 6.7618 191.80 0.090046 24.114 0.058855
123.38 940.07 undefined 592.21 620.39 2.1960 230.00 0.0043478 592.21 620.39 2.1960 2.1976 6.5825 193.51 0.088474 24.145 0.058733 230.00 0.0043478 592.21 620.39 2.1960 2.1976 6.5825 193.51 0.088474 24.145 0.058733
124.38 952.48 undefined 594.41 622.96 2.2016 230.00 0.0043478 594.41 622.96 2.2016 2.1969 6.4170 195.21 0.086944 24.177 0.058627 230.00 0.0043478 594.41 622.96 2.2016 2.1969 6.4170 195.21 0.086944 24.177 0.058627
125.38 964.90 undefined 596.61 625.53 2.2071 230.00 0.0043478 596.61 625.53 2.2071 2.1964 6.2638 196.89 0.085456 24.208 0.058535 230.00 0.0043478 596.61 625.53 2.2071 2.1964 6.2638 196.89 0.085456 24.208 0.058535
126.38 977.33 undefined 598.80 628.10 2.2126 230.00 0.0043478 598.80 628.10 2.2126 2.1961 6.1217 198.55 0.084008 24.240 0.058456 230.00 0.0043478 598.80 628.10 2.2126 2.1961 6.1217 198.55 0.084008 24.240 0.058456
127.38 989.77 undefined 601.00 630.67 2.2181 230.00 0.0043478 601.00 630.67 2.2181 2.1960 5.9894 200.19 0.082598 24.271 0.058388 230.00 0.0043478 601.00 630.67 2.2181 2.1960 5.9894 200.19 0.082598 24.271 0.058388
128.38 1002.2 undefined 603.19 633.24 2.2236 230.00 0.0043478 603.19 633.24 2.2236 2.1961 5.8661 201.82 0.081224 24.302 0.058332 230.00 0.0043478 603.19 633.24 2.2236 2.1961 5.8661 201.82 0.081224 24.302 0.058332
129.38 1014.7 undefined 605.39 635.81 2.2290 230.00 0.0043478 605.39 635.81 2.2290 2.1964 5.7509 203.44 0.079886 24.334 0.058285 230.00 0.0043478 605.39 635.81 2.2290 2.1964 5.7509 203.44 0.079886 24.334 0.058285
130.38 1027.1 undefined 607.59 638.38 2.2345 230.00 0.0043478 607.59 638.38 2.2345 2.1968 5.6430 205.04 0.078582 24.365 0.058247 230.00 0.0043478 607.59 638.38 2.2345 2.1968 5.6430 205.04 0.078582 24.365 0.058247
131.38 1039.6 undefined 609.78 640.95 2.2399 230.00 0.0043478 609.78 640.95 2.2399 2.1973 5.5419 206.62 0.077311 24.396 0.058218 230.00 0.0043478 609.78 640.95 2.2399 2.1973 5.5419 206.62 0.077311 24.396 0.058218
132.38 1052.1 undefined 611.98 643.52 2.2453 230.00 0.0043478 611.98 643.52 2.2453 2.1980 5.4468 208.19 0.076071 24.427 0.058197 230.00 0.0043478 611.98 643.52 2.2453 2.1980 5.4468 208.19 0.076071 24.427 0.058197
133.38 1064.6 undefined 614.18 646.09 2.2507 230.00 0.0043478 614.18 646.09 2.2507 2.1988 5.3574 209.75 0.074862 24.459 0.058183 230.00 0.0043478 614.18 646.09 2.2507 2.1988 5.3574 209.75 0.074862 24.459 0.058183
134.38 1077.1 undefined 616.38 648.67 2.2562 230.00 0.0043478 616.38 648.67 2.2562 2.1997 5.2731 211.30 0.073682 24.490 0.058176 230.00 0.0043478 616.38 648.67 2.2562 2.1997 5.2731 211.30 0.073682 24.490 0.058176
135.38 1089.6 undefined 618.58 651.24 2.2615 230.00 0.0043478 618.58 651.24 2.2615 2.2008 5.1936 212.83 0.072531 24.521 0.058175 230.00 0.0043478 618.58 651.24 2.2615 2.2008 5.1936 212.83 0.072531 24.521 0.058175
136.38 1102.1 undefined 620.78 653.82 2.2669 230.00 0.0043478 620.78 653.82 2.2669 2.2019 5.1184 214.35 0.071406 24.552 0.058180 230.00 0.0043478 620.78 653.82 2.2669 2.2019 5.1184 214.35 0.071406 24.552 0.058180
137.38 1114.6 undefined 622.98 656.40 2.2723 230.00 0.0043478 622.98 656.40 2.2723 2.2032 5.0473 215.86 0.070309 24.583 0.058191 230.00 0.0043478 622.98 656.40 2.2723 2.2032 5.0473 215.86 0.070309 24.583 0.058191
138.38 1127.2 undefined 625.19 658.98 2.2777 230.00 0.0043478 625.19 658.98 2.2777 2.2046 4.9800 217.36 0.069236 24.614 0.058207 230.00 0.0043478 625.19 658.98 2.2777 2.2046 4.9800 217.36 0.069236 24.614 0.058207
139.38 1139.7 undefined 627.39 661.56 2.2830 230.00 0.0043478 627.39 661.56 2.2830 2.2060 4.9161 218.84 0.068189 24.645 0.058227 230.00 0.0043478 627.39 661.56 2.2830 2.2060 4.9161 218.84 0.068189 24.645 0.058227
140.38 1152.2 undefined 629.60 664.14 2.2884 230.00 0.0043478 629.60 664.14 2.2884 2.2076 4.8554 220.32 0.067165 24.676 0.058252 230.00 0.0043478 629.60 664.14 2.2884 2.2076 4.8554 220.32 0.067165 24.676 0.058252
141.38 1164.8 undefined 631.81 666.72 2.2937 230.00 0.0043478 631.81 666.72 2.2937 2.2092 4.7977 221.78 0.066165 24.707 0.058282 230.00 0.0043478 631.81 666.72 2.2937 2.2092 4.7977 221.78 0.066165 24.707 0.058282
142.38 1177.3 undefined 634.02 669.31 2.2990 230.00 0.0043478 634.02 669.31 2.2990 2.2109 4.7428 223.24 0.065186 24.738 0.058315 230.00 0.0043478 634.02 669.31 2.2990 2.2109 4.7428 223.24 0.065186 24.738 0.058315
143.38 1189.9 undefined 636.23 671.90 2.3043 230.00 0.0043478 636.23 671.90 2.3043 2.2127 4.6906 224.68 0.064230 24.768 0.058352 230.00 0.0043478 636.23 671.90 2.3043 2.2127 4.6906 224.68 0.064230 24.768 0.058352
144.38 1202.4 undefined 638.44 674.49 2.3096 230.00 0.0043478 638.44 674.49 2.3096 2.2145 4.6408 226.12 0.063294 24.799 0.058393 230.00 0.0043478 638.44 674.49 2.3096 2.2145 4.6408 226.12 0.063294 24.799 0.058393
145.38 1215.0 undefined 640.66 677.08 2.3149 230.00 0.0043478 640.66 677.08 2.3149 2.2164 4.5933 227.54 0.062379 24.830 0.058437 230.00 0.0043478 640.66 677.08 2.3149 2.2164 4.5933 227.54 0.062379 24.830 0.058437
146.38 1227.6 undefined 642.88 679.67 2.3202 230.00 0.0043478 642.88 679.67 2.3202 2.2184 4.5479 228.96 0.061484 24.861 0.058485 230.00 0.0043478 642.88 679.67 2.3202 2.2184 4.5479 228.96 0.061484 24.861 0.058485
147.38 1240.1 undefined 645.10 682.27 2.3255 230.00 0.0043478 645.10 682.27 2.3255 2.2204 4.5046 230.37 0.060608 24.891 0.058535 230.00 0.0043478 645.10 682.27 2.3255 2.2204 4.5046 230.37 0.060608 24.891 0.058535
148.38 1252.7 undefined 647.32 684.87 2.3308 230.00 0.0043478 647.32 684.87 2.3308 2.2225 4.4631 231.76 0.059750 24.922 0.058588 230.00 0.0043478 647.32 684.87 2.3308 2.2225 4.4631 231.76 0.059750 24.922 0.058588
149.38 1265.3 undefined 649.54 687.47 2.3361 230.00 0.0043478 649.54 687.47 2.3361 2.2247 4.4234 233.15 0.058910 24.952 0.058644 230.00 0.0043478 649.54 687.47 2.3361 2.2247 4.4234 233.15 0.058910 24.952 0.058644
150.38 1277.9 undefined 651.77 690.07 2.3413 230.00 0.0043478 651.77 690.07 2.3413 2.2269 4.3854 234.54 0.058088 24.983 0.058703 230.00 0.0043478 651.77 690.07 2.3413 2.2269 4.3854 234.54 0.058088 24.983 0.058703
151.38 1290.5 undefined 653.99 692.68 2.3466 230.00 0.0043478 653.99 692.68 2.3466 2.2291 4.3490 235.91 0.057283 25.014 0.058764 230.00 0.0043478 653.99 692.68 2.3466 2.2291 4.3490 235.91 0.057283 25.014 0.058764
152.38 1303.0 undefined 656.22 695.29 2.3518 230.00 0.0043478 656.22 695.29 2.3518 2.2314 4.3141 237.27 0.056494 25.044 0.058827 230.00 0.0043478 656.22 695.29 2.3518 2.2314 4.3141 237.27 0.056494 25.044 0.058827
153.38 1315.6 undefined 658.46 697.90 2.3571 230.00 0.0043478 658.46 697.90 2.3571 2.2337 4.2807 238.63 0.055721 25.074 0.058893 230.00 0.0043478 658.46 697.90 2.3571 2.2337 4.2807 238.63 0.055721 25.074 0.058893
154.38 1328.2 undefined 660.69 700.51 2.3623 230.00 0.0043478 660.69 700.51 2.3623 2.2361 4.2485 239.98 0.054964 25.105 0.058961 230.00 0.0043478 660.69 700.51 2.3623 2.2361 4.2485 239.98 0.054964 25.105 0.058961
155.38 1340.8 undefined 662.93 703.12 2.3675 230.00 0.0043478 662.93 703.12 2.3675 2.2385 4.2177 241.32 0.054222 25.135 0.059031 230.00 0.0043478 662.93 703.12 2.3675 2.2385 4.2177 241.32 0.054222 25.135 0.059031
156.38 1353.4 undefined 665.17 705.74 2.3727 230.00 0.0043478 665.17 705.74 2.3727 2.2410 4.1880 242.66 0.053495 25.166 0.059103 230.00 0.0043478 665.17 705.74 2.3727 2.2410 4.1880 242.66 0.053495 25.166 0.059103
157.38 1366.1 undefined 667.41 708.36 2.3780 230.00 0.0043478 667.41 708.36 2.3780 2.2434 4.1595 243.98 0.052782 25.196 0.059177 230.00 0.0043478 667.41 708.36 2.3780 2.2434 4.1595 243.98 0.052782 25.196 0.059177
158.38 1378.7 undefined 669.66 710.98 2.3832 230.00 0.0043478 669.66 710.98 2.3832 2.2460 4.1320 245.30 0.052083 25.226 0.059253 230.00 0.0043478 669.66 710.98 2.3832 2.2460 4.1320 245.30 0.052083 25.226 0.059253
159.38 1391.3 undefined 671.90 713.61 2.3884 230.00 0.0043478 671.90 713.61 2.3884 2.2485 4.1056 246.62 0.051397 25.256 0.059330 230.00 0.0043478 671.90 713.61 2.3884 2.2485 4.1056 246.62 0.051397 25.256 0.059330
160.38 1403.9 undefined 674.15 716.24 2.3936 230.00 0.0043478 674.15 716.24 2.3936 2.2511 4.0802 247.92 0.050724 25.287 0.059409 230.00 0.0043478 674.15 716.24 2.3936 2.2511 4.0802 247.92 0.050724 25.287 0.059409
161.38 1416.5 undefined 676.41 718.87 2.3988 230.00 0.0043478 676.41 718.87 2.3988 2.2537 4.0557 249.22 0.050065 25.317 0.059490 230.00 0.0043478 676.41 718.87 2.3988 2.2537 4.0557 249.22 0.050065 25.317 0.059490
162.38 1429.1 undefined 678.66 721.50 2.4039 230.00 0.0043478 678.66 721.50 2.4039 2.2563 4.0321 250.52 0.049418 25.347 0.059572 230.00 0.0043478 678.66 721.50 2.4039 2.2563 4.0321 250.52 0.049418 25.347 0.059572
163.38 1441.8 undefined 680.92 724.14 2.4091 230.00 0.0043478 680.92 724.14 2.4091 2.2590 4.0093 251.80 0.048783 25.377 0.059656 230.00 0.0043478 680.92 724.14 2.4091 2.2590 4.0093 251.80 0.048783 25.377 0.059656
164.38 1454.4 undefined 683.18 726.78 2.4143 230.00 0.0043478 683.18 726.78 2.4143 2.2617 3.9874 253.08 0.048159 25.407 0.059741 230.00 0.0043478 683.18 726.78 2.4143 2.2617 3.9874 253.08 0.048159 25.407 0.059741
165.38 1467.0 undefined 685.44 729.42 2.4195 230.00 0.0043478 685.44 729.42 2.4195 2.2644 3.9662 254.35 0.047548 25.437 0.059828 230.00 0.0043478 685.44 729.42 2.4195 2.2644 3.9662 254.35 0.047548 25.437 0.059828
166.38 1479.7 undefined 687.71 732.06 2.4246 230.00 0.0043478 687.71 732.06 2.4246 2.2671 3.9458 255.62 0.046947 25.467 0.059915 230.00 0.0043478 687.71 732.06 2.4246 2.2671 3.9458 255.62 0.046947 25.467 0.059915
167.38 1492.3 undefined 689.98 734.71 2.4298 230.00 0.0043478 689.98 734.71 2.4298 2.2699 3.9261 256.88 0.046357 25.497 0.060005 230.00 0.0043478 689.98 734.71 2.4298 2.2699 3.9261 256.88 0.046357 25.497 0.060005
168.38 1504.9 undefined 692.25 737.36 2.4349 230.00 0.0043478 692.25 737.36 2.4349 2.2727 3.9070 258.14 0.045778 25.527 0.060095 230.00 0.0043478 692.25 737.36 2.4349 2.2727 3.9070 258.14 0.045778 25.527 0.060095
169.38 1517.6 undefined 694.52 740.01 2.4401 230.00 0.0043478 694.52 740.01 2.4401 2.2755 3.8886 259.39 0.045210 25.557 0.060187 230.00 0.0043478 694.52 740.01 2.4401 2.2755 3.8886 259.39 0.045210 25.557 0.060187
170.38 1530.2 undefined 696.80 742.67 2.4452 230.00 0.0043478 696.80 742.67 2.4452 2.2783 3.8708 260.63 0.044651 25.587 0.060280 230.00 0.0043478 696.80 742.67 2.4452 2.2783 3.8708 260.63 0.044651 25.587 0.060280
171.38 1542.8 undefined 699.08 745.33 2.4503 230.00 0.0043478 699.08 745.33 2.4503 2.2811 3.8536 261.87 0.044103 25.617 0.060374 230.00 0.0043478 699.08 745.33 2.4503 2.2811 3.8536 261.87 0.044103 25.617 0.060374
172.38 1555.5 undefined 701.36 747.99 2.4555 230.00 0.0043478 701.36 747.99 2.4555 2.2840 3.8370 263.10 0.043564 25.646 0.060469 230.00 0.0043478 701.36 747.99 2.4555 2.2840 3.8370 263.10 0.043564 25.646 0.060469
173.38 1568.1 undefined 703.65 750.65 2.4606 230.00 0.0043478 703.65 750.65 2.4606 2.2868 3.8209 264.33 0.043034 25.676 0.060565 230.00 0.0043478 703.65 750.65 2.4606 2.2868 3.8209 264.33 0.043034 25.676 0.060565
174.38 1580.8 undefined 705.93 753.32 2.4657 230.00 0.0043478 705.93 753.32 2.4657 2.2897 3.8053 265.55 0.042514 25.706 0.060662 230.00 0.0043478 705.93 753.32 2.4657 2.2897 3.8053 265.55 0.042514 25.706 0.060662
175.38 1593.4 undefined 708.22 755.99 2.4708 230.00 0.0043478 708.22 755.99 2.4708 2.2926 3.7903 266.76 0.042003 25.736 0.060760 230.00 0.0043478 708.22 755.99 2.4708 2.2926 3.7903 266.76 0.042003 25.736 0.060760
176.38 1606.1 undefined 710.52 758.66 2.4759 230.00 0.0043478 710.52 758.66 2.4759 2.2955 3.7757 267.97 0.041500 25.765 0.060860 230.00 0.0043478 710.52 758.66 2.4759 2.2955 3.7757 267.97 0.041500 25.765 0.060860
177.38 1618.7 undefined 712.82 761.34 2.4810 230.00 0.0043478 712.82 761.34 2.4810 2.2985 3.7616 269.18 0.041006 25.795 0.060960 230.00 0.0043478 712.82 761.34 2.4810 2.2985 3.7616 269.18 0.041006 25.795 0.060960
178.38 1631.4 undefined 715.12 764.02 2.4861 230.00 0.0043478 715.12 764.02 2.4861 2.3014 3.7480 270.38 0.040520 25.824 0.061061 230.00 0.0043478 715.12 764.02 2.4861 2.3014 3.7480 270.38 0.040520 25.824 0.061061
179.38 1644.0 undefined 717.42 766.70 2.4912 230.00 0.0043478 717.42 766.70 2.4912 2.3044 3.7347 271.57 0.040042 25.854 0.061163 230.00 0.0043478 717.42 766.70 2.4912 2.3044 3.7347 271.57 0.040042 25.854 0.061163
180.38 1656.7 undefined 719.72 769.39 2.4963 230.00 0.0043478 719.72 769.39 2.4963 2.3073 3.7219 272.76 0.039573 25.883 0.061266 230.00 0.0043478 719.72 769.39 2.4963 2.3073 3.7219 272.76 0.039573 25.883 0.061266
181.38 1669.3 undefined 722.03 772.07 2.5014 230.00 0.0043478 722.03 772.07 2.5014 2.3103 3.7095 273.95 0.039111 25.913 0.061370 230.00 0.0043478 722.03 772.07 2.5014 2.3103 3.7095 273.95 0.039111 25.913 0.061370
182.38 1682.0 undefined 724.35 774.77 2.5065 230.00 0.0043478 724.35 774.77 2.5065 2.3133 3.6975 275.13 0.038656 25.942 0.061474 230.00 0.0043478 724.35 774.77 2.5065 2.3133 3.6975 275.13 0.038656 25.942 0.061474
183.38 1694.6 undefined 726.66 777.46 2.5116 230.00 0.0043478 726.66 777.46 2.5116 2.3163 3.6858 276.30 0.038209 25.972 0.061580 230.00 0.0043478 726.66 777.46 2.5116 2.3163 3.6858 276.30 0.038209 25.972 0.061580
184.38 1707.3 undefined 728.98 780.16 2.5166 230.00 0.0043478 728.98 780.16 2.5166 2.3193 3.6745 277.47 0.037769 26.001 0.061686 230.00 0.0043478 728.98 780.16 2.5166 2.3193 3.6745 277.47 0.037769 26.001 0.061686
185.38 1719.9 undefined 731.30 782.86 2.5217 230.00 0.0043478 731.30 782.86 2.5217 2.3223 3.6636 278.64 0.037337 26.031 0.061793 230.00 0.0043478 731.30 782.86 2.5217 2.3223 3.6636 278.64 0.037337 26.031 0.061793
186.38 1732.6 undefined 733.62 785.56 2.5268 230.00 0.0043478 733.62 785.56 2.5268 2.3254 3.6530 279.80 0.036911 26.060 0.061900 230.00 0.0043478 733.62 785.56 2.5268 2.3254 3.6530 279.80 0.036911 26.060 0.061900
187.38 1745.2 undefined 735.95 788.27 2.5318 230.00 0.0043478 735.95 788.27 2.5318 2.3284 3.6427 280.95 0.036492 26.089 0.062009 230.00 0.0043478 735.95 788.27 2.5318 2.3284 3.6427 280.95 0.036492 26.089 0.062009
188.38 1757.9 undefined 738.28 790.98 2.5369 230.00 0.0043478 738.28 790.98 2.5369 2.3315 3.6327 282.10 0.036079 26.118 0.062118 230.00 0.0043478 738.28 790.98 2.5369 2.3315 3.6327 282.10 0.036079 26.118 0.062118
189.38 1770.6 undefined 740.61 793.69 2.5419 230.00 0.0043478 740.61 793.69 2.5419 2.3345 3.6230 283.25 0.035673 26.148 0.062228 230.00 0.0043478 740.61 793.69 2.5419 2.3345 3.6230 283.25 0.035673 26.148 0.062228
190.38 1783.2 undefined 742.95 796.40 2.5470 230.00 0.0043478 742.95 796.40 2.5470 2.3376 3.6136 284.39 0.035274 26.177 0.062339 230.00 0.0043478 742.95 796.40 2.5470 2.3376 3.6136 284.39 0.035274 26.177 0.062339
191.38 1795.9 undefined 745.29 799.12 2.5520 230.00 0.0043478 745.29 799.12 2.5520 2.3407 3.6045 285.53 0.034880 26.206 0.062450 230.00 0.0043478 745.29 799.12 2.5520 2.3407 3.6045 285.53 0.034880 26.206 0.062450
192.38 1808.5 undefined 747.63 801.84 2.5570 230.00 0.0043478 747.63 801.84 2.5570 2.3438 3.5957 286.66 0.034493 26.235 0.062562 230.00 0.0043478 747.63 801.84 2.5570 2.3438 3.5957 286.66 0.034493 26.235 0.062562
193.38 1821.2 undefined 749.97 804.57 2.5621 230.00 0.0043478 749.97 804.57 2.5621 2.3469 3.5871 287.79 0.034111 26.264 0.062674 230.00 0.0043478 749.97 804.57 2.5621 2.3469 3.5871 287.79 0.034111 26.264 0.062674
194.38 1833.9 undefined 752.32 807.30 2.5671 230.00 0.0043478 752.32 807.30 2.5671 2.3500 3.5788 288.92 0.033736 26.293 0.062788 230.00 0.0043478 752.32 807.30 2.5671 2.3500 3.5788 288.92 0.033736 26.293 0.062788
195.38 1846.5 undefined 754.67 810.03 2.5721 230.00 0.0043478 754.67 810.03 2.5721 2.3531 3.5707 290.04 0.033366 26.322 0.062901 230.00 0.0043478 754.67 810.03 2.5721 2.3531 3.5707 290.04 0.033366 26.322 0.062901
196.38 1859.2 undefined 757.03 812.76 2.5772 230.00 0.0043478 757.03 812.76 2.5772 2.3562 3.5629 291.15 0.033001 26.351 0.063016 230.00 0.0043478 757.03 812.76 2.5772 2.3562 3.5629 291.15 0.033001 26.351 0.063016
197.38 1871.9 undefined 759.39 815.50 2.5822 230.00 0.0043478 759.39 815.50 2.5822 2.3593 3.5553 292.27 0.032642 26.380 0.063131 230.00 0.0043478 759.39 815.50 2.5822 2.3593 3.5553 292.27 0.032642 26.380 0.063131
198.38 1884.5 undefined 761.75 818.24 2.5872 230.00 0.0043478 761.75 818.24 2.5872 2.3624 3.5479 293.37 0.032289 26.409 0.063247 230.00 0.0043478 761.75 818.24 2.5872 2.3624 3.5479 293.37 0.032289 26.409 0.063247
199.38 1897.2 undefined 764.11 820.98 2.5922 230.00 0.0043478 764.11 820.98 2.5922 2.3656 3.5407 294.48 0.031940 26.438 0.063363 230.00 0.0043478 764.11 820.98 2.5922 2.3656 3.5407 294.48 0.031940 26.438 0.063363
200.38 1909.8 undefined 766.48 823.73 2.5972 230.00 0.0043478 766.48 823.73 2.5972 2.3687 3.5338 295.58 0.031597 26.467 0.063480 230.00 0.0043478 766.48 823.73 2.5972 2.3687 3.5338 295.58 0.031597 26.467 0.063480
201.38 1922.5 undefined 768.85 826.48 2.6022 230.00 0.0043478 768.85 826.48 2.6022 2.3719 3.5270 296.67 0.031259 26.496 0.063597 230.00 0.0043478 768.85 826.48 2.6022 2.3719 3.5270 296.67 0.031259 26.496 0.063597
202.38 1935.2 undefined 771.22 829.23 2.6072 230.00 0.0043478 771.22 829.23 2.6072 2.3750 3.5205 297.77 0.030925 26.524 0.063715 230.00 0.0043478 771.22 829.23 2.6072 2.3750 3.5205 297.77 0.030925 26.524 0.063715
203.38 1947.8 undefined 773.60 831.99 2.6122 230.00 0.0043478 773.60 831.99 2.6122 2.3782 3.5141 298.85 0.030597 26.553 0.063834 230.00 0.0043478 773.60 831.99 2.6122 2.3782 3.5141 298.85 0.030597 26.553 0.063834
204.38 1960.5 undefined 775.98 834.75 2.6172 230.00 0.0043478 775.98 834.75 2.6172 2.3813 3.5080 299.94 0.030273 26.582 0.063953 230.00 0.0043478 775.98 834.75 2.6172 2.3813 3.5080 299.94 0.030273 26.582 0.063953
205.38 1973.2 undefined 778.36 837.51 2.6222 230.00 0.0043478 778.36 837.51 2.6222 2.3845 3.5020 301.02 0.029954 26.611 0.064072 230.00 0.0043478 778.36 837.51 2.6222 2.3845 3.5020 301.02 0.029954 26.611 0.064072
206.38 1985.8 undefined 780.75 840.28 2.6271 230.00 0.0043478 780.75 840.28 2.6271 2.3877 3.4962 302.09 0.029639 26.639 0.064192 230.00 0.0043478 780.75 840.28 2.6271 2.3877 3.4962 302.09 0.029639 26.639 0.064192
207.38 1998.5 undefined 783.14 843.05 2.6321 230.00 0.0043478 783.14 843.05 2.6321 2.3909 3.4906 303.17 0.029329 26.668 0.064313 230.00 0.0043478 783.14 843.05 2.6321 2.3909 3.4906 303.17 0.029329 26.668 0.064313
208.38 2011.1 undefined 785.53 845.82 2.6371 230.00 0.0043478 785.53 845.82 2.6371 2.3940 3.4851 304.24 0.029023 26.696 0.064434 230.00 0.0043478 785.53 845.82 2.6371 2.3940 3.4851 304.24 0.029023 26.696 0.064434
209.38 2023.8 undefined 787.93 848.59 2.6421 230.00 0.0043478 787.93 848.59 2.6421 2.3972 3.4798 305.30 0.028721 26.725 0.064556 230.00 0.0043478 787.93 848.59 2.6421 2.3972 3.4798 305.30 0.028721 26.725 0.064556
210.38 2036.5 undefined 790.32 851.37 2.6470 230.00 0.0043478 790.32 851.37 2.6470 2.4004 3.4747 306.36 0.028424 26.754 0.064678 230.00 0.0043478 790.32 851.37 2.6470 2.4004 3.4747 306.36 0.028424 26.754 0.064678
211.38 2049.1 undefined 792.73 854.15 2.6520 230.00 0.0043478 792.73 854.15 2.6520 2.4036 3.4697 307.42 0.028130 26.782 0.064800 230.00 0.0043478 792.73 854.15 2.6520 2.4036 3.4697 307.42 0.028130 26.782 0.064800
212.38 2061.8 undefined 795.13 856.94 2.6569 230.00 0.0043478 795.13 856.94 2.6569 2.4068 3.4648 308.47 0.027841 26.811 0.064923 230.00 0.0043478 795.13 856.94 2.6569 2.4068 3.4648 308.47 0.027841 26.811 0.064923
213.38 2074.4 undefined 797.54 859.73 2.6619 230.00 0.0043478 797.54 859.73 2.6619 2.4100 3.4601 309.53 0.027556 26.839 0.065047 230.00 0.0043478 797.54 859.73 2.6619 2.4100 3.4601 309.53 0.027556 26.839 0.065047
214.38 2087.1 undefined 799.95 862.52 2.6669 230.00 0.0043478 799.95 862.52 2.6669 2.4132 3.4556 310.57 0.027274 26.867 0.065170 230.00 0.0043478 799.95 862.52 2.6669 2.4132 3.4556 310.57 0.027274 26.867 0.065170
215.38 2099.8 undefined 802.37 865.31 2.6718 230.00 0.0043478 802.37 865.31 2.6718 2.4164 3.4512 311.62 0.026997 26.896 0.065295 230.00 0.0043478 802.37 865.31 2.6718 2.4164 3.4512 311.62 0.026997 26.896 0.065295
216.38 2112.4 undefined 804.78 868.11 2.6767 230.00 0.0043478 804.78 868.11 2.6767 2.4197 3.4469 312.66 0.026723 26.924 0.065420 230.00 0.0043478 804.78 868.11 2.6767 2.4197 3.4469 312.66 0.026723 26.924 0.065420
217.38 2125.1 undefined 807.21 870.91 2.6817 230.00 0.0043478 807.21 870.91 2.6817 2.4229 3.4428 313.69 0.026453 26.952 0.065545 230.00 0.0043478 807.21 870.91 2.6817 2.4229 3.4428 313.69 0.026453 26.952 0.065545
218.38 2137.7 undefined 809.63 873.71 2.6866 230.00 0.0043478 809.63 873.71 2.6866 2.4261 3.4388 314.73 0.026186 26.981 0.065670 230.00 0.0043478 809.63 873.71 2.6866 2.4261 3.4388 314.73 0.026186 26.981 0.065670
219.38 2150.4 undefined 812.06 876.52 2.6916 230.00 0.0043478 812.06 876.52 2.6916 2.4293 3.4349 315.76 0.025923 27.009 0.065797 230.00 0.0043478 812.06 876.52 2.6916 2.4293 3.4349 315.76 0.025923 27.009 0.065797
220.38 2163.1 undefined 814.49 879.33 2.6965 230.00 0.0043478 814.49 879.33 2.6965 2.4326 3.4311 316.78 0.025663 27.037 0.065923 230.00 0.0043478 814.49 879.33 2.6965 2.4326 3.4311 316.78 0.025663 27.037 0.065923
221.38 2175.7 undefined 816.92 882.14 2.7014 230.00 0.0043478 816.92 882.14 2.7014 2.4358 3.4274 317.81 0.025407 27.065 0.066050 230.00 0.0043478 816.92 882.14 2.7014 2.4358 3.4274 317.81 0.025407 27.065 0.066050
222.38 2188.4 undefined 819.36 884.96 2.7063 230.00 0.0043478 819.36 884.96 2.7063 2.4390 3.4239 318.83 0.025154 27.093 0.066177 230.00 0.0043478 819.36 884.96 2.7063 2.4390 3.4239 318.83 0.025154 27.093 0.066177
223.38 2201.0 undefined 821.80 887.78 2.7113 230.00 0.0043478 821.80 887.78 2.7113 2.4423 3.4205 319.84 0.024905 27.122 0.066305 230.00 0.0043478 821.80 887.78 2.7113 2.4423 3.4205 319.84 0.024905 27.122 0.066305
224.38 2213.7 undefined 824.24 890.60 2.7162 230.00 0.0043478 824.24 890.60 2.7162 2.4455 3.4172 320.86 0.024658 27.150 0.066433 230.00 0.0043478 824.24 890.60 2.7162 2.4455 3.4172 320.86 0.024658 27.150 0.066433
225.38 2226.3 undefined 826.69 893.43 2.7211 230.00 0.0043478 826.69 893.43 2.7211 2.4487 3.4140 321.87 0.024415 27.178 0.066561 230.00 0.0043478 826.69 893.43 2.7211 2.4487 3.4140 321.87 0.024415 27.178 0.066561
226.38 2239.0 undefined 829.14 896.26 2.7260 230.00 0.0043478 829.14 896.26 2.7260 2.4520 3.4109 322.87 0.024175 27.206 0.066690 230.00 0.0043478 829.14 896.26 2.7260 2.4520 3.4109 322.87 0.024175 27.206 0.066690
227.38 2251.6 undefined 831.60 899.09 2.7309 230.00 0.0043478 831.60 899.09 2.7309 2.4552 3.4079 323.88 0.023938 27.234 0.066819 230.00 0.0043478 831.60 899.09 2.7309 2.4552 3.4079 323.88 0.023938 27.234 0.066819
228.38 2264.3 undefined 834.05 901.93 2.7358 230.00 0.0043478 834.05 901.93 2.7358 2.4585 3.4050 324.88 0.023704 27.262 0.066949 230.00 0.0043478 834.05 901.93 2.7358 2.4585 3.4050 324.88 0.023704 27.262 0.066949
229.38 2276.9 undefined 836.51 904.77 2.7407 230.00 0.0043478 836.51 904.77 2.7407 2.4617 3.4022 325.88 0.023473 27.290 0.067079 230.00 0.0043478 836.51 904.77 2.7407 2.4617 3.4022 325.88 0.023473 27.290 0.067079
230.38 2289.6 undefined 838.98 907.61 2.7456 230.00 0.0043478 838.98 907.61 2.7456 2.4650 3.3995 326.87 0.023245 27.318 0.067209 230.00 0.0043478 838.98 907.61 2.7456 2.4650 3.3995 326.87 0.023245 27.318 0.067209
231.38 2302.2 undefined 841.44 910.46 2.7505 230.00 0.0043478 841.44 910.46 2.7505 2.4682 3.3969 327.86 0.023020 27.345 0.067340 230.00 0.0043478 841.44 910.46 2.7505 2.4682 3.3969 327.86 0.023020 27.345 0.067340
232.38 2314.9 undefined 843.91 913.31 2.7554 230.00 0.0043478 843.91 913.31 2.7554 2.4715 3.3944 328.85 0.022797 27.373 0.067471 230.00 0.0043478 843.91 913.31 2.7554 2.4715 3.3944 328.85 0.022797 27.373 0.067471
233.38 2327.5 undefined 846.39 916.16 2.7603 230.00 0.0043478 846.39 916.16 2.7603 2.4748 3.3919 329.84 0.022578 27.401 0.067602 230.00 0.0043478 846.39 916.16 2.7603 2.4748 3.3919 329.84 0.022578 27.401 0.067602
234.38 2340.2 undefined 848.86 919.01 2.7652 230.00 0.0043478 848.86 919.01 2.7652 2.4780 3.3896 330.82 0.022361 27.429 0.067733 230.00 0.0043478 848.86 919.01 2.7652 2.4780 3.3896 330.82 0.022361 27.429 0.067733
235.38 2352.8 undefined 851.34 921.87 2.7700 230.00 0.0043478 851.34 921.87 2.7700 2.4813 3.3873 331.80 0.022146 27.457 0.067865 230.00 0.0043478 851.34 921.87 2.7700 2.4813 3.3873 331.80 0.022146 27.457 0.067865
236.38 2365.5 undefined 853.82 924.74 2.7749 230.00 0.0043478 853.82 924.74 2.7749 2.4846 3.3852 332.78 0.021935 27.484 0.067998 230.00 0.0043478 853.82 924.74 2.7749 2.4846 3.3852 332.78 0.021935 27.484 0.067998
237.38 2378.1 undefined 856.31 927.60 2.7798 230.00 0.0043478 856.31 927.60 2.7798 2.4878 3.3831 333.75 0.021725 27.512 0.068130 230.00 0.0043478 856.31 927.60 2.7798 2.4878 3.3831 333.75 0.021725 27.512 0.068130
238.38 2390.8 undefined 858.80 930.47 2.7847 230.00 0.0043478 858.80 930.47 2.7847 2.4911 3.3811 334.72 0.021519 27.540 0.068263 230.00 0.0043478 858.80 930.47 2.7847 2.4911 3.3811 334.72 0.021519 27.540 0.068263
239.38 2403.4 undefined 861.29 933.34 2.7895 230.00 0.0043478 861.29 933.34 2.7895 2.4944 3.3791 335.69 0.021315 27.567 0.068396 230.00 0.0043478 861.29 933.34 2.7895 2.4944 3.3791 335.69 0.021315 27.567 0.068396
240.38 2416.0 undefined 863.79 936.22 2.7944 230.00 0.0043478 863.79 936.22 2.7944 2.4976 3.3773 336.66 0.021113 27.595 0.068529 230.00 0.0043478 863.79 936.22 2.7944 2.4976 3.3773 336.66 0.021113 27.595 0.068529
241.38 2428.7 undefined 866.29 939.09 2.7993 230.00 0.0043478 866.29 939.09 2.7993 2.5009 3.3755 337.62 0.020914 27.622 0.068663 230.00 0.0043478 866.29 939.09 2.7993 2.5009 3.3755 337.62 0.020914 27.622 0.068663
242.38 2441.3 undefined 868.79 941.97 2.8041 230.00 0.0043478 868.79 941.97 2.8041 2.5042 3.3738 338.58 0.020717 27.650 0.068797 230.00 0.0043478 868.79 941.97 2.8041 2.5042 3.3738 338.58 0.020717 27.650 0.068797
243.38 2454.0 undefined 871.30 944.86 2.8090 230.00 0.0043478 871.30 944.86 2.8090 2.5075 3.3721 339.53 0.020523 27.677 0.068931 230.00 0.0043478 871.30 944.86 2.8090 2.5075 3.3721 339.53 0.020523 27.677 0.068931
244.38 2466.6 undefined 873.81 947.75 2.8138 230.00 0.0043478 873.81 947.75 2.8138 2.5107 3.3706 340.49 0.020331 27.705 0.069066 230.00 0.0043478 873.81 947.75 2.8138 2.5107 3.3706 340.49 0.020331 27.705 0.069066
245.38 2479.2 undefined 876.32 950.64 2.8187 230.00 0.0043478 876.32 950.64 2.8187 2.5140 3.3691 341.44 0.020141 27.732 0.069200 230.00 0.0043478 876.32 950.64 2.8187 2.5140 3.3691 341.44 0.020141 27.732 0.069200
246.38 2491.9 undefined 878.83 953.53 2.8235 230.00 0.0043478 878.83 953.53 2.8235 2.5173 3.3676 342.39 0.019953 27.760 0.069335 230.00 0.0043478 878.83 953.53 2.8235 2.5173 3.3676 342.39 0.019953 27.760 0.069335
247.38 2504.5 undefined 881.35 956.43 2.8284 230.00 0.0043478 881.35 956.43 2.8284 2.5206 3.3662 343.34 0.019768 27.787 0.069471 230.00 0.0043478 881.35 956.43 2.8284 2.5206 3.3662 343.34 0.019768 27.787 0.069471
248.38 2517.1 undefined 883.88 959.33 2.8332 230.00 0.0043478 883.88 959.33 2.8332 2.5238 3.3649 344.28 0.019584 27.814 0.069606 230.00 0.0043478 883.88 959.33 2.8332 2.5238 3.3649 344.28 0.019584 27.814 0.069606
249.38 2529.8 undefined 886.40 962.24 2.8381 230.00 0.0043478 886.40 962.24 2.8381 2.5271 3.3637 345.22 0.019403 27.842 0.069741 230.00 0.0043478 886.40 962.24 2.8381 2.5271 3.3637 345.22 0.019403 27.842 0.069741
250.38 2542.4 undefined 888.93 965.14 2.8429 230.00 0.0043478 888.93 965.14 2.8429 2.5304 3.3625 346.16 0.019224 27.869 0.069877 230.00 0.0043478 888.93 965.14 2.8429 2.5304 3.3625 346.16 0.019224 27.869 0.069877
251.38 2555.0 undefined 891.46 968.05 2.8477 230.00 0.0043478 891.46 968.05 2.8477 2.5337 3.3614 347.09 0.019047 27.896 0.070013 230.00 0.0043478 891.46 968.05 2.8477 2.5337 3.3614 347.09 0.019047 27.896 0.070013
252.38 2567.6 undefined 894.00 970.97 2.8525 230.00 0.0043478 894.00 970.97 2.8525 2.5370 3.3603 348.03 0.018872 27.923 0.070149 230.00 0.0043478 894.00 970.97 2.8525 2.5370 3.3603 348.03 0.018872 27.923 0.070149
253.38 2580.3 undefined 896.54 973.88 2.8574 230.00 0.0043478 896.54 973.88 2.8574 2.5403 3.3593 348.96 0.018699 27.951 0.070286 230.00 0.0043478 896.54 973.88 2.8574 2.5403 3.3593 348.96 0.018699 27.951 0.070286
254.38 2592.9 undefined 899.08 976.80 2.8622 230.00 0.0043478 899.08 976.80 2.8622 2.5435 3.3584 349.88 0.018528 27.978 0.070422 230.00 0.0043478 899.08 976.80 2.8622 2.5435 3.3584 349.88 0.018528 27.978 0.070422
255.38 2605.5 undefined 901.62 979.73 2.8670 230.00 0.0043478 901.62 979.73 2.8670 2.5468 3.3575 350.81 0.018359 28.005 0.070559 230.00 0.0043478 901.62 979.73 2.8670 2.5468 3.3575 350.81 0.018359 28.005 0.070559
256.38 2618.1 undefined 904.17 982.66 2.8718 230.00 0.0043478 904.17 982.66 2.8718 2.5501 3.3566 351.73 0.018191 28.032 0.070695 230.00 0.0043478 904.17 982.66 2.8718 2.5501 3.3566 351.73 0.018191 28.032 0.070695
257.38 2630.8 undefined 906.72 985.59 2.8767 230.00 0.0043478 906.72 985.59 2.8767 2.5534 3.3558 352.65 0.018026 28.059 0.070832 230.00 0.0043478 906.72 985.59 2.8767 2.5534 3.3558 352.65 0.018026 28.059 0.070832
258.38 2643.4 undefined 909.28 988.52 2.8815 230.00 0.0043478 909.28 988.52 2.8815 2.5567 3.3551 353.57 0.017863 28.086 0.070969 230.00 0.0043478 909.28 988.52 2.8815 2.5567 3.3551 353.57 0.017863 28.086 0.070969
259.38 2656.0 undefined 911.84 991.46 2.8863 230.00 0.0043478 911.84 991.46 2.8863 2.5599 3.3544 354.48 0.017701 28.113 0.071106 230.00 0.0043478 911.84 991.46 2.8863 2.5599 3.3544 354.48 0.017701 28.113 0.071106
260.38 2668.6 undefined 914.40 994.40 2.8911 230.00 0.0043478 914.40 994.40 2.8911 2.5632 3.3538 355.40 0.017541 28.140 0.071243 230.00 0.0043478 914.40 994.40 2.8911 2.5632 3.3538 355.40 0.017541 28.140 0.071243
261.38 2681.2 undefined 916.96 997.34 2.8959 230.00 0.0043478 916.96 997.34 2.8959 2.5665 3.3532 356.31 0.017383 28.167 0.071380 230.00 0.0043478 916.96 997.34 2.8959 2.5665 3.3532 356.31 0.017383 28.167 0.071380
262.38 2693.8 undefined 919.53 1000.3 2.9007 230.00 0.0043478 919.53 1000.3 2.9007 2.5698 3.3526 357.21 0.017227 28.194 0.071516 230.00 0.0043478 919.53 1000.3 2.9007 2.5698 3.3526 357.21 0.017227 28.194 0.071516
263.38 2706.5 undefined 922.10 1003.2 2.9055 230.00 0.0043478 922.10 1003.2 2.9055 2.5731 3.3521 358.12 0.017072 28.221 0.071653 230.00 0.0043478 922.10 1003.2 2.9055 2.5731 3.3521 358.12 0.017072 28.221 0.071653
264.38 2719.1 undefined 924.68 1006.2 2.9103 230.00 0.0043478 924.68 1006.2 2.9103 2.5764 3.3517 359.02 0.016919 28.248 0.071790 230.00 0.0043478 924.68 1006.2 2.9103 2.5764 3.3517 359.02 0.016919 28.248 0.071790
265.38 2731.7 undefined 927.25 1009.1 2.9151 230.00 0.0043478 927.25 1009.1 2.9151 2.5796 3.3513 359.92 0.016768 28.275 0.071926 230.00 0.0043478 927.25 1009.1 2.9151 2.5796 3.3513 359.92 0.016768 28.275 0.071926
266.38 2744.3 undefined 929.84 1012.1 2.9199 230.00 0.0043478 929.84 1012.1 2.9199 2.5829 3.3509 360.82 0.016618 28.301 0.072063 230.00 0.0043478 929.84 1012.1 2.9199 2.5829 3.3509 360.82 0.016618 28.301 0.072063
267.38 2756.9 undefined 932.42 1015.1 2.9246 230.00 0.0043478 932.42 1015.1 2.9246 2.5862 3.3506 361.72 0.016470 28.328 0.072199 230.00 0.0043478 932.42 1015.1 2.9246 2.5862 3.3506 361.72 0.016470 28.328 0.072199
268.38 2769.5 undefined 935.01 1018.0 2.9294 230.00 0.0043478 935.01 1018.0 2.9294 2.5895 3.3504 362.61 0.016324 28.355 0.072334 230.00 0.0043478 935.01 1018.0 2.9294 2.5895 3.3504 362.61 0.016324 28.355 0.072334
269.38 2782.1 undefined 937.60 1021.0 2.9342 230.00 0.0043478 937.60 1021.0 2.9342 2.5928 3.3501 363.50 0.016179 28.382 0.072470 230.00 0.0043478 937.60 1021.0 2.9342 2.5928 3.3501 363.50 0.016179 28.382 0.072470
270.38 2794.7 undefined 940.19 1024.0 2.9390 230.00 0.0043478 940.19 1024.0 2.9390 2.5960 3.3499 364.39 0.016036 28.408 0.072604 230.00 0.0043478 940.19 1024.0 2.9390 2.5960 3.3499 364.39 0.016036 28.408 0.072604
271.38 2807.3 undefined 942.79 1026.9 2.9438 230.00 0.0043478 942.79 1026.9 2.9438 2.5993 3.3498 365.28 0.015894 28.435 0.072739 230.00 0.0043478 942.79 1026.9 2.9438 2.5993 3.3498 365.28 0.015894 28.435 0.072739
272.38 2819.9 undefined 945.39 1029.9 2.9485 230.00 0.0043478 945.39 1029.9 2.9485 2.6026 3.3497 366.16 0.015753 28.462 0.072872 230.00 0.0043478 945.39 1029.9 2.9485 2.6026 3.3497 366.16 0.015753 28.462 0.072872
273.38 2832.5 undefined 948.00 1032.9 2.9533 230.00 0.0043478 948.00 1032.9 2.9533 2.6059 3.3496 367.04 0.015615 28.488 0.073004 230.00 0.0043478 948.00 1032.9 2.9533 2.6059 3.3496 367.04 0.015615 28.488 0.073004
274.38 2845.1 undefined 950.60 1035.9 2.9581 230.00 0.0043478 950.60 1035.9 2.9581 2.6092 3.3496 367.92 0.015477 28.515 0.073135 230.00 0.0043478 950.60 1035.9 2.9581 2.6092 3.3496 367.92 0.015477 28.515 0.073135
275.38 2857.7 undefined 953.22 1038.9 2.9628 230.00 0.0043478 953.22 1038.9 2.9628 2.6124 3.3496 368.80 0.015341 28.541 0.073264 230.00 0.0043478 953.22 1038.9 2.9628 2.6124 3.3496 368.80 0.015341 28.541 0.073264
276.38 2870.3 undefined 955.83 1041.9 2.9676 230.00 0.0043478 955.83 1041.9 2.9676 2.6157 3.3496 369.68 0.015207 28.568 0.073392 230.00 0.0043478 955.83 1041.9 2.9676 2.6157 3.3496 369.68 0.015207 28.568 0.073392
277.38 2882.9 undefined 958.45 1044.9 2.9723 230.00 0.0043478 958.45 1044.9 2.9723 2.6190 3.3497 370.55 0.015074 28.594 0.073516 230.00 0.0043478 958.45 1044.9 2.9723 2.6190 3.3497 370.55 0.015074 28.594 0.073516
278.38 2895.5 undefined 961.07 1047.9 2.9771 230.00 0.0043478 961.07 1047.9 2.9771 2.6223 3.3498 371.42 0.014942 28.621 0.073636 230.00 0.0043478 961.07 1047.9 2.9771 2.6223 3.3498 371.42 0.014942 28.621 0.073636
279.38 2908.1 undefined 963.69 1050.9 2.9819 230.00 0.0043478 963.69 1050.9 2.9819 2.6255 3.3500 372.29 0.014812 28.647 0.073749 230.00 0.0043478 963.69 1050.9 2.9819 2.6255 3.3500 372.29 0.014812 28.647 0.073749
280.38 2920.7 undefined 966.32 1053.9 2.9866 230.00 0.0043478 966.32 1053.9 2.9866 2.6288 3.3502 373.16 0.014683 28.673 0.073850 230.00 0.0043478 966.32 1053.9 2.9866 2.6288 3.3502 373.16 0.014683 28.673 0.073850
281.38 2933.2 undefined 968.95 1056.9 2.9914 230.00 0.0043478 968.95 1056.9 2.9914 2.6321 3.3504 374.02 0.014555 28.700 0.073911 230.00 0.0043478 968.95 1056.9 2.9914 2.6321 3.3504 374.02 0.014555 28.700 0.073911
282.38 2945.8 undefined 971.58 1059.9 2.9961 230.00 0.0043478 971.58 1059.9 2.9961 2.6353 3.3506 374.89 0.014429 28.726 0.074003 230.00 0.0043478 971.58 1059.9 2.9961 2.6353 3.3506 374.89 0.014429 28.726 0.074003
283.38 2958.4 undefined 974.22 1062.9 3.0008 230.00 0.0043478 974.22 1062.9 3.0008 2.6386 3.3509 375.75 0.014304 28.752 0.074166 230.00 0.0043478 974.22 1062.9 3.0008 2.6386 3.3509 375.75 0.014304 28.752 0.074166
284.38 2971.0 undefined 976.86 1065.9 3.0056 230.00 0.0043478 976.86 1065.9 3.0056 2.6419 3.3512 376.60 0.014180 28.779 0.074329 230.00 0.0043478 976.86 1065.9 3.0056 2.6419 3.3512 376.60 0.014180 28.779 0.074329
285.38 2983.6 undefined 979.50 1068.9 3.0103 230.00 0.0043478 979.50 1068.9 3.0103 2.6452 3.3516 377.46 0.014058 28.805 0.074493 230.00 0.0043478 979.50 1068.9 3.0103 2.6452 3.3516 377.46 0.014058 28.805 0.074493
286.38 2996.2 undefined 982.15 1072.0 3.0151 230.00 0.0043478 982.15 1072.0 3.0151 2.6484 3.3519 378.31 0.013937 28.831 0.074657 230.00 0.0043478 982.15 1072.0 3.0151 2.6484 3.3519 378.31 0.013937 28.831 0.074657
287.38 3008.7 undefined 984.80 1075.0 3.0198 230.00 0.0043478 984.80 1075.0 3.0198 2.6517 3.3523 379.17 0.013817 28.857 0.074821 230.00 0.0043478 984.80 1075.0 3.0198 2.6517 3.3523 379.17 0.013817 28.857 0.074821
288.38 3021.3 undefined 987.45 1078.0 3.0245 230.00 0.0043478 987.45 1078.0 3.0245 2.6549 3.3528 380.02 0.013698 28.883 0.074985 230.00 0.0043478 987.45 1078.0 3.0245 2.6549 3.3528 380.02 0.013698 28.883 0.074985
289.38 3033.9 undefined 990.11 1081.1 3.0292 230.00 0.0043478 990.11 1081.1 3.0292 2.6582 3.3532 380.87 0.013580 28.910 0.075150 230.00 0.0043478 990.11 1081.1 3.0292 2.6582 3.3532 380.87 0.013580 28.910 0.075150
290.38 3046.5 undefined 992.77 1084.1 3.0340 230.00 0.0043478 992.77 1084.1 3.0340 2.6615 3.3537 381.71 0.013464 28.936 0.075314 230.00 0.0043478 992.77 1084.1 3.0340 2.6615 3.3537 381.71 0.013464 28.936 0.075314
291.38 3059.0 undefined 995.43 1087.1 3.0387 230.00 0.0043478 995.43 1087.1 3.0387 2.6647 3.3543 382.56 0.013348 28.962 0.075480 230.00 0.0043478 995.43 1087.1 3.0387 2.6647 3.3543 382.56 0.013348 28.962 0.075480
292.38 3071.6 undefined 998.10 1090.2 3.0434 230.00 0.0043478 998.10 1090.2 3.0434 2.6680 3.3548 383.40 0.013234 28.988 0.075645 230.00 0.0043478 998.10 1090.2 3.0434 2.6680 3.3548 383.40 0.013234 28.988 0.075645
293.38 3084.2 undefined 1000.8 1093.2 3.0481 230.00 0.0043478 1000.8 1093.2 3.0481 2.6712 3.3554 384.24 0.013121 29.014 0.075811 230.00 0.0043478 1000.8 1093.2 3.0481 2.6712 3.3554 384.24 0.013121 29.014 0.075811
294.38 3096.7 undefined 1003.4 1096.3 3.0528 230.00 0.0043478 1003.4 1096.3 3.0528 2.6745 3.3560 385.08 0.013009 29.040 0.075977 230.00 0.0043478 1003.4 1096.3 3.0528 2.6745 3.3560 385.08 0.013009 29.040 0.075977
295.38 3109.3 undefined 1006.1 1099.3 3.0575 230.00 0.0043478 1006.1 1099.3 3.0575 2.6777 3.3566 385.91 0.012898 29.066 0.076143 230.00 0.0043478 1006.1 1099.3 3.0575 2.6777 3.3566 385.91 0.012898 29.066 0.076143
296.38 3121.9 undefined 1008.8 1102.4 3.0623 230.00 0.0043478 1008.8 1102.4 3.0623 2.6810 3.3572 386.75 0.012789 29.092 0.076310 230.00 0.0043478 1008.8 1102.4 3.0623 2.6810 3.3572 386.75 0.012789 29.092 0.076310
297.38 3134.4 undefined 1011.5 1105.4 3.0670 230.00 0.0043478 1011.5 1105.4 3.0670 2.6842 3.3579 387.58 0.012680 29.118 0.076477 230.00 0.0043478 1011.5 1105.4 3.0670 2.6842 3.3579 387.58 0.012680 29.118 0.076477
298.38 3147.0 undefined 1014.2 1108.5 3.0717 230.00 0.0043478 1014.2 1108.5 3.0717 2.6875 3.3586 388.41 0.012572 29.143 0.076644 230.00 0.0043478 1014.2 1108.5 3.0717 2.6875 3.3586 388.41 0.012572 29.143 0.076644
299.38 3159.5 undefined 1016.9 1111.6 3.0764 230.00 0.0043478 1016.9 1111.6 3.0764 2.6907 3.3593 389.24 0.012466 29.169 0.076812 230.00 0.0043478 1016.9 1111.6 3.0764 2.6907 3.3593 389.24 0.012466 29.169 0.076812
300.38 3172.1 undefined 1019.5 1114.6 3.0811 230.00 0.0043478 1019.5 1114.6 3.0811 2.6940 3.3601 390.06 0.012360 29.195 0.076979 230.00 0.0043478 1019.5 1114.6 3.0811 2.6940 3.3601 390.06 0.012360 29.195 0.076979