Temperature (C) Pressure (psia) Quality (l+v) Internal Energy (l+v, kJ/kg) Enthalpy (l+v, kJ/kg) Entropy (l+v, J/g*K) Density (l, kg/m3) Volume (l, m3/kg) Internal Energy (l, kJ/kg) Enthalpy (l, kJ/kg) Entropy (l, J/g*K) Cv (l, J/g*K) Cp (l, J/g*K) Sound Spd. (l, m/s) Joule-Thomson (l, F/psia) Viscosity (l, uPa*s) Therm. Cond. (l, W/m*K) Density (v, kg/m3) Volume (v, m3/kg) Internal Energy (v, kJ/kg) Enthalpy (v, kJ/kg) Entropy (v, J/g*K) Cv (v, J/g*K) Cp (v, J/g*K) Sound Spd. (v, m/s) Joule-Thomson (v, F/psia) Viscosity (v, uPa*s) Therm. Cond. (v, W/m*K)
-187.62 2.4953e-08 2.1613e-11 -196.64 -196.64 -1.3959 733.13 0.0013640 -196.64 -196.64 -1.3959 1.3553 1.9158 2136.4 -0.0077592 10960. 0.20792 1.0669e-08 9.3732e+07 350.13 366.26 5.1858 0.69067 0.87923 143.28 6.1051 2.3259 0.0017061
-186.62 3.7339e-08 3.1937e-11 -194.73 -194.73 -1.3736 732.08 0.0013660 -194.73 -194.73 -1.3736 1.3539 1.9166 2129.6 -0.0077546 10073. 0.20765 1.5780e-08 6.3371e+07 350.82 367.14 5.1200 0.69462 0.88317 144.03 5.9178 2.3534 0.0017533
-185.62 5.5322e-08 4.6731e-11 -192.81 -192.81 -1.3516 731.04 0.0013679 -192.81 -192.81 -1.3516 1.3525 1.9174 2122.9 -0.0077498 9276.1 0.20737 2.3112e-08 4.3267e+07 351.52 368.02 5.0561 0.69857 0.88713 144.77 5.7383 2.3808 0.0018007
-184.62 8.1182e-08 6.7736e-11 -190.89 -190.89 -1.3298 730.00 0.0013699 -190.89 -190.89 -1.3298 1.3513 1.9182 2116.1 -0.0077448 8557.8 0.20708 3.3533e-08 2.9821e+07 352.22 368.91 4.9939 0.70253 0.89108 145.51 5.5662 2.4083 0.0018485
-183.62 1.1803e-07 9.7290e-11 -188.97 -188.97 -1.3083 728.96 0.0013718 -188.97 -188.97 -1.3083 1.3501 1.9191 2109.3 -0.0077395 7909.8 0.20678 4.8211e-08 2.0742e+07 352.92 369.81 4.9333 0.70648 0.89504 146.24 5.4011 2.4357 0.0018965
-182.62 1.7009e-07 1.3851e-10 -187.05 -187.05 -1.2869 727.92 0.0013738 -187.05 -187.05 -1.2869 1.3490 1.9201 2102.5 -0.0077340 7324.3 0.20647 6.8704e-08 1.4555e+07 353.63 370.70 4.8744 0.71043 0.89899 146.97 5.2426 2.4632 0.0019448
-181.62 2.4299e-07 1.9553e-10 -185.13 -185.13 -1.2658 726.88 0.0013757 -185.13 -185.13 -1.2658 1.3480 1.9210 2095.7 -0.0077283 6794.5 0.20616 9.7079e-08 1.0301e+07 354.35 371.60 4.8170 0.71438 0.90294 147.69 5.0904 2.4906 0.0019934
-180.62 3.4425e-07 2.7375e-10 -183.21 -183.21 -1.2450 725.85 0.0013777 -183.21 -183.21 -1.2450 1.3470 1.9220 2088.9 -0.0077225 6314.4 0.20584 1.3605e-07 7.3504e+06 355.06 372.51 4.7612 0.71833 0.90688 148.41 4.9442 2.5181 0.0020423
-179.62 4.8378e-07 3.8022e-10 -181.29 -181.29 -1.2243 724.81 0.0013797 -181.29 -181.29 -1.2243 1.3461 1.9231 2082.0 -0.0077164 5878.8 0.20551 1.8915e-07 5.2868e+06 355.78 373.42 4.7068 0.72227 0.91082 149.13 4.8038 2.5456 0.0020915
-178.62 6.7459e-07 5.2406e-10 -179.37 -179.37 -1.2038 723.78 0.0013816 -179.37 -179.37 -1.2038 1.3453 1.9241 2075.2 -0.0077102 5482.9 0.20517 2.6096e-07 3.8320e+06 356.51 374.33 4.6538 0.72620 0.91475 149.84 4.6688 2.5731 0.0021410
-177.62 9.3358e-07 7.1696e-10 -177.44 -177.44 -1.1836 722.75 0.0013836 -177.44 -177.44 -1.1836 1.3445 1.9252 2068.4 -0.0077039 5122.6 0.20483 3.5737e-07 2.7982e+06 357.23 375.25 4.6022 0.73012 0.91867 150.54 4.5390 2.6005 0.0021907
-176.62 1.2826e-06 9.7382e-10 -175.52 -175.52 -1.1635 721.72 0.0013856 -175.52 -175.52 -1.1635 1.3437 1.9263 2061.5 -0.0076973 4794.1 0.20447 4.8588e-07 2.0581e+06 357.97 376.17 4.5519 0.73403 0.92258 151.25 4.4142 2.6280 0.0022408
-175.62 1.7496e-06 1.3135e-09 -173.59 -173.59 -1.1437 720.69 0.0013876 -173.59 -173.59 -1.1437 1.3430 1.9274 2054.7 -0.0076907 4494.3 0.20411 6.5601e-07 1.5244e+06 358.70 377.09 4.5029 0.73792 0.92648 151.95 4.2941 2.6555 0.0022912
-174.62 2.3705e-06 1.7598e-09 -171.66 -171.66 -1.1240 719.66 0.0013895 -171.66 -171.66 -1.1240 1.3423 1.9286 2047.9 -0.0076838 4220.2 0.20375 8.7976e-07 1.1367e+06 359.44 378.02 4.4551 0.74181 0.93036 152.64 4.1784 2.6830 0.0023418
-173.62 3.1903e-06 2.3423e-09 -169.73 -169.73 -1.1045 718.64 0.0013915 -169.73 -169.73 -1.1045 1.3417 1.9298 2041.0 -0.0076769 3969.3 0.20338 1.1721e-06 8.5314e+05 360.19 378.95 4.4085 0.74568 0.93423 153.33 4.0671 2.7105 0.0023928
-172.62 4.2661e-06 3.0979e-09 -167.80 -167.80 -1.0852 717.61 0.0013935 -167.80 -167.80 -1.0852 1.3411 1.9310 2034.2 -0.0076698 3739.3 0.20300 1.5518e-06 6.4441e+05 360.93 379.89 4.3631 0.74953 0.93809 154.02 3.9599 2.7379 0.0024440
-171.62 5.6692e-06 4.0722e-09 -165.87 -165.87 -1.0661 716.58 0.0013955 -165.87 -165.87 -1.0661 1.3405 1.9322 2027.3 -0.0076625 3528.0 0.20261 2.0419e-06 4.8974e+05 361.69 380.83 4.3188 0.75337 0.94193 154.71 3.8566 2.7654 0.0024955
-170.62 7.4884e-06 5.3211e-09 -163.94 -163.94 -1.0472 715.56 0.0013975 -163.94 -163.94 -1.0472 1.3400 1.9334 2020.5 -0.0076552 3333.8 0.20222 2.6708e-06 3.7442e+05 362.44 381.77 4.2755 0.75720 0.94575 155.39 3.7570 2.7929 0.0025473
-169.62 9.8334e-06 6.9130e-09 -162.00 -162.00 -1.0284 714.54 0.0013995 -162.00 -162.00 -1.0284 1.3395 1.9347 2013.6 -0.0076477 3154.9 0.20182 3.4733e-06 2.8791e+05 363.20 382.72 4.2334 0.76100 0.94956 156.07 3.6609 2.8204 0.0025994
-168.62 1.2839e-05 8.9309e-09 -160.07 -160.07 -1.0098 713.52 0.0014015 -160.07 -160.07 -1.0098 1.3390 1.9359 2006.8 -0.0076401 2989.9 0.20141 4.4917e-06 2.2263e+05 363.96 383.67 4.1922 0.76479 0.95335 156.74 3.5683 2.8479 0.0026518
-167.62 1.6672e-05 1.1475e-08 -158.13 -158.13 -0.99134 712.49 0.0014035 -158.13 -158.13 -0.99134 1.3386 1.9372 2000.0 -0.0076323 2837.5 0.20100 5.7771e-06 1.7310e+05 364.73 384.63 4.1521 0.76856 0.95712 157.41 3.4790 2.8754 0.0027045
-166.62 2.1533e-05 1.4667e-08 -156.19 -156.19 -0.97306 711.47 0.0014055 -156.19 -156.19 -0.97306 1.3382 1.9385 1993.1 -0.0076245 2696.5 0.20058 7.3914e-06 1.3529e+05 365.50 385.59 4.1129 0.77232 0.96087 158.08 3.3927 2.9029 0.0027575
-165.62 2.7666e-05 1.8650e-08 -154.25 -154.25 -0.95494 710.45 0.0014075 -154.25 -154.25 -0.95494 1.3378 1.9398 1986.3 -0.0076165 2566.0 0.20016 9.4084e-06 1.0629e+05 366.27 386.55 4.0746 0.77605 0.96460 158.75 3.3095 2.9304 0.0028108
-164.62 3.5367e-05 2.3598e-08 -152.31 -152.31 -0.93698 709.44 0.0014096 -152.31 -152.31 -0.93698 1.3375 1.9411 1979.4 -0.0076084 2444.9 0.19973 1.1916e-05 83918. 367.05 387.52 4.0372 0.77976 0.96832 159.41 3.2291 2.9579 0.0028643
-163.62 4.4989e-05 2.9713e-08 -150.37 -150.37 -0.91917 708.42 0.0014116 -150.37 -150.37 -0.91917 1.3371 1.9424 1972.6 -0.0076002 2332.3 0.19930 1.5020e-05 66577. 367.83 388.49 4.0008 0.78346 0.97201 160.07 3.1514 2.9854 0.0029182
-162.62 5.6956e-05 3.7239e-08 -148.43 -148.43 -0.90151 707.40 0.0014136 -148.43 -148.43 -0.90151 1.3368 1.9437 1965.8 -0.0075919 2227.7 0.19886 1.8844e-05 53068. 368.62 389.46 3.9651 0.78713 0.97569 160.72 3.0764 3.0129 0.0029723
-161.62 7.1773e-05 4.6457e-08 -146.48 -146.48 -0.88400 706.38 0.0014157 -146.48 -146.48 -0.88400 1.3365 1.9451 1959.0 -0.0075834 2130.2 0.19841 2.3533e-05 42494. 369.41 390.44 3.9304 0.79079 0.97935 161.38 3.0038 3.0404 0.0030268
-160.62 9.0036e-05 5.7701e-08 -144.54 -144.54 -0.86663 705.37 0.0014177 -144.54 -144.54 -0.86663 1.3363 1.9465 1952.1 -0.0075748 2039.2 0.19796 2.9258e-05 34178. 370.20 391.42 3.8964 0.79443 0.98298 162.03 2.9337 3.0679 0.0030815
-159.62 0.00011245 7.1358e-08 -142.59 -142.59 -0.84940 704.35 0.0014197 -142.59 -142.59 -0.84940 1.3360 1.9478 1945.3 -0.0075661 1954.2 0.19751 3.6221e-05 27609. 371.00 392.40 3.8632 0.79805 0.98660 162.68 2.8658 3.0955 0.0031365
-158.62 0.00013985 8.7877e-08 -140.64 -140.64 -0.83231 703.34 0.0014218 -140.64 -140.64 -0.83231 1.3358 1.9492 1938.5 -0.0075573 1874.8 0.19705 4.4652e-05 22395. 371.80 393.39 3.8307 0.80164 0.99020 163.32 2.8002 3.1230 0.0031918
-157.62 0.00017320 1.0778e-07 -138.69 -138.69 -0.81536 702.32 0.0014238 -138.69 -138.69 -0.81536 1.3356 1.9506 1931.7 -0.0075484 1800.3 0.19658 5.4822e-05 18241. 372.60 394.38 3.7990 0.80522 0.99378 163.96 2.7367 3.1505 0.0032474
-156.62 0.00021364 1.3166e-07 -136.74 -136.74 -0.79854 701.31 0.0014259 -136.74 -136.74 -0.79854 1.3354 1.9520 1924.9 -0.0075393 1730.5 0.19611 6.7040e-05 14916. 373.41 395.38 3.7680 0.80878 0.99734 164.60 2.6752 3.1780 0.0033033
-155.62 0.00026248 1.6022e-07 -134.79 -134.79 -0.78185 700.30 0.0014280 -134.79 -134.79 -0.78185 1.3352 1.9534 1918.1 -0.0075302 1664.9 0.19564 8.1666e-05 12245. 374.22 396.38 3.7377 0.81232 1.0009 165.24 2.6157 3.2055 0.0033595
-154.62 0.00032125 1.9423e-07 -132.83 -132.83 -0.76530 699.29 0.0014300 -132.83 -132.83 -0.76530 1.3350 1.9548 1911.3 -0.0075209 1603.3 0.19516 9.9109e-05 10090. 375.03 397.38 3.7081 0.81585 1.0044 165.87 2.5580 3.2330 0.0034160
-153.62 0.00039171 2.3461e-07 -130.88 -130.88 -0.74887 698.27 0.0014321 -130.88 -130.88 -0.74887 1.3349 1.9563 1904.5 -0.0075114 1545.3 0.19468 0.00011984 8344.6 375.85 398.39 3.6792 0.81935 1.0079 166.50 2.5022 3.2606 0.0034727
-152.62 0.00047590 2.8237e-07 -128.92 -128.92 -0.73256 697.26 0.0014342 -128.92 -128.92 -0.73256 1.3348 1.9577 1897.8 -0.0075019 1490.6 0.19419 0.00014439 6925.9 376.67 399.40 3.6509 0.82284 1.0114 167.13 2.4481 3.2881 0.0035298
-151.62 0.00057613 3.3866e-07 -126.96 -126.96 -0.71638 696.25 0.0014363 -126.96 -126.96 -0.71638 1.3346 1.9592 1891.0 -0.0074922 1438.9 0.19370 0.00017336 5768.4 377.49 400.41 3.6232 0.82631 1.0149 167.76 2.3957 3.3156 0.0035872
-150.62 0.00069507 4.0481e-07 -125.00 -125.00 -0.70032 695.24 0.0014384 -125.00 -125.00 -0.70032 1.3345 1.9606 1884.2 -0.0074824 1390.2 0.19320 0.00020744 4820.7 378.32 401.42 3.5962 0.82976 1.0183 168.38 2.3448 3.3431 0.0036448
-149.62 0.00083574 4.8228e-07 -123.04 -123.04 -0.68437 694.23 0.0014404 -123.04 -123.04 -0.68438 1.3345 1.9621 1877.4 -0.0074724 1344.0 0.19270 0.00024740 4042.0 379.15 402.44 3.5697 0.83319 1.0218 169.00 2.2956 3.3706 0.0037027
-148.62 0.0010016 5.7273e-07 -121.08 -121.08 -0.66855 693.22 0.0014425 -121.08 -121.08 -0.66855 1.3344 1.9636 1870.7 -0.0074623 1300.3 0.19220 0.00029412 3400.0 379.99 403.47 3.5438 0.83661 1.0252 169.62 2.2478 3.3982 0.0037610
-147.62 0.0011965 6.7801e-07 -119.11 -119.11 -0.65283 692.21 0.0014447 -119.11 -119.11 -0.65284 1.3343 1.9651 1863.9 -0.0074521 1258.9 0.19169 0.00034856 2869.0 380.83 404.49 3.5185 0.84001 1.0286 170.24 2.2014 3.4257 0.0038195
-146.62 0.0014249 8.0018e-07 -117.15 -117.15 -0.63723 691.20 0.0014468 -117.15 -117.15 -0.63724 1.3343 1.9666 1857.2 -0.0074417 1219.6 0.19117 0.00041181 2428.3 381.67 405.52 3.4938 0.84340 1.0320 170.85 2.1565 3.4532 0.0038783
-145.62 0.0016917 9.4155e-07 -115.18 -115.18 -0.62175 690.19 0.0014489 -115.18 -115.18 -0.62175 1.3343 1.9682 1850.4 -0.0074312 1182.3 0.19066 0.00048510 2061.4 382.51 406.56 3.4695 0.84677 1.0353 171.46 2.1128 3.4807 0.0039374
-144.62 0.0020026 1.1047e-06 -113.21 -113.21 -0.60637 689.18 0.0014510 -113.21 -113.21 -0.60637 1.3343 1.9697 1843.7 -0.0074206 1146.8 0.19014 0.00056976 1755.1 383.36 407.59 3.4458 0.85012 1.0387 172.07 2.0705 3.5082 0.0039967
-143.62 0.0023637 1.2924e-06 -111.24 -111.24 -0.59109 688.17 0.0014531 -111.24 -111.24 -0.59110 1.3343 1.9713 1836.9 -0.0074098 1113.0 0.18962 0.00066731 1498.6 384.21 408.63 3.4226 0.85346 1.0420 172.68 2.0294 3.5358 0.0040564
-142.62 0.0027820 1.5078e-06 -109.27 -109.27 -0.57593 687.16 0.0014553 -109.27 -109.27 -0.57593 1.3343 1.9728 1830.2 -0.0073988 1080.8 0.18909 0.00077939 1283.1 385.07 409.68 3.3999 0.85679 1.0454 173.28 1.9896 3.5633 0.0041164
-141.62 0.0032653 1.7543e-06 -107.30 -107.30 -0.56086 686.15 0.0014574 -107.30 -107.30 -0.56087 1.3343 1.9744 1823.5 -0.0073878 1050.1 0.18856 0.00090784 1101.5 385.93 410.72 3.3777 0.86011 1.0487 173.88 1.9508 3.5908 0.0041766
-140.62 0.0038222 2.0358e-06 -105.32 -105.32 -0.54590 685.14 0.0014596 -105.32 -105.32 -0.54591 1.3344 1.9760 1816.7 -0.0073765 1020.7 0.18803 0.0010547 948.16 386.79 411.77 3.3560 0.86341 1.0520 174.48 1.9133 3.6183 0.0042372
-139.62 0.0044623 2.3564e-06 -103.34 -103.34 -0.53104 684.13 0.0014617 -103.34 -103.34 -0.53105 1.3344 1.9776 1810.0 -0.0073651 992.74 0.18749 0.0012221 818.26 387.65 412.83 3.3347 0.86670 1.0553 175.08 1.8768 3.6459 0.0042980
-138.62 0.0051963 2.7205e-06 -101.36 -101.36 -0.51628 683.12 0.0014639 -101.37 -101.37 -0.51629 1.3345 1.9792 1803.3 -0.0073536 965.97 0.18695 0.0014125 707.94 388.52 413.88 3.3139 0.86998 1.0586 175.67 1.8413 3.6734 0.0043592
-137.62 0.0060358 3.1332e-06 -99.385 -99.384 -0.50161 682.11 0.0014660 -99.386 -99.386 -0.50162 1.3346 1.9808 1796.6 -0.0073419 940.35 0.18641 0.0016287 614.00 389.39 414.94 3.2935 0.87325 1.0619 176.26 1.8069 3.7009 0.0044206
-136.62 0.0069938 3.5999e-06 -97.403 -97.403 -0.48704 681.10 0.0014682 -97.404 -97.404 -0.48705 1.3347 1.9825 1789.9 -0.0073301 915.81 0.18586 0.0018733 533.80 390.26 416.00 3.2735 0.87650 1.0651 176.85 1.7734 3.7284 0.0044823
-135.62 0.0080843 4.1263e-06 -95.419 -95.419 -0.47256 680.09 0.0014704 -95.421 -95.421 -0.47258 1.3348 1.9841 1783.2 -0.0073180 892.30 0.18531 0.0021497 465.17 391.14 417.07 3.2540 0.87975 1.0684 177.44 1.7409 3.7559 0.0045443
-134.62 0.0093230 4.7189e-06 -93.434 -93.434 -0.45818 679.08 0.0014726 -93.436 -93.436 -0.45820 1.3350 1.9858 1776.5 -0.0073059 869.75 0.18476 0.0024613 406.30 392.02 418.14 3.2348 0.88299 1.0716 178.02 1.7093 3.7834 0.0046066
-133.62 0.010727 5.3844e-06 -91.447 -91.447 -0.44389 678.07 0.0014748 -91.450 -91.449 -0.44391 1.3351 1.9875 1769.8 -0.0072935 848.11 0.18421 0.0028116 355.67 392.91 419.21 3.2161 0.88622 1.0749 178.61 1.6786 3.8109 0.0046691
-132.62 0.012315 6.1304e-06 -89.458 -89.458 -0.42969 677.06 0.0014770 -89.461 -89.461 -0.42971 1.3353 1.9892 1763.1 -0.0072810 827.32 0.18365 0.0032049 312.03 393.79 420.29 3.1977 0.88944 1.0781 179.19 1.6488 3.8385 0.0047320
-131.62 0.014106 6.9648e-06 -87.468 -87.467 -0.41557 676.04 0.0014792 -87.471 -87.471 -0.41560 1.3354 1.9909 1756.4 -0.0072684 807.34 0.18309 0.0036453 274.33 394.68 421.36 3.1798 0.89266 1.0813 179.76 1.6197 3.8660 0.0047951
-130.62 0.016124 7.8962e-06 -85.476 -85.475 -0.40154 675.03 0.0014814 -85.479 -85.479 -0.40157 1.3356 1.9926 1749.7 -0.0072555 788.12 0.18253 0.0041375 241.69 395.58 422.44 3.1622 0.89586 1.0846 180.34 1.5915 3.8935 0.0048586
-129.62 0.018392 8.9338e-06 -83.482 -83.481 -0.38760 674.02 0.0014836 -83.486 -83.486 -0.38763 1.3358 1.9944 1743.0 -0.0072425 769.63 0.18196 0.0046867 213.37 396.47 423.53 3.1450 0.89906 1.0878 180.91 1.5641 3.9210 0.0049223
-128.62 0.020935 1.0087e-05 -81.486 -81.485 -0.37375 673.01 0.0014859 -81.491 -81.490 -0.37378 1.3360 1.9961 1736.3 -0.0072294 751.83 0.18140 0.0052981 188.75 397.37 424.62 3.1281 0.90226 1.0910 181.48 1.5374 3.9485 0.0049863
-127.62 0.023783 1.1368e-05 -79.488 -79.488 -0.35997 672.00 0.0014881 -79.494 -79.493 -0.36001 1.3363 1.9979 1729.6 -0.0072160 734.67 0.18083 0.0059776 167.29 398.27 425.71 3.1116 0.90545 1.0942 182.05 1.5114 3.9760 0.0050506
-126.62 0.026966 1.2786e-05 -77.489 -77.488 -0.34628 670.98 0.0014904 -77.495 -77.495 -0.34632 1.3365 1.9997 1722.9 -0.0072025 718.14 0.18025 0.0067313 148.56 399.18 426.80 3.0954 0.90863 1.0974 182.62 1.4861 4.0035 0.0051152
-125.62 0.030515 1.4354e-05 -75.487 -75.487 -0.33267 669.97 0.0014926 -75.494 -75.494 -0.33272 1.3368 2.0015 1716.2 -0.0071888 702.18 0.17968 0.0075660 132.17 400.09 427.89 3.0795 0.91181 1.1006 183.18 1.4615 4.0310 0.0051800
-124.62 0.034467 1.6086e-05 -73.484 -73.483 -0.31913 668.95 0.0014949 -73.492 -73.492 -0.31919 1.3371 2.0033 1709.5 -0.0071749 686.79 0.17910 0.0084885 117.81 401.00 428.99 3.0640 0.91499 1.1038 183.74 1.4375 4.0584 0.0052452
-123.62 0.038859 1.7993e-05 -71.479 -71.478 -0.30568 667.94 0.0014971 -71.488 -71.487 -0.30574 1.3374 2.0051 1702.8 -0.0071609 671.93 0.17852 0.0095065 105.19 401.91 430.10 3.0488 0.91816 1.1070 184.30 1.4141 4.0859 0.0053106
-122.62 0.043731 2.0091e-05 -69.472 -69.471 -0.29230 666.92 0.0014994 -69.482 -69.481 -0.29237 1.3377 2.0070 1696.2 -0.0071466 657.57 0.17794 0.010628 94.092 402.83 431.20 3.0339 0.92134 1.1102 184.86 1.3913 4.1134 0.0053764
-121.62 0.049128 2.2396e-05 -67.463 -67.462 -0.27900 665.91 0.0015017 -67.474 -67.473 -0.27907 1.3380 2.0089 1689.5 -0.0071322 643.70 0.17736 0.011861 84.309 403.75 432.31 3.0193 0.92451 1.1134 185.41 1.3691 4.1409 0.0054424
-120.62 0.055096 2.4922e-05 -65.452 -65.451 -0.26577 664.89 0.0015040 -65.464 -65.463 -0.26585 1.3384 2.0107 1682.8 -0.0071176 630.28 0.17678 0.013215 75.669 404.67 433.42 3.0050 0.92767 1.1166 185.96 1.3475 4.1683 0.0055087
-119.62 0.061684 2.7688e-05 -63.439 -63.438 -0.25262 663.87 0.0015063 -63.452 -63.452 -0.25271 1.3387 2.0126 1676.1 -0.0071028 617.30 0.17619 0.014700 68.027 405.60 434.53 2.9909 0.93084 1.1198 186.51 1.3264 4.1958 0.0055752
-118.62 0.068946 3.0712e-05 -61.424 -61.423 -0.23953 662.86 0.0015086 -61.439 -61.438 -0.23963 1.3391 2.0146 1669.4 -0.0070878 604.74 0.17560 0.016325 61.255 406.53 435.64 2.9772 0.93401 1.1231 187.06 1.3058 4.2233 0.0056421
-117.62 0.076937 3.4011e-05 -59.407 -59.405 -0.22652 661.84 0.0015109 -59.423 -59.422 -0.22663 1.3395 2.0165 1662.8 -0.0070726 592.58 0.17501 0.018101 55.245 407.46 436.76 2.9638 0.93718 1.1263 187.60 1.2857 4.2507 0.0057092
-116.62 0.085718 3.7607e-05 -57.388 -57.386 -0.21358 660.82 0.0015133 -57.406 -57.405 -0.21370 1.3400 2.0184 1656.1 -0.0070573 580.80 0.17442 0.020040 49.901 408.39 437.88 2.9506 0.94035 1.1295 188.14 1.2660 4.2782 0.0057767
-115.62 0.095353 4.1519e-05 -55.367 -55.365 -0.20071 659.80 0.0015156 -55.386 -55.385 -0.20084 1.3404 2.0204 1649.4 -0.0070417 569.38 0.17383 0.022152 45.142 409.33 439.01 2.9377 0.94352 1.1327 188.68 1.2468 4.3056 0.0058444
-114.62 0.10591 4.5771e-05 -53.344 -53.341 -0.18791 658.78 0.0015180 -53.365 -53.364 -0.18805 1.3409 2.0224 1642.7 -0.0070260 558.32 0.17323 0.024451 40.898 410.27 440.13 2.9250 0.94669 1.1360 189.22 1.2281 4.3330 0.0059123
-113.62 0.11746 5.0384e-05 -51.318 -51.316 -0.17517 657.76 0.0015203 -51.342 -51.340 -0.17533 1.3413 2.0244 1636.0 -0.0070100 547.59 0.17264 0.026949 37.107 411.21 441.26 2.9126 0.94987 1.1392 189.75 1.2097 4.3604 0.0059806
-112.62 0.13008 5.5384e-05 -49.291 -49.288 -0.16250 656.73 0.0015227 -49.316 -49.315 -0.16267 1.3418 2.0264 1629.3 -0.0069938 537.18 0.17204 0.029661 33.715 412.16 442.39 2.9005 0.95305 1.1424 190.28 1.1918 4.3879 0.0060491
-111.62 0.14384 6.0794e-05 -47.261 -47.257 -0.14989 655.71 0.0015251 -47.289 -47.287 -0.15008 1.3424 2.0285 1622.7 -0.0069774 527.08 0.17144 0.032600 30.675 413.10 443.53 2.8885 0.95623 1.1457 190.81 1.1742 4.4153 0.0061180
-110.62 0.15884 6.6641e-05 -45.229 -45.225 -0.13735 654.69 0.0015274 -45.259 -45.258 -0.13755 1.3429 2.0305 1616.0 -0.0069609 517.28 0.17084 0.035781 27.948 414.06 444.66 2.8769 0.95942 1.1490 191.34 1.1570 4.4427 0.0061871
-109.62 0.17516 7.2952e-05 -43.194 -43.190 -0.12487 653.66 0.0015298 -43.228 -43.226 -0.12509 1.3435 2.0326 1609.3 -0.0069441 507.76 0.17024 0.039220 25.497 415.01 445.80 2.8654 0.96261 1.1522 191.86 1.1402 4.4701 0.0062564
-108.62 0.19290 7.9756e-05 -41.158 -41.153 -0.11246 652.64 0.0015322 -41.194 -41.192 -0.11269 1.3441 2.0347 1602.6 -0.0069271 498.51 0.16964 0.042933 23.292 415.96 446.94 2.8542 0.96581 1.1555 192.38 1.1236 4.4974 0.0063261
-107.62 0.21215 8.7082e-05 -39.119 -39.114 -0.10010 651.61 0.0015347 -39.158 -39.156 -0.10036 1.3447 2.0369 1595.9 -0.0069098 489.52 0.16903 0.046937 21.305 416.92 448.09 2.8433 0.96901 1.1588 192.90 1.1075 4.5248 0.0063960
-106.62 0.23301 9.4961e-05 -37.077 -37.072 -0.087805 650.58 0.0015371 -37.120 -37.118 -0.088082 1.3453 2.0390 1589.2 -0.0068924 480.79 0.16843 0.051250 19.512 417.88 449.23 2.8325 0.97222 1.1621 193.41 1.0916 4.5522 0.0064662
-105.62 0.25561 0.00010342 -35.034 -35.028 -0.075569 649.55 0.0015395 -35.080 -35.078 -0.075868 1.3460 2.0412 1582.6 -0.0068747 472.30 0.16782 0.055891 17.892 418.85 450.38 2.8220 0.97544 1.1655 193.93 1.0760 4.5795 0.0065367
-104.62 0.28004 0.00011250 -32.987 -32.981 -0.063391 648.52 0.0015420 -33.038 -33.035 -0.063714 1.3467 2.0434 1575.9 -0.0068569 464.04 0.16721 0.060878 16.426 419.81 451.53 2.8116 0.97867 1.1688 194.44 1.0608 4.6069 0.0066074
-103.62 0.30643 0.00012224 -30.939 -30.931 -0.051270 647.49 0.0015444 -30.994 -30.991 -0.051619 1.3474 2.0456 1569.2 -0.0068387 456.00 0.16660 0.066231 15.099 420.78 452.68 2.8015 0.98191 1.1722 194.94 1.0458 4.6342 0.0066785
-102.62 0.33490 0.00013265 -28.887 -28.880 -0.039206 646.46 0.0015469 -28.947 -28.944 -0.039582 1.3481 2.0478 1562.5 -0.0068204 448.18 0.16600 0.071971 13.894 421.75 453.84 2.7916 0.98516 1.1755 195.44 1.0310 4.6615 0.0067498
-101.62 0.36558 0.00014379 -26.834 -26.825 -0.027198 645.43 0.0015494 -26.898 -26.894 -0.027602 1.3489 2.0501 1555.8 -0.0068018 440.57 0.16539 0.078120 12.801 422.73 454.99 2.7818 0.98841 1.1789 195.95 1.0166 4.6888 0.0068213
-100.62 0.39862 0.00015569 -24.777 -24.768 -0.015244 644.39 0.0015519 -24.847 -24.843 -0.015678 1.3497 2.0524 1549.1 -0.0067830 433.16 0.16478 0.084699 11.807 423.70 456.15 2.7723 0.99168 1.1823 196.44 1.0024 4.7161 0.0068932
-99.625 0.43414 0.00016839 -22.718 -22.708 -0.0033443 643.36 0.0015544 -22.794 -22.789 -0.0038103 1.3505 2.0547 1542.4 -0.0067639 425.95 0.16416 0.091731 10.901 424.68 457.31 2.7630 0.99496 1.1858 196.94 0.98838 4.7434 0.0069653
-98.625 0.47230 0.00018193 -20.657 -20.646 0.0085023 642.32 0.0015569 -20.738 -20.733 0.0080027 1.3514 2.0570 1535.7 -0.0067447 418.92 0.16355 0.099240 10.077 425.66 458.48 2.7538 0.99825 1.1892 197.43 0.97464 4.7707 0.0070377
-97.625 0.51325 0.00019635 -18.593 -18.581 0.020297 641.28 0.0015594 -18.680 -18.674 0.019762 1.3522 2.0594 1529.0 -0.0067251 412.07 0.16294 0.10725 9.3239 426.65 459.64 2.7448 1.0016 1.1927 197.92 0.96112 4.7979 0.0071103
-96.625 0.55714 0.00021169 -16.525 -16.512 0.032040 640.24 0.0015619 -16.620 -16.614 0.031467 1.3531 2.0618 1522.3 -0.0067053 405.39 0.16233 0.11579 8.6365 427.63 460.81 2.7360 1.0049 1.1962 198.40 0.94783 4.8251 0.0071832
-95.625 0.60416 0.00022799 -14.456 -14.442 0.043732 639.20 0.0015645 -14.557 -14.550 0.043120 1.3540 2.0642 1515.7 -0.0066853 398.88 0.16171 0.12488 8.0078 428.62 461.98 2.7274 1.0082 1.1997 198.88 0.93475 4.8524 0.0072564
-94.625 0.65446 0.00024531 -12.383 -12.368 0.055375 638.16 0.0015670 -12.491 -12.484 0.054721 1.3550 2.0667 1509.0 -0.0066650 392.53 0.16110 0.13455 7.4323 429.61 463.15 2.7189 1.0116 1.2032 199.36 0.92188 4.8796 0.0073299
-93.625 0.70822 0.00026368 -10.307 -10.291 0.066968 637.12 0.0015696 -10.424 -10.416 0.066271 1.3560 2.0691 1502.3 -0.0066444 386.34 0.16048 0.14482 6.9050 430.60 464.32 2.7107 1.0149 1.2068 199.83 0.90921 4.9068 0.0074036
-92.625 0.76564 0.00028314 -8.2290 -8.2111 0.078514 636.07 0.0015722 -8.3535 -8.3452 0.077771 1.3570 2.0716 1495.6 -0.0066236 380.31 0.15987 0.15573 6.4212 431.60 465.49 2.7025 1.0183 1.2104 200.30 0.89673 4.9340 0.0074776
-91.625 0.82689 0.00030376 -6.1475 -6.1282 0.090012 635.02 0.0015747 -6.2808 -6.2719 0.089220 1.3580 2.0742 1488.9 -0.0066025 374.41 0.15925 0.16731 5.9769 432.59 466.67 2.6946 1.0217 1.2140 200.77 0.88445 4.9611 0.0075518
-90.625 0.89218 0.00032558 -4.0631 -4.0422 0.10146 633.98 0.0015773 -4.2056 -4.1959 0.10062 1.3591 2.0767 1482.2 -0.0065811 368.66 0.15864 0.17958 5.5685 433.59 467.84 2.6868 1.0251 1.2177 201.24 0.87236 4.9883 0.0076263
-89.625 0.96172 0.00034864 -1.9756 -1.9531 0.11287 632.93 0.0015800 -2.1279 -2.1174 0.11197 1.3602 2.0793 1475.5 -0.0065595 363.05 0.15802 0.19258 5.1928 434.59 469.02 2.6791 1.0285 1.2213 201.70 0.86045 5.0154 0.0077011
-88.625 1.0357 0.00037301 0.11498 0.13919 0.12423 631.88 0.0015826 -0.047516 -0.036215 0.12328 1.3613 2.0819 1468.8 -0.0065375 357.56 0.15740 0.20633 4.8466 435.59 470.20 2.6717 1.0320 1.2250 202.15 0.84873 5.0425 0.0077761
-87.625 1.1144 0.00039872 2.2087 2.2348 0.13554 630.83 0.0015852 2.0355 2.0476 0.13454 1.3625 2.0846 1462.1 -0.0065153 352.21 0.15679 0.22087 4.5276 436.60 471.39 2.6643 1.0354 1.2288 202.61 0.83718 5.0696 0.0078514
-86.625 1.1979 0.00042584 4.3057 4.3337 0.14682 629.77 0.0015879 4.1211 4.1342 0.14575 1.3637 2.0873 1455.4 -0.0064928 346.98 0.15617 0.23623 4.2331 437.61 472.57 2.6571 1.0389 1.2325 203.06 0.82580 5.0967 0.0079270
-85.625 1.2866 0.00045442 6.4058 6.4359 0.15805 628.72 0.0015905 6.2094 6.2235 0.15691 1.3649 2.0900 1448.8 -0.0064701 341.87 0.15555 0.25245 3.9612 438.61 473.75 2.6501 1.0424 1.2363 203.50 0.81460 5.1237 0.0080028
-84.625 1.3806 0.00048451 8.5093 8.5416 0.16923 627.66 0.0015932 8.3004 8.3155 0.16803 1.3661 2.0927 1442.1 -0.0064470 336.87 0.15494 0.26956 3.7097 439.63 474.94 2.6432 1.0460 1.2402 203.95 0.80356 5.1508 0.0080789
-83.625 1.4803 0.00051616 10.616 10.651 0.18038 626.60 0.0015959 10.394 10.410 0.17911 1.3674 2.0955 1435.4 -0.0064236 331.99 0.15432 0.28760 3.4771 440.64 476.13 2.6364 1.0495 1.2440 204.38 0.79269 5.1778 0.0081553
-82.625 1.5858 0.00054945 12.726 12.763 0.19148 625.54 0.0015986 12.491 12.508 0.19014 1.3687 2.0983 1428.7 -0.0063999 327.22 0.15370 0.30659 3.2616 441.65 477.31 2.6298 1.0531 1.2479 204.82 0.78199 5.2048 0.0082319
-81.625 1.6975 0.00058442 14.840 14.880 0.20255 624.48 0.0016013 14.590 14.609 0.20113 1.3700 2.1012 1422.0 -0.0063759 322.55 0.15309 0.32659 3.0619 442.67 478.50 2.6233 1.0567 1.2519 205.25 0.77144 5.2318 0.0083088
-80.625 1.8155 0.00062113 16.957 17.000 0.21358 623.42 0.0016041 16.692 16.712 0.21208 1.3714 2.1041 1415.4 -0.0063516 317.99 0.15247 0.34763 2.8766 443.69 479.70 2.6169 1.0603 1.2558 205.67 0.76106 5.2587 0.0083860
-79.625 1.9402 0.00065965 19.078 19.123 0.22456 622.36 0.0016068 18.797 18.819 0.22299 1.3728 2.1070 1408.7 -0.0063270 313.52 0.15186 0.36974 2.7046 444.71 480.89 2.6106 1.0639 1.2598 206.10 0.75083 5.2857 0.0084634
-78.625 2.0718 0.00070003 21.202 21.251 0.23551 621.29 0.0016096 20.905 20.928 0.23385 1.3742 2.1099 1402.0 -0.0063021 309.15 0.15124 0.39296 2.5448 445.73 482.08 2.6045 1.0676 1.2639 206.51 0.74076 5.3126 0.0085411
-77.625 2.2107 0.00074233 23.330 23.382 0.24642 620.22 0.0016123 23.016 23.040 0.24468 1.3757 2.1129 1395.3 -0.0062768 304.88 0.15062 0.41735 2.3961 446.75 483.27 2.5985 1.0712 1.2680 206.93 0.73084 5.3395 0.0086190
-76.625 2.3571 0.00078663 25.462 25.517 0.25730 619.15 0.0016151 25.130 25.156 0.25546 1.3772 2.1159 1388.7 -0.0062512 300.69 0.15001 0.44292 2.2577 447.78 484.47 2.5926 1.0749 1.2721 207.34 0.72107 5.3664 0.0086972
-75.625 2.5113 0.00083297 27.598 27.656 0.26814 618.08 0.0016179 27.247 27.275 0.26620 1.3787 2.1190 1382.0 -0.0062253 296.59 0.14939 0.46974 2.1288 448.81 485.67 2.5869 1.0787 1.2762 207.74 0.71146 5.3933 0.0087757
-74.625 2.6736 0.00088143 29.737 29.799 0.27894 617.01 0.0016207 29.366 29.396 0.27691 1.3802 2.1221 1375.4 -0.0061990 292.58 0.14878 0.49783 2.0087 449.83 486.86 2.5812 1.0824 1.2804 208.14 0.70200 5.4201 0.0088544
-73.625 2.8444 0.00093207 31.880 31.947 0.28971 615.93 0.0016236 31.489 31.521 0.28758 1.3818 2.1252 1368.7 -0.0061724 288.65 0.14816 0.52725 1.8966 450.86 488.06 2.5757 1.0862 1.2847 208.54 0.69268 5.4469 0.0089334
-72.625 3.0240 0.00098496 34.027 34.098 0.30044 614.85 0.0016264 33.615 33.649 0.29821 1.3834 2.1284 1362.0 -0.0061454 284.81 0.14755 0.55804 1.7920 451.90 489.26 2.5703 1.0900 1.2889 208.93 0.68351 5.4737 0.0090126
-71.625 3.2127 0.0010402 36.179 36.254 0.31114 613.78 0.0016293 35.745 35.781 0.30880 1.3851 2.1316 1355.4 -0.0061181 281.03 0.14694 0.59024 1.6942 452.93 490.46 2.5650 1.0938 1.2932 209.32 0.67448 5.5005 0.0090922
-70.625 3.4108 0.0010977 38.334 38.413 0.32181 612.69 0.0016321 37.877 37.915 0.31935 1.3867 2.1349 1348.7 -0.0060904 277.34 0.14632 0.62390 1.6028 453.96 491.66 2.5598 1.0976 1.2976 209.70 0.66560 5.5273 0.0091720
-69.625 3.6187 0.0011578 40.493 40.578 0.33245 611.61 0.0016350 40.013 40.053 0.32987 1.3884 2.1382 1342.1 -0.0060624 273.72 0.14571 0.65906 1.5173 455.00 492.86 2.5547 1.1015 1.3020 210.08 0.65687 5.5540 0.0092520
-68.625 3.8367 0.0012203 42.657 42.746 0.34305 610.53 0.0016379 42.152 42.195 0.34036 1.3902 2.1415 1335.5 -0.0060339 270.17 0.14510 0.69577 1.4372 456.04 494.06 2.5497 1.1054 1.3064 210.45 0.64827 5.5807 0.0093324
-67.625 4.0652 0.0012854 44.824 44.919 0.35363 609.44 0.0016409 44.294 44.340 0.35080 1.3919 2.1449 1328.8 -0.0060051 266.69 0.14449 0.73408 1.3622 457.08 495.26 2.5448 1.1093 1.3109 210.82 0.63981 5.6074 0.0094130
-66.625 4.3046 0.0013532 46.996 47.097 0.36417 608.35 0.0016438 46.439 46.488 0.36122 1.3937 2.1483 1322.2 -0.0059760 263.28 0.14388 0.77404 1.2919 458.12 496.46 2.5400 1.1133 1.3154 211.18 0.63150 5.6341 0.0094939
-65.625 4.5551 0.0014237 49.173 49.279 0.37468 607.26 0.0016467 48.588 48.640 0.37160 1.3955 2.1518 1315.6 -0.0059464 259.93 0.14327 0.81570 1.2259 459.16 497.67 2.5353 1.1172 1.3200 211.54 0.62332 5.6608 0.0095750
-64.625 4.8173 0.0014970 51.353 51.466 0.38516 606.16 0.0016497 50.740 50.795 0.38195 1.3974 2.1553 1308.9 -0.0059164 256.65 0.14266 0.85910 1.1640 460.21 498.87 2.5307 1.1212 1.3246 211.89 0.61527 5.6874 0.0096564
-63.625 5.0915 0.0015732 53.539 53.658 0.39562 605.07 0.0016527 52.896 52.954 0.39226 1.3993 2.1588 1302.3 -0.0058861 253.42 0.14205 0.90429 1.1058 461.25 500.07 2.5262 1.1252 1.3293 212.24 0.60736 5.7140 0.0097382
-62.625 5.3781 0.0016523 55.728 55.854 0.40604 603.97 0.0016557 55.055 55.117 0.40254 1.4012 2.1624 1295.7 -0.0058553 250.26 0.14144 0.95134 1.0511 462.30 501.28 2.5218 1.1293 1.3340 212.58 0.59958 5.7406 0.0098201
-61.625 5.6774 0.0017345 57.923 58.055 0.41644 602.87 0.0016587 57.218 57.283 0.41279 1.4031 2.1660 1289.1 -0.0058241 247.16 0.14084 1.0003 0.99972 463.35 502.48 2.5175 1.1333 1.3387 212.92 0.59194 5.7672 0.0099024
-60.625 5.9899 0.0018197 60.122 60.262 0.42681 601.77 0.0016618 59.385 59.453 0.42301 1.4051 2.1697 1282.5 -0.0057925 244.12 0.14023 1.0512 0.95131 464.40 503.68 2.5133 1.1374 1.3435 213.26 0.58442 5.7938 0.0099850
-59.625 6.3160 0.0019081 62.325 62.473 0.43716 600.66 0.0016648 61.554 61.627 0.43320 1.4071 2.1734 1275.9 -0.0057605 241.13 0.13962 1.1041 0.90573 465.45 504.89 2.5091 1.1415 1.3483 213.58 0.57704 5.8203 0.010068
-58.625 6.6561 0.0019997 64.534 64.689 0.44748 599.55 0.0016679 63.728 63.805 0.44335 1.4091 2.1772 1269.3 -0.0057280 238.19 0.13902 1.1591 0.86277 466.50 506.09 2.5051 1.1457 1.3532 213.90 0.56978 5.8468 0.010151
-57.625 7.0107 0.0020946 66.747 66.911 0.45777 598.44 0.0016710 65.905 65.986 0.45348 1.4111 2.1810 1262.7 -0.0056951 235.31 0.13842 1.2161 0.82228 467.55 507.30 2.5011 1.1498 1.3581 214.22 0.56265 5.8733 0.010234
-56.625 7.3801 0.0021929 68.965 69.137 0.46804 597.33 0.0016741 68.086 68.172 0.46358 1.4132 2.1848 1256.1 -0.0056617 232.48 0.13781 1.2754 0.78408 468.60 508.50 2.4972 1.1540 1.3631 214.53 0.55564 5.8998 0.010318
-55.625 7.7648 0.0022947 71.188 71.369 0.47828 596.22 0.0016772 70.271 70.361 0.47364 1.4153 2.1887 1249.5 -0.0056279 229.69 0.13721 1.3369 0.74802 469.66 509.71 2.4934 1.1582 1.3681 214.84 0.54875 5.9263 0.010402
-54.625 8.1652 0.0023999 73.416 73.607 0.48850 595.10 0.0016804 72.460 72.554 0.48368 1.4174 2.1927 1242.9 -0.0055937 226.96 0.13661 1.4006 0.71396 470.72 510.91 2.4897 1.1624 1.3731 215.14 0.54199 5.9527 0.010486
-53.625 8.5819 0.0025089 75.649 75.849 0.49869 593.98 0.0016836 74.652 74.752 0.49369 1.4196 2.1967 1236.3 -0.0055589 224.27 0.13601 1.4667 0.68178 471.77 512.11 2.4860 1.1667 1.3782 215.43 0.53535 5.9792 0.010571
-52.625 9.0151 0.0026215 77.887 78.097 0.50886 592.86 0.0016867 76.849 76.954 0.50368 1.4218 2.2007 1229.8 -0.0055237 221.63 0.13541 1.5353 0.65136 472.83 513.32 2.4824 1.1710 1.3834 215.72 0.52882 6.0056 0.010656
-51.625 9.4655 0.0027378 80.130 80.351 0.51901 591.73 0.0016900 79.049 79.159 0.51363 1.4240 2.2048 1223.2 -0.0054880 219.04 0.13482 1.6062 0.62258 473.89 514.52 2.4789 1.1752 1.3886 216.00 0.52241 6.0320 0.010741
-50.625 9.9335 0.0028580 82.379 82.611 0.52914 590.60 0.0016932 81.253 81.369 0.52356 1.4262 2.2089 1216.6 -0.0054519 216.48 0.13422 1.6797 0.59534 474.95 515.73 2.4755 1.1796 1.3938 216.28 0.51612 6.0584 0.010827
-49.625 10.419 0.0029821 84.632 84.876 0.53925 589.47 0.0016964 83.462 83.584 0.53347 1.4285 2.2131 1210.1 -0.0054152 213.98 0.13363 1.7558 0.56954 476.01 516.93 2.4722 1.1839 1.3991 216.55 0.50994 6.0848 0.010913
-48.625 10.924 0.0031103 86.891 87.147 0.54933 588.34 0.0016997 85.674 85.802 0.54334 1.4308 2.2173 1203.5 -0.0053780 211.51 0.13303 1.8345 0.54510 477.07 518.13 2.4689 1.1883 1.4044 216.82 0.50387 6.1112 0.010999
-47.625 11.448 0.0032425 89.156 89.424 0.55939 587.20 0.0017030 87.891 88.025 0.55319 1.4331 2.2216 1196.9 -0.0053403 209.08 0.13244 1.9159 0.52194 478.14 519.33 2.4657 1.1927 1.4098 217.08 0.49792 6.1375 0.011085
-46.625 11.991 0.0033788 91.426 91.706 0.56944 586.06 0.0017063 90.111 90.252 0.56302 1.4354 2.2259 1190.4 -0.0053020 206.69 0.13185 2.0001 0.49997 479.20 520.53 2.4625 1.1971 1.4153 217.33 0.49207 6.1639 0.011172
-45.625 12.554 0.0035194 93.701 93.995 0.57946 584.92 0.0017096 92.336 92.484 0.57282 1.4378 2.2303 1183.8 -0.0052633 204.34 0.13126 2.0872 0.47912 480.27 521.74 2.4594 1.2015 1.4207 217.58 0.48633 6.1902 0.011259
-44.625 13.137 0.0036643 95.982 96.290 0.58946 583.77 0.0017130 94.565 94.720 0.58260 1.4402 2.2347 1177.3 -0.0052240 202.03 0.13067 2.1771 0.45933 481.33 522.94 2.4564 1.2060 1.4263 217.82 0.48069 6.2165 0.011347
-43.625 13.741 0.0038136 98.269 98.590 0.59945 582.62 0.0017164 96.799 96.961 0.59235 1.4426 2.2392 1170.7 -0.0051841 199.75 0.13008 2.2700 0.44053 482.40 524.14 2.4535 1.2104 1.4319 218.05 0.47516 6.2429 0.011435
-42.625 14.367 0.0039673 100.56 100.90 0.60941 581.47 0.0017198 99.036 99.207 0.60208 1.4450 2.2437 1164.2 -0.0051437 197.51 0.12949 2.3659 0.42267 483.46 525.33 2.4506 1.2149 1.4375 218.28 0.46973 6.2692 0.011523
-41.625 15.015 0.0041257 102.86 103.21 0.61936 580.32 0.0017232 101.28 101.46 0.61179 1.4475 2.2483 1157.7 -0.0051027 195.30 0.12891 2.4649 0.40569 484.53 526.53 2.4478 1.2195 1.4432 218.50 0.46440 6.2955 0.011612
-40.625 15.686 0.0042886 105.16 105.53 0.62929 579.16 0.0017266 103.52 103.71 0.62147 1.4500 2.2529 1151.1 -0.0050611 193.13 0.12832 2.5671 0.38954 485.60 527.73 2.4450 1.2240 1.4489 218.72 0.45917 6.3218 0.011701
-39.625 16.380 0.0044563 107.47 107.86 0.63920 578.00 0.0017301 105.78 105.97 0.63113 1.4525 2.2576 1144.6 -0.0050189 190.99 0.12774 2.6725 0.37418 486.67 528.93 2.4423 1.2286 1.4547 218.93 0.45403 6.3481 0.011790
-38.625 17.097 0.0046287 109.79 110.19 0.64910 576.83 0.0017336 108.03 108.24 0.64077 1.4550 2.2623 1138.0 -0.0049761 188.88 0.12716 2.7813 0.35955 487.74 530.12 2.4397 1.2332 1.4606 219.13 0.44900 6.3744 0.011880
-37.625 17.838 0.0048060 112.11 112.53 0.65898 575.66 0.0017371 110.29 110.51 0.65039 1.4576 2.2671 1131.5 -0.0049327 186.81 0.12658 2.8934 0.34562 488.81 531.32 2.4371 1.2378 1.4665 219.33 0.44405 6.4007 0.011970
-36.625 18.604 0.0049883 114.44 114.87 0.66884 574.49 0.0017407 112.56 112.78 0.65999 1.4602 2.2719 1125.0 -0.0048887 184.76 0.12600 3.0089 0.33235 489.88 532.51 2.4346 1.2424 1.4724 219.52 0.43920 6.4270 0.012060
-35.625 19.395 0.0051756 116.77 117.23 0.67868 573.32 0.0017442 114.83 115.06 0.66956 1.4628 2.2768 1118.5 -0.0048440 182.75 0.12542 3.1280 0.31969 490.95 533.70 2.4321 1.2471 1.4784 219.70 0.43444 6.4533 0.012151
-34.625 20.212 0.0053681 119.11 119.58 0.68852 572.14 0.0017478 117.10 117.34 0.67912 1.4654 2.2818 1111.9 -0.0047987 180.76 0.12485 3.2506 0.30763 492.02 534.89 2.4297 1.2517 1.4845 219.88 0.42977 6.4797 0.012243
-33.625 21.056 0.0055657 121.46 121.95 0.69833 570.96 0.0017514 119.38 119.63 0.68865 1.4681 2.2868 1105.4 -0.0047527 178.80 0.12427 3.3770 0.29612 493.09 536.08 2.4273 1.2564 1.4906 220.05 0.42519 6.5060 0.012334
-32.625 21.926 0.0057686 123.81 124.32 0.70813 569.77 0.0017551 121.66 121.93 0.69817 1.4708 2.2918 1098.9 -0.0047061 176.87 0.12370 3.5071 0.28514 494.17 537.27 2.4250 1.2611 1.4968 220.21 0.42070 6.5323 0.012426
-31.625 22.823 0.0059769 126.17 126.70 0.71792 568.58 0.0017588 123.95 124.23 0.70767 1.4735 2.2970 1092.3 -0.0046587 174.97 0.12313 3.6410 0.27465 495.24 538.46 2.4227 1.2659 1.5031 220.36 0.41629 6.5587 0.012519
-30.625 23.749 0.0061906 128.53 129.09 0.72769 567.39 0.0017625 126.24 126.53 0.71714 1.4762 2.3021 1085.8 -0.0046107 173.09 0.12256 3.7787 0.26464 496.31 539.64 2.4205 1.2706 1.5094 220.51 0.41196 6.5850 0.012612
-29.625 24.703 0.0064099 130.91 131.48 0.73745 566.19 0.0017662 128.54 128.84 0.72660 1.4790 2.3074 1079.3 -0.0045619 171.24 0.12200 3.9205 0.25507 497.38 540.83 2.4184 1.2754 1.5157 220.65 0.40772 6.6114 0.012706
-28.625 25.687 0.0066347 133.28 133.88 0.74719 564.99 0.0017699 130.84 131.16 0.73604 1.4818 2.3126 1072.8 -0.0045124 169.42 0.12143 4.0663 0.24592 498.46 542.01 2.4162 1.2802 1.5222 220.79 0.40356 6.6378 0.012800
-27.625 26.700 0.0068653 135.67 136.29 0.75692 563.78 0.0017737 133.15 133.48 0.74547 1.4846 2.3180 1066.2 -0.0044621 167.62 0.12087 4.2163 0.23717 499.53 543.19 2.4142 1.2850 1.5286 220.91 0.39947 6.6642 0.012894
-26.625 27.743 0.0071016 138.06 138.71 0.76664 562.57 0.0017775 135.47 135.81 0.75487 1.4874 2.3234 1059.7 -0.0044111 165.84 0.12031 4.3705 0.22881 500.60 544.37 2.4122 1.2899 1.5352 221.03 0.39547 6.6906 0.012989
-25.625 28.817 0.0073438 140.46 141.13 0.77635 561.36 0.0017814 137.78 138.14 0.76426 1.4902 2.3289 1053.2 -0.0043593 164.09 0.11975 4.5290 0.22080 501.68 545.55 2.4102 1.2947 1.5418 221.14 0.39154 6.7171 0.013084
-24.625 29.923 0.0075919 142.86 143.56 0.78604 560.14 0.0017853 140.11 140.48 0.77363 1.4931 2.3344 1046.7 -0.0043067 162.36 0.11919 4.6918 0.21314 502.75 546.72 2.4083 1.2996 1.5485 221.25 0.38768 6.7436 0.013180
-23.625 31.061 0.0078461 145.27 146.00 0.79572 558.92 0.0017892 142.44 142.82 0.78298 1.4960 2.3400 1040.1 -0.0042533 160.65 0.11863 4.8592 0.20580 503.82 547.90 2.4064 1.3045 1.5552 221.35 0.38391 6.7701 0.013277
-22.625 32.232 0.0081064 147.69 148.44 0.80539 557.69 0.0017931 144.77 145.17 0.79232 1.4990 2.3457 1033.6 -0.0041990 158.97 0.11807 5.0311 0.19877 504.90 549.07 2.4045 1.3095 1.5621 221.44 0.38020 6.7967 0.013374
-21.625 33.435 0.0083728 150.11 150.90 0.81505 556.46 0.0017971 147.11 147.52 0.80164 1.5019 2.3514 1027.1 -0.0041439 157.30 0.11752 5.2076 0.19203 505.97 550.24 2.4027 1.3144 1.5690 221.52 0.37656 6.8232 0.013471
-20.625 34.673 0.0086456 152.55 153.36 0.82470 555.23 0.0018011 149.45 149.88 0.81095 1.5049 2.3572 1020.6 -0.0040879 155.66 0.11697 5.3889 0.18557 507.04 551.40 2.4010 1.3194 1.5759 221.59 0.37300 6.8499 0.013569
-19.625 35.946 0.0089247 154.98 155.82 0.83434 553.99 0.0018051 151.80 152.25 0.82024 1.5079 2.3630 1014.0 -0.0040311 154.04 0.11642 5.5750 0.17937 508.11 552.57 2.3992 1.3244 1.5829 221.66 0.36950 6.8765 0.013668
-18.625 37.253 0.0092102 157.43 158.30 0.84396 552.74 0.0018092 154.16 154.62 0.82952 1.5109 2.3689 1007.5 -0.0039733 152.44 0.11587 5.7660 0.17343 509.19 553.73 2.3976 1.3294 1.5901 221.72 0.36608 6.9032 0.013767
-17.625 38.596 0.0095023 159.88 160.78 0.85358 551.49 0.0018133 156.52 157.00 0.83878 1.5140 2.3749 1001.0 -0.0039145 150.86 0.11532 5.9621 0.16773 510.26 554.89 2.3959 1.3345 1.5972 221.77 0.36272 6.9300 0.013867
-16.625 39.976 0.0098010 162.34 163.28 0.86319 550.24 0.0018174 158.89 159.39 0.84803 1.5171 2.3810 994.44 -0.0038549 149.29 0.11478 6.1632 0.16225 511.33 556.05 2.3943 1.3395 1.6045 221.81 0.35942 6.9568 0.013968
-15.625 41.392 0.010106 164.81 165.78 0.87278 548.98 0.0018216 161.26 161.78 0.85726 1.5202 2.3871 987.91 -0.0037942 147.75 0.11423 6.3696 0.15700 512.40 557.20 2.3927 1.3446 1.6119 221.85 0.35619 6.9836 0.014069
-14.625 42.846 0.010419 167.28 168.28 0.88237 547.71 0.0018258 163.64 164.18 0.86649 1.5233 2.3933 981.37 -0.0037325 146.22 0.11369 6.5812 0.15195 513.47 558.36 2.3912 1.3497 1.6193 221.87 0.35302 7.0105 0.014170
-13.625 44.338 0.010738 169.76 170.80 0.89195 546.44 0.0018300 166.02 166.58 0.87569 1.5264 2.3996 974.83 -0.0036698 144.72 0.11315 6.7983 0.14710 514.54 559.51 2.3897 1.3549 1.6268 221.89 0.34992 7.0375 0.014273
-12.625 45.870 0.011064 172.25 173.32 0.90152 545.17 0.0018343 168.41 168.99 0.88489 1.5296 2.4059 968.29 -0.0036061 143.23 0.11261 7.0208 0.14243 515.61 560.65 2.3883 1.3600 1.6344 221.90 0.34688 7.0646 0.014376
-11.625 47.440 0.011397 174.75 175.86 0.91108 543.89 0.0018386 170.81 171.41 0.89407 1.5328 2.4124 961.75 -0.0035413 141.76 0.11208 7.2490 0.13795 516.68 561.80 2.3868 1.3652 1.6421 221.91 0.34389 7.0917 0.014479
-10.625 49.051 0.011737 177.25 178.40 0.92064 542.60 0.0018430 173.21 173.83 0.90324 1.5360 2.4189 955.20 -0.0034753 140.30 0.11154 7.4829 0.13364 517.75 562.94 2.3854 1.3704 1.6498 221.90 0.34097 7.1188 0.014584
-9.6250 50.703 0.012084 179.76 180.95 0.93018 541.31 0.0018474 175.61 176.26 0.91240 1.5393 2.4255 948.65 -0.0034082 138.86 0.11101 7.7226 0.12949 518.81 564.08 2.3841 1.3757 1.6577 221.88 0.33810 7.1461 0.014689
-8.6250 52.396 0.012439 182.28 183.50 0.93972 540.02 0.0018518 178.03 178.70 0.92154 1.5426 2.4321 942.10 -0.0033400 137.44 0.11048 7.9683 0.12550 519.88 565.21 2.3827 1.3809 1.6657 221.86 0.33529 7.1734 0.014795
-7.6250 54.131 0.012801 184.81 186.07 0.94925 538.72 0.0018563 180.45 181.14 0.93068 1.5459 2.4389 935.55 -0.0032705 136.03 0.10995 8.2200 0.12165 520.94 566.35 2.3814 1.3862 1.6737 221.83 0.33254 7.2008 0.014902
-6.6250 55.909 0.013171 187.34 188.65 0.95877 537.41 0.0018608 182.87 183.59 0.93980 1.5492 2.4457 928.99 -0.0031998 134.64 0.10942 8.4779 0.11795 522.01 567.48 2.3801 1.3915 1.6819 221.79 0.32984 7.2284 0.015009
-5.6250 57.730 0.013548 189.88 191.23 0.96829 536.10 0.0018653 185.30 186.05 0.94892 1.5525 2.4526 922.43 -0.0031279 133.27 0.10889 8.7420 0.11439 523.07 568.60 2.3789 1.3969 1.6902 221.74 0.32720 7.2560 0.015117
-4.6250 59.595 0.013933 192.43 193.82 0.97780 534.78 0.0018699 187.74 188.51 0.95802 1.5559 2.4596 915.87 -0.0030546 131.91 0.10837 9.0126 0.11096 524.13 569.72 2.3777 1.4022 1.6985 221.68 0.32461 7.2837 0.015226
-3.6250 61.505 0.014325 194.99 196.42 0.98730 533.45 0.0018746 190.19 190.98 0.96711 1.5593 2.4667 909.30 -0.0029800 130.56 0.10785 9.2896 0.10765 525.19 570.84 2.3765 1.4076 1.7070 221.62 0.32207 7.3115 0.015336
-2.6250 63.461 0.014726 197.55 199.03 0.99680 532.12 0.0018793 192.64 193.46 0.97620 1.5627 2.4739 902.73 -0.0029041 129.23 0.10733 9.5733 0.10446 526.25 571.96 2.3753 1.4131 1.7156 221.54 0.31958 7.3394 0.015447
-1.6250 65.462 0.015134 200.12 201.65 1.0063 530.78 0.0018840 195.10 195.95 0.98527 1.5662 2.4811 896.16 -0.0028267 127.91 0.10681 9.8638 0.10138 527.31 573.07 2.3742 1.4185 1.7243 221.45 0.31715 7.3674 0.015559
-0.62500 67.510 0.015551 202.70 204.28 1.0158 529.44 0.0018888 197.56 198.44 0.99434 1.5696 2.4885 889.58 -0.0027478 126.61 0.10629 10.161 0.098414 528.37 574.18 2.3731 1.4240 1.7331 221.36 0.31476 7.3956 0.015671
0.37500 69.606 0.015975 205.29 206.92 1.0253 528.09 0.0018936 200.03 200.94 1.0034 1.5731 2.4960 883.00 -0.0026675 125.32 0.10578 10.466 0.095552 529.42 575.28 2.3720 1.4295 1.7421 221.26 0.31242 7.4239 0.015785
1.3750 71.749 0.016408 207.89 209.56 1.0347 526.73 0.0018985 202.51 203.45 1.0124 1.5767 2.5035 876.42 -0.0025856 124.04 0.10527 10.777 0.092790 530.48 576.38 2.3709 1.4350 1.7512 221.14 0.31013 7.4523 0.015899
2.3750 73.941 0.016849 210.49 212.22 1.0442 525.37 0.0019034 204.99 205.96 1.0215 1.5802 2.5112 869.83 -0.0025022 122.78 0.10476 11.096 0.090123 531.53 577.47 2.3699 1.4406 1.7604 221.02 0.30789 7.4808 0.016015
3.3750 76.183 0.017298 213.10 214.89 1.0537 523.99 0.0019084 207.48 208.48 1.0305 1.5838 2.5190 863.24 -0.0024171 121.53 0.10425 11.422 0.087549 532.58 578.56 2.3688 1.4462 1.7697 220.89 0.30569 7.5095 0.016131
4.3750 78.475 0.017756 215.73 217.56 1.0631 522.62 0.0019134 209.98 211.01 1.0395 1.5874 2.5268 856.64 -0.0023303 120.29 0.10374 11.756 0.085062 533.63 579.65 2.3678 1.4518 1.7792 220.75 0.30354 7.5384 0.016249
5.3750 80.817 0.018222 218.35 220.24 1.0726 521.23 0.0019185 212.48 213.55 1.0486 1.5910 2.5348 850.04 -0.0022417 119.06 0.10324 12.098 0.082660 534.67 580.73 2.3669 1.4575 1.7888 220.60 0.30144 7.5674 0.016368
6.3750 83.211 0.018697 220.99 222.94 1.0820 519.84 0.0019237 215.00 216.10 1.0576 1.5946 2.5429 843.43 -0.0021514 117.85 0.10273 12.447 0.080340 535.72 581.81 2.3659 1.4632 1.7986 220.44 0.29938 7.5966 0.016487
7.3750 85.657 0.019181 223.64 225.64 1.0915 518.44 0.0019289 217.51 218.65 1.0666 1.5983 2.5511 836.82 -0.0020593 116.65 0.10223 12.805 0.078096 536.76 582.88 2.3650 1.4689 1.8085 220.27 0.29736 7.6259 0.016608
8.3750 88.156 0.019674 226.29 228.35 1.1009 517.03 0.0019341 220.04 221.22 1.0756 1.6020 2.5595 830.20 -0.0019652 115.46 0.10173 13.170 0.075928 537.80 583.95 2.3640 1.4746 1.8186 220.08 0.29538 7.6555 0.016730
9.3750 90.708 0.020175 228.95 231.07 1.1104 515.62 0.0019394 222.57 223.79 1.0846 1.6057 2.5679 823.58 -0.0018691 114.28 0.10124 13.545 0.073830 538.84 585.01 2.3631 1.4804 1.8288 219.89 0.29345 7.6852 0.016853
10.375 93.315 0.020686 231.63 233.81 1.1198 514.19 0.0019448 225.11 226.37 1.0936 1.6095 2.5765 816.96 -0.0017710 113.11 0.10074 13.927 0.071802 539.87 586.07 2.3622 1.4863 1.8392 219.69 0.29156 7.7151 0.016978
11.375 95.977 0.021205 234.30 236.55 1.1292 512.76 0.0019502 227.66 228.95 1.1025 1.6132 2.5852 810.32 -0.0016708 111.95 0.10025 14.319 0.069840 540.90 587.12 2.3614 1.4921 1.8498 219.48 0.28971 7.7452 0.017103
12.375 98.694 0.021734 236.99 239.30 1.1387 511.32 0.0019557 230.22 231.55 1.1115 1.6170 2.5940 803.68 -0.0015685 110.80 0.099756 14.719 0.067941 541.93 588.17 2.3605 1.4980 1.8605 219.26 0.28790 7.7756 0.017230
13.375 101.47 0.022272 239.69 242.06 1.1481 509.87 0.0019613 232.78 234.15 1.1205 1.6208 2.6030 797.04 -0.0014639 109.67 0.099267 15.128 0.066103 542.96 589.21 2.3597 1.5040 1.8715 219.03 0.28612 7.8061 0.017359
14.375 104.30 0.022820 242.40 244.83 1.1575 508.42 0.0019669 235.35 236.77 1.1295 1.6247 2.6121 790.39 -0.0013569 108.54 0.098779 15.547 0.064323 543.99 590.24 2.3588 1.5099 1.8826 218.79 0.28439 7.8369 0.017488
15.375 107.19 0.023377 245.11 247.61 1.1669 506.95 0.0019726 237.93 239.39 1.1384 1.6286 2.6214 783.73 -0.0012476 107.43 0.098294 15.974 0.062600 545.01 591.27 2.3580 1.5159 1.8940 218.53 0.28270 7.8680 0.017619
16.375 110.13 0.023943 247.83 250.41 1.1764 505.48 0.0019783 240.52 242.02 1.1474 1.6324 2.6308 777.07 -0.0011357 106.32 0.097810 16.412 0.060931 546.03 592.29 2.3572 1.5220 1.9055 218.27 0.28104 7.8993 0.017752
17.375 113.14 0.024519 250.56 253.21 1.1858 504.00 0.0019841 243.11 244.66 1.1564 1.6364 2.6403 770.40 -0.0010213 105.22 0.097328 16.859 0.059314 547.04 593.31 2.3564 1.5281 1.9172 217.99 0.27942 7.9308 0.017886
18.375 116.21 0.025105 253.31 256.02 1.1952 502.50 0.0019900 245.72 247.31 1.1653 1.6403 2.6501 763.72 -0.00090422 104.14 0.096848 17.317 0.057747 548.05 594.32 2.3557 1.5342 1.9292 217.71 0.27783 7.9626 0.018021
19.375 119.33 0.025701 256.06 258.84 1.2046 501.00 0.0019960 248.33 249.97 1.1743 1.6443 2.6599 757.04 -0.00078435 103.06 0.096371 17.785 0.056228 549.06 595.33 2.3549 1.5404 1.9414 217.41 0.27628 7.9947 0.018159
20.375 122.52 0.026307 258.81 261.68 1.2140 499.49 0.0020020 250.95 252.64 1.1832 1.6483 2.6700 750.35 -0.00066161 101.99 0.095895 18.263 0.054756 550.07 596.32 2.3541 1.5466 1.9538 217.10 0.27477 8.0272 0.018297
21.375 125.77 0.026923 261.58 264.52 1.2235 497.97 0.0020082 253.57 255.32 1.1922 1.6523 2.6802 743.64 -0.00053589 100.93 0.095420 18.752 0.053328 551.07 597.31 2.3534 1.5528 1.9665 216.78 0.27329 8.0599 0.018438
22.375 129.08 0.027548 264.36 267.38 1.2329 496.43 0.0020144 256.21 258.00 1.2012 1.6563 2.6906 736.94 -0.00040708 99.877 0.094948 19.252 0.051943 552.07 598.30 2.3526 1.5591 1.9795 216.45 0.27184 8.0929 0.018580
23.375 132.46 0.028185 267.15 270.24 1.2423 494.89 0.0020206 258.86 260.70 1.2101 1.6604 2.7012 730.22 -0.00027505 98.834 0.094478 19.763 0.050600 553.06 599.27 2.3519 1.5655 1.9927 216.11 0.27043 8.1263 0.018724
24.375 135.90 0.028831 269.94 273.12 1.2517 493.34 0.0020270 261.51 263.41 1.2191 1.6645 2.7120 723.49 -0.00013968 97.800 0.094009 20.285 0.049297 554.05 600.24 2.3512 1.5718 2.0061 215.75 0.26906 8.1600 0.018870
25.375 139.41 0.029488 272.75 276.01 1.2611 491.77 0.0020335 264.17 266.13 1.2280 1.6686 2.7230 716.76 -8.3775e-07 96.773 0.093543 20.820 0.048032 555.03 601.20 2.3504 1.5783 2.0199 215.39 0.26771 8.1941 0.019017
26.375 142.98 0.030155 275.56 278.90 1.2705 490.20 0.0020400 266.84 268.85 1.2370 1.6728 2.7342 710.01 0.00014161 95.755 0.093078 21.366 0.046804 556.01 602.15 2.3497 1.5847 2.0340 215.01 0.26640 8.2286 0.019167
27.375 146.62 0.030833 278.39 281.81 1.2799 488.61 0.0020466 269.52 271.59 1.2459 1.6770 2.7456 703.26 0.00028782 94.745 0.092615 21.924 0.045612 556.99 603.10 2.3490 1.5913 2.0484 214.62 0.26512 8.2634 0.019319
28.375 150.33 0.031521 281.22 284.73 1.2894 487.01 0.0020533 272.21 274.34 1.2549 1.6812 2.7573 696.49 0.00043793 93.742 0.092154 22.495 0.044454 557.96 604.03 2.3483 1.5978 2.0631 214.21 0.26387 8.2987 0.019472
29.375 154.10 0.032220 284.06 287.67 1.2988 485.40 0.0020601 274.91 277.10 1.2638 1.6854 2.7691 689.72 0.00059212 92.747 0.091695 23.079 0.043329 558.92 604.96 2.3476 1.6044 2.0781 213.80 0.26265 8.3344 0.019628
30.375 157.94 0.032930 286.92 290.61 1.3082 483.78 0.0020671 277.62 279.87 1.2728 1.6897 2.7813 682.93 0.00075055 91.760 0.091238 23.676 0.042237 559.88 605.88 2.3469 1.6111 2.0935 213.37 0.26147 8.3705 0.019786
31.375 161.86 0.033651 289.78 293.56 1.3176 482.15 0.0020741 280.34 282.66 1.2818 1.6939 2.7936 676.13 0.00091340 90.779 0.090782 24.287 0.041175 560.84 606.79 2.3462 1.6178 2.1092 212.93 0.26031 8.4071 0.019947
32.375 165.84 0.034382 292.65 296.53 1.3270 480.50 0.0020812 283.07 285.45 1.2908 1.6983 2.8063 669.32 0.0010809 89.806 0.090328 24.911 0.040143 561.79 607.69 2.3455 1.6246 2.1254 212.48 0.25919 8.4442 0.020110
33.375 169.90 0.035125 295.54 299.51 1.3364 478.83 0.0020884 285.81 288.26 1.2997 1.7026 2.8192 662.50 0.0012532 88.840 0.089876 25.549 0.039140 562.73 608.58 2.3448 1.6314 2.1419 212.01 0.25809 8.4818 0.020275
34.375 174.02 0.035879 298.43 302.50 1.3459 477.16 0.0020957 288.56 291.07 1.3087 1.7070 2.8324 655.67 0.0014305 87.880 0.089426 26.202 0.038164 563.67 609.46 2.3440 1.6383 2.1589 211.53 0.25702 8.5199 0.020443
35.375 178.22 0.036643 301.33 305.50 1.3553 475.47 0.0021032 291.32 293.90 1.3177 1.7114 2.8459 648.82 0.0016131 86.927 0.088977 26.870 0.037216 564.60 610.33 2.3433 1.6452 2.1763 211.04 0.25599 8.5586 0.020613
36.375 182.50 0.037419 304.24 308.51 1.3647 473.77 0.0021107 294.09 296.74 1.3267 1.7158 2.8597 641.96 0.0018012 85.980 0.088531 27.553 0.036293 565.52 611.19 2.3426 1.6522 2.1942 210.53 0.25498 8.5978 0.020786
37.375 186.84 0.038207 307.17 311.53 1.3741 472.05 0.0021184 296.87 299.60 1.3357 1.7203 2.8739 635.08 0.0019950 85.040 0.088085 28.252 0.035395 566.44 612.04 2.3419 1.6592 2.2125 210.01 0.25400 8.6376 0.020962
38.375 191.27 0.039005 310.10 314.57 1.3836 470.31 0.0021262 299.66 302.46 1.3447 1.7248 2.8884 628.19 0.0021949 84.105 0.087642 28.967 0.034522 567.35 612.88 2.3411 1.6663 2.2314 209.47 0.25305 8.6780 0.021141
39.375 195.77 0.039815 313.04 317.62 1.3930 468.56 0.0021342 302.46 305.34 1.3537 1.7293 2.9033 621.29 0.0024011 83.177 0.087200 29.699 0.033671 568.26 613.70 2.3404 1.6734 2.2508 208.92 0.25213 8.7190 0.021323
40.375 200.34 0.040636 316.00 320.68 1.4024 466.80 0.0021423 305.27 308.23 1.3627 1.7339 2.9185 614.37 0.0026140 82.254 0.086760 30.447 0.032844 569.15 614.52 2.3396 1.6806 2.2708 208.36 0.25123 8.7608 0.021508
41.375 205.00 0.041468 318.96 323.75 1.4119 465.01 0.0021505 308.10 311.14 1.3718 1.7385 2.9342 607.43 0.0028338 81.338 0.086322 31.214 0.032037 570.04 615.32 2.3389 1.6879 2.2913 207.78 0.25037 8.8032 0.021696
42.375 209.73 0.042312 321.94 326.84 1.4213 463.21 0.0021588 310.94 314.06 1.3808 1.7432 2.9502 600.47 0.0030609 80.426 0.085885 31.998 0.031252 570.92 616.11 2.3381 1.6952 2.3125 207.19 0.24953 8.8463 0.021888
43.375 214.54 0.043167 324.92 329.94 1.4308 461.40 0.0021673 313.79 316.99 1.3899 1.7478 2.9667 593.50 0.0032957 79.520 0.085449 32.800 0.030488 571.79 616.88 2.3373 1.7027 2.3344 206.58 0.24871 8.8902 0.022084
44.375 219.43 0.044033 327.92 333.05 1.4402 459.56 0.0021760 316.65 319.94 1.3989 1.7525 2.9837 586.51 0.0035386 78.619 0.085015 33.622 0.029742 572.65 617.65 2.3365 1.7101 2.3569 205.96 0.24793 8.9349 0.022283
45.375 224.41 0.044911 330.93 336.17 1.4497 457.71 0.0021848 319.52 322.90 1.4080 1.7573 3.0012 579.50 0.0037900 77.723 0.084583 34.463 0.029016 573.50 618.40 2.3357 1.7177 2.3802 205.32 0.24717 8.9805 0.022485
46.375 229.46 0.045800 333.95 339.31 1.4591 455.83 0.0021938 322.41 325.88 1.4171 1.7621 3.0192 572.46 0.0040504 76.832 0.084152 35.325 0.028308 574.34 619.13 2.3349 1.7253 2.4042 204.67 0.24644 9.0269 0.022692
47.375 234.60 0.046700 336.98 342.46 1.4686 453.94 0.0022029 325.31 328.87 1.4262 1.7669 3.0377 565.41 0.0043202 75.946 0.083723 36.208 0.027618 575.17 619.85 2.3340 1.7329 2.4291 204.00 0.24573 9.0742 0.022903
48.375 239.83 0.047611 340.02 345.62 1.4781 452.03 0.0022123 328.22 331.88 1.4353 1.7718 3.0569 558.34 0.0046000 75.064 0.083295 37.112 0.026945 576.00 620.55 2.3332 1.7407 2.4548 203.31 0.24505 9.1224 0.023119
49.375 245.13 0.048533 343.07 348.80 1.4876 450.09 0.0022218 331.15 334.90 1.4445 1.7767 3.0766 551.24 0.0048904 74.186 0.082868 38.039 0.026289 576.81 621.24 2.3323 1.7485 2.4815 202.61 0.24440 9.1716 0.023339
50.375 250.53 0.049466 346.13 351.99 1.4970 448.13 0.0022315 334.09 337.94 1.4536 1.7817 3.0970 544.13 0.0051920 73.313 0.082442 38.989 0.025648 577.61 621.91 2.3314 1.7564 2.5092 201.89 0.24377 9.2219 0.023564
51.375 256.01 0.050409 349.21 355.19 1.5065 446.15 0.0022414 337.04 341.00 1.4628 1.7867 3.1181 536.98 0.0055054 72.443 0.082018 39.962 0.025024 578.39 622.56 2.3304 1.7644 2.5379 201.16 0.24317 9.2733 0.023794
52.375 261.57 0.051363 352.30 358.41 1.5160 444.15 0.0022515 340.01 344.07 1.4720 1.7918 3.1400 529.82 0.0058313 71.577 0.081595 40.961 0.024414 579.17 623.20 2.3295 1.7724 2.5677 200.41 0.24260 9.3258 0.024029
53.375 267.23 0.052327 355.40 361.64 1.5255 442.12 0.0022618 343.00 347.17 1.4812 1.7969 3.1627 522.62 0.0061705 70.715 0.081174 41.985 0.023818 579.93 623.81 2.3285 1.7805 2.5987 199.63 0.24205 9.3795 0.024270
54.375 272.97 0.053301 358.51 364.89 1.5351 440.06 0.0022724 346.00 350.28 1.4904 1.8021 3.1862 515.40 0.0065239 69.856 0.080753 43.036 0.023237 580.68 624.41 2.3274 1.7887 2.6310 198.85 0.24154 9.4344 0.024516
55.375 278.81 0.054285 361.63 368.15 1.5446 437.98 0.0022832 349.02 353.40 1.4997 1.8073 3.2106 508.15 0.0068923 69.001 0.080334 44.114 0.022669 581.41 624.99 2.3264 1.7969 2.6646 198.04 0.24105 9.4907 0.024769
56.375 284.74 0.055278 364.77 371.42 1.5541 435.87 0.0022943 352.05 356.55 1.5090 1.8126 3.2360 500.87 0.0072767 68.148 0.079915 45.221 0.022114 582.13 625.54 2.3253 1.8052 2.6998 197.22 0.24059 9.5484 0.025028
57.375 290.76 0.056279 367.92 374.71 1.5637 433.73 0.0023056 355.10 359.72 1.5183 1.8179 3.2624 493.56 0.0076782 67.299 0.079498 46.358 0.021571 582.83 626.07 2.3241 1.8136 2.7365 196.37 0.24016 9.6075 0.025294
58.375 296.87 0.057288 371.08 378.01 1.5732 431.56 0.0023172 358.17 362.91 1.5276 1.8233 3.2900 486.22 0.0080980 66.451 0.079082 47.525 0.021041 583.52 626.58 2.3230 1.8220 2.7749 195.51 0.23976 9.6682 0.025568
59.375 303.08 0.058305 374.25 381.33 1.5828 429.36 0.0023290 361.25 366.12 1.5370 1.8288 3.3188 478.84 0.0085373 65.606 0.078666 48.726 0.020523 584.18 627.07 2.3218 1.8305 2.8152 194.63 0.23939 9.7305 0.025849
60.375 309.38 0.059329 377.44 384.67 1.5923 427.13 0.0023412 364.36 369.35 1.5464 1.8343 3.3489 471.43 0.0089976 64.763 0.078251 49.960 0.020016 584.83 627.53 2.3205 1.8391 2.8576 193.73 0.23905 9.7945 0.026138
61.375 315.78 0.060358 380.64 388.02 1.6019 424.87 0.0023537 367.48 372.60 1.5558 1.8400 3.3805 463.99 0.0094803 63.922 0.077838 51.229 0.019520 585.46 627.96 2.3192 1.8479 2.9022 192.82 0.23873 9.8603 0.026436
62.375 322.28 0.061393 383.85 391.38 1.6115 422.56 0.0023665 370.62 375.88 1.5653 1.8457 3.4136 456.50 0.0099871 63.083 0.077425 52.535 0.019035 586.07 628.37 2.3178 1.8567 2.9492 191.88 0.23845 9.9281 0.026744
63.375 328.88 0.062431 387.08 394.76 1.6211 420.22 0.0023797 373.79 379.18 1.5748 1.8514 3.4483 448.97 0.010520 62.244 0.077012 53.879 0.018560 586.66 628.74 2.3164 1.8656 2.9989 190.92 0.23819 9.9979 0.027061
64.375 335.58 0.063471 390.32 398.16 1.6307 417.85 0.0023932 376.97 382.51 1.5844 1.8573 3.4850 441.40 0.011081 61.407 0.076600 55.265 0.018095 587.22 629.09 2.3149 1.8747 3.0517 189.95 0.23796 10.070 0.027389
65.375 342.38 0.064513 393.57 401.58 1.6403 415.42 0.0024072 380.18 385.86 1.5939 1.8633 3.5236 433.79 0.011672 60.570 0.076189 56.692 0.017639 587.76 629.40 2.3133 1.8839 3.1077 188.95 0.23775 10.144 0.027729
66.375 349.28 0.065553 396.84 405.01 1.6500 412.96 0.0024215 383.41 389.25 1.6036 1.8693 3.5645 426.12 0.012296 59.733 0.075779 58.165 0.017193 588.28 629.68 2.3117 1.8933 3.1674 187.93 0.23757 10.221 0.028080
67.375 356.28 0.066591 400.13 408.45 1.6597 410.45 0.0024363 386.67 392.65 1.6133 1.8755 3.6078 418.41 0.012956 58.897 0.075368 59.684 0.016755 588.76 629.92 2.3100 1.9030 3.2311 186.89 0.23740 10.300 0.028446
68.375 363.40 0.067622 403.43 411.92 1.6693 407.89 0.0024516 389.95 396.09 1.6230 1.8818 3.6537 410.64 0.013655 58.059 0.074959 61.253 0.016326 589.22 630.13 2.3082 1.9129 3.2994 185.83 0.23724 10.382 0.028825
69.375 370.61 0.068646 406.74 415.40 1.6790 405.28 0.0024674 393.26 399.57 1.6328 1.8882 3.7027 402.81 0.014396 57.221 0.074549 62.875 0.015905 589.65 630.29 2.3064 1.9231 3.3727 184.74 0.23710 10.467 0.029221
70.375 377.94 0.069657 410.07 418.91 1.6887 402.62 0.0024838 396.60 403.07 1.6426 1.8947 3.7550 394.92 0.015183 56.381 0.074141 64.552 0.015491 590.04 630.41 2.3044 1.9336 3.4518 183.63 0.23697 10.555 0.029633
71.375 385.37 0.070653 413.42 422.43 1.6985 399.89 0.0025007 399.96 406.61 1.6525 1.9014 3.8109 386.97 0.016021 55.540 0.073732 66.288 0.015086 590.40 630.49 2.3024 1.9444 3.5371 182.50 0.23684 10.647 0.030064
72.375 392.92 0.071628 416.78 425.97 1.7082 397.11 0.0025182 403.36 410.18 1.6625 1.9083 3.8711 378.95 0.016915 54.696 0.073324 68.087 0.014687 590.73 630.51 2.3002 1.9556 3.6297 181.34 0.23671 10.743 0.030515
73.375 400.57 0.072576 420.16 429.53 1.7180 394.26 0.0025364 406.79 413.80 1.6726 1.9153 3.9359 370.85 0.017871 53.848 0.072917 69.953 0.014295 591.01 630.49 2.2979 1.9673 3.7303 180.16 0.23658 10.842 0.030989
74.375 408.34 0.073492 423.56 433.10 1.7278 391.34 0.0025553 410.26 417.45 1.6827 1.9226 4.0060 362.67 0.018894 52.997 0.072510 71.890 0.013910 591.25 630.41 2.2955 1.9793 3.8401 178.95 0.23643 10.946 0.031488
75.375 416.23 0.074367 426.98 436.70 1.7376 388.34 0.0025751 413.76 421.15 1.6930 1.9301 4.0822 354.41 0.019993 52.142 0.072104 73.904 0.013531 591.44 630.27 2.2930 1.9919 3.9604 177.71 0.23627 11.054 0.032014
76.375 424.23 0.075191 430.41 440.33 1.7474 385.26 0.0025957 417.31 424.90 1.7033 1.9378 4.1654 346.06 0.021177 51.281 0.071699 76.001 0.013158 591.59 630.07 2.2903 2.0050 4.0927 176.44 0.23609 11.168 0.032570
77.375 432.35 0.075953 433.87 443.97 1.7573 382.09 0.0026172 420.89 428.70 1.7137 1.9459 4.2565 337.60 0.022455 50.414 0.071295 78.187 0.012790 591.68 629.80 2.2874 2.0186 4.2389 175.15 0.23588 11.287 0.033161
78.375 440.59 0.076639 437.34 447.64 1.7672 378.83 0.0026397 424.53 432.54 1.7243 1.9543 4.3570 329.05 0.023838 49.539 0.070893 80.469 0.012427 591.71 629.46 2.2844 2.0328 4.4012 173.82 0.23563 11.412 0.033789
79.375 448.95 0.077230 440.83 451.33 1.7771 375.46 0.0026634 428.21 436.45 1.7349 1.9631 4.4684 320.38 0.025341 48.657 0.070494 82.856 0.012069 591.68 629.04 2.2812 2.0475 4.5824 172.46 0.23535 11.544 0.034461
80.375 457.44 0.077707 444.35 455.04 1.7871 371.97 0.0026884 431.94 440.42 1.7457 1.9723 4.5928 311.58 0.026980 47.764 0.070099 85.359 0.011715 591.58 628.53 2.2778 2.0630 4.7859 171.07 0.23501 11.684 0.035181
81.375 466.05 0.078041 447.89 458.78 1.7971 368.36 0.0027147 435.74 444.46 1.7567 1.9820 4.7327 302.66 0.028773 46.860 0.069708 87.988 0.011365 591.40 627.92 2.2742 2.0791 5.0161 169.64 0.23461 11.832 0.035957
82.375 474.79 0.078199 451.45 462.55 1.8071 364.61 0.0027427 439.60 448.58 1.7678 1.9924 4.8914 293.60 0.030744 45.942 0.069323 90.757 0.011018 591.14 627.21 2.2703 2.0959 5.2786 168.17 0.23413 11.989 0.036797
83.375 483.66 0.078136 455.04 466.34 1.8172 360.70 0.0027724 443.53 452.78 1.7791 2.0034 5.0731 284.38 0.032920 45.010 0.068948 93.681 0.010674 590.79 626.38 2.2661 2.1136 5.5807 166.67 0.23357 12.157 0.037711
84.375 492.67 0.077796 458.65 470.17 1.8273 356.61 0.0028041 447.54 457.07 1.7907 2.0153 5.2834 275.00 0.035335 44.059 0.068586 96.781 0.010333 590.33 625.42 2.2616 2.1321 5.9321 165.13 0.23290 12.338 0.038713
85.375 501.81 0.077104 462.30 474.02 1.8375 352.33 0.0028382 451.65 461.47 1.8025 2.0281 5.5302 265.44 0.038030 43.088 0.068241 100.08 0.0099920 589.74 624.31 2.2567 2.1517 6.3459 163.54 0.23209 12.532 0.039819
86.375 511.09 0.075958 465.97 477.91 1.8477 347.82 0.0028751 455.85 465.98 1.8145 2.0420 5.8240 255.69 0.041058 42.092 0.067923 103.61 0.0096520 589.03 623.04 2.2514 2.1723 6.8405 161.91 0.23112 12.743 0.041051
87.375 520.51 0.074217 469.67 481.84 1.8580 343.04 0.0029151 460.18 470.64 1.8269 2.0574 6.1803 245.72 0.044485 41.066 0.067640 107.40 0.0093114 588.15 621.56 2.2456 2.1943 7.4422 160.23 0.22995 12.973 0.042436
88.375 530.07 0.071680 473.42 485.80 1.8684 337.95 0.0029590 464.64 475.45 1.8397 2.0745 6.6221 235.52 0.048397 40.005 0.067412 111.50 0.0089689 587.08 619.86 2.2392 2.2178 8.1900 158.49 0.22854 13.226 0.044014
89.375 539.79 0.068053 477.20 489.81 1.8788 332.48 0.0030077 469.27 480.46 1.8530 2.0936 7.1851 225.04 0.052906 38.901 0.067265 115.97 0.0086228 585.79 617.88 2.2321 2.2433 9.1445 156.69 0.22681 13.508 0.045839
90.375 549.66 0.062877 481.02 493.87 1.8894 326.55 0.0030623 474.10 485.71 1.8669 2.1156 7.9284 214.26 0.058166 37.742 0.067243 120.91 0.0082708 584.22 615.56 2.2241 2.2711 10.405 154.82 0.22467 13.825 0.047992
91.375 559.68 0.055407 484.90 497.98 1.9000 320.03 0.0031247 479.19 491.25 1.8815 2.1412 8.9568 203.11 0.064389 36.514 0.067421 126.43 0.0079097 582.29 612.82 2.2150 2.3019 12.146 152.85 0.22200 14.189 0.050600
92.375 569.87 0.044323 488.84 502.16 1.9108 312.73 0.0031976 484.62 497.18 1.8972 2.1718 10.475 191.54 0.071885 35.195 0.067931 132.72 0.0075346 579.91 609.51 2.2045 2.3370 14.705 150.75 0.21862 14.618 0.053877
93.375 580.24 0.027018 492.86 506.42 1.9218 304.34 0.0032858 490.52 503.67 1.9143 2.2100 12.945 179.43 0.081133 33.755 0.069025 140.11 0.0071373 576.87 605.42 2.1919 2.3779 18.828 148.48 0.21421 15.146 0.058225
94.375 591.18 undefined 496.84 510.66 1.9326 295.00 0.0033898 496.84 510.66 1.9326 2.2549 16.984 167.90 0.091729 32.274 0.070906 295.00 0.0033898 496.84 510.66 1.9326 2.2549 16.984 167.90 0.091729 32.274 0.070906
95.375 607.87 undefined 499.09 513.29 1.9387 295.00 0.0033898 499.09 513.29 1.9387 2.2336 14.340 173.60 0.087509 32.390 0.069265 295.00 0.0033898 499.09 513.29 1.9387 2.2336 14.340 173.60 0.087509 32.390 0.069265
96.375 624.78 undefined 501.31 515.91 1.9448 295.00 0.0033898 501.31 515.91 1.9448 2.2154 12.589 178.81 0.083882 32.590 0.068051 295.00 0.0033898 501.31 515.91 1.9448 2.2154 12.589 178.81 0.083882 32.590 0.068051
97.375 641.87 undefined 503.52 518.52 1.9507 295.00 0.0033898 503.52 518.52 1.9507 2.2000 11.331 183.59 0.080704 32.563 0.067196 295.00 0.0033898 503.52 518.52 1.9507 2.2000 11.331 183.59 0.080704 32.563 0.067196
98.375 659.14 undefined 505.71 521.12 1.9566 295.00 0.0033898 505.71 521.12 1.9566 2.1870 10.376 188.02 0.077875 32.451 0.066552 295.00 0.0033898 505.71 521.12 1.9566 2.1870 10.376 188.02 0.077875 32.451 0.066552
99.375 676.55 undefined 507.89 523.71 1.9625 295.00 0.0033898 507.89 523.71 1.9625 2.1761 9.6229 192.14 0.075321 32.409 0.066021 295.00 0.0033898 507.89 523.71 1.9625 2.1761 9.6229 192.14 0.075321 32.409 0.066021
100.38 694.09 undefined 510.06 526.29 1.9683 295.00 0.0033898 510.06 526.29 1.9683 2.1670 9.0101 196.01 0.072989 32.401 0.065582 295.00 0.0033898 510.06 526.29 1.9683 2.1670 9.0101 196.01 0.072989 32.401 0.065582
101.38 711.75 undefined 512.23 528.86 1.9741 295.00 0.0033898 512.23 528.86 1.9741 2.1595 8.5002 199.65 0.070840 32.412 0.065217 295.00 0.0033898 512.23 528.86 1.9741 2.1595 8.5002 199.65 0.070840 32.412 0.065217
102.38 729.52 undefined 514.38 531.43 1.9798 295.00 0.0033898 514.38 531.43 1.9798 2.1532 8.0683 203.12 0.068845 32.432 0.064913 295.00 0.0033898 514.38 531.43 1.9798 2.1532 8.0683 203.12 0.068845 32.432 0.064913
103.38 747.39 undefined 516.54 534.00 1.9856 295.00 0.0033898 516.54 534.00 1.9856 2.1481 7.6970 206.43 0.066980 32.457 0.064658 295.00 0.0033898 516.54 534.00 1.9856 2.1481 7.6970 206.43 0.066980 32.457 0.064658
104.38 765.34 undefined 518.68 536.57 1.9913 295.00 0.0033898 518.68 536.57 1.9913 2.1439 7.3739 209.60 0.065229 32.484 0.064444 295.00 0.0033898 518.68 536.57 1.9913 2.1439 7.3739 209.60 0.065229 32.484 0.064444
105.38 783.38 undefined 520.82 539.13 1.9969 295.00 0.0033898 520.82 539.13 1.9969 2.1404 7.0900 212.66 0.063576 32.512 0.064265 295.00 0.0033898 520.82 539.13 1.9969 2.1404 7.0900 212.66 0.063576 32.512 0.064265
106.38 801.50 undefined 522.96 541.69 2.0026 295.00 0.0033898 522.96 541.69 2.0026 2.1377 6.8384 215.61 0.062011 32.541 0.064114 295.00 0.0033898 522.96 541.69 2.0026 2.1377 6.8384 215.61 0.062011 32.541 0.064114
107.38 819.68 undefined 525.10 544.26 2.0082 295.00 0.0033898 525.10 544.26 2.0082 2.1354 6.6137 218.48 0.060525 32.571 0.063988 295.00 0.0033898 525.10 544.26 2.0082 2.1354 6.6137 218.48 0.060525 32.571 0.063988
108.38 837.94 undefined 527.23 546.82 2.0138 295.00 0.0033898 527.23 546.82 2.0138 2.1337 6.4117 221.27 0.059111 32.600 0.063884 295.00 0.0033898 527.23 546.82 2.0138 2.1337 6.4117 221.27 0.059111 32.600 0.063884
109.38 856.26 undefined 529.37 549.38 2.0194 295.00 0.0033898 529.37 549.38 2.0194 2.1324 6.2291 223.98 0.057761 32.629 0.063797 295.00 0.0033898 529.37 549.38 2.0194 2.1324 6.2291 223.98 0.057761 32.629 0.063797
110.38 874.64 undefined 531.50 551.94 2.0249 295.00 0.0033898 531.50 551.94 2.0249 2.1314 6.0633 226.64 0.056470 32.659 0.063727 295.00 0.0033898 531.50 551.94 2.0249 2.1314 6.0633 226.64 0.056470 32.659 0.063727
111.38 893.07 undefined 533.63 554.50 2.0305 295.00 0.0033898 533.63 554.50 2.0305 2.1307 5.9119 229.23 0.055234 32.688 0.063670 295.00 0.0033898 533.63 554.50 2.0305 2.1307 5.9119 229.23 0.055234 32.688 0.063670
112.38 911.56 undefined 535.76 557.06 2.0360 295.00 0.0033898 535.76 557.06 2.0360 2.1303 5.7732 231.78 0.054049 32.717 0.063626 295.00 0.0033898 535.76 557.06 2.0360 2.1303 5.7732 231.78 0.054049 32.717 0.063626
113.38 930.11 undefined 537.89 559.63 2.0415 295.00 0.0033898 537.89 559.63 2.0415 2.1302 5.6455 234.27 0.052911 32.747 0.063594 295.00 0.0033898 537.89 559.63 2.0415 2.1302 5.6455 234.27 0.052911 32.747 0.063594
114.38 948.70 undefined 540.02 562.19 2.0470 295.00 0.0033898 540.02 562.19 2.0470 2.1303 5.5277 236.71 0.051816 32.776 0.063570 295.00 0.0033898 540.02 562.19 2.0470 2.1303 5.5277 236.71 0.051816 32.776 0.063570
115.38 967.34 undefined 542.15 564.76 2.0525 295.00 0.0033898 542.15 564.76 2.0525 2.1305 5.4186 239.12 0.050762 32.805 0.063556 295.00 0.0033898 542.15 564.76 2.0525 2.1305 5.4186 239.12 0.050762 32.805 0.063556
116.38 986.02 undefined 544.28 567.33 2.0580 295.00 0.0033898 544.28 567.33 2.0580 2.1310 5.3173 241.48 0.049747 32.835 0.063550 295.00 0.0033898 544.28 567.33 2.0580 2.1310 5.3173 241.48 0.049747 32.835 0.063550
117.38 1004.8 undefined 546.41 569.90 2.0635 295.00 0.0033898 546.41 569.90 2.0635 2.1316 5.2230 243.80 0.048767 32.864 0.063551 295.00 0.0033898 546.41 569.90 2.0635 2.1316 5.2230 243.80 0.048767 32.864 0.063551
118.38 1023.5 undefined 548.54 572.47 2.0689 295.00 0.0033898 548.54 572.47 2.0689 2.1324 5.1349 246.09 0.047820 32.893 0.063559 295.00 0.0033898 548.54 572.47 2.0689 2.1324 5.1349 246.09 0.047820 32.893 0.063559
119.38 1042.3 undefined 550.68 575.04 2.0744 295.00 0.0033898 550.68 575.04 2.0744 2.1334 5.0526 248.35 0.046906 32.922 0.063572 295.00 0.0033898 550.68 575.04 2.0744 2.1334 5.0526 248.35 0.046906 32.922 0.063572
120.38 1061.2 undefined 552.81 577.61 2.0798 295.00 0.0033898 552.81 577.61 2.0798 2.1344 4.9754 250.57 0.046021 32.951 0.063591 295.00 0.0033898 552.81 577.61 2.0798 2.1344 4.9754 250.57 0.046021 32.951 0.063591
121.38 1080.1 undefined 554.95 580.19 2.0852 295.00 0.0033898 554.95 580.19 2.0852 2.1356 4.9029 252.76 0.045165 32.981 0.063615 295.00 0.0033898 554.95 580.19 2.0852 2.1356 4.9029 252.76 0.045165 32.981 0.063615
122.38 1099.0 undefined 557.08 582.77 2.0906 295.00 0.0033898 557.08 582.77 2.0906 2.1369 4.8346 254.92 0.044335 33.010 0.063644 295.00 0.0033898 557.08 582.77 2.0906 2.1369 4.8346 254.92 0.044335 33.010 0.063644
123.38 1117.9 undefined 559.22 585.35 2.0960 295.00 0.0033898 559.22 585.35 2.0960 2.1384 4.7703 257.05 0.043530 33.039 0.063677 295.00 0.0033898 559.22 585.35 2.0960 2.1384 4.7703 257.05 0.043530 33.039 0.063677
124.38 1136.9 undefined 561.36 587.93 2.1014 295.00 0.0033898 561.36 587.93 2.1014 2.1399 4.7096 259.16 0.042750 33.068 0.063714 295.00 0.0033898 561.36 587.93 2.1014 2.1399 4.7096 259.16 0.042750 33.068 0.063714
125.38 1155.9 undefined 563.50 590.52 2.1068 295.00 0.0033898 563.50 590.52 2.1068 2.1415 4.6522 261.24 0.041992 33.097 0.063755 295.00 0.0033898 563.50 590.52 2.1068 2.1415 4.6522 261.24 0.041992 33.097 0.063755
126.38 1175.0 undefined 565.64 593.10 2.1122 295.00 0.0033898 565.64 593.10 2.1122 2.1432 4.5979 263.29 0.041257 33.126 0.063799 295.00 0.0033898 565.64 593.10 2.1122 2.1432 4.5979 263.29 0.041257 33.126 0.063799
127.38 1194.1 undefined 567.79 595.69 2.1175 295.00 0.0033898 567.79 595.69 2.1175 2.1450 4.5464 265.32 0.040542 33.155 0.063847 295.00 0.0033898 567.79 595.69 2.1175 2.1450 4.5464 265.32 0.040542 33.155 0.063847
128.38 1213.2 undefined 569.93 598.29 2.1229 295.00 0.0033898 569.93 598.29 2.1229 2.1469 4.4975 267.33 0.039847 33.184 0.063897 295.00 0.0033898 569.93 598.29 2.1229 2.1469 4.4975 267.33 0.039847 33.184 0.063897
129.38 1232.3 undefined 572.08 600.88 2.1282 295.00 0.0033898 572.08 600.88 2.1282 2.1489 4.4510 269.31 0.039170 33.213 0.063950 295.00 0.0033898 572.08 600.88 2.1282 2.1489 4.4510 269.31 0.039170 33.213 0.063950
130.38 1251.5 undefined 574.23 603.48 2.1336 295.00 0.0033898 574.23 603.48 2.1336 2.1510 4.4069 271.28 0.038512 33.241 0.064006 295.00 0.0033898 574.23 603.48 2.1336 2.1510 4.4069 271.28 0.038512 33.241 0.064006
131.38 1270.7 undefined 576.38 606.08 2.1389 295.00 0.0033898 576.38 606.08 2.1389 2.1531 4.3648 273.22 0.037871 33.270 0.064065 295.00 0.0033898 576.38 606.08 2.1389 2.1531 4.3648 273.22 0.037871 33.270 0.064065
132.38 1289.9 undefined 578.54 608.68 2.1442 295.00 0.0033898 578.54 608.68 2.1442 2.1553 4.3247 275.15 0.037247 33.299 0.064126 295.00 0.0033898 578.54 608.68 2.1442 2.1553 4.3247 275.15 0.037247 33.299 0.064126
133.38 1309.1 undefined 580.69 611.29 2.1495 295.00 0.0033898 580.69 611.29 2.1495 2.1575 4.2865 277.05 0.036638 33.328 0.064189 295.00 0.0033898 580.69 611.29 2.1495 2.1575 4.2865 277.05 0.036638 33.328 0.064189
134.38 1328.4 undefined 582.85 613.90 2.1548 295.00 0.0033898 582.85 613.90 2.1548 2.1598 4.2500 278.94 0.036045 33.357 0.064254 295.00 0.0033898 582.85 613.90 2.1548 2.1598 4.2500 278.94 0.036045 33.357 0.064254
135.38 1347.6 undefined 585.01 616.51 2.1601 295.00 0.0033898 585.01 616.51 2.1601 2.1622 4.2151 280.81 0.035466 33.386 0.064321 295.00 0.0033898 585.01 616.51 2.1601 2.1622 4.2151 280.81 0.035466 33.386 0.064321
136.38 1366.9 undefined 587.18 619.12 2.1654 295.00 0.0033898 587.18 619.12 2.1654 2.1646 4.1817 282.66 0.034902 33.414 0.064390 295.00 0.0033898 587.18 619.12 2.1654 2.1646 4.1817 282.66 0.034902 33.414 0.064390
137.38 1386.3 undefined 589.34 621.74 2.1707 295.00 0.0033898 589.34 621.74 2.1707 2.1670 4.1498 284.50 0.034351 33.443 0.064461 295.00 0.0033898 589.34 621.74 2.1707 2.1670 4.1498 284.50 0.034351 33.443 0.064461
138.38 1405.6 undefined 591.51 624.36 2.1760 295.00 0.0033898 591.51 624.36 2.1760 2.1696 4.1192 286.32 0.033813 33.472 0.064534 295.00 0.0033898 591.51 624.36 2.1760 2.1696 4.1192 286.32 0.033813 33.472 0.064534
139.38 1425.0 undefined 593.68 626.99 2.1812 295.00 0.0033898 593.68 626.99 2.1812 2.1721 4.0899 288.12 0.033288 33.500 0.064608 295.00 0.0033898 593.68 626.99 2.1812 2.1721 4.0899 288.12 0.033288 33.500 0.064608
140.38 1444.3 undefined 595.85 629.61 2.1865 295.00 0.0033898 595.85 629.61 2.1865 2.1747 4.0619 289.91 0.032774 33.529 0.064684 295.00 0.0033898 595.85 629.61 2.1865 2.1747 4.0619 289.91 0.032774 33.529 0.064684
141.38 1463.7 undefined 598.03 632.24 2.1917 295.00 0.0033898 598.03 632.24 2.1917 2.1773 4.0349 291.69 0.032273 33.558 0.064761 295.00 0.0033898 598.03 632.24 2.1917 2.1773 4.0349 291.69 0.032273 33.558 0.064761
142.38 1483.2 undefined 600.21 634.87 2.1970 295.00 0.0033898 600.21 634.87 2.1970 2.1800 4.0090 293.45 0.031783 33.586 0.064840 295.00 0.0033898 600.21 634.87 2.1970 2.1800 4.0090 293.45 0.031783 33.586 0.064840
143.38 1502.6 undefined 602.39 637.51 2.2022 295.00 0.0033898 602.39 637.51 2.2022 2.1827 3.9842 295.19 0.031303 33.615 0.064920 295.00 0.0033898 602.39 637.51 2.2022 2.1827 3.9842 295.19 0.031303 33.615 0.064920
144.38 1522.0 undefined 604.57 640.15 2.2075 295.00 0.0033898 604.57 640.15 2.2075 2.1855 3.9603 296.93 0.030834 33.643 0.065001 295.00 0.0033898 604.57 640.15 2.2075 2.1855 3.9603 296.93 0.030834 33.643 0.065001
145.38 1541.5 undefined 606.76 642.79 2.2127 295.00 0.0033898 606.76 642.79 2.2127 2.1882 3.9373 298.65 0.030376 33.672 0.065084 295.00 0.0033898 606.76 642.79 2.2127 2.1882 3.9373 298.65 0.030376 33.672 0.065084
146.38 1561.0 undefined 608.95 645.43 2.2179 295.00 0.0033898 608.95 645.43 2.2179 2.1911 3.9152 300.36 0.029927 33.700 0.065168 295.00 0.0033898 608.95 645.43 2.2179 2.1911 3.9152 300.36 0.029927 33.700 0.065168
147.38 1580.5 undefined 611.14 648.08 2.2231 295.00 0.0033898 611.14 648.08 2.2231 2.1939 3.8940 302.05 0.029488 33.729 0.065253 295.00 0.0033898 611.14 648.08 2.2231 2.1939 3.8940 302.05 0.029488 33.729 0.065253
148.38 1600.0 undefined 613.34 650.73 2.2284 295.00 0.0033898 613.34 650.73 2.2284 2.1968 3.8735 303.74 0.029058 33.757 0.065339 295.00 0.0033898 613.34 650.73 2.2284 2.1968 3.8735 303.74 0.029058 33.757 0.065339
149.38 1619.5 undefined 615.54 653.39 2.2336 295.00 0.0033898 615.54 653.39 2.2336 2.1997 3.8538 305.41 0.028637 33.785 0.065427 295.00 0.0033898 615.54 653.39 2.2336 2.1997 3.8538 305.41 0.028637 33.785 0.065427
150.38 1639.1 undefined 617.74 656.05 2.2388 295.00 0.0033898 617.74 656.05 2.2388 2.2026 3.8348 307.07 0.028224 33.814 0.065515 295.00 0.0033898 617.74 656.05 2.2388 2.2026 3.8348 307.07 0.028224 33.814 0.065515
151.38 1658.6 undefined 619.94 658.71 2.2440 295.00 0.0033898 619.94 658.71 2.2440 2.2055 3.8164 308.72 0.027820 33.842 0.065604 295.00 0.0033898 619.94 658.71 2.2440 2.2055 3.8164 308.72 0.027820 33.842 0.065604
152.38 1678.2 undefined 622.15 661.37 2.2492 295.00 0.0033898 622.15 661.37 2.2492 2.2085 3.7988 310.36 0.027424 33.870 0.065695 295.00 0.0033898 622.15 661.37 2.2492 2.2085 3.7988 310.36 0.027424 33.870 0.065695
153.38 1697.8 undefined 624.36 664.04 2.2544 295.00 0.0033898 624.36 664.04 2.2544 2.2115 3.7817 311.98 0.027036 33.899 0.065786 295.00 0.0033898 624.36 664.04 2.2544 2.2115 3.7817 311.98 0.027036 33.899 0.065786
154.38 1717.4 undefined 626.57 666.71 2.2595 295.00 0.0033898 626.57 666.71 2.2595 2.2145 3.7653 313.60 0.026656 33.927 0.065878 295.00 0.0033898 626.57 666.71 2.2595 2.2145 3.7653 313.60 0.026656 33.927 0.065878
155.38 1737.0 undefined 628.79 669.38 2.2647 295.00 0.0033898 628.79 669.38 2.2647 2.2175 3.7494 315.21 0.026283 33.955 0.065972 295.00 0.0033898 628.79 669.38 2.2647 2.2175 3.7494 315.21 0.026283 33.955 0.065972
156.38 1756.6 undefined 631.01 672.06 2.2699 295.00 0.0033898 631.01 672.06 2.2699 2.2205 3.7341 316.81 0.025917 33.983 0.066066 295.00 0.0033898 631.01 672.06 2.2699 2.2205 3.7341 316.81 0.025917 33.983 0.066066
157.38 1776.2 undefined 633.23 674.74 2.2750 295.00 0.0033898 633.23 674.74 2.2750 2.2236 3.7192 318.39 0.025558 34.011 0.066161 295.00 0.0033898 633.23 674.74 2.2750 2.2236 3.7192 318.39 0.025558 34.011 0.066161
158.38 1795.8 undefined 635.45 677.43 2.2802 295.00 0.0033898 635.45 677.43 2.2802 2.2267 3.7049 319.97 0.025207 34.040 0.066256 295.00 0.0033898 635.45 677.43 2.2802 2.2267 3.7049 319.97 0.025207 34.040 0.066256
159.38 1815.5 undefined 637.68 680.11 2.2854 295.00 0.0033898 637.68 680.11 2.2854 2.2297 3.6911 321.54 0.024861 34.068 0.066353 295.00 0.0033898 637.68 680.11 2.2854 2.2297 3.6911 321.54 0.024861 34.068 0.066353
160.38 1835.2 undefined 639.91 682.80 2.2905 295.00 0.0033898 639.91 682.80 2.2905 2.2328 3.6777 323.10 0.024523 34.096 0.066450 295.00 0.0033898 639.91 682.80 2.2905 2.2328 3.6777 323.10 0.024523 34.096 0.066450
161.38 1854.8 undefined 642.15 685.50 2.2957 295.00 0.0033898 642.15 685.50 2.2957 2.2360 3.6648 324.65 0.024190 34.124 0.066548 295.00 0.0033898 642.15 685.50 2.2957 2.2360 3.6648 324.65 0.024190 34.124 0.066548
162.38 1874.5 undefined 644.39 688.20 2.3008 295.00 0.0033898 644.39 688.20 2.3008 2.2391 3.6523 326.19 0.023864 34.152 0.066647 295.00 0.0033898 644.39 688.20 2.3008 2.2391 3.6523 326.19 0.023864 34.152 0.066647
163.38 1894.2 undefined 646.63 690.90 2.3060 295.00 0.0033898 646.63 690.90 2.3060 2.2422 3.6402 327.72 0.023543 34.180 0.066747 295.00 0.0033898 646.63 690.90 2.3060 2.2422 3.6402 327.72 0.023543 34.180 0.066747
164.38 1913.9 undefined 648.87 693.60 2.3111 295.00 0.0033898 648.87 693.60 2.3111 2.2454 3.6285 329.25 0.023229 34.208 0.066847 295.00 0.0033898 648.87 693.60 2.3111 2.2454 3.6285 329.25 0.023229 34.208 0.066847
165.38 1933.6 undefined 651.12 696.31 2.3162 295.00 0.0033898 651.12 696.31 2.3162 2.2486 3.6172 330.76 0.022920 34.236 0.066948 295.00 0.0033898 651.12 696.31 2.3162 2.2486 3.6172 330.76 0.022920 34.236 0.066948
166.38 1953.3 undefined 653.37 699.02 2.3213 295.00 0.0033898 653.37 699.02 2.3213 2.2518 3.6063 332.27 0.022616 34.264 0.067049 295.00 0.0033898 653.37 699.02 2.3213 2.2518 3.6063 332.27 0.022616 34.264 0.067049
167.38 1973.0 undefined 655.62 701.73 2.3265 295.00 0.0033898 655.62 701.73 2.3265 2.2549 3.5957 333.77 0.022318 34.292 0.067152 295.00 0.0033898 655.62 701.73 2.3265 2.2549 3.5957 333.77 0.022318 34.292 0.067152
168.38 1992.8 undefined 657.88 704.45 2.3316 295.00 0.0033898 657.88 704.45 2.3316 2.2582 3.5854 335.26 0.022025 34.320 0.067255 295.00 0.0033898 657.88 704.45 2.3316 2.2582 3.5854 335.26 0.022025 34.320 0.067255
169.38 2012.5 undefined 660.14 707.17 2.3367 295.00 0.0033898 660.14 707.17 2.3367 2.2614 3.5754 336.75 0.021737 34.347 0.067358 295.00 0.0033898 660.14 707.17 2.3367 2.2614 3.5754 336.75 0.021737 34.347 0.067358
170.38 2032.3 undefined 662.40 709.90 2.3418 295.00 0.0033898 662.40 709.90 2.3418 2.2646 3.5658 338.22 0.021455 34.375 0.067462 295.00 0.0033898 662.40 709.90 2.3418 2.2646 3.5658 338.22 0.021455 34.375 0.067462
171.38 2052.0 undefined 664.67 712.63 2.3469 295.00 0.0033898 664.67 712.63 2.3469 2.2678 3.5565 339.69 0.021177 34.403 0.067567 295.00 0.0033898 664.67 712.63 2.3469 2.2678 3.5565 339.69 0.021177 34.403 0.067567
172.38 2071.8 undefined 666.94 715.36 2.3520 295.00 0.0033898 666.94 715.36 2.3520 2.2711 3.5475 341.16 0.020903 34.431 0.067672 295.00 0.0033898 666.94 715.36 2.3520 2.2711 3.5475 341.16 0.020903 34.431 0.067672
173.38 2091.6 undefined 669.21 718.09 2.3571 295.00 0.0033898 669.21 718.09 2.3571 2.2743 3.5387 342.61 0.020634 34.459 0.067778 295.00 0.0033898 669.21 718.09 2.3571 2.2743 3.5387 342.61 0.020634 34.459 0.067778
174.38 2111.3 undefined 671.48 720.83 2.3622 295.00 0.0033898 671.48 720.83 2.3622 2.2776 3.5302 344.06 0.020370 34.486 0.067885 295.00 0.0033898 671.48 720.83 2.3622 2.2776 3.5302 344.06 0.020370 34.486 0.067885
175.38 2131.1 undefined 673.76 723.57 2.3673 295.00 0.0033898 673.76 723.57 2.3673 2.2808 3.5220 345.50 0.020110 34.514 0.067992 295.00 0.0033898 673.76 723.57 2.3673 2.2808 3.5220 345.50 0.020110 34.514 0.067992
176.38 2150.9 undefined 676.05 726.32 2.3724 295.00 0.0033898 676.05 726.32 2.3724 2.2841 3.5141 346.93 0.019855 34.542 0.068100 295.00 0.0033898 676.05 726.32 2.3724 2.2841 3.5141 346.93 0.019855 34.542 0.068100
177.38 2170.7 undefined 678.33 729.07 2.3774 295.00 0.0033898 678.33 729.07 2.3774 2.2874 3.5063 348.36 0.019603 34.569 0.068208 295.00 0.0033898 678.33 729.07 2.3774 2.2874 3.5063 348.36 0.019603 34.569 0.068208
178.38 2190.5 undefined 680.62 731.82 2.3825 295.00 0.0033898 680.62 731.82 2.3825 2.2907 3.4989 349.77 0.019356 34.597 0.068317 295.00 0.0033898 680.62 731.82 2.3825 2.2907 3.4989 349.77 0.019356 34.597 0.068317
179.38 2210.3 undefined 682.91 734.57 2.3876 295.00 0.0033898 682.91 734.57 2.3876 2.2939 3.4916 351.19 0.019113 34.625 0.068426 295.00 0.0033898 682.91 734.57 2.3876 2.2939 3.4916 351.19 0.019113 34.625 0.068426
180.38 2230.1 undefined 685.21 737.33 2.3927 295.00 0.0033898 685.21 737.33 2.3927 2.2972 3.4846 352.59 0.018873 34.652 0.068536 295.00 0.0033898 685.21 737.33 2.3927 2.2972 3.4846 352.59 0.018873 34.652 0.068536
181.38 2250.0 undefined 687.51 740.09 2.3977 295.00 0.0033898 687.51 740.09 2.3977 2.3005 3.4778 353.99 0.018638 34.680 0.068646 295.00 0.0033898 687.51 740.09 2.3977 2.3005 3.4778 353.99 0.018638 34.680 0.068646
182.38 2269.8 undefined 689.81 742.86 2.4028 295.00 0.0033898 689.81 742.86 2.4028 2.3039 3.4712 355.39 0.018406 34.707 0.068757 295.00 0.0033898 689.81 742.86 2.4028 2.3039 3.4712 355.39 0.018406 34.707 0.068757
183.38 2289.6 undefined 692.11 745.63 2.4078 295.00 0.0033898 692.11 745.63 2.4078 2.3072 3.4648 356.77 0.018177 34.735 0.068868 295.00 0.0033898 692.11 745.63 2.4078 2.3072 3.4648 356.77 0.018177 34.735 0.068868
184.38 2309.5 undefined 694.42 748.40 2.4129 295.00 0.0033898 694.42 748.40 2.4129 2.3105 3.4586 358.15 0.017953 34.762 0.068980 295.00 0.0033898 694.42 748.40 2.4129 2.3105 3.4586 358.15 0.017953 34.762 0.068980
185.38 2329.3 undefined 696.74 751.18 2.4179 295.00 0.0033898 696.74 751.18 2.4179 2.3138 3.4526 359.53 0.017731 34.790 0.069092 295.00 0.0033898 696.74 751.18 2.4179 2.3138 3.4526 359.53 0.017731 34.790 0.069092
186.38 2349.2 undefined 699.05 753.96 2.4230 295.00 0.0033898 699.05 753.96 2.4230 2.3171 3.4468 360.90 0.017513 34.817 0.069205 295.00 0.0033898 699.05 753.96 2.4230 2.3171 3.4468 360.90 0.017513 34.817 0.069205
187.38 2369.0 undefined 701.37 756.74 2.4280 295.00 0.0033898 701.37 756.74 2.4280 2.3205 3.4412 362.26 0.017299 34.844 0.069318 295.00 0.0033898 701.37 756.74 2.4280 2.3205 3.4412 362.26 0.017299 34.844 0.069318
188.38 2388.9 undefined 703.69 759.52 2.4331 295.00 0.0033898 703.69 759.52 2.4331 2.3238 3.4357 363.61 0.017088 34.872 0.069432 295.00 0.0033898 703.69 759.52 2.4331 2.3238 3.4357 363.61 0.017088 34.872 0.069432
189.38 2408.7 undefined 706.02 762.31 2.4381 295.00 0.0033898 706.02 762.31 2.4381 2.3271 3.4304 364.96 0.016879 34.899 0.069546 295.00 0.0033898 706.02 762.31 2.4381 2.3271 3.4304 364.96 0.016879 34.899 0.069546
190.38 2428.6 undefined 708.35 765.11 2.4431 295.00 0.0033898 708.35 765.11 2.4431 2.3305 3.4253 366.31 0.016674 34.926 0.069661 295.00 0.0033898 708.35 765.11 2.4431 2.3305 3.4253 366.31 0.016674 34.926 0.069661
191.38 2448.5 undefined 710.68 767.90 2.4481 295.00 0.0033898 710.68 767.90 2.4481 2.3338 3.4203 367.65 0.016473 34.954 0.069776 295.00 0.0033898 710.68 767.90 2.4481 2.3338 3.4203 367.65 0.016473 34.954 0.069776
192.38 2468.3 undefined 713.01 770.70 2.4532 295.00 0.0033898 713.01 770.70 2.4532 2.3372 3.4155 368.98 0.016274 34.981 0.069891 295.00 0.0033898 713.01 770.70 2.4532 2.3372 3.4155 368.98 0.016274 34.981 0.069891
193.38 2488.2 undefined 715.35 773.51 2.4582 295.00 0.0033898 715.35 773.51 2.4582 2.3405 3.4108 370.31 0.016078 35.008 0.070007 295.00 0.0033898 715.35 773.51 2.4582 2.3405 3.4108 370.31 0.016078 35.008 0.070007
194.38 2508.1 undefined 717.70 776.31 2.4632 295.00 0.0033898 717.70 776.31 2.4632 2.3439 3.4063 371.63 0.015884 35.035 0.070123 295.00 0.0033898 717.70 776.31 2.4632 2.3439 3.4063 371.63 0.015884 35.035 0.070123
195.38 2528.0 undefined 720.04 779.13 2.4682 295.00 0.0033898 720.04 779.13 2.4682 2.3473 3.4019 372.95 0.015694 35.063 0.070240 295.00 0.0033898 720.04 779.13 2.4682 2.3473 3.4019 372.95 0.015694 35.063 0.070240
196.38 2547.9 undefined 722.39 781.94 2.4732 295.00 0.0033898 722.39 781.94 2.4732 2.3506 3.3977 374.26 0.015506 35.090 0.070357 295.00 0.0033898 722.39 781.94 2.4732 2.3506 3.3977 374.26 0.015506 35.090 0.070357
197.38 2567.8 undefined 724.74 784.76 2.4782 295.00 0.0033898 724.74 784.76 2.4782 2.3540 3.3935 375.56 0.015321 35.117 0.070475 295.00 0.0033898 724.74 784.76 2.4782 2.3540 3.3935 375.56 0.015321 35.117 0.070475
198.38 2587.7 undefined 727.10 787.58 2.4832 295.00 0.0033898 727.10 787.58 2.4832 2.3574 3.3896 376.87 0.015139 35.144 0.070593 295.00 0.0033898 727.10 787.58 2.4832 2.3574 3.3896 376.87 0.015139 35.144 0.070593
199.38 2607.6 undefined 729.46 790.40 2.4882 295.00 0.0033898 729.46 790.40 2.4882 2.3607 3.3857 378.16 0.014959 35.171 0.070711 295.00 0.0033898 729.46 790.40 2.4882 2.3607 3.3857 378.16 0.014959 35.171 0.070711
200.38 2627.5 undefined 731.82 793.23 2.4932 295.00 0.0033898 731.82 793.23 2.4932 2.3641 3.3820 379.45 0.014782 35.198 0.070830 295.00 0.0033898 731.82 793.23 2.4932 2.3641 3.3820 379.45 0.014782 35.198 0.070830
201.38 2647.4 undefined 734.19 796.06 2.4982 295.00 0.0033898 734.19 796.06 2.4982 2.3675 3.3784 380.74 0.014608 35.225 0.070949 295.00 0.0033898 734.19 796.06 2.4982 2.3675 3.3784 380.74 0.014608 35.225 0.070949
202.38 2667.3 undefined 736.55 798.89 2.5032 295.00 0.0033898 736.55 798.89 2.5032 2.3709 3.3749 382.02 0.014435 35.252 0.071069 295.00 0.0033898 736.55 798.89 2.5032 2.3709 3.3749 382.02 0.014435 35.252 0.071069
203.38 2687.2 undefined 738.93 801.73 2.5082 295.00 0.0033898 738.93 801.73 2.5082 2.3743 3.3716 383.29 0.014266 35.279 0.071189 295.00 0.0033898 738.93 801.73 2.5082 2.3743 3.3716 383.29 0.014266 35.279 0.071189
204.38 2707.1 undefined 741.30 804.57 2.5132 295.00 0.0033898 741.30 804.57 2.5132 2.3776 3.3683 384.56 0.014098 35.306 0.071309 295.00 0.0033898 741.30 804.57 2.5132 2.3776 3.3683 384.56 0.014098 35.306 0.071309
205.38 2727.0 undefined 743.68 807.42 2.5181 295.00 0.0033898 743.68 807.42 2.5181 2.3810 3.3652 385.83 0.013933 35.333 0.071430 295.00 0.0033898 743.68 807.42 2.5181 2.3810 3.3652 385.83 0.013933 35.333 0.071430
206.38 2746.9 undefined 746.06 810.27 2.5231 295.00 0.0033898 746.06 810.27 2.5231 2.3844 3.3621 387.09 0.013770 35.360 0.071551 295.00 0.0033898 746.06 810.27 2.5231 2.3844 3.3621 387.09 0.013770 35.360 0.071551
207.38 2766.8 undefined 748.45 813.12 2.5281 295.00 0.0033898 748.45 813.12 2.5281 2.3878 3.3592 388.34 0.013609 35.387 0.071673 295.00 0.0033898 748.45 813.12 2.5281 2.3878 3.3592 388.34 0.013609 35.387 0.071673
208.38 2786.7 undefined 750.84 815.97 2.5330 295.00 0.0033898 750.84 815.97 2.5330 2.3912 3.3563 389.59 0.013450 35.414 0.071794 295.00 0.0033898 750.84 815.97 2.5330 2.3912 3.3563 389.59 0.013450 35.414 0.071794
209.38 2806.7 undefined 753.23 818.83 2.5380 295.00 0.0033898 753.23 818.83 2.5380 2.3946 3.3536 390.84 0.013294 35.440 0.071917 295.00 0.0033898 753.23 818.83 2.5380 2.3946 3.3536 390.84 0.013294 35.440 0.071917
210.38 2826.6 undefined 755.63 821.69 2.5430 295.00 0.0033898 755.63 821.69 2.5430 2.3980 3.3510 392.08 0.013140 35.467 0.072039 295.00 0.0033898 755.63 821.69 2.5430 2.3980 3.3510 392.08 0.013140 35.467 0.072039
211.38 2846.5 undefined 758.03 824.56 2.5479 295.00 0.0033898 758.03 824.56 2.5479 2.4014 3.3484 393.32 0.012987 35.494 0.072162 295.00 0.0033898 758.03 824.56 2.5479 2.4014 3.3484 393.32 0.012987 35.494 0.072162
212.38 2866.4 undefined 760.43 827.43 2.5529 295.00 0.0033898 760.43 827.43 2.5529 2.4048 3.3460 394.55 0.012837 35.521 0.072285 295.00 0.0033898 760.43 827.43 2.5529 2.4048 3.3460 394.55 0.012837 35.521 0.072285
213.38 2886.4 undefined 762.84 830.30 2.5578 295.00 0.0033898 762.84 830.30 2.5578 2.4082 3.3436 395.78 0.012689 35.548 0.072409 295.00 0.0033898 762.84 830.30 2.5578 2.4082 3.3436 395.78 0.012689 35.548 0.072409
214.38 2906.3 undefined 765.25 833.17 2.5628 295.00 0.0033898 765.25 833.17 2.5628 2.4116 3.3413 397.00 0.012542 35.574 0.072533 295.00 0.0033898 765.25 833.17 2.5628 2.4116 3.3413 397.00 0.012542 35.574 0.072533
215.38 2926.2 undefined 767.66 836.05 2.5677 295.00 0.0033898 767.66 836.05 2.5677 2.4150 3.3391 398.22 0.012398 35.601 0.072657 295.00 0.0033898 767.66 836.05 2.5677 2.4150 3.3391 398.22 0.012398 35.601 0.072657
216.38 2946.1 undefined 770.08 838.94 2.5727 295.00 0.0033898 770.08 838.94 2.5727 2.4184 3.3370 399.44 0.012255 35.628 0.072782 295.00 0.0033898 770.08 838.94 2.5727 2.4184 3.3370 399.44 0.012255 35.628 0.072782
217.38 2966.1 undefined 772.50 841.82 2.5776 295.00 0.0033898 772.50 841.82 2.5776 2.4218 3.3350 400.65 0.012114 35.654 0.072907 295.00 0.0033898 772.50 841.82 2.5776 2.4218 3.3350 400.65 0.012114 35.654 0.072907
218.38 2986.0 undefined 774.92 844.71 2.5825 295.00 0.0033898 774.92 844.71 2.5825 2.4252 3.3330 401.85 0.011975 35.681 0.073032 295.00 0.0033898 774.92 844.71 2.5825 2.4252 3.3330 401.85 0.011975 35.681 0.073032
219.38 3005.9 undefined 777.35 847.60 2.5875 295.00 0.0033898 777.35 847.60 2.5875 2.4286 3.3312 403.06 0.011838 35.707 0.073158 295.00 0.0033898 777.35 847.60 2.5875 2.4286 3.3312 403.06 0.011838 35.707 0.073158
220.38 3025.9 undefined 779.78 850.50 2.5924 295.00 0.0033898 779.78 850.50 2.5924 2.4320 3.3294 404.25 0.011703 35.734 0.073284 295.00 0.0033898 779.78 850.50 2.5924 2.4320 3.3294 404.25 0.011703 35.734 0.073284
221.38 3045.8 undefined 782.21 853.40 2.5973 295.00 0.0033898 782.21 853.40 2.5973 2.4354 3.3277 405.45 0.011569 35.760 0.073410 295.00 0.0033898 782.21 853.40 2.5973 2.4354 3.3277 405.45 0.011569 35.760 0.073410
222.38 3065.7 undefined 784.65 856.30 2.6023 295.00 0.0033898 784.65 856.30 2.6023 2.4388 3.3260 406.64 0.011437 35.787 0.073537 295.00 0.0033898 784.65 856.30 2.6023 2.4388 3.3260 406.64 0.011437 35.787 0.073537
223.38 3085.7 undefined 787.09 859.21 2.6072 295.00 0.0033898 787.09 859.21 2.6072 2.4422 3.3244 407.82 0.011306 35.813 0.073664 295.00 0.0033898 787.09 859.21 2.6072 2.4422 3.3244 407.82 0.011306 35.813 0.073664
224.38 3105.6 undefined 789.53 862.12 2.6121 295.00 0.0033898 789.53 862.12 2.6121 2.4456 3.3229 409.00 0.011178 35.840 0.073791 295.00 0.0033898 789.53 862.12 2.6121 2.4456 3.3229 409.00 0.011178 35.840 0.073791
225.38 3125.6 undefined 791.98 865.03 2.6170 295.00 0.0033898 791.98 865.03 2.6170 2.4490 3.3215 410.18 0.011050 35.866 0.073918 295.00 0.0033898 791.98 865.03 2.6170 2.4490 3.3215 410.18 0.011050 35.866 0.073918
226.38 3145.5 undefined 794.43 867.95 2.6219 295.00 0.0033898 794.43 867.95 2.6219 2.4524 3.3201 411.35 0.010925 35.893 0.074046 295.00 0.0033898 794.43 867.95 2.6219 2.4524 3.3201 411.35 0.010925 35.893 0.074046
227.38 3165.4 undefined 796.89 870.87 2.6268 295.00 0.0033898 796.89 870.87 2.6268 2.4559 3.3188 412.52 0.010801 35.919 0.074174 295.00 0.0033898 796.89 870.87 2.6268 2.4559 3.3188 412.52 0.010801 35.919 0.074174
228.38 3185.4 undefined 799.34 873.79 2.6317 295.00 0.0033898 799.34 873.79 2.6317 2.4593 3.3176 413.69 0.010678 35.945 0.074303 295.00 0.0033898 799.34 873.79 2.6317 2.4593 3.3176 413.69 0.010678 35.945 0.074303
229.38 3205.3 undefined 801.81 876.72 2.6366 295.00 0.0033898 801.81 876.72 2.6366 2.4627 3.3164 414.85 0.010557 35.972 0.074432 295.00 0.0033898 801.81 876.72 2.6366 2.4627 3.3164 414.85 0.010557 35.972 0.074432
230.38 3225.2 undefined 804.27 879.65 2.6415 295.00 0.0033898 804.27 879.65 2.6415 2.4661 3.3153 416.01 0.010437 35.998 0.074561 295.00 0.0033898 804.27 879.65 2.6415 2.4661 3.3153 416.01 0.010437 35.998 0.074561
231.38 3245.2 undefined 806.74 882.58 2.6464 295.00 0.0033898 806.74 882.58 2.6464 2.4695 3.3142 417.16 0.010319 36.024 0.074690 295.00 0.0033898 806.74 882.58 2.6464 2.4695 3.3142 417.16 0.010319 36.024 0.074690
232.38 3265.1 undefined 809.21 885.52 2.6513 295.00 0.0033898 809.21 885.52 2.6513 2.4729 3.3132 418.31 0.010202 36.050 0.074819 295.00 0.0033898 809.21 885.52 2.6513 2.4729 3.3132 418.31 0.010202 36.050 0.074819
233.38 3285.0 undefined 811.68 888.46 2.6562 295.00 0.0033898 811.68 888.46 2.6562 2.4763 3.3123 419.46 0.010087 36.077 0.074949 295.00 0.0033898 811.68 888.46 2.6562 2.4763 3.3123 419.46 0.010087 36.077 0.074949
234.38 3305.0 undefined 814.16 891.41 2.6611 295.00 0.0033898 814.16 891.41 2.6611 2.4797 3.3114 420.60 0.0099731 36.103 0.075079 295.00 0.0033898 814.16 891.41 2.6611 2.4797 3.3114 420.60 0.0099731 36.103 0.075079
235.38 3324.9 undefined 816.64 894.35 2.6660 295.00 0.0033898 816.64 894.35 2.6660 2.4831 3.3106 421.74 0.0098605 36.129 0.075210 295.00 0.0033898 816.64 894.35 2.6660 2.4831 3.3106 421.74 0.0098605 36.129 0.075210
236.38 3344.8 undefined 819.13 897.30 2.6709 295.00 0.0033898 819.13 897.30 2.6709 2.4865 3.3098 422.88 0.0097492 36.155 0.075340 295.00 0.0033898 819.13 897.30 2.6709 2.4865 3.3098 422.88 0.0097492 36.155 0.075340
237.38 3364.8 undefined 821.62 900.26 2.6757 295.00 0.0033898 821.62 900.26 2.6757 2.4899 3.3091 424.01 0.0096392 36.181 0.075471 295.00 0.0033898 821.62 900.26 2.6757 2.4899 3.3091 424.01 0.0096392 36.181 0.075471
238.38 3384.7 undefined 824.11 903.22 2.6806 295.00 0.0033898 824.11 903.22 2.6806 2.4933 3.3084 425.14 0.0095305 36.207 0.075603 295.00 0.0033898 824.11 903.22 2.6806 2.4933 3.3084 425.14 0.0095305 36.207 0.075603
239.38 3404.6 undefined 826.60 906.18 2.6855 295.00 0.0033898 826.60 906.18 2.6855 2.4967 3.3078 426.26 0.0094231 36.233 0.075734 295.00 0.0033898 826.60 906.18 2.6855 2.4967 3.3078 426.26 0.0094231 36.233 0.075734
240.38 3424.6 undefined 829.10 909.14 2.6904 295.00 0.0033898 829.10 909.14 2.6904 2.5002 3.3072 427.38 0.0093169 36.259 0.075866 295.00 0.0033898 829.10 909.14 2.6904 2.5002 3.3072 427.38 0.0093169 36.259 0.075866
241.38 3444.5 undefined 831.60 912.11 2.6952 295.00 0.0033898 831.60 912.11 2.6952 2.5036 3.3067 428.50 0.0092120 36.285 0.075998 295.00 0.0033898 831.60 912.11 2.6952 2.5036 3.3067 428.50 0.0092120 36.285 0.075998
242.38 3464.4 undefined 834.11 915.08 2.7001 295.00 0.0033898 834.11 915.08 2.7001 2.5070 3.3062 429.62 0.0091082 36.311 0.076130 295.00 0.0033898 834.11 915.08 2.7001 2.5070 3.3062 429.62 0.0091082 36.311 0.076130
243.38 3484.4 undefined 836.62 918.05 2.7050 295.00 0.0033898 836.62 918.05 2.7050 2.5104 3.3057 430.73 0.0090057 36.337 0.076262 295.00 0.0033898 836.62 918.05 2.7050 2.5104 3.3057 430.73 0.0090057 36.337 0.076262
244.38 3504.3 undefined 839.13 921.03 2.7098 295.00 0.0033898 839.13 921.03 2.7098 2.5138 3.3054 431.83 0.0089043 36.363 0.076395 295.00 0.0033898 839.13 921.03 2.7098 2.5138 3.3054 431.83 0.0089043 36.363 0.076395
245.38 3524.2 undefined 841.64 924.01 2.7147 295.00 0.0033898 841.64 924.01 2.7147 2.5172 3.3050 432.94 0.0088040 36.389 0.076528 295.00 0.0033898 841.64 924.01 2.7147 2.5172 3.3050 432.94 0.0088040 36.389 0.076528
246.38 3544.1 undefined 844.16 927.00 2.7195 295.00 0.0033898 844.16 927.00 2.7195 2.5206 3.3047 434.04 0.0087049 36.415 0.076661 295.00 0.0033898 844.16 927.00 2.7195 2.5206 3.3047 434.04 0.0087049 36.415 0.076661
247.38 3564.1 undefined 846.69 929.99 2.7244 295.00 0.0033898 846.69 929.99 2.7244 2.5240 3.3045 435.14 0.0086070 36.441 0.076794 295.00 0.0033898 846.69 929.99 2.7244 2.5240 3.3045 435.14 0.0086070 36.441 0.076794
248.38 3584.0 undefined 849.21 932.98 2.7292 295.00 0.0033898 849.21 932.98 2.7292 2.5274 3.3043 436.23 0.0085101 36.467 0.076927 295.00 0.0033898 849.21 932.98 2.7292 2.5274 3.3043 436.23 0.0085101 36.467 0.076927
249.38 3603.9 undefined 851.74 935.97 2.7341 295.00 0.0033898 851.74 935.97 2.7341 2.5308 3.3041 437.32 0.0084143 36.493 0.077061 295.00 0.0033898 851.74 935.97 2.7341 2.5308 3.3041 437.32 0.0084143 36.493 0.077061
250.38 3623.8 undefined 854.27 938.97 2.7389 295.00 0.0033898 854.27 938.97 2.7389 2.5342 3.3040 438.41 0.0083196 36.518 0.077195 295.00 0.0033898 854.27 938.97 2.7389 2.5342 3.3040 438.41 0.0083196 36.518 0.077195
251.38 3643.8 undefined 856.81 941.97 2.7438 295.00 0.0033898 856.81 941.97 2.7438 2.5376 3.3039 439.49 0.0082259 36.544 0.077329 295.00 0.0033898 856.81 941.97 2.7438 2.5376 3.3039 439.49 0.0082259 36.544 0.077329
252.38 3663.7 undefined 859.35 944.98 2.7486 295.00 0.0033898 859.35 944.98 2.7486 2.5410 3.3038 440.57 0.0081333 36.570 0.077463 295.00 0.0033898 859.35 944.98 2.7486 2.5410 3.3038 440.57 0.0081333 36.570 0.077463
253.38 3683.6 undefined 861.89 947.98 2.7534 295.00 0.0033898 861.89 947.98 2.7534 2.5444 3.3038 441.65 0.0080417 36.596 0.077597 295.00 0.0033898 861.89 947.98 2.7534 2.5444 3.3038 441.65 0.0080417 36.596 0.077597
254.38 3703.5 undefined 864.44 951.00 2.7583 295.00 0.0033898 864.44 951.00 2.7583 2.5477 3.3038 442.73 0.0079511 36.621 0.077731 295.00 0.0033898 864.44 951.00 2.7583 2.5477 3.3038 442.73 0.0079511 36.621 0.077731
255.38 3723.4 undefined 866.99 954.01 2.7631 295.00 0.0033898 866.99 954.01 2.7631 2.5511 3.3039 443.80 0.0078615 36.647 0.077866 295.00 0.0033898 866.99 954.01 2.7631 2.5511 3.3039 443.80 0.0078615 36.647 0.077866
256.38 3743.3 undefined 869.54 957.03 2.7679 295.00 0.0033898 869.54 957.03 2.7679 2.5545 3.3040 444.87 0.0077729 36.673 0.078001 295.00 0.0033898 869.54 957.03 2.7679 2.5545 3.3040 444.87 0.0077729 36.673 0.078001
257.38 3763.2 undefined 872.10 960.05 2.7727 295.00 0.0033898 872.10 960.05 2.7727 2.5579 3.3041 445.93 0.0076852 36.698 0.078135 295.00 0.0033898 872.10 960.05 2.7727 2.5579 3.3041 445.93 0.0076852 36.698 0.078135
258.38 3783.2 undefined 874.65 963.07 2.7775 295.00 0.0033898 874.65 963.07 2.7775 2.5613 3.3043 447.00 0.0075985 36.724 0.078270 295.00 0.0033898 874.65 963.07 2.7775 2.5613 3.3043 447.00 0.0075985 36.724 0.078270
259.38 3803.1 undefined 877.22 966.10 2.7824 295.00 0.0033898 877.22 966.10 2.7824 2.5647 3.3045 448.06 0.0075128 36.749 0.078405 295.00 0.0033898 877.22 966.10 2.7824 2.5647 3.3045 448.06 0.0075128 36.749 0.078405
260.38 3823.0 undefined 879.78 969.13 2.7872 295.00 0.0033898 879.78 969.13 2.7872 2.5681 3.3047 449.11 0.0074279 36.775 0.078540 295.00 0.0033898 879.78 969.13 2.7872 2.5681 3.3047 449.11 0.0074279 36.775 0.078540
261.38 3842.9 undefined 882.35 972.17 2.7920 295.00 0.0033898 882.35 972.17 2.7920 2.5715 3.3050 450.17 0.0073440 36.800 0.078675 295.00 0.0033898 882.35 972.17 2.7920 2.5715 3.3050 450.17 0.0073440 36.800 0.078675
262.38 3862.8 undefined 884.93 975.21 2.7968 295.00 0.0033898 884.93 975.21 2.7968 2.5748 3.3053 451.22 0.0072609 36.826 0.078810 295.00 0.0033898 884.93 975.21 2.7968 2.5748 3.3053 451.22 0.0072609 36.826 0.078810
263.38 3882.7 undefined 887.50 978.25 2.8016 295.00 0.0033898 887.50 978.25 2.8016 2.5782 3.3056 452.27 0.0071788 36.851 0.078945 295.00 0.0033898 887.50 978.25 2.8016 2.5782 3.3056 452.27 0.0071788 36.851 0.078945
264.38 3902.6 undefined 890.08 981.29 2.8064 295.00 0.0033898 890.08 981.29 2.8064 2.5816 3.3060 453.31 0.0070975 36.877 0.079080 295.00 0.0033898 890.08 981.29 2.8064 2.5816 3.3060 453.31 0.0070975 36.877 0.079080
265.38 3922.5 undefined 892.67 984.34 2.8112 295.00 0.0033898 892.67 984.34 2.8112 2.5850 3.3064 454.35 0.0070171 36.902 0.079214 295.00 0.0033898 892.67 984.34 2.8112 2.5850 3.3064 454.35 0.0070171 36.902 0.079214
266.38 3942.4 undefined 895.25 987.39 2.8160 295.00 0.0033898 895.25 987.39 2.8160 2.5884 3.3068 455.39 0.0069375 36.928 0.079349 295.00 0.0033898 895.25 987.39 2.8160 2.5884 3.3068 455.39 0.0069375 36.928 0.079349
267.38 3962.3 undefined 897.84 990.45 2.8208 295.00 0.0033898 897.84 990.45 2.8208 2.5917 3.3073 456.43 0.0068587 36.953 0.079483 295.00 0.0033898 897.84 990.45 2.8208 2.5917 3.3073 456.43 0.0068587 36.953 0.079483
268.38 3982.1 undefined 900.44 993.51 2.8256 295.00 0.0033898 900.44 993.51 2.8256 2.5951 3.3078 457.46 0.0067808 36.978 0.079618 295.00 0.0033898 900.44 993.51 2.8256 2.5951 3.3078 457.46 0.0067808 36.978 0.079618
269.38 4002.0 undefined 903.03 996.57 2.8304 295.00 0.0033898 903.03 996.57 2.8304 2.5985 3.3083 458.49 0.0067037 37.004 0.079751 295.00 0.0033898 903.03 996.57 2.8304 2.5985 3.3083 458.49 0.0067037 37.004 0.079751
270.38 4021.9 undefined 905.63 999.63 2.8352 295.00 0.0033898 905.63 999.63 2.8352 2.6018 3.3088 459.52 0.0066274 37.029 0.079885 295.00 0.0033898 905.63 999.63 2.8352 2.6018 3.3088 459.52 0.0066274 37.029 0.079885
271.38 4041.8 undefined 908.24 1002.7 2.8400 295.00 0.0033898 908.24 1002.7 2.8400 2.6052 3.3094 460.55 0.0065519 37.054 0.080018 295.00 0.0033898 908.24 1002.7 2.8400 2.6052 3.3094 460.55 0.0065519 37.054 0.080018
272.38 4061.7 undefined 910.84 1005.8 2.8448 295.00 0.0033898 910.84 1005.8 2.8448 2.6086 3.3100 461.57 0.0064772 37.079 0.080150 295.00 0.0033898 910.84 1005.8 2.8448 2.6086 3.3100 461.57 0.0064772 37.079 0.080150
273.38 4081.6 undefined 913.45 1008.8 2.8495 295.00 0.0033898 913.45 1008.8 2.8495 2.6119 3.3106 462.59 0.0064032 37.105 0.080282 295.00 0.0033898 913.45 1008.8 2.8495 2.6119 3.3106 462.59 0.0064032 37.105 0.080282
274.38 4101.4 undefined 916.07 1011.9 2.8543 295.00 0.0033898 916.07 1011.9 2.8543 2.6153 3.3113 463.61 0.0063300 37.130 0.080412 295.00 0.0033898 916.07 1011.9 2.8543 2.6153 3.3113 463.61 0.0063300 37.130 0.080412
275.38 4121.3 undefined 918.69 1015.0 2.8591 295.00 0.0033898 918.69 1015.0 2.8591 2.6187 3.3119 464.62 0.0062576 37.155 0.080541 295.00 0.0033898 918.69 1015.0 2.8591 2.6187 3.3119 464.62 0.0062576 37.155 0.080541
276.38 4141.2 undefined 921.31 1018.1 2.8639 295.00 0.0033898 921.31 1018.1 2.8639 2.6220 3.3126 465.63 0.0061858 37.180 0.080669 295.00 0.0033898 921.31 1018.1 2.8639 2.6220 3.3126 465.63 0.0061858 37.180 0.080669
277.38 4161.0 undefined 923.93 1021.2 2.8686 295.00 0.0033898 923.93 1021.2 2.8686 2.6254 3.3133 466.64 0.0061149 37.205 0.080794 295.00 0.0033898 923.93 1021.2 2.8686 2.6254 3.3133 466.64 0.0061149 37.205 0.080794
278.38 4180.9 undefined 926.56 1024.3 2.8734 295.00 0.0033898 926.56 1024.3 2.8734 2.6287 3.3141 467.65 0.0060446 37.230 0.080915 295.00 0.0033898 926.56 1024.3 2.8734 2.6287 3.3141 467.65 0.0060446 37.230 0.080915
279.38 4200.8 undefined 929.19 1027.4 2.8782 295.00 0.0033898 929.19 1027.4 2.8782 2.6321 3.3149 468.65 0.0059750 37.255 0.081032 295.00 0.0033898 929.19 1027.4 2.8782 2.6321 3.3149 468.65 0.0059750 37.255 0.081032
280.38 4220.6 undefined 931.82 1030.5 2.8829 295.00 0.0033898 931.82 1030.5 2.8829 2.6354 3.3157 469.65 0.0059062 37.280 0.081138 295.00 0.0033898 931.82 1030.5 2.8829 2.6354 3.3157 469.65 0.0059062 37.280 0.081138
281.38 4240.5 undefined 934.46 1033.6 2.8877 295.00 0.0033898 934.46 1033.6 2.8877 2.6388 3.3165 470.65 0.0058380 37.305 0.081212 295.00 0.0033898 934.46 1033.6 2.8877 2.6388 3.3165 470.65 0.0058380 37.305 0.081212
282.38 4260.4 undefined 937.10 1036.7 2.8924 295.00 0.0033898 937.10 1036.7 2.8924 2.6421 3.3173 471.65 0.0057705 37.330 0.081311 295.00 0.0033898 937.10 1036.7 2.8924 2.6421 3.3173 471.65 0.0057705 37.330 0.081311
283.38 4280.2 undefined 939.74 1039.8 2.8972 295.00 0.0033898 939.74 1039.8 2.8972 2.6455 3.3182 472.64 0.0057037 37.355 0.081468 295.00 0.0033898 939.74 1039.8 2.8972 2.6455 3.3182 472.64 0.0057037 37.355 0.081468
284.38 4300.1 undefined 942.39 1042.9 2.9019 295.00 0.0033898 942.39 1042.9 2.9019 2.6488 3.3191 473.63 0.0056376 37.380 0.081625 295.00 0.0033898 942.39 1042.9 2.9019 2.6488 3.3191 473.63 0.0056376 37.380 0.081625
285.38 4319.9 undefined 945.04 1046.0 2.9067 295.00 0.0033898 945.04 1046.0 2.9067 2.6521 3.3200 474.62 0.0055721 37.405 0.081782 295.00 0.0033898 945.04 1046.0 2.9067 2.6521 3.3200 474.62 0.0055721 37.405 0.081782
286.38 4339.8 undefined 947.69 1049.1 2.9114 295.00 0.0033898 947.69 1049.1 2.9114 2.6555 3.3209 475.61 0.0055073 37.430 0.081940 295.00 0.0033898 947.69 1049.1 2.9114 2.6555 3.3209 475.61 0.0055073 37.430 0.081940
287.38 4359.6 undefined 950.35 1052.2 2.9162 295.00 0.0033898 950.35 1052.2 2.9162 2.6588 3.3219 476.59 0.0054431 37.455 0.082097 295.00 0.0033898 950.35 1052.2 2.9162 2.6588 3.3219 476.59 0.0054431 37.455 0.082097
288.38 4379.4 undefined 953.01 1055.4 2.9209 295.00 0.0033898 953.01 1055.4 2.9209 2.6621 3.3228 477.57 0.0053795 37.480 0.082255 295.00 0.0033898 953.01 1055.4 2.9209 2.6621 3.3228 477.57 0.0053795 37.480 0.082255
289.38 4399.3 undefined 955.67 1058.5 2.9257 295.00 0.0033898 955.67 1058.5 2.9257 2.6655 3.3238 478.55 0.0053165 37.505 0.082414 295.00 0.0033898 955.67 1058.5 2.9257 2.6655 3.3238 478.55 0.0053165 37.505 0.082414
290.38 4419.1 undefined 958.34 1061.6 2.9304 295.00 0.0033898 958.34 1061.6 2.9304 2.6688 3.3248 479.53 0.0052542 37.529 0.082573 295.00 0.0033898 958.34 1061.6 2.9304 2.6688 3.3248 479.53 0.0052542 37.529 0.082573
291.38 4438.9 undefined 961.01 1064.8 2.9351 295.00 0.0033898 961.01 1064.8 2.9351 2.6721 3.3259 480.50 0.0051925 37.554 0.082732 295.00 0.0033898 961.01 1064.8 2.9351 2.6721 3.3259 480.50 0.0051925 37.554 0.082732
292.38 4458.8 undefined 963.69 1067.9 2.9399 295.00 0.0033898 963.69 1067.9 2.9399 2.6754 3.3269 481.47 0.0051314 37.579 0.082891 295.00 0.0033898 963.69 1067.9 2.9399 2.6754 3.3269 481.47 0.0051314 37.579 0.082891
293.38 4478.6 undefined 966.36 1071.0 2.9446 295.00 0.0033898 966.36 1071.0 2.9446 2.6788 3.3280 482.44 0.0050708 37.604 0.083050 295.00 0.0033898 966.36 1071.0 2.9446 2.6788 3.3280 482.44 0.0050708 37.604 0.083050
294.38 4498.4 undefined 969.04 1074.2 2.9493 295.00 0.0033898 969.04 1074.2 2.9493 2.6821 3.3291 483.41 0.0050109 37.628 0.083210 295.00 0.0033898 969.04 1074.2 2.9493 2.6821 3.3291 483.41 0.0050109 37.628 0.083210
295.38 4518.2 undefined 971.73 1077.3 2.9541 295.00 0.0033898 971.73 1077.3 2.9541 2.6854 3.3302 484.37 0.0049515 37.653 0.083370 295.00 0.0033898 971.73 1077.3 2.9541 2.6854 3.3302 484.37 0.0049515 37.653 0.083370
296.38 4538.1 undefined 974.41 1080.5 2.9588 295.00 0.0033898 974.41 1080.5 2.9588 2.6887 3.3313 485.34 0.0048927 37.678 0.083531 295.00 0.0033898 974.41 1080.5 2.9588 2.6887 3.3313 485.34 0.0048927 37.678 0.083531
297.38 4557.9 undefined 977.10 1083.6 2.9635 295.00 0.0033898 977.10 1083.6 2.9635 2.6920 3.3324 486.30 0.0048345 37.702 0.083692 295.00 0.0033898 977.10 1083.6 2.9635 2.6920 3.3324 486.30 0.0048345 37.702 0.083692
298.38 4577.7 undefined 979.80 1086.8 2.9682 295.00 0.0033898 979.80 1086.8 2.9682 2.6953 3.3336 487.25 0.0047768 37.727 0.083853 295.00 0.0033898 979.80 1086.8 2.9682 2.6953 3.3336 487.25 0.0047768 37.727 0.083853
299.38 4597.5 undefined 982.50 1089.9 2.9729 295.00 0.0033898 982.50 1089.9 2.9729 2.6986 3.3347 488.21 0.0047196 37.752 0.084014 295.00 0.0033898 982.50 1089.9 2.9729 2.6986 3.3347 488.21 0.0047196 37.752 0.084014
300.38 4617.3 undefined 985.20 1093.1 2.9776 295.00 0.0033898 985.20 1093.1 2.9776 2.7019 3.3359 489.16 0.0046630 37.776 0.084176 295.00 0.0033898 985.20 1093.1 2.9776 2.7019 3.3359 489.16 0.0046630 37.776 0.084176