Temperature (C) Pressure (psia) Quality (l+v) Internal Energy (l+v, kJ/kg) Enthalpy (l+v, kJ/kg) Entropy (l+v, J/g*K) Density (l, kg/m3) Volume (l, m3/kg) Internal Energy (l, kJ/kg) Enthalpy (l, kJ/kg) Entropy (l, J/g*K) Cv (l, J/g*K) Cp (l, J/g*K) Sound Spd. (l, m/s) Joule-Thomson (l, F/psia) Viscosity (l, uPa*s) Therm. Cond. (l, W/m*K) Density (v, kg/m3) Volume (v, m3/kg) Internal Energy (v, kJ/kg) Enthalpy (v, kJ/kg) Entropy (v, J/g*K) Cv (v, J/g*K) Cp (v, J/g*K) Sound Spd. (v, m/s) Joule-Thomson (v, F/psia) Viscosity (v, uPa*s) Therm. Cond. (v, W/m*K)
-187.62 2.4953e-08 3.5417e-09 -196.64 -196.64 -1.3959 733.13 0.0013640 -196.64 -196.64 -1.3959 1.3553 1.9158 2136.4 -0.0077592 10960. 0.20792 1.0669e-08 9.3732e+07 350.13 366.26 5.1858 0.69067 0.87923 143.28 6.1051 2.3259 0.0017061
-186.62 3.7339e-08 5.2384e-09 -194.73 -194.73 -1.3736 732.08 0.0013660 -194.73 -194.73 -1.3736 1.3539 1.9166 2129.6 -0.0077546 10073. 0.20765 1.5780e-08 6.3371e+07 350.82 367.14 5.1200 0.69462 0.88317 144.03 5.9178 2.3534 0.0017533
-185.62 5.5322e-08 7.6725e-09 -192.81 -192.81 -1.3516 731.04 0.0013679 -192.81 -192.81 -1.3516 1.3525 1.9174 2122.9 -0.0077498 9276.1 0.20737 2.3112e-08 4.3267e+07 351.52 368.02 5.0561 0.69857 0.88713 144.77 5.7383 2.3808 0.0018007
-184.62 8.1182e-08 1.1132e-08 -190.89 -190.89 -1.3298 730.00 0.0013699 -190.89 -190.89 -1.3298 1.3513 1.9182 2116.1 -0.0077448 8557.8 0.20708 3.3533e-08 2.9821e+07 352.22 368.91 4.9939 0.70253 0.89108 145.51 5.5662 2.4083 0.0018485
-183.62 1.1803e-07 1.6004e-08 -188.97 -188.97 -1.3083 728.96 0.0013718 -188.97 -188.97 -1.3083 1.3501 1.9191 2109.3 -0.0077395 7909.8 0.20678 4.8211e-08 2.0742e+07 352.92 369.81 4.9333 0.70648 0.89504 146.24 5.4011 2.4357 0.0018965
-182.62 1.7009e-07 2.2807e-08 -187.05 -187.05 -1.2869 727.92 0.0013738 -187.05 -187.05 -1.2869 1.3490 1.9201 2102.5 -0.0077340 7324.3 0.20647 6.8704e-08 1.4555e+07 353.63 370.70 4.8744 0.71043 0.89899 146.97 5.2426 2.4632 0.0019448
-181.62 2.4299e-07 3.2226e-08 -185.13 -185.13 -1.2658 726.88 0.0013757 -185.13 -185.13 -1.2658 1.3480 1.9210 2095.7 -0.0077283 6794.5 0.20616 9.7079e-08 1.0301e+07 354.35 371.60 4.8170 0.71438 0.90294 147.69 5.0904 2.4906 0.0019934
-180.62 3.4425e-07 4.5162e-08 -183.21 -183.21 -1.2450 725.85 0.0013777 -183.21 -183.21 -1.2450 1.3470 1.9220 2088.9 -0.0077225 6314.4 0.20584 1.3605e-07 7.3504e+06 355.06 372.51 4.7612 0.71833 0.90688 148.41 4.9442 2.5181 0.0020423
-179.62 4.8378e-07 6.2789e-08 -181.29 -181.29 -1.2243 724.81 0.0013797 -181.29 -181.29 -1.2243 1.3461 1.9231 2082.0 -0.0077164 5878.8 0.20551 1.8915e-07 5.2868e+06 355.78 373.42 4.7068 0.72227 0.91082 149.13 4.8038 2.5456 0.0020915
-178.62 6.7459e-07 8.6627e-08 -179.37 -179.37 -1.2038 723.78 0.0013816 -179.37 -179.37 -1.2038 1.3453 1.9241 2075.2 -0.0077102 5482.9 0.20517 2.6096e-07 3.8320e+06 356.51 374.33 4.6538 0.72620 0.91475 149.84 4.6688 2.5731 0.0021410
-177.62 9.3358e-07 1.1863e-07 -177.44 -177.44 -1.1836 722.75 0.0013836 -177.44 -177.44 -1.1836 1.3445 1.9252 2068.4 -0.0077039 5122.6 0.20483 3.5737e-07 2.7982e+06 357.23 375.25 4.6022 0.73012 0.91867 150.54 4.5390 2.6005 0.0021907
-176.62 1.2826e-06 1.6129e-07 -175.52 -175.52 -1.1635 721.72 0.0013856 -175.52 -175.52 -1.1635 1.3437 1.9263 2061.5 -0.0076973 4794.1 0.20447 4.8588e-07 2.0581e+06 357.97 376.17 4.5519 0.73403 0.92258 151.25 4.4142 2.6280 0.0022408
-175.62 1.7496e-06 2.1776e-07 -173.59 -173.59 -1.1437 720.69 0.0013876 -173.59 -173.59 -1.1437 1.3430 1.9274 2054.7 -0.0076907 4494.3 0.20411 6.5601e-07 1.5244e+06 358.70 377.09 4.5029 0.73792 0.92648 151.95 4.2941 2.6555 0.0022912
-174.62 2.3705e-06 2.9203e-07 -171.66 -171.66 -1.1240 719.66 0.0013895 -171.66 -171.66 -1.1240 1.3423 1.9286 2047.9 -0.0076838 4220.2 0.20375 8.7976e-07 1.1367e+06 359.44 378.02 4.4551 0.74181 0.93036 152.64 4.1784 2.6830 0.0023418
-173.62 3.1903e-06 3.8908e-07 -169.73 -169.73 -1.1045 718.64 0.0013915 -169.73 -169.73 -1.1045 1.3417 1.9298 2041.0 -0.0076769 3969.3 0.20338 1.1721e-06 8.5314e+05 360.19 378.95 4.4085 0.74568 0.93423 153.33 4.0671 2.7105 0.0023928
-172.62 4.2661e-06 5.1511e-07 -167.80 -167.80 -1.0852 717.61 0.0013935 -167.80 -167.80 -1.0852 1.3411 1.9310 2034.2 -0.0076698 3739.3 0.20300 1.5518e-06 6.4441e+05 360.93 379.89 4.3631 0.74953 0.93809 154.02 3.9599 2.7379 0.0024440
-171.62 5.6692e-06 6.7778e-07 -165.87 -165.87 -1.0661 716.58 0.0013955 -165.87 -165.87 -1.0661 1.3405 1.9322 2027.3 -0.0076625 3528.0 0.20261 2.0419e-06 4.8974e+05 361.69 380.83 4.3188 0.75337 0.94193 154.71 3.8566 2.7654 0.0024955
-170.62 7.4884e-06 8.8653e-07 -163.94 -163.94 -1.0472 715.56 0.0013975 -163.94 -163.94 -1.0472 1.3400 1.9334 2020.5 -0.0076552 3333.8 0.20222 2.6708e-06 3.7442e+05 362.44 381.77 4.2755 0.75720 0.94575 155.39 3.7570 2.7929 0.0025473
-169.62 9.8334e-06 1.1529e-06 -162.00 -162.00 -1.0284 714.54 0.0013995 -162.00 -162.00 -1.0284 1.3395 1.9347 2013.6 -0.0076477 3154.9 0.20182 3.4733e-06 2.8791e+05 363.20 382.72 4.2334 0.76100 0.94956 156.07 3.6609 2.8204 0.0025994
-168.62 1.2839e-05 1.4909e-06 -160.07 -160.07 -1.0098 713.52 0.0014015 -160.07 -160.07 -1.0098 1.3390 1.9359 2006.8 -0.0076401 2989.9 0.20141 4.4917e-06 2.2263e+05 363.96 383.67 4.1922 0.76479 0.95335 156.74 3.5683 2.8479 0.0026518
-167.62 1.6672e-05 1.9176e-06 -158.13 -158.13 -0.99133 712.49 0.0014035 -158.13 -158.13 -0.99134 1.3386 1.9372 2000.0 -0.0076323 2837.5 0.20100 5.7771e-06 1.7310e+05 364.73 384.63 4.1521 0.76856 0.95712 157.41 3.4790 2.8754 0.0027045
-166.62 2.1533e-05 2.4534e-06 -156.19 -156.19 -0.97305 711.47 0.0014055 -156.19 -156.19 -0.97306 1.3382 1.9385 1993.1 -0.0076245 2696.5 0.20058 7.3914e-06 1.3529e+05 365.50 385.59 4.1129 0.77232 0.96087 158.08 3.3927 2.9029 0.0027575
-165.62 2.7666e-05 3.1229e-06 -154.25 -154.25 -0.95493 710.45 0.0014075 -154.25 -154.25 -0.95494 1.3378 1.9398 1986.3 -0.0076165 2566.0 0.20016 9.4084e-06 1.0629e+05 366.27 386.55 4.0746 0.77605 0.96460 158.75 3.3095 2.9304 0.0028108
-164.62 3.5367e-05 3.9553e-06 -152.31 -152.31 -0.93696 709.44 0.0014096 -152.31 -152.31 -0.93698 1.3375 1.9411 1979.4 -0.0076084 2444.9 0.19973 1.1916e-05 83918. 367.05 387.52 4.0372 0.77976 0.96832 159.41 3.2291 2.9579 0.0028643
-163.62 4.4989e-05 4.9855e-06 -150.37 -150.37 -0.91915 708.42 0.0014116 -150.37 -150.37 -0.91917 1.3371 1.9424 1972.6 -0.0076002 2332.3 0.19930 1.5020e-05 66577. 367.83 388.49 4.0008 0.78346 0.97201 160.07 3.1514 2.9854 0.0029182
-162.62 5.6956e-05 6.2546e-06 -148.43 -148.42 -0.90148 707.40 0.0014136 -148.43 -148.43 -0.90151 1.3368 1.9437 1965.8 -0.0075919 2227.7 0.19886 1.8844e-05 53068. 368.62 389.46 3.9651 0.78713 0.97569 160.72 3.0764 3.0129 0.0029723
-161.62 7.1773e-05 7.8109e-06 -146.48 -146.48 -0.88396 706.38 0.0014157 -146.48 -146.48 -0.88400 1.3365 1.9451 1959.0 -0.0075834 2130.2 0.19841 2.3533e-05 42494. 369.41 390.44 3.9304 0.79079 0.97935 161.38 3.0038 3.0404 0.0030268
-160.62 9.0036e-05 9.7113e-06 -144.53 -144.53 -0.86658 705.37 0.0014177 -144.54 -144.54 -0.86663 1.3363 1.9465 1952.1 -0.0075748 2039.2 0.19796 2.9258e-05 34178. 370.20 391.42 3.8964 0.79443 0.98298 162.03 2.9337 3.0679 0.0030815
-159.62 0.00011245 1.2022e-05 -142.58 -142.58 -0.84934 704.35 0.0014197 -142.59 -142.59 -0.84940 1.3360 1.9478 1945.3 -0.0075661 1954.2 0.19751 3.6221e-05 27609. 371.00 392.40 3.8632 0.79805 0.98660 162.68 2.8658 3.0955 0.0031365
-158.62 0.00013985 1.4821e-05 -140.63 -140.63 -0.83224 703.34 0.0014218 -140.64 -140.64 -0.83231 1.3358 1.9492 1938.5 -0.0075573 1874.8 0.19705 4.4652e-05 22395. 371.80 393.39 3.8307 0.80164 0.99020 163.32 2.8002 3.1230 0.0031918
-157.62 0.00017320 1.8196e-05 -138.68 -138.68 -0.81528 702.32 0.0014238 -138.69 -138.69 -0.81536 1.3356 1.9506 1931.7 -0.0075484 1800.3 0.19658 5.4822e-05 18241. 372.60 394.38 3.7990 0.80522 0.99378 163.96 2.7367 3.1505 0.0032474
-156.62 0.00021364 2.2251e-05 -136.73 -136.73 -0.79844 701.31 0.0014259 -136.74 -136.74 -0.79854 1.3354 1.9520 1924.9 -0.0075393 1730.5 0.19611 6.7040e-05 14916. 373.41 395.38 3.7680 0.80878 0.99734 164.60 2.6752 3.1780 0.0033033
-155.62 0.00026248 2.7105e-05 -134.77 -134.77 -0.78173 700.30 0.0014280 -134.79 -134.79 -0.78185 1.3352 1.9534 1918.1 -0.0075302 1664.9 0.19564 8.1666e-05 12245. 374.22 396.38 3.7377 0.81232 1.0009 165.24 2.6157 3.2055 0.0033595
-154.62 0.00032125 3.2895e-05 -132.82 -132.82 -0.76515 699.29 0.0014300 -132.83 -132.83 -0.76530 1.3350 1.9548 1911.3 -0.0075209 1603.3 0.19516 9.9109e-05 10090. 375.03 397.38 3.7081 0.81585 1.0044 165.87 2.5580 3.2330 0.0034160
-153.62 0.00039171 3.9774e-05 -130.86 -130.86 -0.74869 698.27 0.0014321 -130.88 -130.88 -0.74887 1.3349 1.9563 1904.5 -0.0075114 1545.3 0.19468 0.00011984 8344.6 375.85 398.39 3.6792 0.81935 1.0079 166.50 2.5022 3.2606 0.0034727
-152.62 0.00047590 4.7921e-05 -128.90 -128.90 -0.73235 697.26 0.0014342 -128.92 -128.92 -0.73256 1.3348 1.9577 1897.8 -0.0075019 1490.6 0.19419 0.00014439 6925.9 376.67 399.40 3.6509 0.82284 1.0114 167.13 2.4481 3.2881 0.0035298
-151.62 0.00057613 5.7537e-05 -126.93 -126.93 -0.71613 696.25 0.0014363 -126.96 -126.96 -0.71638 1.3346 1.9592 1891.0 -0.0074922 1438.9 0.19370 0.00017336 5768.4 377.49 400.41 3.6232 0.82631 1.0149 167.76 2.3957 3.3156 0.0035872
-150.62 0.00069507 6.8848e-05 -124.97 -124.97 -0.70002 695.24 0.0014384 -125.00 -125.00 -0.70032 1.3345 1.9606 1884.2 -0.0074824 1390.2 0.19320 0.00020744 4820.7 378.32 401.42 3.5962 0.82976 1.0183 168.38 2.3448 3.3431 0.0036448
-149.62 0.00083574 8.2111e-05 -123.00 -123.00 -0.68403 694.23 0.0014404 -123.04 -123.04 -0.68438 1.3345 1.9621 1877.4 -0.0074724 1344.0 0.19270 0.00024740 4042.0 379.15 402.44 3.5697 0.83319 1.0218 169.00 2.2956 3.3706 0.0037027
-148.62 0.0010016 9.7615e-05 -121.03 -121.03 -0.66814 693.22 0.0014425 -121.08 -121.08 -0.66855 1.3344 1.9636 1870.7 -0.0074623 1300.3 0.19220 0.00029412 3400.0 379.99 403.47 3.5438 0.83661 1.0252 169.62 2.2478 3.3982 0.0037610
-147.62 0.0011965 0.00011568 -119.06 -119.05 -0.65235 692.21 0.0014447 -119.11 -119.11 -0.65284 1.3343 1.9651 1863.9 -0.0074521 1258.9 0.19169 0.00034856 2869.0 380.83 404.49 3.5185 0.84001 1.0286 170.24 2.2014 3.4257 0.0038195
-146.62 0.0014249 0.00013668 -117.08 -117.08 -0.63667 691.20 0.0014468 -117.15 -117.15 -0.63724 1.3343 1.9666 1857.2 -0.0074417 1219.6 0.19117 0.00041181 2428.3 381.67 405.52 3.4938 0.84340 1.0320 170.85 2.1565 3.4532 0.0038783
-145.62 0.0016917 0.00016100 -115.10 -115.10 -0.62109 690.19 0.0014489 -115.18 -115.18 -0.62175 1.3343 1.9682 1850.4 -0.0074312 1182.3 0.19066 0.00048510 2061.4 382.51 406.56 3.4695 0.84677 1.0353 171.46 2.1128 3.4807 0.0039374
-144.62 0.0020026 0.00018909 -113.12 -113.11 -0.60560 689.18 0.0014510 -113.21 -113.21 -0.60637 1.3343 1.9697 1843.7 -0.0074206 1146.8 0.19014 0.00056976 1755.1 383.36 407.59 3.4458 0.85012 1.0387 172.07 2.0705 3.5082 0.0039967
-143.62 0.0023637 0.00022147 -111.13 -111.13 -0.59021 688.17 0.0014531 -111.24 -111.24 -0.59110 1.3343 1.9713 1836.9 -0.0074098 1113.0 0.18962 0.00066731 1498.6 384.21 408.63 3.4226 0.85346 1.0420 172.68 2.0294 3.5358 0.0040564
-142.62 0.0027820 0.00025866 -109.14 -109.14 -0.57490 687.16 0.0014553 -109.27 -109.27 -0.57593 1.3343 1.9728 1830.2 -0.0073988 1080.8 0.18909 0.00077939 1283.1 385.07 409.68 3.3999 0.85679 1.0454 173.28 1.9896 3.5633 0.0041164
-141.62 0.0032653 0.00030129 -107.15 -107.14 -0.55968 686.15 0.0014574 -107.30 -107.30 -0.56087 1.3343 1.9744 1823.5 -0.0073878 1050.1 0.18856 0.00090784 1101.5 385.93 410.72 3.3777 0.86011 1.0487 173.88 1.9508 3.5908 0.0041766
-140.62 0.0038222 0.00035002 -105.15 -105.14 -0.54454 685.14 0.0014596 -105.32 -105.32 -0.54591 1.3344 1.9760 1816.7 -0.0073765 1020.7 0.18803 0.0010547 948.16 386.79 411.77 3.3560 0.86341 1.0520 174.48 1.9133 3.6183 0.0042372
-139.62 0.0044623 0.00040558 -103.15 -103.14 -0.52948 684.13 0.0014617 -103.34 -103.34 -0.53105 1.3344 1.9776 1810.0 -0.0073651 992.74 0.18749 0.0012221 818.26 387.65 412.83 3.3347 0.86670 1.0553 175.08 1.8768 3.6459 0.0042980
-138.62 0.0051963 0.00046878 -101.14 -101.12 -0.51449 683.12 0.0014639 -101.37 -101.37 -0.51629 1.3345 1.9792 1803.3 -0.0073536 965.97 0.18695 0.0014125 707.94 388.52 413.88 3.3139 0.86998 1.0586 175.67 1.8413 3.6734 0.0043592
-137.62 0.0060358 0.00054050 -99.122 -99.108 -0.49957 682.11 0.0014660 -99.386 -99.386 -0.50162 1.3346 1.9808 1796.6 -0.0073419 940.35 0.18641 0.0016287 614.00 389.39 414.94 3.2935 0.87325 1.0619 176.26 1.8069 3.7009 0.0044206
-136.62 0.0069938 0.00062170 -97.101 -97.085 -0.48472 681.10 0.0014682 -97.404 -97.404 -0.48705 1.3347 1.9825 1789.9 -0.0073301 915.81 0.18586 0.0018733 533.80 390.26 416.00 3.2735 0.87650 1.0651 176.85 1.7734 3.7284 0.0044823
-135.62 0.0080843 0.00071342 -95.074 -95.055 -0.46992 680.09 0.0014704 -95.421 -95.421 -0.47258 1.3348 1.9841 1783.2 -0.0073180 892.30 0.18531 0.0021497 465.17 391.14 417.07 3.2540 0.87975 1.0684 177.44 1.7409 3.7559 0.0045443
-134.62 0.0093230 0.00081680 -93.040 -93.018 -0.45518 679.08 0.0014726 -93.436 -93.436 -0.45820 1.3350 1.9858 1776.5 -0.0073059 869.75 0.18476 0.0024613 406.30 392.02 418.14 3.2348 0.88299 1.0716 178.02 1.7093 3.7834 0.0046066
-133.62 0.010727 0.00093307 -90.998 -90.973 -0.44049 678.07 0.0014748 -91.450 -91.449 -0.44391 1.3351 1.9875 1769.8 -0.0072935 848.11 0.18421 0.0028116 355.67 392.91 419.21 3.2161 0.88622 1.0749 178.61 1.6786 3.8109 0.0046691
-132.62 0.012315 0.0010636 -88.947 -88.919 -0.42585 677.06 0.0014770 -89.461 -89.461 -0.42971 1.3353 1.9892 1763.1 -0.0072810 827.32 0.18365 0.0032049 312.03 393.79 420.29 3.1977 0.88944 1.0781 179.19 1.6488 3.8385 0.0047320
-131.62 0.014106 0.0012097 -86.888 -86.855 -0.41125 676.04 0.0014792 -87.471 -87.471 -0.41560 1.3354 1.9909 1756.4 -0.0072684 807.34 0.18309 0.0036453 274.33 394.68 421.36 3.1798 0.89266 1.0813 179.76 1.6197 3.8660 0.0047951
-130.62 0.016124 0.0013731 -84.819 -84.782 -0.39668 675.03 0.0014814 -85.479 -85.479 -0.40157 1.3356 1.9926 1749.7 -0.0072555 788.12 0.18253 0.0041375 241.69 395.58 422.44 3.1622 0.89586 1.0846 180.34 1.5915 3.8935 0.0048586
-129.62 0.018392 0.0015553 -82.739 -82.697 -0.38214 674.02 0.0014836 -83.486 -83.486 -0.38763 1.3358 1.9944 1743.0 -0.0072425 769.63 0.18196 0.0046867 213.37 396.47 423.53 3.1450 0.89906 1.0878 180.91 1.5641 3.9210 0.0049223
-128.62 0.020935 0.0017582 -80.649 -80.601 -0.36762 673.01 0.0014859 -81.491 -81.490 -0.37378 1.3360 1.9961 1736.3 -0.0072294 751.83 0.18140 0.0052981 188.75 397.37 424.62 3.1281 0.90226 1.0910 181.48 1.5374 3.9485 0.0049863
-127.62 0.023783 0.0019837 -78.546 -78.491 -0.35312 672.00 0.0014881 -79.494 -79.493 -0.36001 1.3363 1.9979 1729.6 -0.0072160 734.67 0.18083 0.0059776 167.29 398.27 425.71 3.1116 0.90545 1.0942 182.05 1.5114 3.9760 0.0050506
-126.62 0.026966 0.0022338 -76.430 -76.368 -0.33864 670.98 0.0014904 -77.495 -77.495 -0.34632 1.3365 1.9997 1722.9 -0.0072025 718.14 0.18025 0.0067313 148.56 399.18 426.80 3.0954 0.90863 1.0974 182.62 1.4861 4.0035 0.0051152
-125.62 0.030515 0.0025107 -74.300 -74.230 -0.32415 669.97 0.0014926 -75.494 -75.494 -0.33272 1.3368 2.0015 1716.2 -0.0071888 702.18 0.17968 0.0075660 132.17 400.09 427.89 3.0795 0.91181 1.1006 183.18 1.4615 4.0310 0.0051800
-124.62 0.034467 0.0028168 -72.155 -72.076 -0.30966 668.95 0.0014949 -73.492 -73.492 -0.31919 1.3371 2.0033 1709.5 -0.0071749 686.79 0.17910 0.0084885 117.81 401.00 428.99 3.0640 0.91499 1.1038 183.74 1.4375 4.0584 0.0052452
-123.62 0.038859 0.0031546 -69.994 -69.905 -0.29516 667.94 0.0014971 -71.488 -71.487 -0.30574 1.3374 2.0051 1702.8 -0.0071609 671.93 0.17852 0.0095065 105.19 401.91 430.10 3.0488 0.91816 1.1070 184.30 1.4141 4.0859 0.0053106
-122.62 0.043731 0.0035267 -67.816 -67.715 -0.28064 666.92 0.0014994 -69.482 -69.481 -0.29237 1.3377 2.0070 1696.2 -0.0071466 657.57 0.17794 0.010628 94.092 402.83 431.20 3.0339 0.92134 1.1102 184.86 1.3913 4.1134 0.0053764
-121.62 0.049128 0.0039360 -65.619 -65.506 -0.26609 665.91 0.0015017 -67.474 -67.473 -0.27907 1.3380 2.0089 1689.5 -0.0071322 643.70 0.17736 0.011861 84.309 403.75 432.31 3.0193 0.92451 1.1134 185.41 1.3691 4.1409 0.0054424
-120.62 0.055096 0.0043853 -63.402 -63.276 -0.25151 664.89 0.0015040 -65.464 -65.463 -0.26585 1.3384 2.0107 1682.8 -0.0071176 630.28 0.17678 0.013215 75.669 404.67 433.42 3.0050 0.92767 1.1166 185.96 1.3475 4.1683 0.0055087
-119.62 0.061684 0.0048780 -61.164 -61.022 -0.23688 663.87 0.0015063 -63.452 -63.452 -0.25271 1.3387 2.0126 1676.1 -0.0071028 617.30 0.17619 0.014700 68.027 405.60 434.53 2.9909 0.93084 1.1198 186.51 1.3264 4.1958 0.0055752
-118.62 0.068946 0.0054172 -58.904 -58.745 -0.22221 662.86 0.0015086 -61.439 -61.438 -0.23963 1.3391 2.0146 1669.4 -0.0070878 604.74 0.17560 0.016325 61.255 406.53 435.64 2.9772 0.93401 1.1231 187.06 1.3058 4.2233 0.0056421
-117.62 0.076937 0.0060066 -56.619 -56.442 -0.20747 661.84 0.0015109 -59.423 -59.422 -0.22663 1.3395 2.0165 1662.8 -0.0070726 592.58 0.17501 0.018101 55.245 407.46 436.76 2.9638 0.93718 1.1263 187.60 1.2857 4.2507 0.0057092
-116.62 0.085718 0.0066498 -54.308 -54.111 -0.19266 660.82 0.0015133 -57.406 -57.405 -0.21370 1.3400 2.0184 1656.1 -0.0070573 580.80 0.17442 0.020040 49.901 408.39 437.88 2.9506 0.94035 1.1295 188.14 1.2660 4.2782 0.0057767
-115.62 0.095353 0.0073507 -51.970 -51.751 -0.17777 659.80 0.0015156 -55.386 -55.385 -0.20084 1.3404 2.0204 1649.4 -0.0070417 569.38 0.17383 0.022152 45.142 409.33 439.01 2.9377 0.94352 1.1327 188.68 1.2468 4.3056 0.0058444
-114.62 0.10591 0.0081135 -49.603 -49.360 -0.16279 658.78 0.0015180 -53.365 -53.364 -0.18805 1.3409 2.0224 1642.7 -0.0070260 558.32 0.17323 0.024451 40.898 410.27 440.13 2.9250 0.94669 1.1360 189.22 1.2281 4.3330 0.0059123
-113.62 0.11746 0.0089425 -47.205 -46.935 -0.14771 657.76 0.0015203 -51.342 -51.340 -0.17533 1.3413 2.0244 1636.0 -0.0070100 547.59 0.17264 0.026949 37.107 411.21 441.26 2.9126 0.94987 1.1392 189.75 1.2097 4.3604 0.0059806
-112.62 0.13008 0.0098422 -44.774 -44.475 -0.13252 656.73 0.0015227 -49.316 -49.315 -0.16267 1.3418 2.0264 1629.3 -0.0069938 537.18 0.17204 0.029661 33.715 412.16 442.39 2.9005 0.95305 1.1424 190.28 1.1918 4.3879 0.0060491
-111.62 0.14384 0.010817 -42.309 -41.978 -0.11721 655.71 0.0015251 -47.289 -47.287 -0.15008 1.3424 2.0285 1622.7 -0.0069774 527.08 0.17144 0.032600 30.675 413.10 443.53 2.8885 0.95623 1.1457 190.81 1.1742 4.4153 0.0061180
-110.62 0.15884 0.011873 -39.806 -39.441 -0.10176 654.69 0.0015274 -45.259 -45.258 -0.13755 1.3429 2.0305 1616.0 -0.0069609 517.28 0.17084 0.035781 27.948 414.06 444.66 2.8769 0.95942 1.1490 191.34 1.1570 4.4427 0.0061871
-109.62 0.17516 0.013014 -37.264 -36.862 -0.086173 653.66 0.0015298 -43.228 -43.226 -0.12509 1.3435 2.0326 1609.3 -0.0069441 507.76 0.17024 0.039220 25.497 415.01 445.80 2.8654 0.96261 1.1522 191.86 1.1402 4.4701 0.0062564
-108.62 0.19290 0.014246 -34.681 -34.238 -0.070426 652.64 0.0015322 -41.194 -41.192 -0.11269 1.3441 2.0347 1602.6 -0.0069271 498.51 0.16964 0.042933 23.292 415.96 446.94 2.8542 0.96581 1.1555 192.38 1.1236 4.4974 0.0063261
-107.62 0.21215 0.015575 -32.055 -31.567 -0.054511 651.61 0.0015347 -39.158 -39.156 -0.10036 1.3447 2.0369 1595.9 -0.0069098 489.52 0.16903 0.046937 21.305 416.92 448.09 2.8433 0.96901 1.1588 192.90 1.1075 4.5248 0.0063960
-106.62 0.23301 0.017006 -29.383 -28.847 -0.038415 650.58 0.0015371 -37.120 -37.118 -0.088082 1.3453 2.0390 1589.2 -0.0068924 480.79 0.16843 0.051250 19.512 417.88 449.23 2.8325 0.97222 1.1621 193.41 1.0916 4.5522 0.0064662
-105.62 0.25561 0.018546 -26.662 -26.075 -0.022126 649.55 0.0015395 -35.080 -35.078 -0.075868 1.3460 2.0412 1582.6 -0.0068747 472.30 0.16782 0.055891 17.892 418.85 450.38 2.8220 0.97544 1.1655 193.93 1.0760 4.5795 0.0065367
-104.62 0.28004 0.020201 -23.890 -23.247 -0.0056308 648.52 0.0015420 -33.038 -33.035 -0.063714 1.3467 2.0434 1575.9 -0.0068569 464.04 0.16721 0.060878 16.426 419.81 451.53 2.8116 0.97867 1.1688 194.44 1.0608 4.6069 0.0066074
-103.62 0.30643 0.021977 -21.065 -20.361 0.011084 647.49 0.0015444 -30.994 -30.991 -0.051619 1.3474 2.0456 1569.2 -0.0068387 456.00 0.16660 0.066231 15.099 420.78 452.68 2.8015 0.98191 1.1722 194.94 1.0458 4.6342 0.0066785
-102.62 0.33490 0.023882 -18.184 -17.414 0.028031 646.46 0.0015469 -28.947 -28.944 -0.039582 1.3481 2.0478 1562.5 -0.0068204 448.18 0.16600 0.071971 13.894 421.75 453.84 2.7916 0.98516 1.1755 195.44 1.0310 4.6615 0.0067498
-101.62 0.36558 0.025922 -15.243 -14.403 0.045225 645.43 0.0015494 -26.898 -26.894 -0.027602 1.3489 2.0501 1555.8 -0.0068018 440.57 0.16539 0.078120 12.801 422.73 454.99 2.7818 0.98841 1.1789 195.95 1.0166 4.6888 0.0068213
-100.62 0.39862 0.028105 -12.241 -11.324 0.062678 644.39 0.0015519 -24.847 -24.843 -0.015678 1.3497 2.0524 1549.1 -0.0067830 433.16 0.16478 0.084699 11.807 423.70 456.15 2.7723 0.99168 1.1823 196.44 1.0024 4.7161 0.0068932
-99.625 0.43414 0.030439 -9.1732 -8.1754 0.080407 643.36 0.0015544 -22.794 -22.789 -0.0038103 1.3505 2.0547 1542.4 -0.0067639 425.95 0.16416 0.091731 10.901 424.68 457.31 2.7630 0.99496 1.1858 196.94 0.98838 4.7434 0.0069653
-98.625 0.47230 0.032931 -6.0378 -4.9523 0.098423 642.32 0.0015569 -20.738 -20.733 0.0080027 1.3514 2.0570 1535.7 -0.0067447 418.92 0.16355 0.099240 10.077 425.66 458.48 2.7538 0.99825 1.1892 197.43 0.97464 4.7707 0.0070377
-97.625 0.51325 0.035589 -2.8313 -1.6517 0.11674 641.28 0.0015594 -18.680 -18.674 0.019762 1.3522 2.0594 1529.0 -0.0067251 412.07 0.16294 0.10725 9.3239 426.65 459.64 2.7448 1.0016 1.1927 197.92 0.96112 4.7979 0.0071103
-96.625 0.55714 0.038422 0.44956 1.7300 0.13538 640.24 0.0015619 -16.620 -16.614 0.031467 1.3531 2.0618 1522.3 -0.0067053 405.39 0.16233 0.11579 8.6365 427.63 460.81 2.7360 1.0049 1.1962 198.40 0.94783 4.8251 0.0071832
-95.625 0.60416 0.041439 3.8080 5.1965 0.15435 639.20 0.0015645 -14.557 -14.550 0.043120 1.3540 2.0642 1515.7 -0.0066853 398.88 0.16171 0.12488 8.0078 428.62 461.98 2.7274 1.0082 1.1997 198.88 0.93475 4.8524 0.0072564
-94.625 0.65446 0.044648 7.2473 8.7514 0.17367 638.16 0.0015670 -12.491 -12.484 0.054721 1.3550 2.0667 1509.0 -0.0066650 392.53 0.16110 0.13455 7.4323 429.61 463.15 2.7189 1.0116 1.2032 199.36 0.92188 4.8796 0.0073299
-93.625 0.70822 0.048058 10.771 12.399 0.19336 637.12 0.0015696 -10.424 -10.416 0.066271 1.3560 2.0691 1502.3 -0.0066444 386.34 0.16048 0.14482 6.9050 430.60 464.32 2.7107 1.0149 1.2068 199.83 0.90921 4.9068 0.0074036
-92.625 0.76564 0.051679 14.383 16.142 0.21342 636.07 0.0015722 -8.3535 -8.3452 0.077771 1.3570 2.0716 1495.6 -0.0066236 380.31 0.15987 0.15573 6.4212 431.60 465.49 2.7025 1.0183 1.2104 200.30 0.89673 4.9340 0.0074776
-91.625 0.82689 0.055521 18.086 19.986 0.23387 635.02 0.0015747 -6.2808 -6.2719 0.089220 1.3580 2.0742 1488.9 -0.0066025 374.41 0.15925 0.16731 5.9769 432.59 466.67 2.6946 1.0217 1.2140 200.77 0.88445 4.9611 0.0075518
-90.625 0.89218 0.059594 21.884 23.935 0.25474 633.98 0.0015773 -4.2056 -4.1959 0.10062 1.3591 2.0767 1482.2 -0.0065811 368.66 0.15864 0.17958 5.5685 433.59 467.84 2.6868 1.0251 1.2177 201.24 0.87236 4.9883 0.0076263
-89.625 0.96172 0.063907 25.782 27.992 0.27603 632.93 0.0015800 -2.1279 -2.1174 0.11197 1.3602 2.0793 1475.5 -0.0065595 363.05 0.15802 0.19258 5.1928 434.59 469.02 2.6791 1.0285 1.2213 201.70 0.86045 5.0154 0.0077011
-88.625 1.0357 0.068472 29.782 32.162 0.29777 631.88 0.0015826 -0.047516 -0.036215 0.12328 1.3613 2.0819 1468.8 -0.0065375 357.56 0.15740 0.20633 4.8466 435.59 470.20 2.6717 1.0320 1.2250 202.15 0.84873 5.0425 0.0077761
-87.625 1.1144 0.073299 33.888 36.449 0.31997 630.83 0.0015852 2.0355 2.0476 0.13454 1.3625 2.0846 1462.1 -0.0065153 352.21 0.15679 0.22087 4.5276 436.60 471.39 2.6643 1.0354 1.2288 202.61 0.83718 5.0696 0.0078514
-86.625 1.1979 0.078398 38.106 40.859 0.34264 629.77 0.0015879 4.1211 4.1342 0.14575 1.3637 2.0873 1455.4 -0.0064928 346.98 0.15617 0.23623 4.2331 437.61 472.57 2.6571 1.0389 1.2325 203.06 0.82580 5.0967 0.0079270
-85.625 1.2866 0.083782 42.437 45.394 0.36580 628.72 0.0015905 6.2094 6.2235 0.15691 1.3649 2.0900 1448.8 -0.0064701 341.87 0.15555 0.25245 3.9612 438.61 473.75 2.6501 1.0424 1.2363 203.50 0.81460 5.1237 0.0080028
-84.625 1.3806 0.089462 46.888 50.061 0.38947 627.66 0.0015932 8.3004 8.3155 0.16803 1.3661 2.0927 1442.1 -0.0064470 336.87 0.15494 0.26956 3.7097 439.63 474.94 2.6432 1.0460 1.2402 203.95 0.80356 5.1508 0.0080789
-83.625 1.4803 0.095450 51.461 54.863 0.41366 626.60 0.0015959 10.394 10.410 0.17911 1.3674 2.0955 1435.4 -0.0064236 331.99 0.15432 0.28760 3.4771 440.64 476.13 2.6364 1.0495 1.2440 204.38 0.79269 5.1778 0.0081553
-82.625 1.5858 0.10176 56.161 59.806 0.43839 625.54 0.0015986 12.491 12.508 0.19014 1.3687 2.0983 1428.7 -0.0063999 327.22 0.15370 0.30659 3.2616 441.65 477.31 2.6298 1.0531 1.2479 204.82 0.78199 5.2048 0.0082319
-81.625 1.6975 0.10840 60.993 64.894 0.46369 624.48 0.0016013 14.590 14.609 0.20113 1.3700 2.1012 1422.0 -0.0063759 322.55 0.15309 0.32659 3.0619 442.67 478.50 2.6233 1.0567 1.2519 205.25 0.77144 5.2318 0.0083088
-80.625 1.8155 0.11538 65.960 70.132 0.48955 623.42 0.0016041 16.692 16.712 0.21208 1.3714 2.1041 1415.4 -0.0063516 317.99 0.15247 0.34763 2.8766 443.69 479.70 2.6169 1.0603 1.2558 205.67 0.76106 5.2587 0.0083860
-79.625 1.9402 0.12272 71.067 75.526 0.51601 622.36 0.0016068 18.797 18.819 0.22299 1.3728 2.1070 1408.7 -0.0063270 313.52 0.15186 0.36974 2.7046 444.71 480.89 2.6106 1.0639 1.2598 206.10 0.75083 5.2857 0.0084634
-78.625 2.0718 0.13044 76.318 81.080 0.54308 621.29 0.0016096 20.905 20.928 0.23385 1.3742 2.1099 1402.0 -0.0063021 309.15 0.15124 0.39296 2.5448 445.73 482.08 2.6045 1.0676 1.2639 206.51 0.74076 5.3126 0.0085411
-77.625 2.2107 0.13854 81.718 86.799 0.57077 620.22 0.0016123 23.016 23.040 0.24468 1.3757 2.1129 1395.3 -0.0062768 304.88 0.15062 0.41735 2.3961 446.75 483.27 2.5985 1.0712 1.2680 206.93 0.73084 5.3395 0.0086190
-76.625 2.3571 0.14703 87.272 92.689 0.59910 619.15 0.0016151 25.130 25.156 0.25546 1.3772 2.1159 1388.7 -0.0062512 300.69 0.15001 0.44292 2.2577 447.78 484.47 2.5926 1.0749 1.2721 207.34 0.72107 5.3664 0.0086972
-75.625 2.5113 0.15594 92.984 98.755 0.62808 618.08 0.0016179 27.247 27.275 0.26620 1.3787 2.1190 1382.0 -0.0062253 296.59 0.14939 0.46974 2.1288 448.81 485.67 2.5869 1.0787 1.2762 207.74 0.71146 5.3933 0.0087757
-74.625 2.6736 0.16527 98.858 105.00 0.65775 617.01 0.0016207 29.366 29.396 0.27691 1.3802 2.1221 1375.4 -0.0061990 292.58 0.14878 0.49783 2.0087 449.83 486.86 2.5812 1.0824 1.2804 208.14 0.70200 5.4201 0.0088544
-73.625 2.8444 0.17505 104.90 111.44 0.68810 615.93 0.0016236 31.489 31.521 0.28758 1.3818 2.1252 1368.7 -0.0061724 288.65 0.14816 0.52725 1.8966 450.86 488.06 2.5757 1.0862 1.2847 208.54 0.69268 5.4469 0.0089334
-72.625 3.0240 0.18527 111.11 118.06 0.71916 614.85 0.0016264 33.615 33.649 0.29821 1.3834 2.1284 1362.0 -0.0061454 284.81 0.14755 0.55804 1.7920 451.90 489.26 2.5703 1.0900 1.2889 208.93 0.68351 5.4737 0.0090126
-71.625 3.2127 0.19597 117.50 124.89 0.75095 613.78 0.0016293 35.745 35.781 0.30880 1.3851 2.1316 1355.4 -0.0061181 281.03 0.14694 0.59024 1.6942 452.93 490.46 2.5650 1.0938 1.2932 209.32 0.67448 5.5005 0.0090922
-70.625 3.4108 0.20716 124.07 131.91 0.78348 612.69 0.0016321 37.877 37.915 0.31935 1.3867 2.1349 1348.7 -0.0060904 277.34 0.14632 0.62390 1.6028 453.96 491.66 2.5598 1.0976 1.2976 209.70 0.66560 5.5273 0.0091720
-69.625 3.6187 0.21885 130.83 139.15 0.81676 611.61 0.0016350 40.013 40.053 0.32987 1.3884 2.1382 1342.1 -0.0060624 273.72 0.14571 0.65906 1.5173 455.00 492.86 2.5547 1.1015 1.3020 210.08 0.65687 5.5540 0.0092520
-68.625 3.8367 0.23105 137.78 146.60 0.85082 610.53 0.0016379 42.152 42.195 0.34036 1.3902 2.1415 1335.5 -0.0060339 270.17 0.14510 0.69577 1.4372 456.04 494.06 2.5497 1.1054 1.3064 210.45 0.64827 5.5807 0.0093324
-67.625 4.0652 0.24378 144.92 154.27 0.88567 609.44 0.0016409 44.294 44.340 0.35080 1.3919 2.1449 1328.8 -0.0060051 266.69 0.14449 0.73408 1.3622 457.08 495.26 2.5448 1.1093 1.3109 210.82 0.63981 5.6074 0.0094130
-66.625 4.3046 0.25707 152.27 162.16 0.92132 608.35 0.0016438 46.439 46.488 0.36122 1.3937 2.1483 1322.2 -0.0059760 263.28 0.14388 0.77404 1.2919 458.12 496.46 2.5400 1.1133 1.3154 211.18 0.63150 5.6341 0.0094939
-65.625 4.5551 0.27092 159.82 170.29 0.95779 607.26 0.0016467 48.588 48.640 0.37160 1.3955 2.1518 1315.6 -0.0059464 259.93 0.14327 0.81570 1.2259 459.16 497.67 2.5353 1.1172 1.3200 211.54 0.62332 5.6608 0.0095750
-64.625 4.8173 0.28535 167.58 178.65 0.99511 606.16 0.0016497 50.740 50.795 0.38195 1.3974 2.1553 1308.9 -0.0059164 256.65 0.14266 0.85910 1.1640 460.21 498.87 2.5307 1.1212 1.3246 211.89 0.61527 5.6874 0.0096564
-63.625 5.0915 0.30039 175.56 187.26 1.0333 605.07 0.0016527 52.896 52.954 0.39226 1.3993 2.1588 1302.3 -0.0058861 253.42 0.14205 0.90429 1.1058 461.25 500.07 2.5262 1.1252 1.3293 212.24 0.60736 5.7140 0.0097382
-62.625 5.3781 0.31604 183.76 196.12 1.0723 603.97 0.0016557 55.055 55.117 0.40254 1.4012 2.1624 1295.7 -0.0058553 250.26 0.14144 0.95134 1.0511 462.30 501.28 2.5218 1.1293 1.3340 212.58 0.59958 5.7406 0.0098201
-61.625 5.6774 0.33232 192.18 205.23 1.1122 602.87 0.0016587 57.218 57.283 0.41279 1.4031 2.1660 1289.1 -0.0058241 247.16 0.14084 1.0003 0.99972 463.35 502.48 2.5175 1.1333 1.3387 212.92 0.59194 5.7672 0.0099024
-60.625 5.9899 0.34926 200.84 214.60 1.1530 601.77 0.0016618 59.385 59.453 0.42301 1.4051 2.1697 1282.5 -0.0057925 244.12 0.14023 1.0512 0.95131 464.40 503.68 2.5133 1.1374 1.3435 213.26 0.58442 5.7938 0.0099850
-59.625 6.3160 0.36687 209.73 224.24 1.1948 600.66 0.0016648 61.554 61.627 0.43320 1.4071 2.1734 1275.9 -0.0057605 241.13 0.13962 1.1041 0.90573 465.45 504.89 2.5091 1.1415 1.3483 213.58 0.57704 5.8203 0.010068
-58.625 6.6561 0.38516 218.86 234.16 1.2374 599.55 0.0016679 63.728 63.805 0.44335 1.4091 2.1772 1269.3 -0.0057280 238.19 0.13902 1.1591 0.86277 466.50 506.09 2.5051 1.1457 1.3532 213.90 0.56978 5.8468 0.010151
-57.625 7.0107 0.40417 228.24 244.35 1.2811 598.44 0.0016710 65.905 65.986 0.45348 1.4111 2.1810 1262.7 -0.0056951 235.31 0.13842 1.2161 0.82228 467.55 507.30 2.5011 1.1498 1.3581 214.22 0.56265 5.8733 0.010234
-56.625 7.3801 0.42390 237.87 254.83 1.3256 597.33 0.0016741 68.086 68.172 0.46358 1.4132 2.1848 1256.1 -0.0056617 232.48 0.13781 1.2754 0.78408 468.60 508.50 2.4972 1.1540 1.3631 214.53 0.55564 5.8998 0.010318
-55.625 7.7648 0.44438 247.75 265.60 1.3712 596.22 0.0016772 70.271 70.361 0.47364 1.4153 2.1887 1249.5 -0.0056279 229.69 0.13721 1.3369 0.74802 469.66 509.71 2.4934 1.1582 1.3681 214.84 0.54875 5.9263 0.010402
-54.625 8.1652 0.46562 257.90 276.66 1.4177 595.10 0.0016804 72.460 72.554 0.48368 1.4174 2.1927 1242.9 -0.0055937 226.96 0.13661 1.4006 0.71396 470.72 510.91 2.4897 1.1624 1.3731 215.14 0.54199 5.9527 0.010486
-53.625 8.5819 0.48765 268.31 288.03 1.4652 593.98 0.0016836 74.652 74.752 0.49369 1.4196 2.1967 1236.3 -0.0055589 224.27 0.13601 1.4667 0.68178 471.77 512.11 2.4860 1.1667 1.3782 215.43 0.53535 5.9792 0.010571
-52.625 9.0151 0.51048 278.99 299.71 1.5138 592.86 0.0016867 76.849 76.954 0.50368 1.4218 2.2007 1229.8 -0.0055237 221.63 0.13541 1.5353 0.65136 472.83 513.32 2.4824 1.1710 1.3834 215.72 0.52882 6.0056 0.010656
-51.625 9.4655 0.53414 289.95 311.71 1.5634 591.73 0.0016900 79.049 79.159 0.51363 1.4240 2.2048 1223.2 -0.0054880 219.04 0.13482 1.6062 0.62258 473.89 514.52 2.4789 1.1752 1.3886 216.00 0.52241 6.0320 0.010741
-50.625 9.9335 0.55865 301.19 324.02 1.6140 590.60 0.0016932 81.253 81.369 0.52356 1.4262 2.2089 1216.6 -0.0054519 216.48 0.13422 1.6797 0.59534 474.95 515.73 2.4755 1.1796 1.3938 216.28 0.51612 6.0584 0.010827
-49.625 10.419 0.58403 312.72 336.67 1.6657 589.47 0.0016964 83.462 83.584 0.53347 1.4285 2.2131 1210.1 -0.0054152 213.98 0.13363 1.7558 0.56954 476.01 516.93 2.4722 1.1839 1.3991 216.55 0.50994 6.0848 0.010913
-48.625 10.924 0.61029 324.54 349.65 1.7185 588.34 0.0016997 85.674 85.802 0.54334 1.4308 2.2173 1203.5 -0.0053780 211.51 0.13303 1.8345 0.54510 477.07 518.13 2.4689 1.1883 1.4044 216.82 0.50387 6.1112 0.010999
-47.625 11.448 0.63746 336.66 362.97 1.7723 587.20 0.0017030 87.891 88.025 0.55319 1.4331 2.2216 1196.9 -0.0053403 209.08 0.13244 1.9159 0.52194 478.14 519.33 2.4657 1.1927 1.4098 217.08 0.49792 6.1375 0.011085
-46.625 11.991 0.66557 349.08 376.64 1.8273 586.06 0.0017063 90.111 90.252 0.56302 1.4354 2.2259 1190.4 -0.0053020 206.69 0.13185 2.0001 0.49997 479.20 520.53 2.4625 1.1971 1.4153 217.33 0.49207 6.1639 0.011172
-45.625 12.554 0.69463 361.80 390.66 1.8833 584.92 0.0017096 92.336 92.484 0.57282 1.4378 2.2303 1183.8 -0.0052633 204.34 0.13126 2.0872 0.47912 480.27 521.74 2.4594 1.2015 1.4207 217.58 0.48633 6.1902 0.011259
-44.625 13.137 0.72467 374.84 405.04 1.9405 583.77 0.0017130 94.565 94.720 0.58260 1.4402 2.2347 1177.3 -0.0052240 202.03 0.13067 2.1771 0.45933 481.33 522.94 2.4564 1.2060 1.4263 217.82 0.48069 6.2165 0.011347
-43.625 13.741 0.75571 388.20 419.78 1.9988 582.62 0.0017164 96.799 96.961 0.59235 1.4426 2.2392 1170.7 -0.0051841 199.75 0.13008 2.2700 0.44053 482.40 524.14 2.4535 1.2104 1.4319 218.05 0.47516 6.2429 0.011435
-42.625 14.367 0.78777 401.88 434.90 2.0583 581.47 0.0017198 99.036 99.207 0.60208 1.4450 2.2437 1164.2 -0.0051437 197.51 0.12949 2.3659 0.42267 483.46 525.33 2.4506 1.2149 1.4375 218.28 0.46973 6.2692 0.011523
-41.625 15.015 0.82088 415.88 450.39 2.1189 580.32 0.0017232 101.28 101.46 0.61179 1.4475 2.2483 1157.7 -0.0051027 195.30 0.12891 2.4649 0.40569 484.53 526.53 2.4478 1.2195 1.4432 218.50 0.46440 6.2955 0.011612
-40.625 15.686 0.85506 430.22 466.27 2.1807 579.16 0.0017266 103.52 103.71 0.62147 1.4500 2.2529 1151.1 -0.0050611 193.13 0.12832 2.5671 0.38954 485.60 527.73 2.4450 1.2240 1.4489 218.72 0.45917 6.3218 0.011701
-39.625 16.380 0.89034 444.90 482.54 2.2437 578.00 0.0017301 105.78 105.97 0.63113 1.4525 2.2576 1144.6 -0.0050189 190.99 0.12774 2.6725 0.37418 486.67 528.93 2.4423 1.2286 1.4547 218.93 0.45403 6.3481 0.011790
-38.625 17.097 0.92673 459.92 499.21 2.3079 576.83 0.0017336 108.03 108.24 0.64077 1.4550 2.2623 1138.0 -0.0049761 188.88 0.12716 2.7813 0.35955 487.74 530.12 2.4397 1.2332 1.4606 219.13 0.44900 6.3744 0.011880
-37.625 17.838 0.96428 475.29 516.28 2.3733 575.66 0.0017371 110.29 110.51 0.65039 1.4576 2.2671 1131.5 -0.0049327 186.81 0.12658 2.8934 0.34562 488.81 531.32 2.4371 1.2378 1.4665 219.33 0.44405 6.4007 0.011970
-36.625 18.552 undefined 489.89 532.53 2.4351 3.0000 0.33333 489.89 532.53 2.4351 1.2423 1.4722 219.54 0.43913 6.4271 0.012060 3.0000 0.33333 489.89 532.53 2.4351 1.2423 1.4722 219.54 0.43913 6.4271 0.012060
-35.625 18.638 undefined 491.14 533.97 2.4404 3.0000 0.33333 491.14 533.97 2.4404 1.2459 1.4753 220.02 0.43340 6.4549 0.012153 3.0000 0.33333 491.14 533.97 2.4404 1.2459 1.4753 220.02 0.43340 6.4549 0.012153
-34.625 18.724 undefined 492.38 535.42 2.4456 3.0000 0.33333 492.38 535.42 2.4456 1.2495 1.4785 220.50 0.42777 6.4827 0.012246 3.0000 0.33333 492.38 535.42 2.4456 1.2495 1.4785 220.50 0.42777 6.4827 0.012246
-33.625 18.811 undefined 493.64 536.87 2.4509 3.0000 0.33333 493.64 536.87 2.4509 1.2531 1.4816 220.97 0.42223 6.5105 0.012340 3.0000 0.33333 493.64 536.87 2.4509 1.2531 1.4816 220.97 0.42223 6.5105 0.012340
-32.625 18.897 undefined 494.89 538.32 2.4561 3.0000 0.33333 494.89 538.32 2.4561 1.2568 1.4848 221.45 0.41679 6.5383 0.012433 3.0000 0.33333 494.89 538.32 2.4561 1.2568 1.4848 221.45 0.41679 6.5383 0.012433
-31.625 18.983 undefined 496.15 539.78 2.4613 3.0000 0.33333 496.15 539.78 2.4613 1.2604 1.4880 221.92 0.41145 6.5660 0.012527 3.0000 0.33333 496.15 539.78 2.4613 1.2604 1.4880 221.92 0.41145 6.5660 0.012527
-30.625 19.070 undefined 497.41 541.24 2.4665 3.0000 0.33333 497.41 541.24 2.4665 1.2641 1.4913 222.39 0.40619 6.5938 0.012622 3.0000 0.33333 497.41 541.24 2.4665 1.2641 1.4913 222.39 0.40619 6.5938 0.012622
-29.625 19.156 undefined 498.68 542.70 2.4717 3.0000 0.33333 498.68 542.70 2.4717 1.2677 1.4945 222.86 0.40102 6.6215 0.012716 3.0000 0.33333 498.68 542.70 2.4717 1.2677 1.4945 222.86 0.40102 6.6215 0.012716
-28.625 19.242 undefined 499.95 544.17 2.4770 3.0000 0.33333 499.95 544.17 2.4770 1.2714 1.4978 223.33 0.39595 6.6493 0.012811 3.0000 0.33333 499.95 544.17 2.4770 1.2714 1.4978 223.33 0.39595 6.6493 0.012811
-27.625 19.328 undefined 501.22 545.64 2.4821 3.0000 0.33333 501.22 545.64 2.4821 1.2751 1.5011 223.80 0.39095 6.6770 0.012906 3.0000 0.33333 501.22 545.64 2.4821 1.2751 1.5011 223.80 0.39095 6.6770 0.012906
-26.625 19.414 undefined 502.50 547.12 2.4873 3.0000 0.33333 502.50 547.12 2.4873 1.2788 1.5044 224.26 0.38605 6.7047 0.013002 3.0000 0.33333 502.50 547.12 2.4873 1.2788 1.5044 224.26 0.38605 6.7047 0.013002
-25.625 19.500 undefined 503.78 548.59 2.4925 3.0000 0.33333 503.78 548.59 2.4925 1.2826 1.5077 224.73 0.38122 6.7324 0.013097 3.0000 0.33333 503.78 548.59 2.4925 1.2826 1.5077 224.73 0.38122 6.7324 0.013097
-24.625 19.586 undefined 505.06 550.08 2.4977 3.0000 0.33333 505.06 550.08 2.4977 1.2863 1.5111 225.19 0.37648 6.7601 0.013193 3.0000 0.33333 505.06 550.08 2.4977 1.2863 1.5111 225.19 0.37648 6.7601 0.013193
-23.625 19.672 undefined 506.35 551.56 2.5029 3.0000 0.33333 506.35 551.56 2.5029 1.2901 1.5144 225.65 0.37181 6.7878 0.013290 3.0000 0.33333 506.35 551.56 2.5029 1.2901 1.5144 225.65 0.37181 6.7878 0.013290
-22.625 19.758 undefined 507.64 553.05 2.5080 3.0000 0.33333 507.64 553.05 2.5080 1.2938 1.5178 226.11 0.36722 6.8154 0.013386 3.0000 0.33333 507.64 553.05 2.5080 1.2938 1.5178 226.11 0.36722 6.8154 0.013386
-21.625 19.844 undefined 508.94 554.54 2.5132 3.0000 0.33333 508.94 554.54 2.5132 1.2976 1.5212 226.57 0.36271 6.8431 0.013483 3.0000 0.33333 508.94 554.54 2.5132 1.2976 1.5212 226.57 0.36271 6.8431 0.013483
-20.625 19.930 undefined 510.24 556.04 2.5184 3.0000 0.33333 510.24 556.04 2.5184 1.3014 1.5247 227.03 0.35827 6.8707 0.013580 3.0000 0.33333 510.24 556.04 2.5184 1.3014 1.5247 227.03 0.35827 6.8707 0.013580
-19.625 20.016 undefined 511.54 557.54 2.5235 3.0000 0.33333 511.54 557.54 2.5235 1.3052 1.5281 227.48 0.35391 6.8984 0.013678 3.0000 0.33333 511.54 557.54 2.5235 1.3052 1.5281 227.48 0.35391 6.8984 0.013678
-18.625 20.101 undefined 512.85 559.05 2.5287 3.0000 0.33333 512.85 559.05 2.5287 1.3091 1.5316 227.93 0.34961 6.9260 0.013776 3.0000 0.33333 512.85 559.05 2.5287 1.3091 1.5316 227.93 0.34961 6.9260 0.013776
-17.625 20.187 undefined 514.16 560.55 2.5338 3.0000 0.33333 514.16 560.55 2.5338 1.3129 1.5351 228.39 0.34539 6.9536 0.013874 3.0000 0.33333 514.16 560.55 2.5338 1.3129 1.5351 228.39 0.34539 6.9536 0.013874
-16.625 20.273 undefined 515.47 562.07 2.5389 3.0000 0.33333 515.47 562.07 2.5389 1.3167 1.5386 228.84 0.34124 6.9812 0.013972 3.0000 0.33333 515.47 562.07 2.5389 1.3167 1.5386 228.84 0.34124 6.9812 0.013972
-15.625 20.358 undefined 516.79 563.58 2.5441 3.0000 0.33333 516.79 563.58 2.5441 1.3206 1.5421 229.29 0.33715 7.0088 0.014071 3.0000 0.33333 516.79 563.58 2.5441 1.3206 1.5421 229.29 0.33715 7.0088 0.014071
-14.625 20.444 undefined 518.12 565.10 2.5492 3.0000 0.33333 518.12 565.10 2.5492 1.3245 1.5457 229.74 0.33313 7.0364 0.014170 3.0000 0.33333 518.12 565.10 2.5492 1.3245 1.5457 229.74 0.33313 7.0364 0.014170
-13.625 20.530 undefined 519.44 566.62 2.5543 3.0000 0.33333 519.44 566.62 2.5543 1.3284 1.5493 230.19 0.32917 7.0640 0.014269 3.0000 0.33333 519.44 566.62 2.5543 1.3284 1.5493 230.19 0.32917 7.0640 0.014269
-12.625 20.615 undefined 520.77 568.15 2.5594 3.0000 0.33333 520.77 568.15 2.5594 1.3323 1.5529 230.63 0.32528 7.0915 0.014368 3.0000 0.33333 520.77 568.15 2.5594 1.3323 1.5529 230.63 0.32528 7.0915 0.014368
-11.625 20.701 undefined 522.11 569.68 2.5645 3.0000 0.33333 522.11 569.68 2.5645 1.3362 1.5565 231.08 0.32144 7.1191 0.014468 3.0000 0.33333 522.11 569.68 2.5645 1.3362 1.5565 231.08 0.32144 7.1191 0.014468
-10.625 20.786 undefined 523.44 571.22 2.5696 3.0000 0.33333 523.44 571.22 2.5696 1.3402 1.5601 231.52 0.31767 7.1466 0.014568 3.0000 0.33333 523.44 571.22 2.5696 1.3402 1.5601 231.52 0.31767 7.1466 0.014568
-9.6250 20.872 undefined 524.79 572.75 2.5747 3.0000 0.33333 524.79 572.75 2.5747 1.3441 1.5637 231.96 0.31396 7.1741 0.014669 3.0000 0.33333 524.79 572.75 2.5747 1.3441 1.5637 231.96 0.31396 7.1741 0.014669
-8.6250 20.957 undefined 526.13 574.30 2.5798 3.0000 0.33333 526.13 574.30 2.5798 1.3481 1.5674 232.40 0.31031 7.2016 0.014770 3.0000 0.33333 526.13 574.30 2.5798 1.3481 1.5674 232.40 0.31031 7.2016 0.014770
-7.6250 21.042 undefined 527.48 575.84 2.5849 3.0000 0.33333 527.48 575.84 2.5849 1.3520 1.5711 232.84 0.30671 7.2292 0.014871 3.0000 0.33333 527.48 575.84 2.5849 1.3520 1.5711 232.84 0.30671 7.2292 0.014871
-6.6250 21.128 undefined 528.84 577.39 2.5900 3.0000 0.33333 528.84 577.39 2.5900 1.3560 1.5748 233.28 0.30317 7.2567 0.014972 3.0000 0.33333 528.84 577.39 2.5900 1.3560 1.5748 233.28 0.30317 7.2567 0.014972
-5.6250 21.213 undefined 530.19 578.95 2.5951 3.0000 0.33333 530.19 578.95 2.5951 1.3600 1.5785 233.72 0.29969 7.2841 0.015073 3.0000 0.33333 530.19 578.95 2.5951 1.3600 1.5785 233.72 0.29969 7.2841 0.015073
-4.6250 21.298 undefined 531.56 580.51 2.6002 3.0000 0.33333 531.56 580.51 2.6002 1.3640 1.5822 234.16 0.29626 7.3116 0.015175 3.0000 0.33333 531.56 580.51 2.6002 1.3640 1.5822 234.16 0.29626 7.3116 0.015175
-3.6250 21.384 undefined 532.92 582.07 2.6053 3.0000 0.33333 532.92 582.07 2.6053 1.3681 1.5860 234.59 0.29288 7.3391 0.015277 3.0000 0.33333 532.92 582.07 2.6053 1.3681 1.5860 234.59 0.29288 7.3391 0.015277
-2.6250 21.469 undefined 534.29 583.63 2.6103 3.0000 0.33333 534.29 583.63 2.6103 1.3721 1.5897 235.03 0.28956 7.3665 0.015380 3.0000 0.33333 534.29 583.63 2.6103 1.3721 1.5897 235.03 0.28956 7.3665 0.015380
-1.6250 21.554 undefined 535.67 585.20 2.6154 3.0000 0.33333 535.67 585.20 2.6154 1.3761 1.5935 235.46 0.28628 7.3940 0.015483 3.0000 0.33333 535.67 585.20 2.6154 1.3761 1.5935 235.46 0.28628 7.3940 0.015483
-0.62500 21.639 undefined 537.05 586.78 2.6205 3.0000 0.33333 537.05 586.78 2.6205 1.3802 1.5973 235.89 0.28306 7.4214 0.015586 3.0000 0.33333 537.05 586.78 2.6205 1.3802 1.5973 235.89 0.28306 7.4214 0.015586
0.37500 21.724 undefined 538.43 588.36 2.6255 3.0000 0.33333 538.43 588.36 2.6255 1.3843 1.6011 236.32 0.27988 7.4488 0.015689 3.0000 0.33333 538.43 588.36 2.6255 1.3843 1.6011 236.32 0.27988 7.4488 0.015689
1.3750 21.809 undefined 539.81 589.94 2.6306 3.0000 0.33333 539.81 589.94 2.6306 1.3883 1.6049 236.75 0.27675 7.4762 0.015793 3.0000 0.33333 539.81 589.94 2.6306 1.3883 1.6049 236.75 0.27675 7.4762 0.015793
2.3750 21.895 undefined 541.20 591.52 2.6357 3.0000 0.33333 541.20 591.52 2.6357 1.3924 1.6088 237.18 0.27367 7.5036 0.015897 3.0000 0.33333 541.20 591.52 2.6357 1.3924 1.6088 237.18 0.27367 7.5036 0.015897
3.3750 21.980 undefined 542.60 593.11 2.6407 3.0000 0.33333 542.60 593.11 2.6407 1.3965 1.6126 237.61 0.27064 7.5310 0.016001 3.0000 0.33333 542.60 593.11 2.6407 1.3965 1.6126 237.61 0.27064 7.5310 0.016001
4.3750 22.065 undefined 544.00 594.71 2.6458 3.0000 0.33333 544.00 594.71 2.6458 1.4007 1.6165 238.03 0.26765 7.5584 0.016105 3.0000 0.33333 544.00 594.71 2.6458 1.4007 1.6165 238.03 0.26765 7.5584 0.016105
5.3750 22.150 undefined 545.40 596.31 2.6508 3.0000 0.33333 545.40 596.31 2.6508 1.4048 1.6204 238.46 0.26470 7.5857 0.016210 3.0000 0.33333 545.40 596.31 2.6508 1.4048 1.6204 238.46 0.26470 7.5857 0.016210
6.3750 22.235 undefined 546.81 597.91 2.6558 3.0000 0.33333 546.81 597.91 2.6558 1.4089 1.6243 238.88 0.26180 7.6131 0.016315 3.0000 0.33333 546.81 597.91 2.6558 1.4089 1.6243 238.88 0.26180 7.6131 0.016315
7.3750 22.320 undefined 548.22 599.51 2.6609 3.0000 0.33333 548.22 599.51 2.6609 1.4131 1.6282 239.31 0.25895 7.6404 0.016421 3.0000 0.33333 548.22 599.51 2.6609 1.4131 1.6282 239.31 0.25895 7.6404 0.016421
8.3750 22.405 undefined 549.63 601.12 2.6659 3.0000 0.33333 549.63 601.12 2.6659 1.4172 1.6321 239.73 0.25613 7.6677 0.016526 3.0000 0.33333 549.63 601.12 2.6659 1.4172 1.6321 239.73 0.25613 7.6677 0.016526
9.3750 22.489 undefined 551.05 602.74 2.6710 3.0000 0.33333 551.05 602.74 2.6710 1.4214 1.6361 240.15 0.25336 7.6950 0.016632 3.0000 0.33333 551.05 602.74 2.6710 1.4214 1.6361 240.15 0.25336 7.6950 0.016632
10.375 22.574 undefined 552.48 604.36 2.6760 3.0000 0.33333 552.48 604.36 2.6760 1.4256 1.6400 240.57 0.25062 7.7223 0.016738 3.0000 0.33333 552.48 604.36 2.6760 1.4256 1.6400 240.57 0.25062 7.7223 0.016738
11.375 22.659 undefined 553.90 605.98 2.6810 3.0000 0.33333 553.90 605.98 2.6810 1.4297 1.6440 240.99 0.24793 7.7496 0.016845 3.0000 0.33333 553.90 605.98 2.6810 1.4297 1.6440 240.99 0.24793 7.7496 0.016845
12.375 22.744 undefined 555.34 607.61 2.6860 3.0000 0.33333 555.34 607.61 2.6860 1.4339 1.6479 241.41 0.24527 7.7769 0.016952 3.0000 0.33333 555.34 607.61 2.6860 1.4339 1.6479 241.41 0.24527 7.7769 0.016952
13.375 22.829 undefined 556.77 609.24 2.6911 3.0000 0.33333 556.77 609.24 2.6911 1.4381 1.6519 241.83 0.24266 7.8042 0.017059 3.0000 0.33333 556.77 609.24 2.6911 1.4381 1.6519 241.83 0.24266 7.8042 0.017059
14.375 22.914 undefined 558.21 610.87 2.6961 3.0000 0.33333 558.21 610.87 2.6961 1.4424 1.6559 242.24 0.24008 7.8314 0.017166 3.0000 0.33333 558.21 610.87 2.6961 1.4424 1.6559 242.24 0.24008 7.8314 0.017166
15.375 22.998 undefined 559.66 612.51 2.7011 3.0000 0.33333 559.66 612.51 2.7011 1.4466 1.6599 242.66 0.23754 7.8587 0.017274 3.0000 0.33333 559.66 612.51 2.7011 1.4466 1.6599 242.66 0.23754 7.8587 0.017274
16.375 23.083 undefined 561.10 614.16 2.7061 3.0000 0.33333 561.10 614.16 2.7061 1.4508 1.6640 243.07 0.23503 7.8859 0.017382 3.0000 0.33333 561.10 614.16 2.7061 1.4508 1.6640 243.07 0.23503 7.8859 0.017382
17.375 23.168 undefined 562.56 615.80 2.7111 3.0000 0.33333 562.56 615.80 2.7111 1.4550 1.6680 243.49 0.23256 7.9131 0.017490 3.0000 0.33333 562.56 615.80 2.7111 1.4550 1.6680 243.49 0.23256 7.9131 0.017490
18.375 23.253 undefined 564.01 617.46 2.7161 3.0000 0.33333 564.01 617.46 2.7161 1.4593 1.6720 243.90 0.23013 7.9403 0.017599 3.0000 0.33333 564.01 617.46 2.7161 1.4593 1.6720 243.90 0.23013 7.9403 0.017599
19.375 23.337 undefined 565.48 619.11 2.7211 3.0000 0.33333 565.48 619.11 2.7211 1.4635 1.6761 244.31 0.22773 7.9675 0.017708 3.0000 0.33333 565.48 619.11 2.7211 1.4635 1.6761 244.31 0.22773 7.9675 0.017708
20.375 23.422 undefined 566.94 620.77 2.7261 3.0000 0.33333 566.94 620.77 2.7261 1.4678 1.6802 244.72 0.22536 7.9947 0.017817 3.0000 0.33333 566.94 620.77 2.7261 1.4678 1.6802 244.72 0.22536 7.9947 0.017817
21.375 23.507 undefined 568.41 622.44 2.7311 3.0000 0.33333 568.41 622.44 2.7311 1.4721 1.6842 245.13 0.22303 8.0219 0.017927 3.0000 0.33333 568.41 622.44 2.7311 1.4721 1.6842 245.13 0.22303 8.0219 0.017927
22.375 23.591 undefined 569.89 624.10 2.7361 3.0000 0.33333 569.89 624.10 2.7361 1.4764 1.6883 245.54 0.22073 8.0490 0.018036 3.0000 0.33333 569.89 624.10 2.7361 1.4764 1.6883 245.54 0.22073 8.0490 0.018036
23.375 23.676 undefined 571.36 625.78 2.7411 3.0000 0.33333 571.36 625.78 2.7411 1.4806 1.6924 245.95 0.21846 8.0762 0.018146 3.0000 0.33333 571.36 625.78 2.7411 1.4806 1.6924 245.95 0.21846 8.0762 0.018146
24.375 23.760 undefined 572.85 627.45 2.7461 3.0000 0.33333 572.85 627.45 2.7461 1.4849 1.6965 246.35 0.21622 8.1033 0.018257 3.0000 0.33333 572.85 627.45 2.7461 1.4849 1.6965 246.35 0.21622 8.1033 0.018257
25.375 23.845 undefined 574.33 629.14 2.7511 3.0000 0.33333 574.33 629.14 2.7511 1.4892 1.7007 246.76 0.21402 8.1304 0.018367 3.0000 0.33333 574.33 629.14 2.7511 1.4892 1.7007 246.76 0.21402 8.1304 0.018367
26.375 23.930 undefined 575.83 630.82 2.7561 3.0000 0.33333 575.83 630.82 2.7561 1.4935 1.7048 247.16 0.21184 8.1575 0.018478 3.0000 0.33333 575.83 630.82 2.7561 1.4935 1.7048 247.16 0.21184 8.1575 0.018478
27.375 24.014 undefined 577.32 632.51 2.7611 3.0000 0.33333 577.32 632.51 2.7611 1.4979 1.7089 247.57 0.20970 8.1846 0.018589 3.0000 0.33333 577.32 632.51 2.7611 1.4979 1.7089 247.57 0.20970 8.1846 0.018589
28.375 24.099 undefined 578.82 634.21 2.7661 3.0000 0.33333 578.82 634.21 2.7661 1.5022 1.7131 247.97 0.20758 8.2117 0.018701 3.0000 0.33333 578.82 634.21 2.7661 1.5022 1.7131 247.97 0.20758 8.2117 0.018701
29.375 24.183 undefined 580.33 635.90 2.7710 3.0000 0.33333 580.33 635.90 2.7710 1.5065 1.7172 248.37 0.20550 8.2388 0.018813 3.0000 0.33333 580.33 635.90 2.7710 1.5065 1.7172 248.37 0.20550 8.2388 0.018813
30.375 24.267 undefined 581.83 637.61 2.7760 3.0000 0.33333 581.83 637.61 2.7760 1.5108 1.7214 248.78 0.20344 8.2659 0.018925 3.0000 0.33333 581.83 637.61 2.7760 1.5108 1.7214 248.78 0.20344 8.2659 0.018925
31.375 24.352 undefined 583.35 639.31 2.7810 3.0000 0.33333 583.35 639.31 2.7810 1.5152 1.7255 249.18 0.20141 8.2929 0.019037 3.0000 0.33333 583.35 639.31 2.7810 1.5152 1.7255 249.18 0.20141 8.2929 0.019037
32.375 24.436 undefined 584.86 641.03 2.7860 3.0000 0.33333 584.86 641.03 2.7860 1.5195 1.7297 249.58 0.19941 8.3199 0.019150 3.0000 0.33333 584.86 641.03 2.7860 1.5195 1.7297 249.58 0.19941 8.3199 0.019150
33.375 24.521 undefined 586.39 642.74 2.7909 3.0000 0.33333 586.39 642.74 2.7909 1.5239 1.7339 249.98 0.19743 8.3470 0.019263 3.0000 0.33333 586.39 642.74 2.7909 1.5239 1.7339 249.98 0.19743 8.3470 0.019263
34.375 24.605 undefined 587.91 644.46 2.7959 3.0000 0.33333 587.91 644.46 2.7959 1.5282 1.7381 250.38 0.19548 8.3740 0.019376 3.0000 0.33333 587.91 644.46 2.7959 1.5282 1.7381 250.38 0.19548 8.3740 0.019376
35.375 24.690 undefined 589.44 646.19 2.8009 3.0000 0.33333 589.44 646.19 2.8009 1.5326 1.7423 250.77 0.19356 8.4010 0.019490 3.0000 0.33333 589.44 646.19 2.8009 1.5326 1.7423 250.77 0.19356 8.4010 0.019490
36.375 24.774 undefined 590.98 647.91 2.8058 3.0000 0.33333 590.98 647.91 2.8058 1.5369 1.7465 251.17 0.19166 8.4280 0.019604 3.0000 0.33333 590.98 647.91 2.8058 1.5369 1.7465 251.17 0.19166 8.4280 0.019604
37.375 24.858 undefined 592.52 649.65 2.8108 3.0000 0.33333 592.52 649.65 2.8108 1.5413 1.7507 251.57 0.18979 8.4549 0.019718 3.0000 0.33333 592.52 649.65 2.8108 1.5413 1.7507 251.57 0.18979 8.4549 0.019718
38.375 24.943 undefined 594.06 651.38 2.8158 3.0000 0.33333 594.06 651.38 2.8158 1.5457 1.7550 251.96 0.18795 8.4819 0.019832 3.0000 0.33333 594.06 651.38 2.8158 1.5457 1.7550 251.96 0.18795 8.4819 0.019832
39.375 25.027 undefined 595.61 653.13 2.8207 3.0000 0.33333 595.61 653.13 2.8207 1.5501 1.7592 252.36 0.18613 8.5088 0.019947 3.0000 0.33333 595.61 653.13 2.8207 1.5501 1.7592 252.36 0.18613 8.5088 0.019947
40.375 25.111 undefined 597.16 654.87 2.8257 3.0000 0.33333 597.16 654.87 2.8257 1.5545 1.7634 252.75 0.18433 8.5358 0.020062 3.0000 0.33333 597.16 654.87 2.8257 1.5545 1.7634 252.75 0.18433 8.5358 0.020062
41.375 25.196 undefined 598.72 656.62 2.8306 3.0000 0.33333 598.72 656.62 2.8306 1.5589 1.7677 253.14 0.18256 8.5627 0.020177 3.0000 0.33333 598.72 656.62 2.8306 1.5589 1.7677 253.14 0.18256 8.5627 0.020177
42.375 25.280 undefined 600.28 658.38 2.8356 3.0000 0.33333 600.28 658.38 2.8356 1.5633 1.7719 253.53 0.18081 8.5896 0.020293 3.0000 0.33333 600.28 658.38 2.8356 1.5633 1.7719 253.53 0.18081 8.5896 0.020293
43.375 25.364 undefined 601.84 660.14 2.8406 3.0000 0.33333 601.84 660.14 2.8406 1.5677 1.7762 253.93 0.17908 8.6165 0.020409 3.0000 0.33333 601.84 660.14 2.8406 1.5677 1.7762 253.93 0.17908 8.6165 0.020409
44.375 25.448 undefined 603.41 661.90 2.8455 3.0000 0.33333 603.41 661.90 2.8455 1.5721 1.7804 254.32 0.17737 8.6434 0.020525 3.0000 0.33333 603.41 661.90 2.8455 1.5721 1.7804 254.32 0.17737 8.6434 0.020525
45.375 25.533 undefined 604.99 663.67 2.8505 3.0000 0.33333 604.99 663.67 2.8505 1.5765 1.7847 254.71 0.17569 8.6703 0.020641 3.0000 0.33333 604.99 663.67 2.8505 1.5765 1.7847 254.71 0.17569 8.6703 0.020641
46.375 25.617 undefined 606.57 665.44 2.8554 3.0000 0.33333 606.57 665.44 2.8554 1.5809 1.7890 255.10 0.17403 8.6971 0.020758 3.0000 0.33333 606.57 665.44 2.8554 1.5809 1.7890 255.10 0.17403 8.6971 0.020758
47.375 25.701 undefined 608.15 667.22 2.8604 3.0000 0.33333 608.15 667.22 2.8604 1.5853 1.7932 255.48 0.17239 8.7240 0.020875 3.0000 0.33333 608.15 667.22 2.8604 1.5853 1.7932 255.48 0.17239 8.7240 0.020875
48.375 25.785 undefined 609.74 669.00 2.8653 3.0000 0.33333 609.74 669.00 2.8653 1.5897 1.7975 255.87 0.17078 8.7508 0.020993 3.0000 0.33333 609.74 669.00 2.8653 1.5897 1.7975 255.87 0.17078 8.7508 0.020993
49.375 25.869 undefined 611.33 670.78 2.8702 3.0000 0.33333 611.33 670.78 2.8702 1.5941 1.8018 256.26 0.16918 8.7776 0.021110 3.0000 0.33333 611.33 670.78 2.8702 1.5941 1.8018 256.26 0.16918 8.7776 0.021110
50.375 25.953 undefined 612.93 672.57 2.8752 3.0000 0.33333 612.93 672.57 2.8752 1.5986 1.8061 256.65 0.16760 8.8044 0.021228 3.0000 0.33333 612.93 672.57 2.8752 1.5986 1.8061 256.65 0.16760 8.8044 0.021228
51.375 26.038 undefined 614.53 674.37 2.8801 3.0000 0.33333 614.53 674.37 2.8801 1.6030 1.8104 257.03 0.16605 8.8312 0.021346 3.0000 0.33333 614.53 674.37 2.8801 1.6030 1.8104 257.03 0.16605 8.8312 0.021346
52.375 26.122 undefined 616.13 676.17 2.8851 3.0000 0.33333 616.13 676.17 2.8851 1.6074 1.8147 257.42 0.16451 8.8580 0.021465 3.0000 0.33333 616.13 676.17 2.8851 1.6074 1.8147 257.42 0.16451 8.8580 0.021465
53.375 26.206 undefined 617.74 677.97 2.8900 3.0000 0.33333 617.74 677.97 2.8900 1.6119 1.8190 257.80 0.16300 8.8847 0.021584 3.0000 0.33333 617.74 677.97 2.8900 1.6119 1.8190 257.80 0.16300 8.8847 0.021584
54.375 26.290 undefined 619.36 679.78 2.8949 3.0000 0.33333 619.36 679.78 2.8949 1.6163 1.8233 258.18 0.16150 8.9115 0.021703 3.0000 0.33333 619.36 679.78 2.8949 1.6163 1.8233 258.18 0.16150 8.9115 0.021703
55.375 26.374 undefined 620.97 681.59 2.8999 3.0000 0.33333 620.97 681.59 2.8999 1.6208 1.8277 258.57 0.16002 8.9382 0.021822 3.0000 0.33333 620.97 681.59 2.8999 1.6208 1.8277 258.57 0.16002 8.9382 0.021822
56.375 26.458 undefined 622.60 683.40 2.9048 3.0000 0.33333 622.60 683.40 2.9048 1.6252 1.8320 258.95 0.15857 8.9650 0.021942 3.0000 0.33333 622.60 683.40 2.9048 1.6252 1.8320 258.95 0.15857 8.9650 0.021942
57.375 26.542 undefined 624.22 685.22 2.9097 3.0000 0.33333 624.22 685.22 2.9097 1.6297 1.8363 259.33 0.15713 8.9917 0.022062 3.0000 0.33333 624.22 685.22 2.9097 1.6297 1.8363 259.33 0.15713 8.9917 0.022062
58.375 26.626 undefined 625.86 687.05 2.9147 3.0000 0.33333 625.86 687.05 2.9147 1.6341 1.8406 259.71 0.15571 9.0184 0.022182 3.0000 0.33333 625.86 687.05 2.9147 1.6341 1.8406 259.71 0.15571 9.0184 0.022182
59.375 26.710 undefined 627.49 688.88 2.9196 3.0000 0.33333 627.49 688.88 2.9196 1.6386 1.8450 260.09 0.15430 9.0450 0.022303 3.0000 0.33333 627.49 688.88 2.9196 1.6386 1.8450 260.09 0.15430 9.0450 0.022303
60.375 26.794 undefined 629.13 690.71 2.9245 3.0000 0.33333 629.13 690.71 2.9245 1.6430 1.8493 260.47 0.15292 9.0717 0.022423 3.0000 0.33333 629.13 690.71 2.9245 1.6430 1.8493 260.47 0.15292 9.0717 0.022423
61.375 26.878 undefined 630.78 692.55 2.9294 3.0000 0.33333 630.78 692.55 2.9294 1.6475 1.8536 260.85 0.15155 9.0984 0.022545 3.0000 0.33333 630.78 692.55 2.9294 1.6475 1.8536 260.85 0.15155 9.0984 0.022545
62.375 26.962 undefined 632.43 694.39 2.9344 3.0000 0.33333 632.43 694.39 2.9344 1.6519 1.8580 261.23 0.15020 9.1250 0.022666 3.0000 0.33333 632.43 694.39 2.9344 1.6519 1.8580 261.23 0.15020 9.1250 0.022666
63.375 27.046 undefined 634.08 696.24 2.9393 3.0000 0.33333 634.08 696.24 2.9393 1.6564 1.8623 261.61 0.14886 9.1516 0.022788 3.0000 0.33333 634.08 696.24 2.9393 1.6564 1.8623 261.61 0.14886 9.1516 0.022788
64.375 27.130 undefined 635.74 698.09 2.9442 3.0000 0.33333 635.74 698.09 2.9442 1.6609 1.8667 261.98 0.14754 9.1783 0.022910 3.0000 0.33333 635.74 698.09 2.9442 1.6609 1.8667 261.98 0.14754 9.1783 0.022910
65.375 27.214 undefined 637.40 699.95 2.9491 3.0000 0.33333 637.40 699.95 2.9491 1.6653 1.8710 262.36 0.14624 9.2049 0.023032 3.0000 0.33333 637.40 699.95 2.9491 1.6653 1.8710 262.36 0.14624 9.2049 0.023032
66.375 27.298 undefined 639.07 701.81 2.9541 3.0000 0.33333 639.07 701.81 2.9541 1.6698 1.8754 262.74 0.14496 9.2315 0.023155 3.0000 0.33333 639.07 701.81 2.9541 1.6698 1.8754 262.74 0.14496 9.2315 0.023155
67.375 27.382 undefined 640.74 703.67 2.9590 3.0000 0.33333 640.74 703.67 2.9590 1.6743 1.8797 263.11 0.14369 9.2580 0.023278 3.0000 0.33333 640.74 703.67 2.9590 1.6743 1.8797 263.11 0.14369 9.2580 0.023278
68.375 27.466 undefined 642.42 705.54 2.9639 3.0000 0.33333 642.42 705.54 2.9639 1.6787 1.8841 263.49 0.14243 9.2846 0.023401 3.0000 0.33333 642.42 705.54 2.9639 1.6787 1.8841 263.49 0.14243 9.2846 0.023401
69.375 27.550 undefined 644.10 707.42 2.9688 3.0000 0.33333 644.10 707.42 2.9688 1.6832 1.8885 263.86 0.14119 9.3111 0.023524 3.0000 0.33333 644.10 707.42 2.9688 1.6832 1.8885 263.86 0.14119 9.3111 0.023524
70.375 27.634 undefined 645.79 709.30 2.9737 3.0000 0.33333 645.79 709.30 2.9737 1.6877 1.8928 264.23 0.13997 9.3377 0.023648 3.0000 0.33333 645.79 709.30 2.9737 1.6877 1.8928 264.23 0.13997 9.3377 0.023648
71.375 27.718 undefined 647.48 711.18 2.9786 3.0000 0.33333 647.48 711.18 2.9786 1.6921 1.8972 264.61 0.13876 9.3642 0.023772 3.0000 0.33333 647.48 711.18 2.9786 1.6921 1.8972 264.61 0.13876 9.3642 0.023772
72.375 27.802 undefined 649.17 713.07 2.9835 3.0000 0.33333 649.17 713.07 2.9835 1.6966 1.9016 264.98 0.13757 9.3907 0.023896 3.0000 0.33333 649.17 713.07 2.9835 1.6966 1.9016 264.98 0.13757 9.3907 0.023896
73.375 27.885 undefined 650.87 714.96 2.9884 3.0000 0.33333 650.87 714.96 2.9884 1.7011 1.9060 265.35 0.13639 9.4172 0.024021 3.0000 0.33333 650.87 714.96 2.9884 1.7011 1.9060 265.35 0.13639 9.4172 0.024021
74.375 27.969 undefined 652.57 716.85 2.9934 3.0000 0.33333 652.57 716.85 2.9934 1.7056 1.9103 265.72 0.13522 9.4437 0.024146 3.0000 0.33333 652.57 716.85 2.9934 1.7056 1.9103 265.72 0.13522 9.4437 0.024146
75.375 28.053 undefined 654.28 718.75 2.9983 3.0000 0.33333 654.28 718.75 2.9983 1.7100 1.9147 266.09 0.13407 9.4701 0.024271 3.0000 0.33333 654.28 718.75 2.9983 1.7100 1.9147 266.09 0.13407 9.4701 0.024271
76.375 28.137 undefined 655.99 720.66 3.0032 3.0000 0.33333 655.99 720.66 3.0032 1.7145 1.9191 266.46 0.13294 9.4966 0.024397 3.0000 0.33333 655.99 720.66 3.0032 1.7145 1.9191 266.46 0.13294 9.4966 0.024397
77.375 28.221 undefined 657.71 722.57 3.0081 3.0000 0.33333 657.71 722.57 3.0081 1.7190 1.9235 266.83 0.13181 9.5230 0.024522 3.0000 0.33333 657.71 722.57 3.0081 1.7190 1.9235 266.83 0.13181 9.5230 0.024522
78.375 28.305 undefined 659.43 724.48 3.0130 3.0000 0.33333 659.43 724.48 3.0130 1.7235 1.9278 267.20 0.13070 9.5495 0.024649 3.0000 0.33333 659.43 724.48 3.0130 1.7235 1.9278 267.20 0.13070 9.5495 0.024649
79.375 28.388 undefined 661.16 726.40 3.0179 3.0000 0.33333 661.16 726.40 3.0179 1.7280 1.9322 267.57 0.12961 9.5759 0.024775 3.0000 0.33333 661.16 726.40 3.0179 1.7280 1.9322 267.57 0.12961 9.5759 0.024775
80.375 28.472 undefined 662.89 728.32 3.0228 3.0000 0.33333 662.89 728.32 3.0228 1.7324 1.9366 267.93 0.12852 9.6023 0.024902 3.0000 0.33333 662.89 728.32 3.0228 1.7324 1.9366 267.93 0.12852 9.6023 0.024902
81.375 28.556 undefined 664.62 730.25 3.0277 3.0000 0.33333 664.62 730.25 3.0277 1.7369 1.9410 268.30 0.12745 9.6286 0.025029 3.0000 0.33333 664.62 730.25 3.0277 1.7369 1.9410 268.30 0.12745 9.6286 0.025029
82.375 28.640 undefined 666.36 732.18 3.0326 3.0000 0.33333 666.36 732.18 3.0326 1.7414 1.9454 268.67 0.12640 9.6550 0.025156 3.0000 0.33333 666.36 732.18 3.0326 1.7414 1.9454 268.67 0.12640 9.6550 0.025156
83.375 28.724 undefined 668.10 734.12 3.0375 3.0000 0.33333 668.10 734.12 3.0375 1.7459 1.9498 269.03 0.12535 9.6814 0.025283 3.0000 0.33333 668.10 734.12 3.0375 1.7459 1.9498 269.03 0.12535 9.6814 0.025283
84.375 28.807 undefined 669.85 736.06 3.0424 3.0000 0.33333 669.85 736.06 3.0424 1.7503 1.9542 269.40 0.12432 9.7077 0.025411 3.0000 0.33333 669.85 736.06 3.0424 1.7503 1.9542 269.40 0.12432 9.7077 0.025411
85.375 28.891 undefined 671.61 738.00 3.0473 3.0000 0.33333 671.61 738.00 3.0473 1.7548 1.9585 269.76 0.12330 9.7340 0.025539 3.0000 0.33333 671.61 738.00 3.0473 1.7548 1.9585 269.76 0.12330 9.7340 0.025539
86.375 28.975 undefined 673.36 739.95 3.0522 3.0000 0.33333 673.36 739.95 3.0522 1.7593 1.9629 270.13 0.12229 9.7603 0.025668 3.0000 0.33333 673.36 739.95 3.0522 1.7593 1.9629 270.13 0.12229 9.7603 0.025668
87.375 29.059 undefined 675.12 741.91 3.0571 3.0000 0.33333 675.12 741.91 3.0571 1.7638 1.9673 270.49 0.12129 9.7866 0.025797 3.0000 0.33333 675.12 741.91 3.0571 1.7638 1.9673 270.49 0.12129 9.7866 0.025797
88.375 29.142 undefined 676.89 743.87 3.0619 3.0000 0.33333 676.89 743.87 3.0619 1.7683 1.9717 270.85 0.12031 9.8129 0.025926 3.0000 0.33333 676.89 743.87 3.0619 1.7683 1.9717 270.85 0.12031 9.8129 0.025926
89.375 29.226 undefined 678.66 745.83 3.0668 3.0000 0.33333 678.66 745.83 3.0668 1.7727 1.9761 271.22 0.11933 9.8392 0.026055 3.0000 0.33333 678.66 745.83 3.0668 1.7727 1.9761 271.22 0.11933 9.8392 0.026055
90.375 29.310 undefined 680.44 747.80 3.0717 3.0000 0.33333 680.44 747.80 3.0717 1.7772 1.9805 271.58 0.11837 9.8654 0.026185 3.0000 0.33333 680.44 747.80 3.0717 1.7772 1.9805 271.58 0.11837 9.8654 0.026185
91.375 29.393 undefined 682.21 749.77 3.0766 3.0000 0.33333 682.21 749.77 3.0766 1.7817 1.9849 271.94 0.11742 9.8917 0.026314 3.0000 0.33333 682.21 749.77 3.0766 1.7817 1.9849 271.94 0.11742 9.8917 0.026314
92.375 29.477 undefined 684.00 751.74 3.0815 3.0000 0.33333 684.00 751.74 3.0815 1.7862 1.9893 272.30 0.11648 9.9179 0.026445 3.0000 0.33333 684.00 751.74 3.0815 1.7862 1.9893 272.30 0.11648 9.9179 0.026445
93.375 29.561 undefined 685.79 753.73 3.0864 3.0000 0.33333 685.79 753.73 3.0864 1.7906 1.9937 272.66 0.11555 9.9441 0.026575 3.0000 0.33333 685.79 753.73 3.0864 1.7906 1.9937 272.66 0.11555 9.9441 0.026575
94.375 29.644 undefined 687.58 755.71 3.0913 3.0000 0.33333 687.58 755.71 3.0913 1.7951 1.9981 273.02 0.11463 9.9703 0.026706 3.0000 0.33333 687.58 755.71 3.0913 1.7951 1.9981 273.02 0.11463 9.9703 0.026706
95.375 29.728 undefined 689.38 757.70 3.0962 3.0000 0.33333 689.38 757.70 3.0962 1.7996 2.0024 273.38 0.11373 9.9965 0.026837 3.0000 0.33333 689.38 757.70 3.0962 1.7996 2.0024 273.38 0.11373 9.9965 0.026837
96.375 29.812 undefined 691.18 759.69 3.1010 3.0000 0.33333 691.18 759.69 3.1010 1.8040 2.0068 273.74 0.11283 10.023 0.026968 3.0000 0.33333 691.18 759.69 3.1010 1.8040 2.0068 273.74 0.11283 10.023 0.026968
97.375 29.895 undefined 692.99 761.69 3.1059 3.0000 0.33333 692.99 761.69 3.1059 1.8085 2.0112 274.10 0.11194 10.049 0.027100 3.0000 0.33333 692.99 761.69 3.1059 1.8085 2.0112 274.10 0.11194 10.049 0.027100
98.375 29.979 undefined 694.80 763.70 3.1108 3.0000 0.33333 694.80 763.70 3.1108 1.8130 2.0156 274.45 0.11106 10.075 0.027232 3.0000 0.33333 694.80 763.70 3.1108 1.8130 2.0156 274.45 0.11106 10.075 0.027232
99.375 30.063 undefined 696.61 765.70 3.1157 3.0000 0.33333 696.61 765.70 3.1157 1.8174 2.0200 274.81 0.11020 10.101 0.027364 3.0000 0.33333 696.61 765.70 3.1157 1.8174 2.0200 274.81 0.11020 10.101 0.027364
100.38 30.146 undefined 698.43 767.71 3.1206 3.0000 0.33333 698.43 767.71 3.1206 1.8219 2.0244 275.17 0.10934 10.127 0.027497 3.0000 0.33333 698.43 767.71 3.1206 1.8219 2.0244 275.17 0.10934 10.127 0.027497
101.38 30.230 undefined 700.25 769.73 3.1254 3.0000 0.33333 700.25 769.73 3.1254 1.8264 2.0288 275.53 0.10849 10.153 0.027629 3.0000 0.33333 700.25 769.73 3.1254 1.8264 2.0288 275.53 0.10849 10.153 0.027629
102.38 30.314 undefined 702.08 771.75 3.1303 3.0000 0.33333 702.08 771.75 3.1303 1.8308 2.0332 275.88 0.10765 10.179 0.027762 3.0000 0.33333 702.08 771.75 3.1303 1.8308 2.0332 275.88 0.10765 10.179 0.027762
103.38 30.397 undefined 703.92 773.78 3.1352 3.0000 0.33333 703.92 773.78 3.1352 1.8353 2.0375 276.24 0.10683 10.205 0.027896 3.0000 0.33333 703.92 773.78 3.1352 1.8353 2.0375 276.24 0.10683 10.205 0.027896
104.38 30.481 undefined 705.75 775.81 3.1401 3.0000 0.33333 705.75 775.81 3.1401 1.8397 2.0419 276.59 0.10601 10.231 0.028029 3.0000 0.33333 705.75 775.81 3.1401 1.8397 2.0419 276.59 0.10601 10.231 0.028029
105.38 30.564 undefined 707.60 777.84 3.1449 3.0000 0.33333 707.60 777.84 3.1449 1.8442 2.0463 276.95 0.10520 10.257 0.028163 3.0000 0.33333 707.60 777.84 3.1449 1.8442 2.0463 276.95 0.10520 10.257 0.028163
106.38 30.648 undefined 709.44 779.88 3.1498 3.0000 0.33333 709.44 779.88 3.1498 1.8487 2.0507 277.30 0.10439 10.283 0.028298 3.0000 0.33333 709.44 779.88 3.1498 1.8487 2.0507 277.30 0.10439 10.283 0.028298
107.38 30.732 undefined 711.29 781.92 3.1547 3.0000 0.33333 711.29 781.92 3.1547 1.8531 2.0551 277.65 0.10360 10.309 0.028432 3.0000 0.33333 711.29 781.92 3.1547 1.8531 2.0551 277.65 0.10360 10.309 0.028432
108.38 30.815 undefined 713.15 783.97 3.1595 3.0000 0.33333 713.15 783.97 3.1595 1.8576 2.0595 278.01 0.10282 10.335 0.028567 3.0000 0.33333 713.15 783.97 3.1595 1.8576 2.0595 278.01 0.10282 10.335 0.028567
109.38 30.899 undefined 715.01 786.02 3.1644 3.0000 0.33333 715.01 786.02 3.1644 1.8620 2.0638 278.36 0.10204 10.361 0.028702 3.0000 0.33333 715.01 786.02 3.1644 1.8620 2.0638 278.36 0.10204 10.361 0.028702
110.38 30.982 undefined 716.87 788.08 3.1693 3.0000 0.33333 716.87 788.08 3.1693 1.8665 2.0682 278.71 0.10128 10.387 0.028838 3.0000 0.33333 716.87 788.08 3.1693 1.8665 2.0682 278.71 0.10128 10.387 0.028838
111.38 31.066 undefined 718.74 790.14 3.1741 3.0000 0.33333 718.74 790.14 3.1741 1.8709 2.0726 279.06 0.10052 10.413 0.028973 3.0000 0.33333 718.74 790.14 3.1741 1.8709 2.0726 279.06 0.10052 10.413 0.028973
112.38 31.149 undefined 720.61 792.20 3.1790 3.0000 0.33333 720.61 792.20 3.1790 1.8753 2.0770 279.41 0.099771 10.439 0.029109 3.0000 0.33333 720.61 792.20 3.1790 1.8753 2.0770 279.41 0.099771 10.439 0.029109
113.38 31.233 undefined 722.49 794.27 3.1839 3.0000 0.33333 722.49 794.27 3.1839 1.8798 2.0813 279.76 0.099030 10.465 0.029246 3.0000 0.33333 722.49 794.27 3.1839 1.8798 2.0813 279.76 0.099030 10.465 0.029246
114.38 31.316 undefined 724.37 796.35 3.1887 3.0000 0.33333 724.37 796.35 3.1887 1.8842 2.0857 280.11 0.098296 10.491 0.029382 3.0000 0.33333 724.37 796.35 3.1887 1.8842 2.0857 280.11 0.098296 10.491 0.029382
115.38 31.400 undefined 726.26 798.43 3.1936 3.0000 0.33333 726.26 798.43 3.1936 1.8886 2.0901 280.46 0.097571 10.517 0.029519 3.0000 0.33333 726.26 798.43 3.1936 1.8886 2.0901 280.46 0.097571 10.517 0.029519
116.38 31.484 undefined 728.15 800.51 3.1985 3.0000 0.33333 728.15 800.51 3.1985 1.8931 2.0944 280.81 0.096854 10.543 0.029656 3.0000 0.33333 728.15 800.51 3.1985 1.8931 2.0944 280.81 0.096854 10.543 0.029656
117.38 31.567 undefined 730.05 802.60 3.2033 3.0000 0.33333 730.05 802.60 3.2033 1.8975 2.0988 281.16 0.096144 10.569 0.029794 3.0000 0.33333 730.05 802.60 3.2033 1.8975 2.0988 281.16 0.096144 10.569 0.029794
118.38 31.651 undefined 731.95 804.69 3.2082 3.0000 0.33333 731.95 804.69 3.2082 1.9019 2.1032 281.51 0.095442 10.594 0.029932 3.0000 0.33333 731.95 804.69 3.2082 1.9019 2.1032 281.51 0.095442 10.594 0.029932
119.38 31.734 undefined 733.85 806.78 3.2130 3.0000 0.33333 733.85 806.78 3.2130 1.9064 2.1075 281.86 0.094748 10.620 0.030070 3.0000 0.33333 733.85 806.78 3.2130 1.9064 2.1075 281.86 0.094748 10.620 0.030070
120.38 31.818 undefined 735.76 808.88 3.2179 3.0000 0.33333 735.76 808.88 3.2179 1.9108 2.1119 282.20 0.094061 10.646 0.030208 3.0000 0.33333 735.76 808.88 3.2179 1.9108 2.1119 282.20 0.094061 10.646 0.030208
121.38 31.901 undefined 737.67 810.99 3.2227 3.0000 0.33333 737.67 810.99 3.2227 1.9152 2.1162 282.55 0.093381 10.672 0.030347 3.0000 0.33333 737.67 810.99 3.2227 1.9152 2.1162 282.55 0.093381 10.672 0.030347
122.38 31.985 undefined 739.59 813.10 3.2276 3.0000 0.33333 739.59 813.10 3.2276 1.9196 2.1206 282.90 0.092709 10.698 0.030486 3.0000 0.33333 739.59 813.10 3.2276 1.9196 2.1206 282.90 0.092709 10.698 0.030486
123.38 32.068 undefined 741.51 815.21 3.2324 3.0000 0.33333 741.51 815.21 3.2324 1.9240 2.1249 283.24 0.092044 10.723 0.030625 3.0000 0.33333 741.51 815.21 3.2324 1.9240 2.1249 283.24 0.092044 10.723 0.030625
124.38 32.151 undefined 743.44 817.33 3.2373 3.0000 0.33333 743.44 817.33 3.2373 1.9284 2.1293 283.59 0.091385 10.749 0.030764 3.0000 0.33333 743.44 817.33 3.2373 1.9284 2.1293 283.59 0.091385 10.749 0.030764
125.38 32.235 undefined 745.37 819.45 3.2422 3.0000 0.33333 745.37 819.45 3.2422 1.9328 2.1336 283.93 0.090734 10.775 0.030904 3.0000 0.33333 745.37 819.45 3.2422 1.9328 2.1336 283.93 0.090734 10.775 0.030904
126.38 32.318 undefined 747.30 821.58 3.2470 3.0000 0.33333 747.30 821.58 3.2470 1.9372 2.1380 284.28 0.090090 10.801 0.031044 3.0000 0.33333 747.30 821.58 3.2470 1.9372 2.1380 284.28 0.090090 10.801 0.031044
127.38 32.402 undefined 749.24 823.71 3.2518 3.0000 0.33333 749.24 823.71 3.2518 1.9416 2.1423 284.62 0.089452 10.826 0.031185 3.0000 0.33333 749.24 823.71 3.2518 1.9416 2.1423 284.62 0.089452 10.826 0.031185
128.38 32.485 undefined 751.19 825.85 3.2567 3.0000 0.33333 751.19 825.85 3.2567 1.9460 2.1467 284.97 0.088821 10.852 0.031325 3.0000 0.33333 751.19 825.85 3.2567 1.9460 2.1467 284.97 0.088821 10.852 0.031325
129.38 32.569 undefined 753.13 827.99 3.2615 3.0000 0.33333 753.13 827.99 3.2615 1.9504 2.1510 285.31 0.088197 10.878 0.031466 3.0000 0.33333 753.13 827.99 3.2615 1.9504 2.1510 285.31 0.088197 10.878 0.031466
130.38 32.652 undefined 755.09 830.13 3.2664 3.0000 0.33333 755.09 830.13 3.2664 1.9548 2.1553 285.65 0.087579 10.903 0.031608 3.0000 0.33333 755.09 830.13 3.2664 1.9548 2.1553 285.65 0.087579 10.903 0.031608
131.38 32.736 undefined 757.04 832.28 3.2712 3.0000 0.33333 757.04 832.28 3.2712 1.9592 2.1597 285.99 0.086968 10.929 0.031749 3.0000 0.33333 757.04 832.28 3.2712 1.9592 2.1597 285.99 0.086968 10.929 0.031749
132.38 32.819 undefined 759.01 834.43 3.2761 3.0000 0.33333 759.01 834.43 3.2761 1.9636 2.1640 286.34 0.086362 10.955 0.031891 3.0000 0.33333 759.01 834.43 3.2761 1.9636 2.1640 286.34 0.086362 10.955 0.031891
133.38 32.903 undefined 760.97 836.59 3.2809 3.0000 0.33333 760.97 836.59 3.2809 1.9680 2.1683 286.68 0.085764 10.980 0.032033 3.0000 0.33333 760.97 836.59 3.2809 1.9680 2.1683 286.68 0.085764 10.980 0.032033
134.38 32.986 undefined 762.94 838.75 3.2858 3.0000 0.33333 762.94 838.75 3.2858 1.9723 2.1726 287.02 0.085171 11.006 0.032175 3.0000 0.33333 762.94 838.75 3.2858 1.9723 2.1726 287.02 0.085171 11.006 0.032175
135.38 33.069 undefined 764.92 840.92 3.2906 3.0000 0.33333 764.92 840.92 3.2906 1.9767 2.1770 287.36 0.084584 11.031 0.032318 3.0000 0.33333 764.92 840.92 3.2906 1.9767 2.1770 287.36 0.084584 11.031 0.032318
136.38 33.153 undefined 766.90 843.09 3.2954 3.0000 0.33333 766.90 843.09 3.2954 1.9811 2.1813 287.70 0.084004 11.057 0.032461 3.0000 0.33333 766.90 843.09 3.2954 1.9811 2.1813 287.70 0.084004 11.057 0.032461
137.38 33.236 undefined 768.88 845.26 3.3003 3.0000 0.33333 768.88 845.26 3.3003 1.9854 2.1856 288.04 0.083429 11.082 0.032604 3.0000 0.33333 768.88 845.26 3.3003 1.9854 2.1856 288.04 0.083429 11.082 0.032604
138.38 33.320 undefined 770.87 847.44 3.3051 3.0000 0.33333 770.87 847.44 3.3051 1.9898 2.1899 288.38 0.082860 11.108 0.032748 3.0000 0.33333 770.87 847.44 3.3051 1.9898 2.1899 288.38 0.082860 11.108 0.032748
139.38 33.403 undefined 772.86 849.63 3.3099 3.0000 0.33333 772.86 849.63 3.3099 1.9942 2.1942 288.72 0.082297 11.133 0.032892 3.0000 0.33333 772.86 849.63 3.3099 1.9942 2.1942 288.72 0.082297 11.133 0.032892
140.38 33.486 undefined 774.85 851.81 3.3148 3.0000 0.33333 774.85 851.81 3.3148 1.9985 2.1985 289.06 0.081739 11.159 0.033036 3.0000 0.33333 774.85 851.81 3.3148 1.9985 2.1985 289.06 0.081739 11.159 0.033036
141.38 33.570 undefined 776.86 854.01 3.3196 3.0000 0.33333 776.86 854.01 3.3196 2.0029 2.2028 289.40 0.081187 11.184 0.033181 3.0000 0.33333 776.86 854.01 3.3196 2.0029 2.2028 289.40 0.081187 11.184 0.033181
142.38 33.653 undefined 778.86 856.20 3.3244 3.0000 0.33333 778.86 856.20 3.3244 2.0072 2.2071 289.73 0.080641 11.210 0.033325 3.0000 0.33333 778.86 856.20 3.3244 2.0072 2.2071 289.73 0.080641 11.210 0.033325
143.38 33.737 undefined 780.87 858.40 3.3293 3.0000 0.33333 780.87 858.40 3.3293 2.0116 2.2114 290.07 0.080100 11.235 0.033470 3.0000 0.33333 780.87 858.40 3.3293 2.0116 2.2114 290.07 0.080100 11.235 0.033470
144.38 33.820 undefined 782.88 860.61 3.3341 3.0000 0.33333 782.88 860.61 3.3341 2.0159 2.2157 290.41 0.079565 11.261 0.033616 3.0000 0.33333 782.88 860.61 3.3341 2.0159 2.2157 290.41 0.079565 11.261 0.033616
145.38 33.903 undefined 784.90 862.82 3.3389 3.0000 0.33333 784.90 862.82 3.3389 2.0202 2.2200 290.75 0.079035 11.286 0.033761 3.0000 0.33333 784.90 862.82 3.3389 2.0202 2.2200 290.75 0.079035 11.286 0.033761
146.38 33.987 undefined 786.92 865.03 3.3437 3.0000 0.33333 786.92 865.03 3.3437 2.0246 2.2242 291.08 0.078510 11.312 0.033907 3.0000 0.33333 786.92 865.03 3.3437 2.0246 2.2242 291.08 0.078510 11.312 0.033907
147.38 34.070 undefined 788.95 867.25 3.3486 3.0000 0.33333 788.95 867.25 3.3486 2.0289 2.2285 291.42 0.077990 11.337 0.034054 3.0000 0.33333 788.95 867.25 3.3486 2.0289 2.2285 291.42 0.077990 11.337 0.034054
148.38 34.153 undefined 790.98 869.47 3.3534 3.0000 0.33333 790.98 869.47 3.3534 2.0332 2.2328 291.75 0.077476 11.362 0.034200 3.0000 0.33333 790.98 869.47 3.3534 2.0332 2.2328 291.75 0.077476 11.362 0.034200
149.38 34.237 undefined 793.02 871.70 3.3582 3.0000 0.33333 793.02 871.70 3.3582 2.0375 2.2371 292.09 0.076966 11.388 0.034347 3.0000 0.33333 793.02 871.70 3.3582 2.0375 2.2371 292.09 0.076966 11.388 0.034347
150.38 34.320 undefined 795.06 873.93 3.3630 3.0000 0.33333 795.06 873.93 3.3630 2.0418 2.2413 292.42 0.076461 11.413 0.034494 3.0000 0.33333 795.06 873.93 3.3630 2.0418 2.2413 292.42 0.076461 11.413 0.034494
151.38 34.403 undefined 797.10 876.17 3.3679 3.0000 0.33333 797.10 876.17 3.3679 2.0462 2.2456 292.76 0.075962 11.438 0.034641 3.0000 0.33333 797.10 876.17 3.3679 2.0462 2.2456 292.76 0.075962 11.438 0.034641
152.38 34.487 undefined 799.15 878.41 3.3727 3.0000 0.33333 799.15 878.41 3.3727 2.0505 2.2499 293.09 0.075467 11.464 0.034789 3.0000 0.33333 799.15 878.41 3.3727 2.0505 2.2499 293.09 0.075467 11.464 0.034789
153.38 34.570 undefined 801.20 880.65 3.3775 3.0000 0.33333 801.20 880.65 3.3775 2.0548 2.2541 293.43 0.074977 11.489 0.034937 3.0000 0.33333 801.20 880.65 3.3775 2.0548 2.2541 293.43 0.074977 11.489 0.034937
154.38 34.653 undefined 803.26 882.90 3.3823 3.0000 0.33333 803.26 882.90 3.3823 2.0591 2.2584 293.76 0.074492 11.514 0.035085 3.0000 0.33333 803.26 882.90 3.3823 2.0591 2.2584 293.76 0.074492 11.514 0.035085
155.38 34.737 undefined 805.32 885.15 3.3871 3.0000 0.33333 805.32 885.15 3.3871 2.0634 2.2626 294.09 0.074011 11.539 0.035234 3.0000 0.33333 805.32 885.15 3.3871 2.0634 2.2626 294.09 0.074011 11.539 0.035234
156.38 34.820 undefined 807.39 887.41 3.3919 3.0000 0.33333 807.39 887.41 3.3919 2.0676 2.2669 294.43 0.073536 11.565 0.035383 3.0000 0.33333 807.39 887.41 3.3919 2.0676 2.2669 294.43 0.073536 11.565 0.035383
157.38 34.903 undefined 809.45 889.67 3.3968 3.0000 0.33333 809.45 889.67 3.3968 2.0719 2.2711 294.76 0.073064 11.590 0.035532 3.0000 0.33333 809.45 889.67 3.3968 2.0719 2.2711 294.76 0.073064 11.590 0.035532
158.38 34.987 undefined 811.53 891.94 3.4016 3.0000 0.33333 811.53 891.94 3.4016 2.0762 2.2753 295.09 0.072597 11.615 0.035681 3.0000 0.33333 811.53 891.94 3.4016 2.0762 2.2753 295.09 0.072597 11.615 0.035681
159.38 35.070 undefined 813.61 894.21 3.4064 3.0000 0.33333 813.61 894.21 3.4064 2.0805 2.2796 295.42 0.072135 11.640 0.035831 3.0000 0.33333 813.61 894.21 3.4064 2.0805 2.2796 295.42 0.072135 11.640 0.035831
160.38 35.153 undefined 815.69 896.48 3.4112 3.0000 0.33333 815.69 896.48 3.4112 2.0848 2.2838 295.75 0.071677 11.665 0.035981 3.0000 0.33333 815.69 896.48 3.4112 2.0848 2.2838 295.75 0.071677 11.665 0.035981
161.38 35.237 undefined 817.78 898.76 3.4160 3.0000 0.33333 817.78 898.76 3.4160 2.0890 2.2880 296.08 0.071223 11.690 0.036131 3.0000 0.33333 817.78 898.76 3.4160 2.0890 2.2880 296.08 0.071223 11.690 0.036131
162.38 35.320 undefined 819.87 901.04 3.4208 3.0000 0.33333 819.87 901.04 3.4208 2.0933 2.2922 296.41 0.070774 11.716 0.036282 3.0000 0.33333 819.87 901.04 3.4208 2.0933 2.2922 296.41 0.070774 11.716 0.036282
163.38 35.403 undefined 821.96 903.33 3.4256 3.0000 0.33333 821.96 903.33 3.4256 2.0975 2.2965 296.74 0.070329 11.741 0.036433 3.0000 0.33333 821.96 903.33 3.4256 2.0975 2.2965 296.74 0.070329 11.741 0.036433
164.38 35.487 undefined 824.06 905.62 3.4304 3.0000 0.33333 824.06 905.62 3.4304 2.1018 2.3007 297.07 0.069888 11.766 0.036584 3.0000 0.33333 824.06 905.62 3.4304 2.1018 2.3007 297.07 0.069888 11.766 0.036584
165.38 35.570 undefined 826.17 907.92 3.4352 3.0000 0.33333 826.17 907.92 3.4352 2.1060 2.3049 297.40 0.069451 11.791 0.036735 3.0000 0.33333 826.17 907.92 3.4352 2.1060 2.3049 297.40 0.069451 11.791 0.036735
166.38 35.653 undefined 828.28 910.22 3.4400 3.0000 0.33333 828.28 910.22 3.4400 2.1103 2.3091 297.73 0.069018 11.816 0.036887 3.0000 0.33333 828.28 910.22 3.4400 2.1103 2.3091 297.73 0.069018 11.816 0.036887
167.38 35.736 undefined 830.39 912.52 3.4448 3.0000 0.33333 830.39 912.52 3.4448 2.1145 2.3133 298.06 0.068589 11.841 0.037039 3.0000 0.33333 830.39 912.52 3.4448 2.1145 2.3133 298.06 0.068589 11.841 0.037039
168.38 35.820 undefined 832.50 914.83 3.4496 3.0000 0.33333 832.50 914.83 3.4496 2.1188 2.3175 298.39 0.068164 11.866 0.037191 3.0000 0.33333 832.50 914.83 3.4496 2.1188 2.3175 298.39 0.068164 11.866 0.037191
169.38 35.903 undefined 834.63 917.14 3.4544 3.0000 0.33333 834.63 917.14 3.4544 2.1230 2.3217 298.71 0.067743 11.891 0.037344 3.0000 0.33333 834.63 917.14 3.4544 2.1230 2.3217 298.71 0.067743 11.891 0.037344
170.38 35.986 undefined 836.75 919.46 3.4592 3.0000 0.33333 836.75 919.46 3.4592 2.1272 2.3258 299.04 0.067326 11.916 0.037497 3.0000 0.33333 836.75 919.46 3.4592 2.1272 2.3258 299.04 0.067326 11.916 0.037497
171.38 36.070 undefined 838.88 921.78 3.4640 3.0000 0.33333 838.88 921.78 3.4640 2.1314 2.3300 299.37 0.066913 11.941 0.037650 3.0000 0.33333 838.88 921.78 3.4640 2.1314 2.3300 299.37 0.066913 11.941 0.037650
172.38 36.153 undefined 841.01 924.10 3.4688 3.0000 0.33333 841.01 924.10 3.4688 2.1356 2.3342 299.69 0.066504 11.966 0.037804 3.0000 0.33333 841.01 924.10 3.4688 2.1356 2.3342 299.69 0.066504 11.966 0.037804
173.38 36.236 undefined 843.15 926.43 3.4736 3.0000 0.33333 843.15 926.43 3.4736 2.1399 2.3384 300.02 0.066098 11.991 0.037958 3.0000 0.33333 843.15 926.43 3.4736 2.1399 2.3384 300.02 0.066098 11.991 0.037958
174.38 36.319 undefined 845.29 928.76 3.4784 3.0000 0.33333 845.29 928.76 3.4784 2.1441 2.3425 300.35 0.065696 12.016 0.038112 3.0000 0.33333 845.29 928.76 3.4784 2.1441 2.3425 300.35 0.065696 12.016 0.038112
175.38 36.403 undefined 847.44 931.10 3.4832 3.0000 0.33333 847.44 931.10 3.4832 2.1483 2.3467 300.67 0.065298 12.041 0.038266 3.0000 0.33333 847.44 931.10 3.4832 2.1483 2.3467 300.67 0.065298 12.041 0.038266
176.38 36.486 undefined 849.59 933.44 3.4880 3.0000 0.33333 849.59 933.44 3.4880 2.1525 2.3509 301.00 0.064903 12.066 0.038421 3.0000 0.33333 849.59 933.44 3.4880 2.1525 2.3509 301.00 0.064903 12.066 0.038421
177.38 36.569 undefined 851.74 935.79 3.4928 3.0000 0.33333 851.74 935.79 3.4928 2.1566 2.3550 301.32 0.064512 12.091 0.038576 3.0000 0.33333 851.74 935.79 3.4928 2.1566 2.3550 301.32 0.064512 12.091 0.038576
178.38 36.652 undefined 853.90 938.14 3.4975 3.0000 0.33333 853.90 938.14 3.4975 2.1608 2.3592 301.65 0.064124 12.115 0.038731 3.0000 0.33333 853.90 938.14 3.4975 2.1608 2.3592 301.65 0.064124 12.115 0.038731
179.38 36.736 undefined 856.07 940.49 3.5023 3.0000 0.33333 856.07 940.49 3.5023 2.1650 2.3633 301.97 0.063740 12.140 0.038886 3.0000 0.33333 856.07 940.49 3.5023 2.1650 2.3633 301.97 0.063740 12.140 0.038886
180.38 36.819 undefined 858.23 942.85 3.5071 3.0000 0.33333 858.23 942.85 3.5071 2.1692 2.3674 302.30 0.063359 12.165 0.039042 3.0000 0.33333 858.23 942.85 3.5071 2.1692 2.3674 302.30 0.063359 12.165 0.039042
181.38 36.902 undefined 860.40 945.21 3.5119 3.0000 0.33333 860.40 945.21 3.5119 2.1734 2.3716 302.62 0.062981 12.190 0.039198 3.0000 0.33333 860.40 945.21 3.5119 2.1734 2.3716 302.62 0.062981 12.190 0.039198
182.38 36.985 undefined 862.58 947.58 3.5167 3.0000 0.33333 862.58 947.58 3.5167 2.1775 2.3757 302.94 0.062607 12.215 0.039355 3.0000 0.33333 862.58 947.58 3.5167 2.1775 2.3757 302.94 0.062607 12.215 0.039355
183.38 37.069 undefined 864.76 949.95 3.5215 3.0000 0.33333 864.76 949.95 3.5215 2.1817 2.3798 303.26 0.062236 12.240 0.039512 3.0000 0.33333 864.76 949.95 3.5215 2.1817 2.3798 303.26 0.062236 12.240 0.039512
184.38 37.152 undefined 866.94 952.33 3.5262 3.0000 0.33333 866.94 952.33 3.5262 2.1858 2.3839 303.59 0.061869 12.264 0.039669 3.0000 0.33333 866.94 952.33 3.5262 2.1858 2.3839 303.59 0.061869 12.264 0.039669
185.38 37.235 undefined 869.13 954.71 3.5310 3.0000 0.33333 869.13 954.71 3.5310 2.1900 2.3881 303.91 0.061504 12.289 0.039826 3.0000 0.33333 869.13 954.71 3.5310 2.1900 2.3881 303.91 0.061504 12.289 0.039826
186.38 37.318 undefined 871.32 957.09 3.5358 3.0000 0.33333 871.32 957.09 3.5358 2.1941 2.3922 304.23 0.061143 12.314 0.039983 3.0000 0.33333 871.32 957.09 3.5358 2.1941 2.3922 304.23 0.061143 12.314 0.039983
187.38 37.401 undefined 873.52 959.48 3.5406 3.0000 0.33333 873.52 959.48 3.5406 2.1983 2.3963 304.55 0.060785 12.338 0.040141 3.0000 0.33333 873.52 959.48 3.5406 2.1983 2.3963 304.55 0.060785 12.338 0.040141
188.38 37.485 undefined 875.72 961.87 3.5453 3.0000 0.33333 875.72 961.87 3.5453 2.2024 2.4004 304.87 0.060430 12.363 0.040299 3.0000 0.33333 875.72 961.87 3.5453 2.2024 2.4004 304.87 0.060430 12.363 0.040299
189.38 37.568 undefined 877.92 964.26 3.5501 3.0000 0.33333 877.92 964.26 3.5501 2.2065 2.4045 305.19 0.060079 12.388 0.040458 3.0000 0.33333 877.92 964.26 3.5501 2.2065 2.4045 305.19 0.060079 12.388 0.040458
190.38 37.651 undefined 880.13 966.66 3.5549 3.0000 0.33333 880.13 966.66 3.5549 2.2107 2.4086 305.51 0.059730 12.412 0.040617 3.0000 0.33333 880.13 966.66 3.5549 2.2107 2.4086 305.51 0.059730 12.412 0.040617
191.38 37.734 undefined 882.34 969.07 3.5596 3.0000 0.33333 882.34 969.07 3.5596 2.2148 2.4126 305.83 0.059384 12.437 0.040776 3.0000 0.33333 882.34 969.07 3.5596 2.2148 2.4126 305.83 0.059384 12.437 0.040776
192.38 37.818 undefined 884.56 971.48 3.5644 3.0000 0.33333 884.56 971.48 3.5644 2.2189 2.4167 306.15 0.059041 12.462 0.040935 3.0000 0.33333 884.56 971.48 3.5644 2.2189 2.4167 306.15 0.059041 12.462 0.040935
193.38 37.901 undefined 886.78 973.89 3.5692 3.0000 0.33333 886.78 973.89 3.5692 2.2230 2.4208 306.47 0.058701 12.486 0.041095 3.0000 0.33333 886.78 973.89 3.5692 2.2230 2.4208 306.47 0.058701 12.486 0.041095
194.38 37.984 undefined 889.01 976.30 3.5739 3.0000 0.33333 889.01 976.30 3.5739 2.2271 2.4249 306.79 0.058364 12.511 0.041255 3.0000 0.33333 889.01 976.30 3.5739 2.2271 2.4249 306.79 0.058364 12.511 0.041255
195.38 38.067 undefined 891.24 978.72 3.5787 3.0000 0.33333 891.24 978.72 3.5787 2.2312 2.4289 307.11 0.058030 12.536 0.041415 3.0000 0.33333 891.24 978.72 3.5787 2.2312 2.4289 307.11 0.058030 12.536 0.041415
196.38 38.150 undefined 893.47 981.15 3.5835 3.0000 0.33333 893.47 981.15 3.5835 2.2353 2.4330 307.43 0.057699 12.560 0.041575 3.0000 0.33333 893.47 981.15 3.5835 2.2353 2.4330 307.43 0.057699 12.560 0.041575
197.38 38.234 undefined 895.71 983.58 3.5882 3.0000 0.33333 895.71 983.58 3.5882 2.2394 2.4370 307.75 0.057371 12.585 0.041736 3.0000 0.33333 895.71 983.58 3.5882 2.2394 2.4370 307.75 0.057371 12.585 0.041736
198.38 38.317 undefined 897.95 986.01 3.5930 3.0000 0.33333 897.95 986.01 3.5930 2.2435 2.4411 308.07 0.057045 12.609 0.041897 3.0000 0.33333 897.95 986.01 3.5930 2.2435 2.4411 308.07 0.057045 12.609 0.041897
199.38 38.400 undefined 900.19 988.45 3.5977 3.0000 0.33333 900.19 988.45 3.5977 2.2475 2.4451 308.38 0.056722 12.634 0.042059 3.0000 0.33333 900.19 988.45 3.5977 2.2475 2.4451 308.38 0.056722 12.634 0.042059
200.38 38.483 undefined 902.44 990.89 3.6025 3.0000 0.33333 902.44 990.89 3.6025 2.2516 2.4492 308.70 0.056402 12.658 0.042220 3.0000 0.33333 902.44 990.89 3.6025 2.2516 2.4492 308.70 0.056402 12.658 0.042220
201.38 38.566 undefined 904.70 993.33 3.6073 3.0000 0.33333 904.70 993.33 3.6073 2.2557 2.4532 309.02 0.056084 12.683 0.042382 3.0000 0.33333 904.70 993.33 3.6073 2.2557 2.4532 309.02 0.056084 12.683 0.042382
202.38 38.650 undefined 906.96 995.78 3.6120 3.0000 0.33333 906.96 995.78 3.6120 2.2597 2.4572 309.33 0.055769 12.707 0.042544 3.0000 0.33333 906.96 995.78 3.6120 2.2597 2.4572 309.33 0.055769 12.707 0.042544
203.38 38.733 undefined 909.22 998.23 3.6168 3.0000 0.33333 909.22 998.23 3.6168 2.2638 2.4613 309.65 0.055457 12.731 0.042707 3.0000 0.33333 909.22 998.23 3.6168 2.2638 2.4613 309.65 0.055457 12.731 0.042707
204.38 38.816 undefined 911.48 1000.7 3.6215 3.0000 0.33333 911.48 1000.7 3.6215 2.2678 2.4653 309.97 0.055147 12.756 0.042870 3.0000 0.33333 911.48 1000.7 3.6215 2.2678 2.4653 309.97 0.055147 12.756 0.042870
205.38 38.899 undefined 913.75 1003.2 3.6263 3.0000 0.33333 913.75 1003.2 3.6263 2.2719 2.4693 310.28 0.054840 12.780 0.043033 3.0000 0.33333 913.75 1003.2 3.6263 2.2719 2.4693 310.28 0.054840 12.780 0.043033
206.38 38.982 undefined 916.03 1005.6 3.6310 3.0000 0.33333 916.03 1005.6 3.6310 2.2759 2.4733 310.60 0.054535 12.805 0.043196 3.0000 0.33333 916.03 1005.6 3.6310 2.2759 2.4733 310.60 0.054535 12.805 0.043196
207.38 39.065 undefined 918.30 1008.1 3.6357 3.0000 0.33333 918.30 1008.1 3.6357 2.2799 2.4773 310.91 0.054233 12.829 0.043360 3.0000 0.33333 918.30 1008.1 3.6357 2.2799 2.4773 310.91 0.054233 12.829 0.043360
208.38 39.149 undefined 920.59 1010.6 3.6405 3.0000 0.33333 920.59 1010.6 3.6405 2.2840 2.4813 311.23 0.053933 12.853 0.043524 3.0000 0.33333 920.59 1010.6 3.6405 2.2840 2.4813 311.23 0.053933 12.853 0.043524
209.38 39.232 undefined 922.87 1013.0 3.6452 3.0000 0.33333 922.87 1013.0 3.6452 2.2880 2.4853 311.54 0.053636 12.878 0.043688 3.0000 0.33333 922.87 1013.0 3.6452 2.2880 2.4853 311.54 0.053636 12.878 0.043688
210.38 39.315 undefined 925.16 1015.5 3.6500 3.0000 0.33333 925.16 1015.5 3.6500 2.2920 2.4893 311.86 0.053341 12.902 0.043853 3.0000 0.33333 925.16 1015.5 3.6500 2.2920 2.4893 311.86 0.053341 12.902 0.043853
211.38 39.398 undefined 927.46 1018.0 3.6547 3.0000 0.33333 927.46 1018.0 3.6547 2.2960 2.4933 312.17 0.053048 12.926 0.044018 3.0000 0.33333 927.46 1018.0 3.6547 2.2960 2.4933 312.17 0.053048 12.926 0.044018
212.38 39.481 undefined 929.75 1020.5 3.6595 3.0000 0.33333 929.75 1020.5 3.6595 2.3000 2.4973 312.48 0.052758 12.951 0.044183 3.0000 0.33333 929.75 1020.5 3.6595 2.3000 2.4973 312.48 0.052758 12.951 0.044183
213.38 39.564 undefined 932.06 1023.0 3.6642 3.0000 0.33333 932.06 1023.0 3.6642 2.3040 2.5012 312.80 0.052470 12.975 0.044348 3.0000 0.33333 932.06 1023.0 3.6642 2.3040 2.5012 312.80 0.052470 12.975 0.044348
214.38 39.648 undefined 934.36 1025.5 3.6689 3.0000 0.33333 934.36 1025.5 3.6689 2.3080 2.5052 313.11 0.052185 12.999 0.044514 3.0000 0.33333 934.36 1025.5 3.6689 2.3080 2.5052 313.11 0.052185 12.999 0.044514
215.38 39.731 undefined 936.67 1028.0 3.6737 3.0000 0.33333 936.67 1028.0 3.6737 2.3120 2.5092 313.42 0.051902 13.023 0.044680 3.0000 0.33333 936.67 1028.0 3.6737 2.3120 2.5092 313.42 0.051902 13.023 0.044680
216.38 39.814 undefined 938.99 1030.5 3.6784 3.0000 0.33333 938.99 1030.5 3.6784 2.3160 2.5131 313.73 0.051621 13.047 0.044847 3.0000 0.33333 938.99 1030.5 3.6784 2.3160 2.5131 313.73 0.051621 13.047 0.044847
217.38 39.897 undefined 941.30 1033.0 3.6831 3.0000 0.33333 941.30 1033.0 3.6831 2.3200 2.5171 314.04 0.051342 13.072 0.045013 3.0000 0.33333 941.30 1033.0 3.6831 2.3200 2.5171 314.04 0.051342 13.072 0.045013
218.38 39.980 undefined 943.63 1035.5 3.6878 3.0000 0.33333 943.63 1035.5 3.6878 2.3240 2.5210 314.36 0.051065 13.096 0.045180 3.0000 0.33333 943.63 1035.5 3.6878 2.3240 2.5210 314.36 0.051065 13.096 0.045180
219.38 40.063 undefined 945.95 1038.0 3.6926 3.0000 0.33333 945.95 1038.0 3.6926 2.3279 2.5250 314.67 0.050791 13.120 0.045347 3.0000 0.33333 945.95 1038.0 3.6926 2.3279 2.5250 314.67 0.050791 13.120 0.045347
220.38 40.147 undefined 948.28 1040.5 3.6973 3.0000 0.33333 948.28 1040.5 3.6973 2.3319 2.5289 314.98 0.050519 13.144 0.045515 3.0000 0.33333 948.28 1040.5 3.6973 2.3319 2.5289 314.98 0.050519 13.144 0.045515
221.38 40.230 undefined 950.62 1043.1 3.7020 3.0000 0.33333 950.62 1043.1 3.7020 2.3359 2.5328 315.29 0.050249 13.168 0.045683 3.0000 0.33333 950.62 1043.1 3.7020 2.3359 2.5328 315.29 0.050249 13.168 0.045683
222.38 40.313 undefined 952.95 1045.6 3.7067 3.0000 0.33333 952.95 1045.6 3.7067 2.3398 2.5367 315.60 0.049981 13.192 0.045851 3.0000 0.33333 952.95 1045.6 3.7067 2.3398 2.5367 315.60 0.049981 13.192 0.045851
223.38 40.396 undefined 955.30 1048.1 3.7115 3.0000 0.33333 955.30 1048.1 3.7115 2.3437 2.5407 315.91 0.049715 13.216 0.046019 3.0000 0.33333 955.30 1048.1 3.7115 2.3437 2.5407 315.91 0.049715 13.216 0.046019
224.38 40.479 undefined 957.64 1050.7 3.7162 3.0000 0.33333 957.64 1050.7 3.7162 2.3477 2.5446 316.22 0.049451 13.240 0.046188 3.0000 0.33333 957.64 1050.7 3.7162 2.3477 2.5446 316.22 0.049451 13.240 0.046188
225.38 40.562 undefined 959.99 1053.2 3.7209 3.0000 0.33333 959.99 1053.2 3.7209 2.3516 2.5485 316.53 0.049190 13.264 0.046357 3.0000 0.33333 959.99 1053.2 3.7209 2.3516 2.5485 316.53 0.049190 13.264 0.046357
226.38 40.645 undefined 962.34 1055.8 3.7256 3.0000 0.33333 962.34 1055.8 3.7256 2.3556 2.5524 316.84 0.048930 13.288 0.046526 3.0000 0.33333 962.34 1055.8 3.7256 2.3556 2.5524 316.84 0.048930 13.288 0.046526
227.38 40.728 undefined 964.70 1058.3 3.7303 3.0000 0.33333 964.70 1058.3 3.7303 2.3595 2.5563 317.15 0.048672 13.313 0.046695 3.0000 0.33333 964.70 1058.3 3.7303 2.3595 2.5563 317.15 0.048672 13.313 0.046695
228.38 40.812 undefined 967.06 1060.9 3.7350 3.0000 0.33333 967.06 1060.9 3.7350 2.3634 2.5602 317.46 0.048416 13.336 0.046865 3.0000 0.33333 967.06 1060.9 3.7350 2.3634 2.5602 317.46 0.048416 13.336 0.046865
229.38 40.895 undefined 969.43 1063.4 3.7398 3.0000 0.33333 969.43 1063.4 3.7398 2.3673 2.5641 317.76 0.048163 13.360 0.047035 3.0000 0.33333 969.43 1063.4 3.7398 2.3673 2.5641 317.76 0.048163 13.360 0.047035
230.38 40.978 undefined 971.80 1066.0 3.7445 3.0000 0.33333 971.80 1066.0 3.7445 2.3712 2.5680 318.07 0.047911 13.384 0.047206 3.0000 0.33333 971.80 1066.0 3.7445 2.3712 2.5680 318.07 0.047911 13.384 0.047206
231.38 41.061 undefined 974.17 1068.5 3.7492 3.0000 0.33333 974.17 1068.5 3.7492 2.3751 2.5718 318.38 0.047661 13.408 0.047376 3.0000 0.33333 974.17 1068.5 3.7492 2.3751 2.5718 318.38 0.047661 13.408 0.047376
232.38 41.144 undefined 976.55 1071.1 3.7539 3.0000 0.33333 976.55 1071.1 3.7539 2.3790 2.5757 318.69 0.047413 13.432 0.047547 3.0000 0.33333 976.55 1071.1 3.7539 2.3790 2.5757 318.69 0.047413 13.432 0.047547
233.38 41.227 undefined 978.93 1073.7 3.7586 3.0000 0.33333 978.93 1073.7 3.7586 2.3829 2.5796 318.99 0.047167 13.456 0.047719 3.0000 0.33333 978.93 1073.7 3.7586 2.3829 2.5796 318.99 0.047167 13.456 0.047719
234.38 41.310 undefined 981.31 1076.3 3.7633 3.0000 0.33333 981.31 1076.3 3.7633 2.3868 2.5834 319.30 0.046922 13.480 0.047890 3.0000 0.33333 981.31 1076.3 3.7633 2.3868 2.5834 319.30 0.046922 13.480 0.047890
235.38 41.394 undefined 983.70 1078.8 3.7680 3.0000 0.33333 983.70 1078.8 3.7680 2.3907 2.5873 319.61 0.046680 13.504 0.048062 3.0000 0.33333 983.70 1078.8 3.7680 2.3907 2.5873 319.61 0.046680 13.504 0.048062
236.38 41.477 undefined 986.10 1081.4 3.7727 3.0000 0.33333 986.10 1081.4 3.7727 2.3946 2.5911 319.91 0.046439 13.528 0.048234 3.0000 0.33333 986.10 1081.4 3.7727 2.3946 2.5911 319.91 0.046439 13.528 0.048234
237.38 41.560 undefined 988.49 1084.0 3.7774 3.0000 0.33333 988.49 1084.0 3.7774 2.3984 2.5950 320.22 0.046200 13.552 0.048407 3.0000 0.33333 988.49 1084.0 3.7774 2.3984 2.5950 320.22 0.046200 13.552 0.048407
238.38 41.643 undefined 990.89 1086.6 3.7821 3.0000 0.33333 990.89 1086.6 3.7821 2.4023 2.5988 320.52 0.045963 13.575 0.048580 3.0000 0.33333 990.89 1086.6 3.7821 2.4023 2.5988 320.52 0.045963 13.575 0.048580
239.38 41.726 undefined 993.30 1089.2 3.7868 3.0000 0.33333 993.30 1089.2 3.7868 2.4061 2.6027 320.83 0.045728 13.599 0.048753 3.0000 0.33333 993.30 1089.2 3.7868 2.4061 2.6027 320.83 0.045728 13.599 0.048753
240.38 41.809 undefined 995.70 1091.8 3.7915 3.0000 0.33333 995.70 1091.8 3.7915 2.4100 2.6065 321.14 0.045495 13.623 0.048926 3.0000 0.33333 995.70 1091.8 3.7915 2.4100 2.6065 321.14 0.045495 13.623 0.048926
241.38 41.892 undefined 998.12 1094.4 3.7962 3.0000 0.33333 998.12 1094.4 3.7962 2.4138 2.6103 321.44 0.045263 13.647 0.049100 3.0000 0.33333 998.12 1094.4 3.7962 2.4138 2.6103 321.44 0.045263 13.647 0.049100
242.38 41.975 undefined 1000.5 1097.0 3.8009 3.0000 0.33333 1000.5 1097.0 3.8009 2.4177 2.6141 321.74 0.045033 13.670 0.049273 3.0000 0.33333 1000.5 1097.0 3.8009 2.4177 2.6141 321.74 0.045033 13.670 0.049273
243.38 42.058 undefined 1003.0 1099.6 3.8056 3.0000 0.33333 1003.0 1099.6 3.8056 2.4215 2.6179 322.05 0.044804 13.694 0.049448 3.0000 0.33333 1003.0 1099.6 3.8056 2.4215 2.6179 322.05 0.044804 13.694 0.049448
244.38 42.141 undefined 1005.4 1102.2 3.8102 3.0000 0.33333 1005.4 1102.2 3.8102 2.4254 2.6217 322.35 0.044577 13.718 0.049622 3.0000 0.33333 1005.4 1102.2 3.8102 2.4254 2.6217 322.35 0.044577 13.718 0.049622
245.38 42.225 undefined 1007.8 1104.8 3.8149 3.0000 0.33333 1007.8 1104.8 3.8149 2.4292 2.6255 322.66 0.044352 13.741 0.049797 3.0000 0.33333 1007.8 1104.8 3.8149 2.4292 2.6255 322.66 0.044352 13.741 0.049797
246.38 42.308 undefined 1010.2 1107.5 3.8196 3.0000 0.33333 1010.2 1107.5 3.8196 2.4330 2.6293 322.96 0.044129 13.765 0.049972 3.0000 0.33333 1010.2 1107.5 3.8196 2.4330 2.6293 322.96 0.044129 13.765 0.049972
247.38 42.391 undefined 1012.7 1110.1 3.8243 3.0000 0.33333 1012.7 1110.1 3.8243 2.4368 2.6331 323.26 0.043907 13.789 0.050147 3.0000 0.33333 1012.7 1110.1 3.8243 2.4368 2.6331 323.26 0.043907 13.789 0.050147
248.38 42.474 undefined 1015.1 1112.7 3.8290 3.0000 0.33333 1015.1 1112.7 3.8290 2.4406 2.6369 323.57 0.043687 13.812 0.050323 3.0000 0.33333 1015.1 1112.7 3.8290 2.4406 2.6369 323.57 0.043687 13.812 0.050323
249.38 42.557 undefined 1017.6 1115.4 3.8337 3.0000 0.33333 1017.6 1115.4 3.8337 2.4444 2.6407 323.87 0.043468 13.836 0.050499 3.0000 0.33333 1017.6 1115.4 3.8337 2.4444 2.6407 323.87 0.043468 13.836 0.050499
250.38 42.640 undefined 1020.0 1118.0 3.8383 3.0000 0.33333 1020.0 1118.0 3.8383 2.4482 2.6445 324.17 0.043251 13.860 0.050675 3.0000 0.33333 1020.0 1118.0 3.8383 2.4482 2.6445 324.17 0.043251 13.860 0.050675
251.38 42.723 undefined 1022.4 1120.6 3.8430 3.0000 0.33333 1022.4 1120.6 3.8430 2.4520 2.6482 324.47 0.043036 13.883 0.050852 3.0000 0.33333 1022.4 1120.6 3.8430 2.4520 2.6482 324.47 0.043036 13.883 0.050852
252.38 42.806 undefined 1024.9 1123.3 3.8477 3.0000 0.33333 1024.9 1123.3 3.8477 2.4558 2.6520 324.77 0.042822 13.907 0.051029 3.0000 0.33333 1024.9 1123.3 3.8477 2.4558 2.6520 324.77 0.042822 13.907 0.051029
253.38 42.889 undefined 1027.4 1125.9 3.8524 3.0000 0.33333 1027.4 1125.9 3.8524 2.4596 2.6558 325.08 0.042609 13.930 0.051206 3.0000 0.33333 1027.4 1125.9 3.8524 2.4596 2.6558 325.08 0.042609 13.930 0.051206
254.38 42.972 undefined 1029.8 1128.6 3.8570 3.0000 0.33333 1029.8 1128.6 3.8570 2.4634 2.6595 325.38 0.042398 13.954 0.051383 3.0000 0.33333 1029.8 1128.6 3.8570 2.4634 2.6595 325.38 0.042398 13.954 0.051383
255.38 43.056 undefined 1032.3 1131.2 3.8617 3.0000 0.33333 1032.3 1131.2 3.8617 2.4671 2.6633 325.68 0.042189 13.977 0.051561 3.0000 0.33333 1032.3 1131.2 3.8617 2.4671 2.6633 325.68 0.042189 13.977 0.051561
256.38 43.139 undefined 1034.8 1133.9 3.8664 3.0000 0.33333 1034.8 1133.9 3.8664 2.4709 2.6670 325.98 0.041981 14.001 0.051739 3.0000 0.33333 1034.8 1133.9 3.8664 2.4709 2.6670 325.98 0.041981 14.001 0.051739
257.38 43.222 undefined 1037.2 1136.6 3.8710 3.0000 0.33333 1037.2 1136.6 3.8710 2.4747 2.6708 326.28 0.041774 14.024 0.051917 3.0000 0.33333 1037.2 1136.6 3.8710 2.4747 2.6708 326.28 0.041774 14.024 0.051917
258.38 43.305 undefined 1039.7 1139.2 3.8757 3.0000 0.33333 1039.7 1139.2 3.8757 2.4784 2.6745 326.58 0.041569 14.048 0.052096 3.0000 0.33333 1039.7 1139.2 3.8757 2.4784 2.6745 326.58 0.041569 14.048 0.052096
259.38 43.388 undefined 1042.2 1141.9 3.8803 3.0000 0.33333 1042.2 1141.9 3.8803 2.4822 2.6782 326.88 0.041366 14.071 0.052275 3.0000 0.33333 1042.2 1141.9 3.8803 2.4822 2.6782 326.88 0.041366 14.071 0.052275
260.38 43.471 undefined 1044.7 1144.6 3.8850 3.0000 0.33333 1044.7 1144.6 3.8850 2.4859 2.6819 327.18 0.041164 14.094 0.052454 3.0000 0.33333 1044.7 1144.6 3.8850 2.4859 2.6819 327.18 0.041164 14.094 0.052454
261.38 43.554 undefined 1047.2 1147.3 3.8897 3.0000 0.33333 1047.2 1147.3 3.8897 2.4896 2.6857 327.48 0.040963 14.118 0.052633 3.0000 0.33333 1047.2 1147.3 3.8897 2.4896 2.6857 327.48 0.040963 14.118 0.052633
262.38 43.637 undefined 1049.6 1149.9 3.8943 3.0000 0.33333 1049.6 1149.9 3.8943 2.4934 2.6894 327.78 0.040763 14.141 0.052813 3.0000 0.33333 1049.6 1149.9 3.8943 2.4934 2.6894 327.78 0.040763 14.141 0.052813
263.38 43.720 undefined 1052.1 1152.6 3.8990 3.0000 0.33333 1052.1 1152.6 3.8990 2.4971 2.6931 328.08 0.040566 14.164 0.052993 3.0000 0.33333 1052.1 1152.6 3.8990 2.4971 2.6931 328.08 0.040566 14.164 0.052993
264.38 43.803 undefined 1054.6 1155.3 3.9036 3.0000 0.33333 1054.6 1155.3 3.9036 2.5008 2.6968 328.37 0.040369 14.188 0.053173 3.0000 0.33333 1054.6 1155.3 3.9036 2.5008 2.6968 328.37 0.040369 14.188 0.053173
265.38 43.886 undefined 1057.1 1158.0 3.9083 3.0000 0.33333 1057.1 1158.0 3.9083 2.5045 2.7005 328.67 0.040174 14.211 0.053354 3.0000 0.33333 1057.1 1158.0 3.9083 2.5045 2.7005 328.67 0.040174 14.211 0.053354
266.38 43.969 undefined 1059.7 1160.7 3.9129 3.0000 0.33333 1059.7 1160.7 3.9129 2.5082 2.7042 328.97 0.039980 14.234 0.053535 3.0000 0.33333 1059.7 1160.7 3.9129 2.5082 2.7042 328.97 0.039980 14.234 0.053535
267.38 44.052 undefined 1062.2 1163.4 3.9176 3.0000 0.33333 1062.2 1163.4 3.9176 2.5120 2.7078 329.27 0.039787 14.258 0.053716 3.0000 0.33333 1062.2 1163.4 3.9176 2.5120 2.7078 329.27 0.039787 14.258 0.053716
268.38 44.136 undefined 1064.7 1166.1 3.9222 3.0000 0.33333 1064.7 1166.1 3.9222 2.5157 2.7115 329.57 0.039596 14.281 0.053897 3.0000 0.33333 1064.7 1166.1 3.9222 2.5157 2.7115 329.57 0.039596 14.281 0.053897
269.38 44.219 undefined 1067.2 1168.8 3.9269 3.0000 0.33333 1067.2 1168.8 3.9269 2.5193 2.7152 329.86 0.039406 14.304 0.054079 3.0000 0.33333 1067.2 1168.8 3.9269 2.5193 2.7152 329.86 0.039406 14.304 0.054079
270.38 44.302 undefined 1069.7 1171.5 3.9315 3.0000 0.33333 1069.7 1171.5 3.9315 2.5230 2.7189 330.16 0.039217 14.327 0.054261 3.0000 0.33333 1069.7 1171.5 3.9315 2.5230 2.7189 330.16 0.039217 14.327 0.054261
271.38 44.385 undefined 1072.2 1174.2 3.9362 3.0000 0.33333 1072.2 1174.2 3.9362 2.5267 2.7225 330.46 0.039030 14.350 0.054444 3.0000 0.33333 1072.2 1174.2 3.9362 2.5267 2.7225 330.46 0.039030 14.350 0.054444
272.38 44.468 undefined 1074.8 1177.0 3.9408 3.0000 0.33333 1074.8 1177.0 3.9408 2.5304 2.7262 330.75 0.038844 14.374 0.054626 3.0000 0.33333 1074.8 1177.0 3.9408 2.5304 2.7262 330.75 0.038844 14.374 0.054626
273.38 44.551 undefined 1077.3 1179.7 3.9454 3.0000 0.33333 1077.3 1179.7 3.9454 2.5341 2.7298 331.05 0.038659 14.397 0.054809 3.0000 0.33333 1077.3 1179.7 3.9454 2.5341 2.7298 331.05 0.038659 14.397 0.054809
274.38 44.634 undefined 1079.8 1182.4 3.9501 3.0000 0.33333 1079.8 1182.4 3.9501 2.5377 2.7335 331.34 0.038475 14.420 0.054992 3.0000 0.33333 1079.8 1182.4 3.9501 2.5377 2.7335 331.34 0.038475 14.420 0.054992
275.38 44.717 undefined 1082.4 1185.1 3.9547 3.0000 0.33333 1082.4 1185.1 3.9547 2.5414 2.7371 331.64 0.038293 14.443 0.055176 3.0000 0.33333 1082.4 1185.1 3.9547 2.5414 2.7371 331.64 0.038293 14.443 0.055176
276.38 44.800 undefined 1084.9 1187.9 3.9593 3.0000 0.33333 1084.9 1187.9 3.9593 2.5451 2.7408 331.94 0.038112 14.466 0.055360 3.0000 0.33333 1084.9 1187.9 3.9593 2.5451 2.7408 331.94 0.038112 14.466 0.055360
277.38 44.883 undefined 1087.5 1190.6 3.9640 3.0000 0.33333 1087.5 1190.6 3.9640 2.5487 2.7444 332.23 0.037932 14.489 0.055544 3.0000 0.33333 1087.5 1190.6 3.9640 2.5487 2.7444 332.23 0.037932 14.489 0.055544
278.38 44.966 undefined 1090.0 1193.4 3.9686 3.0000 0.33333 1090.0 1193.4 3.9686 2.5523 2.7480 332.53 0.037753 14.512 0.055728 3.0000 0.33333 1090.0 1193.4 3.9686 2.5523 2.7480 332.53 0.037753 14.512 0.055728
279.38 45.049 undefined 1092.6 1196.1 3.9732 3.0000 0.33333 1092.6 1196.1 3.9732 2.5560 2.7516 332.82 0.037576 14.535 0.055913 3.0000 0.33333 1092.6 1196.1 3.9732 2.5560 2.7516 332.82 0.037576 14.535 0.055913
280.38 45.132 undefined 1095.1 1198.9 3.9778 3.0000 0.33333 1095.1 1198.9 3.9778 2.5596 2.7553 333.11 0.037399 14.558 0.056098 3.0000 0.33333 1095.1 1198.9 3.9778 2.5596 2.7553 333.11 0.037399 14.558 0.056098
281.38 45.215 undefined 1097.7 1201.6 3.9825 3.0000 0.33333 1097.7 1201.6 3.9825 2.5633 2.7589 333.41 0.037224 14.581 0.056283 3.0000 0.33333 1097.7 1201.6 3.9825 2.5633 2.7589 333.41 0.037224 14.581 0.056283
282.38 45.298 undefined 1100.3 1204.4 3.9871 3.0000 0.33333 1100.3 1204.4 3.9871 2.5669 2.7625 333.70 0.037050 14.604 0.056469 3.0000 0.33333 1100.3 1204.4 3.9871 2.5669 2.7625 333.70 0.037050 14.604 0.056469
283.38 45.381 undefined 1102.8 1207.1 3.9917 3.0000 0.33333 1102.8 1207.1 3.9917 2.5705 2.7661 334.00 0.036877 14.627 0.056655 3.0000 0.33333 1102.8 1207.1 3.9917 2.5705 2.7661 334.00 0.036877 14.627 0.056655
284.38 45.464 undefined 1105.4 1209.9 3.9963 3.0000 0.33333 1105.4 1209.9 3.9963 2.5741 2.7697 334.29 0.036705 14.650 0.056841 3.0000 0.33333 1105.4 1209.9 3.9963 2.5741 2.7697 334.29 0.036705 14.650 0.056841
285.38 45.548 undefined 1108.0 1212.6 4.0009 3.0000 0.33333 1108.0 1212.6 4.0009 2.5777 2.7733 334.58 0.036535 14.673 0.057027 3.0000 0.33333 1108.0 1212.6 4.0009 2.5777 2.7733 334.58 0.036535 14.673 0.057027
286.38 45.631 undefined 1110.5 1215.4 4.0056 3.0000 0.33333 1110.5 1215.4 4.0056 2.5813 2.7768 334.87 0.036365 14.696 0.057214 3.0000 0.33333 1110.5 1215.4 4.0056 2.5813 2.7768 334.87 0.036365 14.696 0.057214
287.38 45.714 undefined 1113.1 1218.2 4.0102 3.0000 0.33333 1113.1 1218.2 4.0102 2.5849 2.7804 335.17 0.036197 14.719 0.057401 3.0000 0.33333 1113.1 1218.2 4.0102 2.5849 2.7804 335.17 0.036197 14.719 0.057401
288.38 45.797 undefined 1115.7 1221.0 4.0148 3.0000 0.33333 1115.7 1221.0 4.0148 2.5885 2.7840 335.46 0.036029 14.742 0.057588 3.0000 0.33333 1115.7 1221.0 4.0148 2.5885 2.7840 335.46 0.036029 14.742 0.057588
289.38 45.880 undefined 1118.3 1223.8 4.0194 3.0000 0.33333 1118.3 1223.8 4.0194 2.5921 2.7876 335.75 0.035863 14.765 0.057776 3.0000 0.33333 1118.3 1223.8 4.0194 2.5921 2.7876 335.75 0.035863 14.765 0.057776
290.38 45.963 undefined 1120.9 1226.5 4.0240 3.0000 0.33333 1120.9 1226.5 4.0240 2.5957 2.7911 336.04 0.035698 14.787 0.057964 3.0000 0.33333 1120.9 1226.5 4.0240 2.5957 2.7911 336.04 0.035698 14.787 0.057964
291.38 46.046 undefined 1123.5 1229.3 4.0286 3.0000 0.33333 1123.5 1229.3 4.0286 2.5993 2.7947 336.34 0.035534 14.810 0.058152 3.0000 0.33333 1123.5 1229.3 4.0286 2.5993 2.7947 336.34 0.035534 14.810 0.058152
292.38 46.129 undefined 1126.1 1232.1 4.0332 3.0000 0.33333 1126.1 1232.1 4.0332 2.6028 2.7982 336.63 0.035371 14.833 0.058341 3.0000 0.33333 1126.1 1232.1 4.0332 2.6028 2.7982 336.63 0.035371 14.833 0.058341
293.38 46.212 undefined 1128.7 1234.9 4.0378 3.0000 0.33333 1128.7 1234.9 4.0378 2.6064 2.8018 336.92 0.035209 14.856 0.058529 3.0000 0.33333 1128.7 1234.9 4.0378 2.6064 2.8018 336.92 0.035209 14.856 0.058529
294.38 46.295 undefined 1131.3 1237.7 4.0424 3.0000 0.33333 1131.3 1237.7 4.0424 2.6100 2.8053 337.21 0.035048 14.879 0.058718 3.0000 0.33333 1131.3 1237.7 4.0424 2.6100 2.8053 337.21 0.035048 14.879 0.058718
295.38 46.378 undefined 1133.9 1240.5 4.0470 3.0000 0.33333 1133.9 1240.5 4.0470 2.6135 2.8089 337.50 0.034888 14.901 0.058908 3.0000 0.33333 1133.9 1240.5 4.0470 2.6135 2.8089 337.50 0.034888 14.901 0.058908
296.38 46.461 undefined 1136.5 1243.3 4.0516 3.0000 0.33333 1136.5 1243.3 4.0516 2.6171 2.8124 337.79 0.034729 14.924 0.059097 3.0000 0.33333 1136.5 1243.3 4.0516 2.6171 2.8124 337.79 0.034729 14.924 0.059097
297.38 46.544 undefined 1139.2 1246.1 4.0562 3.0000 0.33333 1139.2 1246.1 4.0562 2.6206 2.8159 338.08 0.034571 14.947 0.059287 3.0000 0.33333 1139.2 1246.1 4.0562 2.6206 2.8159 338.08 0.034571 14.947 0.059287
298.38 46.627 undefined 1141.8 1248.9 4.0608 3.0000 0.33333 1141.8 1248.9 4.0608 2.6241 2.8194 338.37 0.034414 14.969 0.059478 3.0000 0.33333 1141.8 1248.9 4.0608 2.6241 2.8194 338.37 0.034414 14.969 0.059478
299.38 46.710 undefined 1144.4 1251.8 4.0654 3.0000 0.33333 1144.4 1251.8 4.0654 2.6277 2.8230 338.66 0.034258 14.992 0.059668 3.0000 0.33333 1144.4 1251.8 4.0654 2.6277 2.8230 338.66 0.034258 14.992 0.059668
300.38 46.793 undefined 1147.0 1254.6 4.0700 3.0000 0.33333 1147.0 1254.6 4.0700 2.6312 2.8265 338.95 0.034103 15.015 0.059859 3.0000 0.33333 1147.0 1254.6 4.0700 2.6312 2.8265 338.95 0.034103 15.015 0.059859