Temperature (C) Pressure (psia) Quality (l+v) Internal Energy (l+v, kJ/kg) Enthalpy (l+v, kJ/kg) Entropy (l+v, J/g*K) Density (l, kg/m3) Volume (l, m3/kg) Internal Energy (l, kJ/kg) Enthalpy (l, kJ/kg) Entropy (l, J/g*K) Cv (l, J/g*K) Cp (l, J/g*K) Sound Spd. (l, m/s) Joule-Thomson (l, F/psia) Viscosity (l, uPa*s) Therm. Cond. (l, W/m*K) Density (v, kg/m3) Volume (v, m3/kg) Internal Energy (v, kJ/kg) Enthalpy (v, kJ/kg) Entropy (v, J/g*K) Cv (v, J/g*K) Cp (v, J/g*K) Sound Spd. (v, m/s) Joule-Thomson (v, F/psia) Viscosity (v, uPa*s) Therm. Cond. (v, W/m*K)
-187.62 2.4953e-08 3.4107e-10 -196.64 -196.64 -1.3959 733.13 0.0013640 -196.64 -196.64 -1.3959 1.3553 1.9158 2136.4 -0.0077592 10960. 0.20792 1.0669e-08 9.3732e+07 350.13 366.26 5.1858 0.69067 0.87923 143.28 6.1051 2.3259 0.0017061
-186.62 3.7339e-08 5.0444e-10 -194.73 -194.73 -1.3736 732.08 0.0013660 -194.73 -194.73 -1.3736 1.3539 1.9166 2129.6 -0.0077546 10073. 0.20765 1.5780e-08 6.3371e+07 350.82 367.14 5.1200 0.69462 0.88317 144.03 5.9178 2.3534 0.0017533
-185.62 5.5322e-08 7.3880e-10 -192.81 -192.81 -1.3516 731.04 0.0013679 -192.81 -192.81 -1.3516 1.3525 1.9174 2122.9 -0.0077498 9276.1 0.20737 2.3112e-08 4.3267e+07 351.52 368.02 5.0561 0.69857 0.88713 144.77 5.7383 2.3808 0.0018007
-184.62 8.1182e-08 1.0718e-09 -190.89 -190.89 -1.3298 730.00 0.0013699 -190.89 -190.89 -1.3298 1.3513 1.9182 2116.1 -0.0077448 8557.8 0.20708 3.3533e-08 2.9821e+07 352.22 368.91 4.9939 0.70253 0.89108 145.51 5.5662 2.4083 0.0018485
-183.62 1.1803e-07 1.5409e-09 -188.97 -188.97 -1.3083 728.96 0.0013718 -188.97 -188.97 -1.3083 1.3501 1.9191 2109.3 -0.0077395 7909.8 0.20678 4.8211e-08 2.0742e+07 352.92 369.81 4.9333 0.70648 0.89504 146.24 5.4011 2.4357 0.0018965
-182.62 1.7009e-07 2.1958e-09 -187.05 -187.05 -1.2869 727.92 0.0013738 -187.05 -187.05 -1.2869 1.3490 1.9201 2102.5 -0.0077340 7324.3 0.20647 6.8704e-08 1.4555e+07 353.63 370.70 4.8744 0.71043 0.89899 146.97 5.2426 2.4632 0.0019448
-181.62 2.4299e-07 3.1024e-09 -185.13 -185.13 -1.2658 726.88 0.0013757 -185.13 -185.13 -1.2658 1.3480 1.9210 2095.7 -0.0077283 6794.5 0.20616 9.7079e-08 1.0301e+07 354.35 371.60 4.8170 0.71438 0.90294 147.69 5.0904 2.4906 0.0019934
-180.62 3.4425e-07 4.3475e-09 -183.21 -183.21 -1.2450 725.85 0.0013777 -183.21 -183.21 -1.2450 1.3470 1.9220 2088.9 -0.0077225 6314.4 0.20584 1.3605e-07 7.3504e+06 355.06 372.51 4.7612 0.71833 0.90688 148.41 4.9442 2.5181 0.0020423
-179.62 4.8378e-07 6.0440e-09 -181.29 -181.29 -1.2243 724.81 0.0013797 -181.29 -181.29 -1.2243 1.3461 1.9231 2082.0 -0.0077164 5878.8 0.20551 1.8915e-07 5.2868e+06 355.78 373.42 4.7068 0.72227 0.91082 149.13 4.8038 2.5456 0.0020915
-178.62 6.7459e-07 8.3382e-09 -179.37 -179.37 -1.2038 723.78 0.0013816 -179.37 -179.37 -1.2038 1.3453 1.9241 2075.2 -0.0077102 5482.9 0.20517 2.6096e-07 3.8320e+06 356.51 374.33 4.6538 0.72620 0.91475 149.84 4.6688 2.5731 0.0021410
-177.62 9.3358e-07 1.1418e-08 -177.44 -177.44 -1.1836 722.75 0.0013836 -177.44 -177.44 -1.1836 1.3445 1.9252 2068.4 -0.0077039 5122.6 0.20483 3.5737e-07 2.7982e+06 357.23 375.25 4.6022 0.73012 0.91867 150.54 4.5390 2.6005 0.0021907
-176.62 1.2826e-06 1.5523e-08 -175.52 -175.52 -1.1635 721.72 0.0013856 -175.52 -175.52 -1.1635 1.3437 1.9263 2061.5 -0.0076973 4794.1 0.20447 4.8588e-07 2.0581e+06 357.97 376.17 4.5519 0.73403 0.92258 151.25 4.4142 2.6280 0.0022408
-175.62 1.7496e-06 2.0957e-08 -173.59 -173.59 -1.1437 720.69 0.0013876 -173.59 -173.59 -1.1437 1.3430 1.9274 2054.7 -0.0076907 4494.3 0.20411 6.5601e-07 1.5244e+06 358.70 377.09 4.5029 0.73792 0.92648 151.95 4.2941 2.6555 0.0022912
-174.62 2.3705e-06 2.8103e-08 -171.66 -171.66 -1.1240 719.66 0.0013895 -171.66 -171.66 -1.1240 1.3423 1.9286 2047.9 -0.0076838 4220.2 0.20375 8.7976e-07 1.1367e+06 359.44 378.02 4.4551 0.74181 0.93036 152.64 4.1784 2.6830 0.0023418
-173.62 3.1903e-06 3.7440e-08 -169.73 -169.73 -1.1045 718.64 0.0013915 -169.73 -169.73 -1.1045 1.3417 1.9298 2041.0 -0.0076769 3969.3 0.20338 1.1721e-06 8.5314e+05 360.19 378.95 4.4085 0.74568 0.93423 153.33 4.0671 2.7105 0.0023928
-172.62 4.2661e-06 4.9565e-08 -167.80 -167.80 -1.0852 717.61 0.0013935 -167.80 -167.80 -1.0852 1.3411 1.9310 2034.2 -0.0076698 3739.3 0.20300 1.5518e-06 6.4441e+05 360.93 379.89 4.3631 0.74953 0.93809 154.02 3.9599 2.7379 0.0024440
-171.62 5.6692e-06 6.5214e-08 -165.87 -165.87 -1.0661 716.58 0.0013955 -165.87 -165.87 -1.0661 1.3405 1.9322 2027.3 -0.0076625 3528.0 0.20261 2.0419e-06 4.8974e+05 361.69 380.83 4.3188 0.75337 0.94193 154.71 3.8566 2.7654 0.0024955
-170.62 7.4884e-06 8.5294e-08 -163.94 -163.94 -1.0472 715.56 0.0013975 -163.94 -163.94 -1.0472 1.3400 1.9334 2020.5 -0.0076552 3333.8 0.20222 2.6708e-06 3.7442e+05 362.44 381.77 4.2755 0.75720 0.94575 155.39 3.7570 2.7929 0.0025473
-169.62 9.8334e-06 1.1092e-07 -162.00 -162.00 -1.0284 714.54 0.0013995 -162.00 -162.00 -1.0284 1.3395 1.9347 2013.6 -0.0076477 3154.9 0.20182 3.4733e-06 2.8791e+05 363.20 382.72 4.2334 0.76100 0.94956 156.07 3.6609 2.8204 0.0025994
-168.62 1.2839e-05 1.4343e-07 -160.07 -160.07 -1.0098 713.52 0.0014015 -160.07 -160.07 -1.0098 1.3390 1.9359 2006.8 -0.0076401 2989.9 0.20141 4.4917e-06 2.2263e+05 363.96 383.67 4.1922 0.76479 0.95335 156.74 3.5683 2.8479 0.0026518
-167.62 1.6672e-05 1.8446e-07 -158.13 -158.13 -0.99134 712.49 0.0014035 -158.13 -158.13 -0.99134 1.3386 1.9372 2000.0 -0.0076323 2837.5 0.20100 5.7771e-06 1.7310e+05 364.73 384.63 4.1521 0.76856 0.95712 157.41 3.4790 2.8754 0.0027045
-166.62 2.1533e-05 2.3599e-07 -156.19 -156.19 -0.97306 711.47 0.0014055 -156.19 -156.19 -0.97306 1.3382 1.9385 1993.1 -0.0076245 2696.5 0.20058 7.3914e-06 1.3529e+05 365.50 385.59 4.1129 0.77232 0.96087 158.08 3.3927 2.9029 0.0027575
-165.62 2.7666e-05 3.0037e-07 -154.25 -154.25 -0.95494 710.45 0.0014075 -154.25 -154.25 -0.95494 1.3378 1.9398 1986.3 -0.0076165 2566.0 0.20016 9.4084e-06 1.0629e+05 366.27 386.55 4.0746 0.77605 0.96460 158.75 3.3095 2.9304 0.0028108
-164.62 3.5367e-05 3.8042e-07 -152.31 -152.31 -0.93698 709.44 0.0014096 -152.31 -152.31 -0.93698 1.3375 1.9411 1979.4 -0.0076084 2444.9 0.19973 1.1916e-05 83918. 367.05 387.52 4.0372 0.77976 0.96832 159.41 3.2291 2.9579 0.0028643
-163.62 4.4989e-05 4.7947e-07 -150.37 -150.37 -0.91917 708.42 0.0014116 -150.37 -150.37 -0.91917 1.3371 1.9424 1972.6 -0.0076002 2332.3 0.19930 1.5020e-05 66577. 367.83 388.49 4.0008 0.78346 0.97201 160.07 3.1514 2.9854 0.0029182
-162.62 5.6956e-05 6.0148e-07 -148.43 -148.43 -0.90151 707.40 0.0014136 -148.43 -148.43 -0.90151 1.3368 1.9437 1965.8 -0.0075919 2227.7 0.19886 1.8844e-05 53068. 368.62 389.46 3.9651 0.78713 0.97569 160.72 3.0764 3.0129 0.0029723
-161.62 7.1773e-05 7.5111e-07 -146.48 -146.48 -0.88399 706.38 0.0014157 -146.48 -146.48 -0.88400 1.3365 1.9451 1959.0 -0.0075834 2130.2 0.19841 2.3533e-05 42494. 369.41 390.44 3.9304 0.79079 0.97935 161.38 3.0038 3.0404 0.0030268
-160.62 9.0036e-05 9.3380e-07 -144.54 -144.54 -0.86662 705.37 0.0014177 -144.54 -144.54 -0.86663 1.3363 1.9465 1952.1 -0.0075748 2039.2 0.19796 2.9258e-05 34178. 370.20 391.42 3.8964 0.79443 0.98298 162.03 2.9337 3.0679 0.0030815
-159.62 0.00011245 1.1559e-06 -142.59 -142.59 -0.84939 704.35 0.0014197 -142.59 -142.59 -0.84940 1.3360 1.9478 1945.3 -0.0075661 1954.2 0.19751 3.6221e-05 27609. 371.00 392.40 3.8632 0.79805 0.98660 162.68 2.8658 3.0955 0.0031365
-158.62 0.00013985 1.4249e-06 -140.64 -140.64 -0.83230 703.34 0.0014218 -140.64 -140.64 -0.83231 1.3358 1.9492 1938.5 -0.0075573 1874.8 0.19705 4.4652e-05 22395. 371.80 393.39 3.8307 0.80164 0.99020 163.32 2.8002 3.1230 0.0031918
-157.62 0.00017320 1.7493e-06 -138.69 -138.69 -0.81535 702.32 0.0014238 -138.69 -138.69 -0.81536 1.3356 1.9506 1931.7 -0.0075484 1800.3 0.19658 5.4822e-05 18241. 372.60 394.38 3.7990 0.80522 0.99378 163.96 2.7367 3.1505 0.0032474
-156.62 0.00021364 2.1391e-06 -136.74 -136.74 -0.79853 701.31 0.0014259 -136.74 -136.74 -0.79854 1.3354 1.9520 1924.9 -0.0075393 1730.5 0.19611 6.7040e-05 14916. 373.41 395.38 3.7680 0.80878 0.99734 164.60 2.6752 3.1780 0.0033033
-155.62 0.00026248 2.6056e-06 -134.79 -134.79 -0.78184 700.30 0.0014280 -134.79 -134.79 -0.78185 1.3352 1.9534 1918.1 -0.0075302 1664.9 0.19564 8.1666e-05 12245. 374.22 396.38 3.7377 0.81232 1.0009 165.24 2.6157 3.2055 0.0033595
-154.62 0.00032125 3.1619e-06 -132.83 -132.83 -0.76528 699.29 0.0014300 -132.83 -132.83 -0.76530 1.3350 1.9548 1911.3 -0.0075209 1603.3 0.19516 9.9109e-05 10090. 375.03 397.38 3.7081 0.81585 1.0044 165.87 2.5580 3.2330 0.0034160
-153.62 0.00039171 3.8230e-06 -130.88 -130.88 -0.74885 698.27 0.0014321 -130.88 -130.88 -0.74887 1.3349 1.9563 1904.5 -0.0075114 1545.3 0.19468 0.00011984 8344.6 375.85 398.39 3.6792 0.81935 1.0079 166.50 2.5022 3.2606 0.0034727
-152.62 0.00047590 4.6058e-06 -128.92 -128.92 -0.73254 697.26 0.0014342 -128.92 -128.92 -0.73256 1.3348 1.9577 1897.8 -0.0075019 1490.6 0.19419 0.00014439 6925.9 376.67 399.40 3.6509 0.82284 1.0114 167.13 2.4481 3.2881 0.0035298
-151.62 0.00057613 5.5296e-06 -126.96 -126.96 -0.71636 696.25 0.0014363 -126.96 -126.96 -0.71638 1.3346 1.9592 1891.0 -0.0074922 1438.9 0.19370 0.00017336 5768.4 377.49 400.41 3.6232 0.82631 1.0149 167.76 2.3957 3.3156 0.0035872
-150.62 0.00069507 6.6163e-06 -125.00 -125.00 -0.70029 695.24 0.0014384 -125.00 -125.00 -0.70032 1.3345 1.9606 1884.2 -0.0074824 1390.2 0.19320 0.00020744 4820.7 378.32 401.42 3.5962 0.82976 1.0183 168.38 2.3448 3.3431 0.0036448
-149.62 0.00083574 7.8904e-06 -123.04 -123.04 -0.68434 694.23 0.0014404 -123.04 -123.04 -0.68438 1.3345 1.9621 1877.4 -0.0074724 1344.0 0.19270 0.00024740 4042.0 379.15 402.44 3.5697 0.83319 1.0218 169.00 2.2956 3.3706 0.0037027
-148.62 0.0010016 9.3796e-06 -121.07 -121.07 -0.66851 693.22 0.0014425 -121.08 -121.08 -0.66855 1.3344 1.9636 1870.7 -0.0074623 1300.3 0.19220 0.00029412 3400.0 379.99 403.47 3.5438 0.83661 1.0252 169.62 2.2478 3.3982 0.0037610
-147.62 0.0011965 1.1115e-05 -119.11 -119.11 -0.65279 692.21 0.0014447 -119.11 -119.11 -0.65284 1.3343 1.9651 1863.9 -0.0074521 1258.9 0.19169 0.00034856 2869.0 380.83 404.49 3.5185 0.84001 1.0286 170.24 2.2014 3.4257 0.0038195
-146.62 0.0014249 1.3131e-05 -117.14 -117.14 -0.63718 691.20 0.0014468 -117.15 -117.15 -0.63724 1.3343 1.9666 1857.2 -0.0074417 1219.6 0.19117 0.00041181 2428.3 381.67 405.52 3.4938 0.84340 1.0320 170.85 2.1565 3.4532 0.0038783
-145.62 0.0016917 1.5467e-05 -115.17 -115.17 -0.62169 690.19 0.0014489 -115.18 -115.18 -0.62175 1.3343 1.9682 1850.4 -0.0074312 1182.3 0.19066 0.00048510 2061.4 382.51 406.56 3.4695 0.84677 1.0353 171.46 2.1128 3.4807 0.0039374
-144.62 0.0020026 1.8165e-05 -113.20 -113.20 -0.60630 689.18 0.0014510 -113.21 -113.21 -0.60637 1.3343 1.9697 1843.7 -0.0074206 1146.8 0.19014 0.00056976 1755.1 383.36 407.59 3.4458 0.85012 1.0387 172.07 2.0705 3.5082 0.0039967
-143.62 0.0023637 2.1274e-05 -111.23 -111.23 -0.59101 688.17 0.0014531 -111.24 -111.24 -0.59110 1.3343 1.9713 1836.9 -0.0074098 1113.0 0.18962 0.00066731 1498.6 384.21 408.63 3.4226 0.85346 1.0420 172.68 2.0294 3.5358 0.0040564
-142.62 0.0027820 2.4845e-05 -109.26 -109.26 -0.57583 687.16 0.0014553 -109.27 -109.27 -0.57593 1.3343 1.9728 1830.2 -0.0073988 1080.8 0.18909 0.00077939 1283.1 385.07 409.68 3.3999 0.85679 1.0454 173.28 1.9896 3.5633 0.0041164
-141.62 0.0032653 2.8938e-05 -107.28 -107.28 -0.56075 686.15 0.0014574 -107.30 -107.30 -0.56087 1.3343 1.9744 1823.5 -0.0073878 1050.1 0.18856 0.00090784 1101.5 385.93 410.72 3.3777 0.86011 1.0487 173.88 1.9508 3.5908 0.0041766
-140.62 0.0038222 3.3616e-05 -105.30 -105.30 -0.54578 685.14 0.0014596 -105.32 -105.32 -0.54591 1.3344 1.9760 1816.7 -0.0073765 1020.7 0.18803 0.0010547 948.16 386.79 411.77 3.3560 0.86341 1.0520 174.48 1.9133 3.6183 0.0042372
-139.62 0.0044623 3.8950e-05 -103.33 -103.32 -0.53090 684.13 0.0014617 -103.34 -103.34 -0.53105 1.3344 1.9776 1810.0 -0.0073651 992.74 0.18749 0.0012221 818.26 387.65 412.83 3.3347 0.86670 1.0553 175.08 1.8768 3.6459 0.0042980
-138.62 0.0051963 4.5017e-05 -101.34 -101.34 -0.51611 683.12 0.0014639 -101.37 -101.37 -0.51629 1.3345 1.9792 1803.3 -0.0073536 965.97 0.18695 0.0014125 707.94 388.52 413.88 3.3139 0.86998 1.0586 175.67 1.8413 3.6734 0.0043592
-137.62 0.0060358 5.1901e-05 -99.361 -99.359 -0.50142 682.11 0.0014660 -99.386 -99.386 -0.50162 1.3346 1.9808 1796.6 -0.0073419 940.35 0.18641 0.0016287 614.00 389.39 414.94 3.2935 0.87325 1.0619 176.26 1.8069 3.7009 0.0044206
-136.62 0.0069938 5.9695e-05 -97.375 -97.374 -0.48683 681.10 0.0014682 -97.404 -97.404 -0.48705 1.3347 1.9825 1789.9 -0.0073301 915.81 0.18586 0.0018733 533.80 390.26 416.00 3.2735 0.87650 1.0651 176.85 1.7734 3.7284 0.0044823
-135.62 0.0080843 6.8497e-05 -95.388 -95.386 -0.47232 680.09 0.0014704 -95.421 -95.421 -0.47258 1.3348 1.9841 1783.2 -0.0073180 892.30 0.18531 0.0021497 465.17 391.14 417.07 3.2540 0.87975 1.0684 177.44 1.7409 3.7559 0.0045443
-134.62 0.0093230 7.8418e-05 -93.398 -93.396 -0.45791 679.08 0.0014726 -93.436 -93.436 -0.45820 1.3350 1.9858 1776.5 -0.0073059 869.75 0.18476 0.0024613 406.30 392.02 418.14 3.2348 0.88299 1.0716 178.02 1.7093 3.7834 0.0046066
-133.62 0.010727 8.9575e-05 -91.406 -91.404 -0.44358 678.07 0.0014748 -91.450 -91.449 -0.44391 1.3351 1.9875 1769.8 -0.0072935 848.11 0.18421 0.0028116 355.67 392.91 419.21 3.2161 0.88622 1.0749 178.61 1.6786 3.8109 0.0046691
-132.62 0.012315 0.00010210 -89.412 -89.409 -0.42934 677.06 0.0014770 -89.461 -89.461 -0.42971 1.3353 1.9892 1763.1 -0.0072810 827.32 0.18365 0.0032049 312.03 393.79 420.29 3.1977 0.88944 1.0781 179.19 1.6488 3.8385 0.0047320
-131.62 0.014106 0.00011612 -87.415 -87.412 -0.41518 676.04 0.0014792 -87.471 -87.471 -0.41560 1.3354 1.9909 1756.4 -0.0072684 807.34 0.18309 0.0036453 274.33 394.68 421.36 3.1798 0.89266 1.0813 179.76 1.6197 3.8660 0.0047951
-130.62 0.016124 0.00013179 -85.416 -85.412 -0.40110 675.03 0.0014814 -85.479 -85.479 -0.40157 1.3356 1.9926 1749.7 -0.0072555 788.12 0.18253 0.0041375 241.69 395.58 422.44 3.1622 0.89586 1.0846 180.34 1.5915 3.8935 0.0048586
-129.62 0.018392 0.00014927 -83.414 -83.410 -0.38711 674.02 0.0014836 -83.486 -83.486 -0.38763 1.3358 1.9944 1743.0 -0.0072425 769.63 0.18196 0.0046867 213.37 396.47 423.53 3.1450 0.89906 1.0878 180.91 1.5641 3.9210 0.0049223
-128.62 0.020935 0.00016873 -81.410 -81.405 -0.37319 673.01 0.0014859 -81.491 -81.490 -0.37378 1.3360 1.9961 1736.3 -0.0072294 751.83 0.18140 0.0052981 188.75 397.37 424.62 3.1281 0.90226 1.0910 181.48 1.5374 3.9485 0.0049863
-127.62 0.023783 0.00019036 -79.403 -79.397 -0.35935 672.00 0.0014881 -79.494 -79.493 -0.36001 1.3363 1.9979 1729.6 -0.0072160 734.67 0.18083 0.0059776 167.29 398.27 425.71 3.1116 0.90545 1.0942 182.05 1.5114 3.9760 0.0050506
-126.62 0.026966 0.00021435 -77.393 -77.386 -0.34559 670.98 0.0014904 -77.495 -77.495 -0.34632 1.3365 1.9997 1722.9 -0.0072025 718.14 0.18025 0.0067313 148.56 399.18 426.80 3.0954 0.90863 1.0974 182.62 1.4861 4.0035 0.0051152
-125.62 0.030515 0.00024091 -75.380 -75.373 -0.33189 669.97 0.0014926 -75.494 -75.494 -0.33272 1.3368 2.0015 1716.2 -0.0071888 702.18 0.17968 0.0075660 132.17 400.09 427.89 3.0795 0.91181 1.1006 183.18 1.4615 4.0310 0.0051800
-124.62 0.034467 0.00027026 -73.364 -73.356 -0.31827 668.95 0.0014949 -73.492 -73.492 -0.31919 1.3371 2.0033 1709.5 -0.0071749 686.79 0.17910 0.0084885 117.81 401.00 428.99 3.0640 0.91499 1.1038 183.74 1.4375 4.0584 0.0052452
-123.62 0.038859 0.00030265 -71.344 -71.335 -0.30472 667.94 0.0014971 -71.488 -71.487 -0.30574 1.3374 2.0051 1702.8 -0.0071609 671.93 0.17852 0.0095065 105.19 401.91 430.10 3.0488 0.91816 1.1070 184.30 1.4141 4.0859 0.0053106
-122.62 0.043731 0.00033833 -69.322 -69.312 -0.29124 666.92 0.0014994 -69.482 -69.481 -0.29237 1.3377 2.0070 1696.2 -0.0071466 657.57 0.17794 0.010628 94.092 402.83 431.20 3.0339 0.92134 1.1102 184.86 1.3913 4.1134 0.0053764
-121.62 0.049128 0.00037757 -67.296 -67.284 -0.27783 665.91 0.0015017 -67.474 -67.473 -0.27907 1.3380 2.0089 1689.5 -0.0071322 643.70 0.17736 0.011861 84.309 403.75 432.31 3.0193 0.92451 1.1134 185.41 1.3691 4.1409 0.0054424
-120.62 0.055096 0.00042065 -65.266 -65.253 -0.26448 664.89 0.0015040 -65.464 -65.463 -0.26585 1.3384 2.0107 1682.8 -0.0071176 630.28 0.17678 0.013215 75.669 404.67 433.42 3.0050 0.92767 1.1166 185.96 1.3475 4.1683 0.0055087
-119.62 0.061684 0.00046787 -63.233 -63.219 -0.25119 663.87 0.0015063 -63.452 -63.452 -0.25271 1.3387 2.0126 1676.1 -0.0071028 617.30 0.17619 0.014700 68.027 405.60 434.53 2.9909 0.93084 1.1198 186.51 1.3264 4.1958 0.0055752
-118.62 0.068946 0.00051955 -61.196 -61.180 -0.23796 662.86 0.0015086 -61.439 -61.438 -0.23963 1.3391 2.0146 1669.4 -0.0070878 604.74 0.17560 0.016325 61.255 406.53 435.64 2.9772 0.93401 1.1231 187.06 1.3058 4.2233 0.0056421
-117.62 0.076937 0.00057604 -59.154 -59.137 -0.22479 661.84 0.0015109 -59.423 -59.422 -0.22663 1.3395 2.0165 1662.8 -0.0070726 592.58 0.17501 0.018101 55.245 407.46 436.76 2.9638 0.93718 1.1263 187.60 1.2857 4.2507 0.0057092
-116.62 0.085718 0.00063768 -57.109 -57.089 -0.21168 660.82 0.0015133 -57.406 -57.405 -0.21370 1.3400 2.0184 1656.1 -0.0070573 580.80 0.17442 0.020040 49.901 408.39 437.88 2.9506 0.94035 1.1295 188.14 1.2660 4.2782 0.0057767
-115.62 0.095353 0.00070485 -55.059 -55.037 -0.19863 659.80 0.0015156 -55.386 -55.385 -0.20084 1.3404 2.0204 1649.4 -0.0070417 569.38 0.17383 0.022152 45.142 409.33 439.01 2.9377 0.94352 1.1327 188.68 1.2468 4.3056 0.0058444
-114.62 0.10591 0.00077795 -53.004 -52.980 -0.18563 658.78 0.0015180 -53.365 -53.364 -0.18805 1.3409 2.0224 1642.7 -0.0070260 558.32 0.17323 0.024451 40.898 410.27 440.13 2.9250 0.94669 1.1360 189.22 1.2281 4.3330 0.0059123
-113.62 0.11746 0.00085738 -50.945 -50.918 -0.17268 657.76 0.0015203 -51.342 -51.340 -0.17533 1.3413 2.0244 1636.0 -0.0070100 547.59 0.17264 0.026949 37.107 411.21 441.26 2.9126 0.94987 1.1392 189.75 1.2097 4.3604 0.0059806
-112.62 0.13008 0.00094357 -48.881 -48.851 -0.15978 656.73 0.0015227 -49.316 -49.315 -0.16267 1.3418 2.0264 1629.3 -0.0069938 537.18 0.17204 0.029661 33.715 412.16 442.39 2.9005 0.95305 1.1424 190.28 1.1918 4.3879 0.0060491
-111.62 0.14384 0.0010370 -46.811 -46.778 -0.14693 655.71 0.0015251 -47.289 -47.287 -0.15008 1.3424 2.0285 1622.7 -0.0069774 527.08 0.17144 0.032600 30.675 413.10 443.53 2.8885 0.95623 1.1457 190.81 1.1742 4.4153 0.0061180
-110.62 0.15884 0.0011381 -44.737 -44.700 -0.13412 654.69 0.0015274 -45.259 -45.258 -0.13755 1.3429 2.0305 1616.0 -0.0069609 517.28 0.17084 0.035781 27.948 414.06 444.66 2.8769 0.95942 1.1490 191.34 1.1570 4.4427 0.0061871
-109.62 0.17516 0.0012474 -42.656 -42.616 -0.12136 653.66 0.0015298 -43.228 -43.226 -0.12509 1.3435 2.0326 1609.3 -0.0069441 507.76 0.17024 0.039220 25.497 415.01 445.80 2.8654 0.96261 1.1522 191.86 1.1402 4.4701 0.0062564
-108.62 0.19290 0.0013654 -40.570 -40.526 -0.10864 652.64 0.0015322 -41.194 -41.192 -0.11269 1.3441 2.0347 1602.6 -0.0069271 498.51 0.16964 0.042933 23.292 415.96 446.94 2.8542 0.96581 1.1555 192.38 1.1236 4.4974 0.0063261
-107.62 0.21215 0.0014926 -38.478 -38.429 -0.095963 651.61 0.0015347 -39.158 -39.156 -0.10036 1.3447 2.0369 1595.9 -0.0069098 489.52 0.16903 0.046937 21.305 416.92 448.09 2.8433 0.96901 1.1588 192.90 1.1075 4.5248 0.0063960
-106.62 0.23301 0.0016297 -36.379 -36.325 -0.083323 650.58 0.0015371 -37.120 -37.118 -0.088082 1.3453 2.0390 1589.2 -0.0068924 480.79 0.16843 0.051250 19.512 417.88 449.23 2.8325 0.97222 1.1621 193.41 1.0916 4.5522 0.0064662
-105.62 0.25561 0.0017771 -34.274 -34.215 -0.070719 649.55 0.0015395 -35.080 -35.078 -0.075868 1.3460 2.0412 1582.6 -0.0068747 472.30 0.16782 0.055891 17.892 418.85 450.38 2.8220 0.97544 1.1655 193.93 1.0760 4.5795 0.0065367
-104.62 0.28004 0.0019356 -32.162 -32.097 -0.058149 648.52 0.0015420 -33.038 -33.035 -0.063714 1.3467 2.0434 1575.9 -0.0068569 464.04 0.16721 0.060878 16.426 419.81 451.53 2.8116 0.97867 1.1688 194.44 1.0608 4.6069 0.0066074
-103.62 0.30643 0.0021056 -30.043 -29.972 -0.045611 647.49 0.0015444 -30.994 -30.991 -0.051619 1.3474 2.0456 1569.2 -0.0068387 456.00 0.16660 0.066231 15.099 420.78 452.68 2.8015 0.98191 1.1722 194.94 1.0458 4.6342 0.0066785
-102.62 0.33490 0.0022880 -27.916 -27.839 -0.033104 646.46 0.0015469 -28.947 -28.944 -0.039582 1.3481 2.0478 1562.5 -0.0068204 448.18 0.16600 0.071971 13.894 421.75 453.84 2.7916 0.98516 1.1755 195.44 1.0310 4.6615 0.0067498
-101.62 0.36558 0.0024833 -25.782 -25.698 -0.020625 645.43 0.0015494 -26.898 -26.894 -0.027602 1.3489 2.0501 1555.8 -0.0068018 440.57 0.16539 0.078120 12.801 422.73 454.99 2.7818 0.98841 1.1789 195.95 1.0166 4.6888 0.0068213
-100.62 0.39862 0.0026922 -23.640 -23.548 -0.0081723 644.39 0.0015519 -24.847 -24.843 -0.015678 1.3497 2.0524 1549.1 -0.0067830 433.16 0.16478 0.084699 11.807 423.70 456.15 2.7723 0.99168 1.1823 196.44 1.0024 4.7161 0.0068932
-99.625 0.43414 0.0029155 -21.489 -21.389 0.0042563 643.36 0.0015544 -22.794 -22.789 -0.0038103 1.3505 2.0547 1542.4 -0.0067639 425.95 0.16416 0.091731 10.901 424.68 457.31 2.7630 0.99496 1.1858 196.94 0.98838 4.7434 0.0069653
-98.625 0.47230 0.0031540 -19.330 -19.222 0.016663 642.32 0.0015569 -20.738 -20.733 0.0080027 1.3514 2.0570 1535.7 -0.0067447 418.92 0.16355 0.099240 10.077 425.66 458.48 2.7538 0.99825 1.1892 197.43 0.97464 4.7707 0.0070377
-97.625 0.51325 0.0034084 -17.162 -17.044 0.029050 641.28 0.0015594 -18.680 -18.674 0.019762 1.3522 2.0594 1529.0 -0.0067251 412.07 0.16294 0.10725 9.3239 426.65 459.64 2.7448 1.0016 1.1927 197.92 0.96112 4.7979 0.0071103
-96.625 0.55714 0.0036794 -14.985 -14.857 0.041418 640.24 0.0015619 -16.620 -16.614 0.031467 1.3531 2.0618 1522.3 -0.0067053 405.39 0.16233 0.11579 8.6365 427.63 460.81 2.7360 1.0049 1.1962 198.40 0.94783 4.8251 0.0071832
-95.625 0.60416 0.0039680 -12.798 -12.659 0.053771 639.20 0.0015645 -14.557 -14.550 0.043120 1.3540 2.0642 1515.7 -0.0066853 398.88 0.16171 0.12488 8.0078 428.62 461.98 2.7274 1.0082 1.1997 198.88 0.93475 4.8524 0.0072564
-94.625 0.65446 0.0042750 -10.601 -10.451 0.066111 638.16 0.0015670 -12.491 -12.484 0.054721 1.3550 2.0667 1509.0 -0.0066650 392.53 0.16110 0.13455 7.4323 429.61 463.15 2.7189 1.0116 1.2032 199.36 0.92188 4.8796 0.0073299
-93.625 0.70822 0.0046012 -8.3945 -8.2317 0.078438 637.12 0.0015696 -10.424 -10.416 0.066271 1.3560 2.0691 1502.3 -0.0066444 386.34 0.16048 0.14482 6.9050 430.60 464.32 2.7107 1.0149 1.2068 199.83 0.90921 4.9068 0.0074036
-92.625 0.76564 0.0049475 -6.1769 -6.0009 0.090757 636.07 0.0015722 -8.3535 -8.3452 0.077771 1.3570 2.0716 1495.6 -0.0066236 380.31 0.15987 0.15573 6.4212 431.60 465.49 2.7025 1.0183 1.2104 200.30 0.89673 4.9340 0.0074776
-91.625 0.82689 0.0053149 -3.9483 -3.7582 0.10307 635.02 0.0015747 -6.2808 -6.2719 0.089220 1.3580 2.0742 1488.9 -0.0066025 374.41 0.15925 0.16731 5.9769 432.59 466.67 2.6946 1.0217 1.2140 200.77 0.88445 4.9611 0.0075518
-90.625 0.89218 0.0057044 -1.7083 -1.5032 0.11537 633.98 0.0015773 -4.2056 -4.1959 0.10062 1.3591 2.0767 1482.2 -0.0065811 368.66 0.15864 0.17958 5.5685 433.59 467.84 2.6868 1.0251 1.2177 201.24 0.87236 4.9883 0.0076263
-89.625 0.96172 0.0061168 0.54346 0.76448 0.12768 632.93 0.0015800 -2.1279 -2.1174 0.11197 1.3602 2.0793 1475.5 -0.0065595 363.05 0.15802 0.19258 5.1928 434.59 469.02 2.6791 1.0285 1.2213 201.70 0.86045 5.0154 0.0077011
-88.625 1.0357 0.0065532 2.8073 3.0454 0.13998 631.88 0.0015826 -0.047516 -0.036215 0.12328 1.3613 2.0819 1468.8 -0.0065375 357.56 0.15740 0.20633 4.8466 435.59 470.20 2.6717 1.0320 1.2250 202.15 0.84873 5.0425 0.0077761
-87.625 1.1144 0.0070146 5.0838 5.3399 0.15228 630.83 0.0015852 2.0355 2.0476 0.13454 1.3625 2.0846 1462.1 -0.0065153 352.21 0.15679 0.22087 4.5276 436.60 471.39 2.6643 1.0354 1.2288 202.61 0.83718 5.0696 0.0078514
-86.625 1.1979 0.0075021 7.3731 7.6484 0.16459 629.77 0.0015879 4.1211 4.1342 0.14575 1.3637 2.0873 1455.4 -0.0064928 346.98 0.15617 0.23623 4.2331 437.61 472.57 2.6571 1.0389 1.2325 203.06 0.82580 5.0967 0.0079270
-85.625 1.2866 0.0080167 9.6758 9.9715 0.17690 628.72 0.0015905 6.2094 6.2235 0.15691 1.3649 2.0900 1448.8 -0.0064701 341.87 0.15555 0.25245 3.9612 438.61 473.75 2.6501 1.0424 1.2363 203.50 0.81460 5.1237 0.0080028
-84.625 1.3806 0.0085596 11.992 12.310 0.18922 627.66 0.0015932 8.3004 8.3155 0.16803 1.3661 2.0927 1442.1 -0.0064470 336.87 0.15494 0.26956 3.7097 439.63 474.94 2.6432 1.0460 1.2402 203.95 0.80356 5.1508 0.0080789
-83.625 1.4803 0.0091318 14.323 14.663 0.20155 626.60 0.0015959 10.394 10.410 0.17911 1.3674 2.0955 1435.4 -0.0064236 331.99 0.15432 0.28760 3.4771 440.64 476.13 2.6364 1.0495 1.2440 204.38 0.79269 5.1778 0.0081553
-82.625 1.5858 0.0097345 16.668 17.033 0.21389 625.54 0.0015986 12.491 12.508 0.19014 1.3687 2.0983 1428.7 -0.0063999 327.22 0.15370 0.30659 3.2616 441.65 477.31 2.6298 1.0531 1.2479 204.82 0.78199 5.2048 0.0082319
-81.625 1.6975 0.010369 19.029 19.419 0.22625 624.48 0.0016013 14.590 14.609 0.20113 1.3700 2.1012 1422.0 -0.0063759 322.55 0.15309 0.32659 3.0619 442.67 478.50 2.6233 1.0567 1.2519 205.25 0.77144 5.2318 0.0083088
-80.625 1.8155 0.011036 21.404 21.822 0.23862 623.42 0.0016041 16.692 16.712 0.21208 1.3714 2.1041 1415.4 -0.0063516 317.99 0.15247 0.34763 2.8766 443.69 479.70 2.6169 1.0603 1.2558 205.67 0.76106 5.2587 0.0083860
-79.625 1.9402 0.011737 23.796 24.242 0.25101 622.36 0.0016068 18.797 18.819 0.22299 1.3728 2.1070 1408.7 -0.0063270 313.52 0.15186 0.36974 2.7046 444.71 480.89 2.6106 1.0639 1.2598 206.10 0.75083 5.2857 0.0084634
-78.625 2.0718 0.012474 26.204 26.680 0.26342 621.29 0.0016096 20.905 20.928 0.23385 1.3742 2.1099 1402.0 -0.0063021 309.15 0.15124 0.39296 2.5448 445.73 482.08 2.6045 1.0676 1.2639 206.51 0.74076 5.3126 0.0085411
-77.625 2.2107 0.013248 28.629 29.137 0.27586 620.22 0.0016123 23.016 23.040 0.24468 1.3757 2.1129 1395.3 -0.0062768 304.88 0.15062 0.41735 2.3961 446.75 483.27 2.5985 1.0712 1.2680 206.93 0.73084 5.3395 0.0086190
-76.625 2.3571 0.014059 31.072 31.613 0.28832 619.15 0.0016151 25.130 25.156 0.25546 1.3772 2.1159 1388.7 -0.0062512 300.69 0.15001 0.44292 2.2577 447.78 484.47 2.5926 1.0749 1.2721 207.34 0.72107 5.3664 0.0086972
-75.625 2.5113 0.014909 33.532 34.109 0.30080 618.08 0.0016179 27.247 27.275 0.26620 1.3787 2.1190 1382.0 -0.0062253 296.59 0.14939 0.46974 2.1288 448.81 485.67 2.5869 1.0787 1.2762 207.74 0.71146 5.3933 0.0087757
-74.625 2.6736 0.015800 36.010 36.624 0.31332 617.01 0.0016207 29.366 29.396 0.27691 1.3802 2.1221 1375.4 -0.0061990 292.58 0.14878 0.49783 2.0087 449.83 486.86 2.5812 1.0824 1.2804 208.14 0.70200 5.4201 0.0088544
-73.625 2.8444 0.016733 38.507 39.161 0.32586 615.93 0.0016236 31.489 31.521 0.28758 1.3818 2.1252 1368.7 -0.0061724 288.65 0.14816 0.52725 1.8966 450.86 488.06 2.5757 1.0862 1.2847 208.54 0.69268 5.4469 0.0089334
-72.625 3.0240 0.017710 41.023 41.718 0.33844 614.85 0.0016264 33.615 33.649 0.29821 1.3834 2.1284 1362.0 -0.0061454 284.81 0.14755 0.55804 1.7920 451.90 489.26 2.5703 1.0900 1.2889 208.93 0.68351 5.4737 0.0090126
-71.625 3.2127 0.018731 43.559 44.297 0.35106 613.78 0.0016293 35.745 35.781 0.30880 1.3851 2.1316 1355.4 -0.0061181 281.03 0.14694 0.59024 1.6942 452.93 490.46 2.5650 1.0938 1.2932 209.32 0.67448 5.5005 0.0090922
-70.625 3.4108 0.019799 46.115 46.899 0.36371 612.69 0.0016321 37.877 37.915 0.31935 1.3867 2.1349 1348.7 -0.0060904 277.34 0.14632 0.62390 1.6028 453.96 491.66 2.5598 1.0976 1.2976 209.70 0.66560 5.5273 0.0091720
-69.625 3.6187 0.020914 48.692 49.523 0.37640 611.61 0.0016350 40.013 40.053 0.32987 1.3884 2.1382 1342.1 -0.0060624 273.72 0.14571 0.65906 1.5173 455.00 492.86 2.5547 1.1015 1.3020 210.08 0.65687 5.5540 0.0092520
-68.625 3.8367 0.022078 51.289 52.171 0.38913 610.53 0.0016379 42.152 42.195 0.34036 1.3902 2.1415 1335.5 -0.0060339 270.17 0.14510 0.69577 1.4372 456.04 494.06 2.5497 1.1054 1.3064 210.45 0.64827 5.5807 0.0093324
-67.625 4.0652 0.023293 53.909 54.843 0.40191 609.44 0.0016409 44.294 44.340 0.35080 1.3919 2.1449 1328.8 -0.0060051 266.69 0.14449 0.73408 1.3622 457.08 495.26 2.5448 1.1093 1.3109 210.82 0.63981 5.6074 0.0094130
-66.625 4.3046 0.024560 56.550 57.540 0.41473 608.35 0.0016438 46.439 46.488 0.36122 1.3937 2.1483 1322.2 -0.0059760 263.28 0.14388 0.77404 1.2919 458.12 496.46 2.5400 1.1133 1.3154 211.18 0.63150 5.6341 0.0094939
-65.625 4.5551 0.025881 59.214 60.261 0.42760 607.26 0.0016467 48.588 48.640 0.37160 1.3955 2.1518 1315.6 -0.0059464 259.93 0.14327 0.81570 1.2259 459.16 497.67 2.5353 1.1172 1.3200 211.54 0.62332 5.6608 0.0095750
-64.625 4.8173 0.027258 61.902 63.009 0.44052 606.16 0.0016497 50.740 50.795 0.38195 1.3974 2.1553 1308.9 -0.0059164 256.65 0.14266 0.85910 1.1640 460.21 498.87 2.5307 1.1212 1.3246 211.89 0.61527 5.6874 0.0096564
-63.625 5.0915 0.028691 64.613 65.783 0.45349 605.07 0.0016527 52.896 52.954 0.39226 1.3993 2.1588 1302.3 -0.0058861 253.42 0.14205 0.90429 1.1058 461.25 500.07 2.5262 1.1252 1.3293 212.24 0.60736 5.7140 0.0097382
-62.625 5.3781 0.030184 67.348 68.584 0.46651 603.97 0.0016557 55.055 55.117 0.40254 1.4012 2.1624 1295.7 -0.0058553 250.26 0.14144 0.95134 1.0511 462.30 501.28 2.5218 1.1293 1.3340 212.58 0.59958 5.7406 0.0098201
-61.625 5.6774 0.031736 70.107 71.412 0.47959 602.87 0.0016587 57.218 57.283 0.41279 1.4031 2.1660 1289.1 -0.0058241 247.16 0.14084 1.0003 0.99972 463.35 502.48 2.5175 1.1333 1.3387 212.92 0.59194 5.7672 0.0099024
-60.625 5.9899 0.033351 72.892 74.269 0.49272 601.77 0.0016618 59.385 59.453 0.42301 1.4051 2.1697 1282.5 -0.0057925 244.12 0.14023 1.0512 0.95131 464.40 503.68 2.5133 1.1374 1.3435 213.26 0.58442 5.7938 0.0099850
-59.625 6.3160 0.035029 75.702 77.154 0.50591 600.66 0.0016648 61.554 61.627 0.43320 1.4071 2.1734 1275.9 -0.0057605 241.13 0.13962 1.1041 0.90573 465.45 504.89 2.5091 1.1415 1.3483 213.58 0.57704 5.8203 0.010068
-58.625 6.6561 0.036773 78.539 80.069 0.51917 599.55 0.0016679 63.728 63.805 0.44335 1.4091 2.1772 1269.3 -0.0057280 238.19 0.13902 1.1591 0.86277 466.50 506.09 2.5051 1.1457 1.3532 213.90 0.56978 5.8468 0.010151
-57.625 7.0107 0.038584 81.403 83.014 0.53248 598.44 0.0016710 65.905 65.986 0.45348 1.4111 2.1810 1262.7 -0.0056951 235.31 0.13842 1.2161 0.82228 467.55 507.30 2.5011 1.1498 1.3581 214.22 0.56265 5.8733 0.010234
-56.625 7.3801 0.040464 84.293 85.989 0.54586 597.33 0.0016741 68.086 68.172 0.46358 1.4132 2.1848 1256.1 -0.0056617 232.48 0.13781 1.2754 0.78408 468.60 508.50 2.4972 1.1540 1.3631 214.53 0.55564 5.8998 0.010318
-55.625 7.7648 0.042415 87.211 88.996 0.55931 596.22 0.0016772 70.271 70.361 0.47364 1.4153 2.1887 1249.5 -0.0056279 229.69 0.13721 1.3369 0.74802 469.66 509.71 2.4934 1.1582 1.3681 214.84 0.54875 5.9263 0.010402
-54.625 8.1652 0.044439 90.158 92.034 0.57283 595.10 0.0016804 72.460 72.554 0.48368 1.4174 2.1927 1242.9 -0.0055937 226.96 0.13661 1.4006 0.71396 470.72 510.91 2.4897 1.1624 1.3731 215.14 0.54199 5.9527 0.010486
-53.625 8.5819 0.046537 93.133 95.105 0.58641 593.98 0.0016836 74.652 74.752 0.49369 1.4196 2.1967 1236.3 -0.0055589 224.27 0.13601 1.4667 0.68178 471.77 512.11 2.4860 1.1667 1.3782 215.43 0.53535 5.9792 0.010571
-52.625 9.0151 0.048712 96.138 98.210 0.60007 592.86 0.0016867 76.849 76.954 0.50368 1.4218 2.2007 1229.8 -0.0055237 221.63 0.13541 1.5353 0.65136 472.83 513.32 2.4824 1.1710 1.3834 215.72 0.52882 6.0056 0.010656
-51.625 9.4655 0.050965 99.172 101.35 0.61379 591.73 0.0016900 79.049 79.159 0.51363 1.4240 2.2048 1223.2 -0.0054880 219.04 0.13482 1.6062 0.62258 473.89 514.52 2.4789 1.1752 1.3886 216.00 0.52241 6.0320 0.010741
-50.625 9.9335 0.053298 102.24 104.52 0.62760 590.60 0.0016932 81.253 81.369 0.52356 1.4262 2.2089 1216.6 -0.0054519 216.48 0.13422 1.6797 0.59534 474.95 515.73 2.4755 1.1796 1.3938 216.28 0.51612 6.0584 0.010827
-49.625 10.419 0.055714 105.33 107.73 0.64148 589.47 0.0016964 83.462 83.584 0.53347 1.4285 2.2131 1210.1 -0.0054152 213.98 0.13363 1.7558 0.56954 476.01 516.93 2.4722 1.1839 1.3991 216.55 0.50994 6.0848 0.010913
-48.625 10.924 0.058214 108.46 110.97 0.65543 588.34 0.0016997 85.674 85.802 0.54334 1.4308 2.2173 1203.5 -0.0053780 211.51 0.13303 1.8345 0.54510 477.07 518.13 2.4689 1.1883 1.4044 216.82 0.50387 6.1112 0.010999
-47.625 11.448 0.060800 111.62 114.25 0.66947 587.20 0.0017030 87.891 88.025 0.55319 1.4331 2.2216 1196.9 -0.0053403 209.08 0.13244 1.9159 0.52194 478.14 519.33 2.4657 1.1927 1.4098 217.08 0.49792 6.1375 0.011085
-46.625 11.991 0.063475 114.81 117.56 0.68359 586.06 0.0017063 90.111 90.252 0.56302 1.4354 2.2259 1190.4 -0.0053020 206.69 0.13185 2.0001 0.49997 479.20 520.53 2.4625 1.1971 1.4153 217.33 0.49207 6.1639 0.011172
-45.625 12.554 0.066240 118.03 120.92 0.69779 584.92 0.0017096 92.336 92.484 0.57282 1.4378 2.2303 1183.8 -0.0052633 204.34 0.13126 2.0872 0.47912 480.27 521.74 2.4594 1.2015 1.4207 217.58 0.48633 6.1902 0.011259
-44.625 13.137 0.069098 121.29 124.31 0.71208 583.77 0.0017130 94.565 94.720 0.58260 1.4402 2.2347 1177.3 -0.0052240 202.03 0.13067 2.1771 0.45933 481.33 522.94 2.4564 1.2060 1.4263 217.82 0.48069 6.2165 0.011347
-43.625 13.741 0.072051 124.58 127.74 0.72645 582.62 0.0017164 96.799 96.961 0.59235 1.4426 2.2392 1170.7 -0.0051841 199.75 0.13008 2.2700 0.44053 482.40 524.14 2.4535 1.2104 1.4319 218.05 0.47516 6.2429 0.011435
-42.625 14.367 0.075100 127.91 131.21 0.74090 581.47 0.0017198 99.036 99.207 0.60208 1.4450 2.2437 1164.2 -0.0051437 197.51 0.12949 2.3659 0.42267 483.46 525.33 2.4506 1.2149 1.4375 218.28 0.46973 6.2692 0.011523
-41.625 15.015 0.078249 131.27 134.72 0.75545 580.32 0.0017232 101.28 101.46 0.61179 1.4475 2.2483 1157.7 -0.0051027 195.30 0.12891 2.4649 0.40569 484.53 526.53 2.4478 1.2195 1.4432 218.50 0.46440 6.2955 0.011612
-40.625 15.686 0.081499 134.66 138.27 0.77009 579.16 0.0017266 103.52 103.71 0.62147 1.4500 2.2529 1151.1 -0.0050611 193.13 0.12832 2.5671 0.38954 485.60 527.73 2.4450 1.2240 1.4489 218.72 0.45917 6.3218 0.011701
-39.625 16.380 0.084853 138.10 141.86 0.78482 578.00 0.0017301 105.78 105.97 0.63113 1.4525 2.2576 1144.6 -0.0050189 190.99 0.12774 2.6725 0.37418 486.67 528.93 2.4423 1.2286 1.4547 218.93 0.45403 6.3481 0.011790
-38.625 17.097 0.088313 141.56 145.49 0.79964 576.83 0.0017336 108.03 108.24 0.64077 1.4550 2.2623 1138.0 -0.0049761 188.88 0.12716 2.7813 0.35955 487.74 530.12 2.4397 1.2332 1.4606 219.13 0.44900 6.3744 0.011880
-37.625 17.838 0.091881 145.07 149.17 0.81455 575.66 0.0017371 110.29 110.51 0.65039 1.4576 2.2671 1131.5 -0.0049327 186.81 0.12658 2.8934 0.34562 488.81 531.32 2.4371 1.2378 1.4665 219.33 0.44405 6.4007 0.011970
-36.625 18.604 0.095560 148.61 152.89 0.82956 574.49 0.0017407 112.56 112.78 0.65999 1.4602 2.2719 1125.0 -0.0048887 184.76 0.12600 3.0089 0.33235 489.88 532.51 2.4346 1.2424 1.4724 219.52 0.43920 6.4270 0.012060
-35.625 19.395 0.099352 152.19 156.65 0.84467 573.32 0.0017442 114.83 115.06 0.66956 1.4628 2.2768 1118.5 -0.0048440 182.75 0.12542 3.1280 0.31969 490.95 533.70 2.4321 1.2471 1.4784 219.70 0.43444 6.4533 0.012151
-34.625 20.212 0.10326 155.81 160.46 0.85988 572.14 0.0017478 117.10 117.34 0.67912 1.4654 2.2818 1111.9 -0.0047987 180.76 0.12485 3.2506 0.30763 492.02 534.89 2.4297 1.2517 1.4845 219.88 0.42977 6.4797 0.012243
-33.625 21.056 0.10729 159.47 164.31 0.87519 570.96 0.0017514 119.38 119.63 0.68865 1.4681 2.2868 1105.4 -0.0047527 178.80 0.12427 3.3770 0.29612 493.09 536.08 2.4273 1.2564 1.4906 220.05 0.42519 6.5060 0.012334
-32.625 21.926 0.11143 163.17 168.21 0.89059 569.77 0.0017551 121.66 121.93 0.69817 1.4708 2.2918 1098.9 -0.0047061 176.87 0.12370 3.5071 0.28514 494.17 537.27 2.4250 1.2611 1.4968 220.21 0.42070 6.5323 0.012426
-31.625 22.823 0.11570 166.91 172.15 0.90610 568.58 0.0017588 123.95 124.23 0.70767 1.4735 2.2970 1092.3 -0.0046587 174.97 0.12313 3.6410 0.27465 495.24 538.46 2.4227 1.2659 1.5031 220.36 0.41629 6.5587 0.012519
-30.625 23.749 0.12010 170.69 176.15 0.92172 567.39 0.0017625 126.24 126.53 0.71714 1.4762 2.3021 1085.8 -0.0046107 173.09 0.12256 3.7787 0.26464 496.31 539.64 2.4205 1.2706 1.5094 220.51 0.41196 6.5850 0.012612
-29.625 24.703 0.12462 174.51 180.18 0.93743 566.19 0.0017662 128.54 128.84 0.72660 1.4790 2.3074 1079.3 -0.0045619 171.24 0.12200 3.9205 0.25507 497.38 540.83 2.4184 1.2754 1.5157 220.65 0.40772 6.6114 0.012706
-28.625 25.687 0.12928 178.37 184.27 0.95326 564.99 0.0017699 130.84 131.16 0.73604 1.4818 2.3126 1072.8 -0.0045124 169.42 0.12143 4.0663 0.24592 498.46 542.01 2.4162 1.2802 1.5222 220.79 0.40356 6.6378 0.012800
-27.625 26.700 0.13407 182.27 188.41 0.96919 563.78 0.0017737 133.15 133.48 0.74547 1.4846 2.3180 1066.2 -0.0044621 167.62 0.12087 4.2163 0.23717 499.53 543.19 2.4142 1.2850 1.5286 220.91 0.39947 6.6642 0.012894
-26.625 27.743 0.13899 186.22 192.59 0.98522 562.57 0.0017775 135.47 135.81 0.75487 1.4874 2.3234 1059.7 -0.0044111 165.84 0.12031 4.3705 0.22881 500.60 544.37 2.4122 1.2899 1.5352 221.03 0.39547 6.6906 0.012989
-25.625 28.817 0.14406 190.21 196.83 1.0014 561.36 0.0017814 137.78 138.14 0.76426 1.4902 2.3289 1053.2 -0.0043593 164.09 0.11975 4.5290 0.22080 501.68 545.55 2.4102 1.2947 1.5418 221.14 0.39154 6.7171 0.013084
-24.625 29.923 0.14927 194.24 201.12 1.0176 560.14 0.0017853 140.11 140.48 0.77363 1.4931 2.3344 1046.7 -0.0043067 162.36 0.11919 4.6918 0.21314 502.75 546.72 2.4083 1.2996 1.5485 221.25 0.38768 6.7436 0.013180
-23.625 31.061 0.15462 198.31 205.45 1.0340 558.92 0.0017892 142.44 142.82 0.78298 1.4960 2.3400 1040.1 -0.0042533 160.65 0.11863 4.8592 0.20580 503.82 547.90 2.4064 1.3045 1.5552 221.35 0.38391 6.7701 0.013277
-22.625 32.232 0.16013 202.44 209.84 1.0505 557.69 0.0017931 144.77 145.17 0.79232 1.4990 2.3457 1033.6 -0.0041990 158.97 0.11807 5.0311 0.19877 504.90 549.07 2.4045 1.3095 1.5621 221.44 0.38020 6.7967 0.013374
-21.625 33.435 0.16578 206.60 214.29 1.0671 556.46 0.0017971 147.11 147.52 0.80164 1.5019 2.3514 1027.1 -0.0041439 157.30 0.11752 5.2076 0.19203 505.97 550.24 2.4027 1.3144 1.5690 221.52 0.37656 6.8232 0.013471
-20.625 34.673 0.17159 210.81 218.78 1.0838 555.23 0.0018011 149.45 149.88 0.81095 1.5049 2.3572 1020.6 -0.0040879 155.66 0.11697 5.3889 0.18557 507.04 551.40 2.4010 1.3194 1.5759 221.59 0.37300 6.8499 0.013569
-19.625 35.946 0.17756 215.07 223.33 1.1006 553.99 0.0018051 151.80 152.25 0.82024 1.5079 2.3630 1014.0 -0.0040311 154.04 0.11642 5.5750 0.17937 508.11 552.57 2.3992 1.3244 1.5829 221.66 0.36950 6.8765 0.013668
-18.625 37.253 0.18368 219.37 227.93 1.1175 552.74 0.0018092 154.16 154.62 0.82952 1.5109 2.3689 1007.5 -0.0039733 152.44 0.11587 5.7660 0.17343 509.19 553.73 2.3976 1.3294 1.5901 221.72 0.36608 6.9032 0.013767
-17.625 38.596 0.18998 223.72 232.59 1.1346 551.49 0.0018133 156.52 157.00 0.83878 1.5140 2.3749 1001.0 -0.0039145 150.86 0.11532 5.9621 0.16773 510.26 554.89 2.3959 1.3345 1.5972 221.77 0.36272 6.9300 0.013867
-16.625 39.976 0.19644 228.12 237.31 1.1518 550.24 0.0018174 158.89 159.39 0.84803 1.5171 2.3810 994.44 -0.0038549 149.29 0.11478 6.1632 0.16225 511.33 556.05 2.3943 1.3395 1.6045 221.81 0.35942 6.9568 0.013968
-15.625 41.392 0.20307 232.57 242.08 1.1691 548.98 0.0018216 161.26 161.78 0.85726 1.5202 2.3871 987.91 -0.0037942 147.75 0.11423 6.3696 0.15700 512.40 557.20 2.3927 1.3446 1.6119 221.85 0.35619 6.9836 0.014069
-14.625 42.846 0.20988 237.06 246.91 1.1865 547.71 0.0018258 163.64 164.18 0.86649 1.5233 2.3933 981.37 -0.0037325 146.22 0.11369 6.5812 0.15195 513.47 558.36 2.3912 1.3497 1.6193 221.87 0.35302 7.0105 0.014170
-13.625 44.338 0.21687 241.60 251.79 1.2040 546.44 0.0018300 166.02 166.58 0.87569 1.5264 2.3996 974.83 -0.0036698 144.72 0.11315 6.7983 0.14710 514.54 559.51 2.3897 1.3549 1.6268 221.89 0.34992 7.0375 0.014273
-12.625 45.870 0.22404 246.20 256.74 1.2217 545.17 0.0018343 168.41 168.99 0.88489 1.5296 2.4059 968.29 -0.0036061 143.23 0.11261 7.0208 0.14243 515.61 560.65 2.3883 1.3600 1.6344 221.90 0.34688 7.0646 0.014376
-11.625 47.440 0.23139 250.84 261.74 1.2395 543.89 0.0018386 170.81 171.41 0.89407 1.5328 2.4124 961.75 -0.0035413 141.76 0.11208 7.2490 0.13795 516.68 561.80 2.3868 1.3652 1.6421 221.91 0.34389 7.0917 0.014479
-10.625 49.051 0.23894 255.53 266.80 1.2574 542.60 0.0018430 173.21 173.83 0.90324 1.5360 2.4189 955.20 -0.0034753 140.30 0.11154 7.4829 0.13364 517.75 562.94 2.3854 1.3704 1.6498 221.90 0.34097 7.1188 0.014584
-9.6250 50.703 0.24667 260.27 271.93 1.2754 541.31 0.0018474 175.61 176.26 0.91240 1.5393 2.4255 948.65 -0.0034082 138.86 0.11101 7.7226 0.12949 518.81 564.08 2.3841 1.3757 1.6577 221.88 0.33810 7.1461 0.014689
-8.6250 52.396 0.25461 265.07 277.11 1.2936 540.02 0.0018518 178.03 178.70 0.92154 1.5426 2.4321 942.10 -0.0033400 137.44 0.11048 7.9683 0.12550 519.88 565.21 2.3827 1.3809 1.6657 221.86 0.33529 7.1734 0.014795
-7.6250 54.131 0.26275 269.91 282.35 1.3119 538.72 0.0018563 180.45 181.14 0.93068 1.5459 2.4389 935.55 -0.0032705 136.03 0.10995 8.2200 0.12165 520.94 566.35 2.3814 1.3862 1.6737 221.83 0.33254 7.2008 0.014902
-6.6250 55.909 0.27110 274.81 287.66 1.3303 537.41 0.0018608 182.87 183.59 0.93980 1.5492 2.4457 928.99 -0.0031998 134.64 0.10942 8.4779 0.11795 522.01 567.48 2.3801 1.3915 1.6819 221.79 0.32984 7.2284 0.015009
-5.6250 57.730 0.27965 279.76 293.03 1.3488 536.10 0.0018653 185.30 186.05 0.94892 1.5525 2.4526 922.43 -0.0031279 133.27 0.10889 8.7420 0.11439 523.07 568.60 2.3789 1.3969 1.6902 221.74 0.32720 7.2560 0.015117
-4.6250 59.595 0.28843 284.77 298.46 1.3675 534.78 0.0018699 187.74 188.51 0.95802 1.5559 2.4596 915.87 -0.0030546 131.91 0.10837 9.0126 0.11096 524.13 569.72 2.3777 1.4022 1.6985 221.68 0.32461 7.2837 0.015226
-3.6250 61.505 0.29742 289.82 303.96 1.3863 533.45 0.0018746 190.19 190.98 0.96711 1.5593 2.4667 909.30 -0.0029800 130.56 0.10785 9.2896 0.10765 525.19 570.84 2.3765 1.4076 1.7070 221.62 0.32207 7.3115 0.015336
-2.6250 63.461 0.30664 294.94 309.52 1.4052 532.12 0.0018793 192.64 193.46 0.97620 1.5627 2.4739 902.73 -0.0029041 129.23 0.10733 9.5733 0.10446 526.25 571.96 2.3753 1.4131 1.7156 221.54 0.31958 7.3394 0.015447
-1.6250 65.462 0.31608 300.10 315.15 1.4243 530.78 0.0018840 195.10 195.95 0.98527 1.5662 2.4811 896.16 -0.0028267 127.91 0.10681 9.8638 0.10138 527.31 573.07 2.3742 1.4185 1.7243 221.45 0.31715 7.3674 0.015559
-0.62500 67.510 0.32576 305.32 320.84 1.4435 529.44 0.0018888 197.56 198.44 0.99434 1.5696 2.4885 889.58 -0.0027478 126.61 0.10629 10.161 0.098414 528.37 574.18 2.3731 1.4240 1.7331 221.36 0.31476 7.3956 0.015671
0.37500 69.606 0.33568 310.60 326.60 1.4628 528.09 0.0018936 200.03 200.94 1.0034 1.5731 2.4960 883.00 -0.0026675 125.32 0.10578 10.466 0.095552 529.42 575.28 2.3720 1.4295 1.7421 221.26 0.31242 7.4239 0.015785
1.3750 71.749 0.34585 315.94 332.42 1.4823 526.73 0.0018985 202.51 203.45 1.0124 1.5767 2.5035 876.42 -0.0025856 124.04 0.10527 10.777 0.092790 530.48 576.38 2.3709 1.4350 1.7512 221.14 0.31013 7.4523 0.015899
2.3750 73.941 0.35627 321.33 338.32 1.5019 525.37 0.0019034 204.99 205.96 1.0215 1.5802 2.5112 869.83 -0.0025022 122.78 0.10476 11.096 0.090123 531.53 577.47 2.3699 1.4406 1.7604 221.02 0.30789 7.4808 0.016015
3.3750 76.183 0.36694 326.77 344.28 1.5216 523.99 0.0019084 207.48 208.48 1.0305 1.5838 2.5190 863.24 -0.0024171 121.53 0.10425 11.422 0.087549 532.58 578.56 2.3688 1.4462 1.7697 220.89 0.30569 7.5095 0.016131
4.3750 78.475 0.37787 332.28 350.31 1.5415 522.62 0.0019134 209.98 211.01 1.0395 1.5874 2.5268 856.64 -0.0023303 120.29 0.10374 11.756 0.085062 533.63 579.65 2.3678 1.4518 1.7792 220.75 0.30354 7.5384 0.016249
5.3750 80.817 0.38908 337.84 356.41 1.5615 521.23 0.0019185 212.48 213.55 1.0486 1.5910 2.5348 850.04 -0.0022417 119.06 0.10324 12.098 0.082660 534.67 580.73 2.3669 1.4575 1.7888 220.60 0.30144 7.5674 0.016368
6.3750 83.211 0.40055 343.46 362.58 1.5816 519.84 0.0019237 215.00 216.10 1.0576 1.5946 2.5429 843.43 -0.0021514 117.85 0.10273 12.447 0.080340 535.72 581.81 2.3659 1.4632 1.7986 220.44 0.29938 7.5966 0.016487
7.3750 85.657 0.41231 349.14 368.83 1.6019 518.44 0.0019289 217.51 218.65 1.0666 1.5983 2.5511 836.82 -0.0020593 116.65 0.10223 12.805 0.078096 536.76 582.88 2.3650 1.4689 1.8085 220.27 0.29736 7.6259 0.016608
8.3750 88.156 0.42435 354.88 375.14 1.6223 517.03 0.0019341 220.04 221.22 1.0756 1.6020 2.5595 830.20 -0.0019652 115.46 0.10173 13.170 0.075928 537.80 583.95 2.3640 1.4746 1.8186 220.08 0.29538 7.6555 0.016730
9.3750 90.708 0.43669 360.68 381.53 1.6429 515.62 0.0019394 222.57 223.79 1.0846 1.6057 2.5679 823.58 -0.0018691 114.28 0.10124 13.545 0.073830 538.84 585.01 2.3631 1.4804 1.8288 219.89 0.29345 7.6852 0.016853
10.375 93.315 0.44932 366.54 387.99 1.6636 514.19 0.0019448 225.11 226.37 1.0936 1.6095 2.5765 816.96 -0.0017710 113.11 0.10074 13.927 0.071802 539.87 586.07 2.3622 1.4863 1.8392 219.69 0.29156 7.7151 0.016978
11.375 95.977 0.46227 372.46 394.52 1.6845 512.76 0.0019502 227.66 228.95 1.1025 1.6132 2.5852 810.32 -0.0016708 111.95 0.10025 14.319 0.069840 540.90 587.12 2.3614 1.4921 1.8498 219.48 0.28971 7.7452 0.017103
12.375 98.694 0.47553 378.45 401.13 1.7055 511.32 0.0019557 230.22 231.55 1.1115 1.6170 2.5940 803.68 -0.0015685 110.80 0.099756 14.719 0.067941 541.93 588.17 2.3605 1.4980 1.8605 219.26 0.28790 7.7756 0.017230
13.375 101.47 0.48911 384.49 407.81 1.7266 509.87 0.0019613 232.78 234.15 1.1205 1.6208 2.6030 797.04 -0.0014639 109.67 0.099267 15.128 0.066103 542.96 589.21 2.3597 1.5040 1.8715 219.03 0.28612 7.8061 0.017359
14.375 104.30 0.50302 390.60 414.57 1.7479 508.42 0.0019669 235.35 236.77 1.1295 1.6247 2.6121 790.39 -0.0013569 108.54 0.098779 15.547 0.064323 543.99 590.24 2.3588 1.5099 1.8826 218.79 0.28439 7.8369 0.017488
15.375 107.19 0.51727 396.77 421.41 1.7693 506.95 0.0019726 237.93 239.39 1.1384 1.6286 2.6214 783.73 -0.0012476 107.43 0.098294 15.974 0.062600 545.01 591.27 2.3580 1.5159 1.8940 218.53 0.28270 7.8680 0.017619
16.375 110.13 0.53187 403.01 428.32 1.7909 505.48 0.0019783 240.52 242.02 1.1474 1.6324 2.6308 777.07 -0.0011357 106.32 0.097810 16.412 0.060931 546.03 592.29 2.3572 1.5220 1.9055 218.27 0.28104 7.8993 0.017752
17.375 113.14 0.54682 409.31 435.31 1.8126 504.00 0.0019841 243.11 244.66 1.1564 1.6364 2.6403 770.40 -0.0010213 105.22 0.097328 16.859 0.059314 547.04 593.31 2.3564 1.5281 1.9172 217.99 0.27942 7.9308 0.017886
18.375 116.21 0.56214 415.67 442.38 1.8345 502.50 0.0019900 245.72 247.31 1.1653 1.6403 2.6501 763.72 -0.00090422 104.14 0.096848 17.317 0.057747 548.05 594.32 2.3557 1.5342 1.9292 217.71 0.27783 7.9626 0.018021
19.375 119.33 0.57784 422.10 449.53 1.8565 501.00 0.0019960 248.33 249.97 1.1743 1.6443 2.6599 757.04 -0.00078435 103.06 0.096371 17.785 0.056228 549.06 595.33 2.3549 1.5404 1.9414 217.41 0.27628 7.9947 0.018159
20.375 122.52 0.59392 428.60 456.76 1.8787 499.49 0.0020020 250.95 252.64 1.1832 1.6483 2.6700 750.35 -0.00066161 101.99 0.095895 18.263 0.054756 550.07 596.32 2.3541 1.5466 1.9538 217.10 0.27477 8.0272 0.018297
21.375 125.77 0.61039 435.16 464.07 1.9010 497.97 0.0020082 253.57 255.32 1.1922 1.6523 2.6802 743.64 -0.00053589 100.93 0.095420 18.752 0.053328 551.07 597.31 2.3534 1.5528 1.9665 216.78 0.27329 8.0599 0.018438
22.375 129.08 0.62727 441.79 471.46 1.9234 496.43 0.0020144 256.21 258.00 1.2012 1.6563 2.6906 736.94 -0.00040708 99.877 0.094948 19.252 0.051943 552.07 598.30 2.3526 1.5591 1.9795 216.45 0.27184 8.0929 0.018580
23.375 132.46 0.64457 448.49 478.93 1.9461 494.89 0.0020206 258.86 260.70 1.2101 1.6604 2.7012 730.22 -0.00027505 98.834 0.094478 19.763 0.050600 553.06 599.27 2.3519 1.5655 1.9927 216.11 0.27043 8.1263 0.018724
24.375 135.90 0.66229 455.26 486.49 1.9688 493.34 0.0020270 261.51 263.41 1.2191 1.6645 2.7120 723.49 -0.00013968 97.800 0.094009 20.285 0.049297 554.05 600.24 2.3512 1.5718 2.0061 215.75 0.26906 8.1600 0.018870
25.375 139.41 0.68046 462.09 494.13 1.9918 491.77 0.0020335 264.17 266.13 1.2280 1.6686 2.7230 716.76 -8.3775e-07 96.773 0.093543 20.820 0.048032 555.03 601.20 2.3504 1.5783 2.0199 215.39 0.26771 8.1941 0.019017
26.375 142.98 0.69908 469.00 501.86 2.0149 490.20 0.0020400 266.84 268.85 1.2370 1.6728 2.7342 710.01 0.00014161 95.755 0.093078 21.366 0.046804 556.01 602.15 2.3497 1.5847 2.0340 215.01 0.26640 8.2286 0.019167
27.375 146.62 0.71816 475.97 509.67 2.0381 488.61 0.0020466 269.52 271.59 1.2459 1.6770 2.7456 703.26 0.00028782 94.745 0.092615 21.924 0.045612 556.99 603.10 2.3490 1.5913 2.0484 214.62 0.26512 8.2634 0.019319
28.375 150.33 0.73773 483.02 517.57 2.0615 487.01 0.0020533 272.21 274.34 1.2549 1.6812 2.7573 696.49 0.00043793 93.742 0.092154 22.495 0.044454 557.96 604.03 2.3483 1.5978 2.0631 214.21 0.26387 8.2987 0.019472
29.375 154.10 0.75779 490.13 525.55 2.0851 485.40 0.0020601 274.91 277.10 1.2638 1.6854 2.7691 689.72 0.00059212 92.747 0.091695 23.079 0.043329 558.92 604.96 2.3476 1.6044 2.0781 213.80 0.26265 8.3344 0.019628
30.375 157.94 0.77836 497.32 533.62 2.1088 483.78 0.0020671 277.62 279.87 1.2728 1.6897 2.7813 682.93 0.00075055 91.760 0.091238 23.676 0.042237 559.88 605.88 2.3469 1.6111 2.0935 213.37 0.26147 8.3705 0.019786
31.375 161.86 0.79945 504.59 541.79 2.1327 482.15 0.0020741 280.34 282.66 1.2818 1.6939 2.7936 676.13 0.00091340 90.779 0.090782 24.287 0.041175 560.84 606.79 2.3462 1.6178 2.1092 212.93 0.26031 8.4071 0.019947
32.375 165.84 0.82109 511.92 550.04 2.1568 480.50 0.0020812 283.07 285.45 1.2908 1.6983 2.8063 669.32 0.0010809 89.806 0.090328 24.911 0.040143 561.79 607.69 2.3455 1.6246 2.1254 212.48 0.25919 8.4442 0.020110
33.375 169.90 0.84329 519.33 558.38 2.1810 478.83 0.0020884 285.81 288.26 1.2997 1.7026 2.8192 662.50 0.0012532 88.840 0.089876 25.549 0.039140 562.73 608.58 2.3448 1.6314 2.1419 212.01 0.25809 8.4818 0.020275
34.375 174.02 0.86606 526.82 566.82 2.2054 477.16 0.0020957 288.56 291.07 1.3087 1.7070 2.8324 655.67 0.0014305 87.880 0.089426 26.202 0.038164 563.67 609.46 2.3440 1.6383 2.1589 211.53 0.25702 8.5199 0.020443
35.375 178.22 0.88943 534.38 575.34 2.2299 475.47 0.0021032 291.32 293.90 1.3177 1.7114 2.8459 648.82 0.0016131 86.927 0.088977 26.870 0.037216 564.60 610.33 2.3433 1.6452 2.1763 211.04 0.25599 8.5586 0.020613
36.375 182.50 0.91341 542.02 583.96 2.2546 473.77 0.0021107 294.09 296.74 1.3267 1.7158 2.8597 641.96 0.0018012 85.980 0.088531 27.553 0.036293 565.52 611.19 2.3426 1.6522 2.1942 210.53 0.25498 8.5978 0.020786
37.375 186.84 0.93804 549.74 592.68 2.2795 472.05 0.0021184 296.87 299.60 1.3357 1.7203 2.8739 635.08 0.0019950 85.040 0.088085 28.252 0.035395 566.44 612.04 2.3419 1.6592 2.2125 210.01 0.25400 8.6376 0.020962
38.375 191.27 0.96332 557.53 601.49 2.3046 470.31 0.0021262 299.66 302.46 1.3447 1.7248 2.8884 628.19 0.0021949 84.105 0.087642 28.967 0.034522 567.35 612.88 2.3411 1.6663 2.2314 209.47 0.25305 8.6780 0.021141
39.375 195.77 0.98928 565.41 610.40 2.3298 468.56 0.0021342 302.46 305.34 1.3537 1.7293 2.9033 621.29 0.0024011 83.177 0.087200 29.699 0.033671 568.26 613.70 2.3404 1.6734 2.2508 208.92 0.25213 8.7190 0.021323
40.375 198.25 undefined 569.62 615.18 2.3433 30.000 0.033333 569.62 615.18 2.3433 1.6779 2.2566 209.09 0.24975 8.7539 0.021468 30.000 0.033333 569.62 615.18 2.3433 1.6779 2.2566 209.09 0.24975 8.7539 0.021468
41.375 199.31 undefined 571.30 617.10 2.3486 30.000 0.033333 571.30 617.10 2.3486 1.6806 2.2530 209.75 0.24642 8.7842 0.021587 30.000 0.033333 571.30 617.10 2.3486 1.6806 2.2530 209.75 0.24642 8.7842 0.021587
42.375 200.37 undefined 572.98 619.03 2.3540 30.000 0.033333 572.98 619.03 2.3540 1.6834 2.2496 210.40 0.24317 8.8145 0.021706 30.000 0.033333 572.98 619.03 2.3540 1.6834 2.2496 210.40 0.24317 8.8145 0.021706
43.375 201.43 undefined 574.66 620.96 2.3593 30.000 0.033333 574.66 620.96 2.3593 1.6862 2.2465 211.05 0.23998 8.8448 0.021825 30.000 0.033333 574.66 620.96 2.3593 1.6862 2.2465 211.05 0.23998 8.8448 0.021825
44.375 202.49 undefined 576.35 622.89 2.3646 30.000 0.033333 576.35 622.89 2.3646 1.6890 2.2435 211.70 0.23687 8.8750 0.021946 30.000 0.033333 576.35 622.89 2.3646 1.6890 2.2435 211.70 0.23687 8.8750 0.021946
45.375 203.54 undefined 578.04 624.82 2.3699 30.000 0.033333 578.04 624.82 2.3699 1.6918 2.2408 212.34 0.23381 8.9052 0.022066 30.000 0.033333 578.04 624.82 2.3699 1.6918 2.2408 212.34 0.23381 8.9052 0.022066
46.375 204.60 undefined 579.73 626.76 2.3752 30.000 0.033333 579.73 626.76 2.3752 1.6947 2.2383 212.98 0.23082 8.9354 0.022187 30.000 0.033333 579.73 626.76 2.3752 1.6947 2.2383 212.98 0.23082 8.9354 0.022187
47.375 205.65 undefined 581.43 628.69 2.3805 30.000 0.033333 581.43 628.69 2.3805 1.6976 2.2360 213.62 0.22789 8.9656 0.022309 30.000 0.033333 581.43 628.69 2.3805 1.6976 2.2360 213.62 0.22789 8.9656 0.022309
48.375 206.70 undefined 583.13 630.63 2.3858 30.000 0.033333 583.13 630.63 2.3858 1.7005 2.2338 214.25 0.22502 8.9957 0.022431 30.000 0.033333 583.13 630.63 2.3858 1.7005 2.2338 214.25 0.22502 8.9957 0.022431
49.375 207.74 undefined 584.83 632.58 2.3911 30.000 0.033333 584.83 632.58 2.3911 1.7035 2.2318 214.88 0.22221 9.0258 0.022553 30.000 0.033333 584.83 632.58 2.3911 1.7035 2.2318 214.88 0.22221 9.0258 0.022553
50.375 208.79 undefined 586.54 634.52 2.3964 30.000 0.033333 586.54 634.52 2.3964 1.7065 2.2300 215.50 0.21946 9.0558 0.022676 30.000 0.033333 586.54 634.52 2.3964 1.7065 2.2300 215.50 0.21946 9.0558 0.022676
51.375 209.83 undefined 588.24 636.47 2.4017 30.000 0.033333 588.24 636.47 2.4017 1.7096 2.2284 216.13 0.21676 9.0859 0.022800 30.000 0.033333 588.24 636.47 2.4017 1.7096 2.2284 216.13 0.21676 9.0859 0.022800
52.375 210.87 undefined 589.96 638.42 2.4069 30.000 0.033333 589.96 638.42 2.4069 1.7126 2.2269 216.75 0.21411 9.1159 0.022923 30.000 0.033333 589.96 638.42 2.4069 1.7126 2.2269 216.75 0.21411 9.1159 0.022923
53.375 211.91 undefined 591.67 640.37 2.4122 30.000 0.033333 591.67 640.37 2.4122 1.7157 2.2256 217.36 0.21151 9.1459 0.023047 30.000 0.033333 591.67 640.37 2.4122 1.7157 2.2256 217.36 0.21151 9.1459 0.023047
54.375 212.95 undefined 593.39 642.33 2.4174 30.000 0.033333 593.39 642.33 2.4174 1.7188 2.2244 217.98 0.20897 9.1758 0.023172 30.000 0.033333 593.39 642.33 2.4174 1.7188 2.2244 217.98 0.20897 9.1758 0.023172
55.375 213.98 undefined 595.11 644.29 2.4227 30.000 0.033333 595.11 644.29 2.4227 1.7220 2.2233 218.59 0.20647 9.2057 0.023297 30.000 0.033333 595.11 644.29 2.4227 1.7220 2.2233 218.59 0.20647 9.2057 0.023297
56.375 215.01 undefined 596.83 646.25 2.4279 30.000 0.033333 596.83 646.25 2.4279 1.7252 2.2224 219.19 0.20402 9.2356 0.023423 30.000 0.033333 596.83 646.25 2.4279 1.7252 2.2224 219.19 0.20402 9.2356 0.023423
57.375 216.04 undefined 598.56 648.21 2.4332 30.000 0.033333 598.56 648.21 2.4332 1.7284 2.2216 219.80 0.20161 9.2655 0.023548 30.000 0.033333 598.56 648.21 2.4332 1.7284 2.2216 219.80 0.20161 9.2655 0.023548
58.375 217.07 undefined 600.29 650.18 2.4384 30.000 0.033333 600.29 650.18 2.4384 1.7316 2.2209 220.40 0.19925 9.2954 0.023675 30.000 0.033333 600.29 650.18 2.4384 1.7316 2.2209 220.40 0.19925 9.2954 0.023675
59.375 218.10 undefined 602.02 652.15 2.4436 30.000 0.033333 602.02 652.15 2.4436 1.7348 2.2204 221.00 0.19693 9.3252 0.023801 30.000 0.033333 602.02 652.15 2.4436 1.7348 2.2204 221.00 0.19693 9.3252 0.023801
60.375 219.13 undefined 603.76 654.12 2.4488 30.000 0.033333 603.76 654.12 2.4488 1.7381 2.2200 221.60 0.19466 9.3549 0.023928 30.000 0.033333 603.76 654.12 2.4488 1.7381 2.2200 221.60 0.19466 9.3549 0.023928
61.375 220.15 undefined 605.50 656.09 2.4540 30.000 0.033333 605.50 656.09 2.4540 1.7414 2.2197 222.19 0.19242 9.3847 0.024056 30.000 0.033333 605.50 656.09 2.4540 1.7414 2.2197 222.19 0.19242 9.3847 0.024056
62.375 221.18 undefined 607.24 658.07 2.4592 30.000 0.033333 607.24 658.07 2.4592 1.7447 2.2195 222.78 0.19023 9.4144 0.024183 30.000 0.033333 607.24 658.07 2.4592 1.7447 2.2195 222.78 0.19023 9.4144 0.024183
63.375 222.20 undefined 608.99 660.05 2.4644 30.000 0.033333 608.99 660.05 2.4644 1.7481 2.2194 223.37 0.18807 9.4441 0.024312 30.000 0.033333 608.99 660.05 2.4644 1.7481 2.2194 223.37 0.18807 9.4441 0.024312
64.375 223.22 undefined 610.74 662.04 2.4696 30.000 0.033333 610.74 662.04 2.4696 1.7515 2.2194 223.96 0.18595 9.4738 0.024440 30.000 0.033333 610.74 662.04 2.4696 1.7515 2.2194 223.96 0.18595 9.4738 0.024440
65.375 224.24 undefined 612.49 664.02 2.4748 30.000 0.033333 612.49 664.02 2.4748 1.7549 2.2196 224.54 0.18387 9.5035 0.024569 30.000 0.033333 612.49 664.02 2.4748 1.7549 2.2196 224.54 0.18387 9.5035 0.024569
66.375 225.25 undefined 614.25 666.01 2.4800 30.000 0.033333 614.25 666.01 2.4800 1.7583 2.2198 225.12 0.18182 9.5331 0.024698 30.000 0.033333 614.25 666.01 2.4800 1.7583 2.2198 225.12 0.18182 9.5331 0.024698
67.375 226.27 undefined 616.01 668.01 2.4852 30.000 0.033333 616.01 668.01 2.4852 1.7617 2.2201 225.70 0.17981 9.5627 0.024828 30.000 0.033333 616.01 668.01 2.4852 1.7617 2.2201 225.70 0.17981 9.5627 0.024828
68.375 227.28 undefined 617.77 670.00 2.4903 30.000 0.033333 617.77 670.00 2.4903 1.7652 2.2205 226.28 0.17783 9.5922 0.024958 30.000 0.033333 617.77 670.00 2.4903 1.7652 2.2205 226.28 0.17783 9.5922 0.024958
69.375 228.30 undefined 619.54 672.00 2.4955 30.000 0.033333 619.54 672.00 2.4955 1.7687 2.2210 226.85 0.17589 9.6218 0.025089 30.000 0.033333 619.54 672.00 2.4955 1.7687 2.2210 226.85 0.17589 9.6218 0.025089
70.375 229.31 undefined 621.31 674.01 2.5007 30.000 0.033333 621.31 674.01 2.5007 1.7722 2.2216 227.42 0.17397 9.6513 0.025219 30.000 0.033333 621.31 674.01 2.5007 1.7722 2.2216 227.42 0.17397 9.6513 0.025219
71.375 230.32 undefined 623.08 676.01 2.5058 30.000 0.033333 623.08 676.01 2.5058 1.7757 2.2222 227.99 0.17209 9.6808 0.025350 30.000 0.033333 623.08 676.01 2.5058 1.7757 2.2222 227.99 0.17209 9.6808 0.025350
72.375 231.33 undefined 624.86 678.02 2.5110 30.000 0.033333 624.86 678.02 2.5110 1.7793 2.2229 228.56 0.17024 9.7102 0.025482 30.000 0.033333 624.86 678.02 2.5110 1.7793 2.2229 228.56 0.17024 9.7102 0.025482
73.375 232.33 undefined 626.64 680.04 2.5161 30.000 0.033333 626.64 680.04 2.5161 1.7828 2.2237 229.12 0.16842 9.7396 0.025614 30.000 0.033333 626.64 680.04 2.5161 1.7828 2.2237 229.12 0.16842 9.7396 0.025614
74.375 233.34 undefined 628.42 682.05 2.5213 30.000 0.033333 628.42 682.05 2.5213 1.7864 2.2246 229.69 0.16663 9.7690 0.025746 30.000 0.033333 628.42 682.05 2.5213 1.7864 2.2246 229.69 0.16663 9.7690 0.025746
75.375 234.35 undefined 630.21 684.07 2.5264 30.000 0.033333 630.21 684.07 2.5264 1.7900 2.2256 230.25 0.16487 9.7984 0.025879 30.000 0.033333 630.21 684.07 2.5264 1.7900 2.2256 230.25 0.16487 9.7984 0.025879
76.375 235.35 undefined 632.00 686.09 2.5315 30.000 0.033333 632.00 686.09 2.5315 1.7936 2.2266 230.81 0.16313 9.8278 0.026011 30.000 0.033333 632.00 686.09 2.5315 1.7936 2.2266 230.81 0.16313 9.8278 0.026011
77.375 236.35 undefined 633.80 688.12 2.5367 30.000 0.033333 633.80 688.12 2.5367 1.7972 2.2276 231.36 0.16142 9.8571 0.026145 30.000 0.033333 633.80 688.12 2.5367 1.7972 2.2276 231.36 0.16142 9.8571 0.026145
78.375 237.35 undefined 635.60 690.15 2.5418 30.000 0.033333 635.60 690.15 2.5418 1.8008 2.2288 231.92 0.15974 9.8864 0.026278 30.000 0.033333 635.60 690.15 2.5418 1.8008 2.2288 231.92 0.15974 9.8864 0.026278
79.375 238.35 undefined 637.40 692.18 2.5469 30.000 0.033333 637.40 692.18 2.5469 1.8044 2.2300 232.47 0.15809 9.9156 0.026412 30.000 0.033333 637.40 692.18 2.5469 1.8044 2.2300 232.47 0.15809 9.9156 0.026412
80.375 239.35 undefined 639.21 694.22 2.5520 30.000 0.033333 639.21 694.22 2.5520 1.8081 2.2312 233.02 0.15646 9.9449 0.026546 30.000 0.033333 639.21 694.22 2.5520 1.8081 2.2312 233.02 0.15646 9.9449 0.026546
81.375 240.35 undefined 641.02 696.26 2.5571 30.000 0.033333 641.02 696.26 2.5571 1.8117 2.2325 233.57 0.15486 9.9741 0.026681 30.000 0.033333 641.02 696.26 2.5571 1.8117 2.2325 233.57 0.15486 9.9741 0.026681
82.375 241.35 undefined 642.83 698.30 2.5622 30.000 0.033333 642.83 698.30 2.5622 1.8154 2.2339 234.11 0.15328 10.003 0.026816 30.000 0.033333 642.83 698.30 2.5622 1.8154 2.2339 234.11 0.15328 10.003 0.026816
83.375 242.34 undefined 644.65 700.34 2.5673 30.000 0.033333 644.65 700.34 2.5673 1.8191 2.2353 234.66 0.15173 10.032 0.026951 30.000 0.033333 644.65 700.34 2.5673 1.8191 2.2353 234.66 0.15173 10.032 0.026951
84.375 243.34 undefined 646.47 702.39 2.5724 30.000 0.033333 646.47 702.39 2.5724 1.8228 2.2368 235.20 0.15020 10.062 0.027087 30.000 0.033333 646.47 702.39 2.5724 1.8228 2.2368 235.20 0.15020 10.062 0.027087
85.375 244.33 undefined 648.29 704.45 2.5775 30.000 0.033333 648.29 704.45 2.5775 1.8265 2.2383 235.74 0.14869 10.091 0.027223 30.000 0.033333 648.29 704.45 2.5775 1.8265 2.2383 235.74 0.14869 10.091 0.027223
86.375 245.32 undefined 650.12 706.50 2.5826 30.000 0.033333 650.12 706.50 2.5826 1.8302 2.2399 236.28 0.14721 10.120 0.027359 30.000 0.033333 650.12 706.50 2.5826 1.8302 2.2399 236.28 0.14721 10.120 0.027359
87.375 246.32 undefined 651.95 708.56 2.5877 30.000 0.033333 651.95 708.56 2.5877 1.8339 2.2415 236.82 0.14575 10.149 0.027496 30.000 0.033333 651.95 708.56 2.5877 1.8339 2.2415 236.82 0.14575 10.149 0.027496
88.375 247.31 undefined 653.79 710.63 2.5928 30.000 0.033333 653.79 710.63 2.5928 1.8376 2.2432 237.35 0.14431 10.178 0.027633 30.000 0.033333 653.79 710.63 2.5928 1.8376 2.2432 237.35 0.14431 10.178 0.027633
89.375 248.30 undefined 655.63 712.69 2.5979 30.000 0.033333 655.63 712.69 2.5979 1.8413 2.2449 237.89 0.14289 10.207 0.027770 30.000 0.033333 655.63 712.69 2.5979 1.8413 2.2449 237.89 0.14289 10.207 0.027770
90.375 249.29 undefined 657.47 714.76 2.6030 30.000 0.033333 657.47 714.76 2.6030 1.8451 2.2467 238.42 0.14149 10.236 0.027908 30.000 0.033333 657.47 714.76 2.6030 1.8451 2.2467 238.42 0.14149 10.236 0.027908
91.375 250.27 undefined 659.32 716.84 2.6080 30.000 0.033333 659.32 716.84 2.6080 1.8489 2.2485 238.95 0.14011 10.265 0.028046 30.000 0.033333 659.32 716.84 2.6080 1.8489 2.2485 238.95 0.14011 10.265 0.028046
92.375 251.26 undefined 661.17 718.92 2.6131 30.000 0.033333 661.17 718.92 2.6131 1.8526 2.2504 239.48 0.13875 10.294 0.028184 30.000 0.033333 661.17 718.92 2.6131 1.8526 2.2504 239.48 0.13875 10.294 0.028184
93.375 252.25 undefined 663.02 721.00 2.6182 30.000 0.033333 663.02 721.00 2.6182 1.8564 2.2523 240.00 0.13742 10.323 0.028323 30.000 0.033333 663.02 721.00 2.6182 1.8564 2.2523 240.00 0.13742 10.323 0.028323
94.375 253.23 undefined 664.88 723.08 2.6232 30.000 0.033333 664.88 723.08 2.6232 1.8602 2.2542 240.53 0.13610 10.351 0.028462 30.000 0.033333 664.88 723.08 2.6232 1.8602 2.2542 240.53 0.13610 10.351 0.028462
95.375 254.21 undefined 666.74 725.17 2.6283 30.000 0.033333 666.74 725.17 2.6283 1.8640 2.2562 241.05 0.13480 10.380 0.028601 30.000 0.033333 666.74 725.17 2.6283 1.8640 2.2562 241.05 0.13480 10.380 0.028601
96.375 255.20 undefined 668.61 727.26 2.6334 30.000 0.033333 668.61 727.26 2.6334 1.8678 2.2582 241.57 0.13352 10.409 0.028740 30.000 0.033333 668.61 727.26 2.6334 1.8678 2.2582 241.57 0.13352 10.409 0.028740
97.375 256.18 undefined 670.48 729.36 2.6384 30.000 0.033333 670.48 729.36 2.6384 1.8716 2.2602 242.09 0.13225 10.438 0.028880 30.000 0.033333 670.48 729.36 2.6384 1.8716 2.2602 242.09 0.13225 10.438 0.028880
98.375 257.16 undefined 672.35 731.46 2.6435 30.000 0.033333 672.35 731.46 2.6435 1.8754 2.2623 242.61 0.13101 10.467 0.029021 30.000 0.033333 672.35 731.46 2.6435 1.8754 2.2623 242.61 0.13101 10.467 0.029021
99.375 258.14 undefined 674.23 733.56 2.6485 30.000 0.033333 674.23 733.56 2.6485 1.8792 2.2644 243.13 0.12978 10.495 0.029161 30.000 0.033333 674.23 733.56 2.6485 1.8792 2.2644 243.13 0.12978 10.495 0.029161
100.38 259.12 undefined 676.11 735.66 2.6535 30.000 0.033333 676.11 735.66 2.6535 1.8830 2.2666 243.64 0.12857 10.524 0.029302 30.000 0.033333 676.11 735.66 2.6535 1.8830 2.2666 243.64 0.12857 10.524 0.029302
101.38 260.10 undefined 678.00 737.77 2.6586 30.000 0.033333 678.00 737.77 2.6586 1.8869 2.2688 244.16 0.12737 10.553 0.029443 30.000 0.033333 678.00 737.77 2.6586 1.8869 2.2688 244.16 0.12737 10.553 0.029443
102.38 261.08 undefined 679.89 739.89 2.6636 30.000 0.033333 679.89 739.89 2.6636 1.8907 2.2710 244.67 0.12619 10.581 0.029585 30.000 0.033333 679.89 739.89 2.6636 1.8907 2.2710 244.67 0.12619 10.581 0.029585
103.38 262.05 undefined 681.78 742.00 2.6687 30.000 0.033333 681.78 742.00 2.6687 1.8945 2.2732 245.18 0.12503 10.610 0.029727 30.000 0.033333 681.78 742.00 2.6687 1.8945 2.2732 245.18 0.12503 10.610 0.029727
104.38 263.03 undefined 683.67 744.13 2.6737 30.000 0.033333 683.67 744.13 2.6737 1.8984 2.2755 245.69 0.12388 10.639 0.029869 30.000 0.033333 683.67 744.13 2.6737 1.8984 2.2755 245.69 0.12388 10.639 0.029869
105.38 264.01 undefined 685.57 746.25 2.6787 30.000 0.033333 685.57 746.25 2.6787 1.9022 2.2778 246.20 0.12275 10.667 0.030011 30.000 0.033333 685.57 746.25 2.6787 1.9022 2.2778 246.20 0.12275 10.667 0.030011
106.38 264.98 undefined 687.48 748.38 2.6837 30.000 0.033333 687.48 748.38 2.6837 1.9061 2.2802 246.70 0.12164 10.696 0.030154 30.000 0.033333 687.48 748.38 2.6837 1.9061 2.2802 246.70 0.12164 10.696 0.030154
107.38 265.95 undefined 689.39 750.51 2.6888 30.000 0.033333 689.39 750.51 2.6888 1.9100 2.2825 247.21 0.12054 10.724 0.030297 30.000 0.033333 689.39 750.51 2.6888 1.9100 2.2825 247.21 0.12054 10.724 0.030297
108.38 266.93 undefined 691.30 752.65 2.6938 30.000 0.033333 691.30 752.65 2.6938 1.9138 2.2849 247.71 0.11945 10.753 0.030441 30.000 0.033333 691.30 752.65 2.6938 1.9138 2.2849 247.71 0.11945 10.753 0.030441
109.38 267.90 undefined 693.21 754.79 2.6988 30.000 0.033333 693.21 754.79 2.6988 1.9177 2.2874 248.21 0.11838 10.781 0.030584 30.000 0.033333 693.21 754.79 2.6988 1.9177 2.2874 248.21 0.11838 10.781 0.030584
110.38 268.87 undefined 695.13 756.93 2.7038 30.000 0.033333 695.13 756.93 2.7038 1.9216 2.2898 248.71 0.11732 10.810 0.030728 30.000 0.033333 695.13 756.93 2.7038 1.9216 2.2898 248.71 0.11732 10.810 0.030728
111.38 269.84 undefined 697.06 759.07 2.7088 30.000 0.033333 697.06 759.07 2.7088 1.9255 2.2923 249.21 0.11628 10.838 0.030873 30.000 0.033333 697.06 759.07 2.7088 1.9255 2.2923 249.21 0.11628 10.838 0.030873
112.38 270.81 undefined 698.99 761.23 2.7138 30.000 0.033333 698.99 761.23 2.7138 1.9294 2.2948 249.71 0.11525 10.867 0.031017 30.000 0.033333 698.99 761.23 2.7138 1.9294 2.2948 249.71 0.11525 10.867 0.031017
113.38 271.78 undefined 700.92 763.38 2.7188 30.000 0.033333 700.92 763.38 2.7188 1.9332 2.2973 250.21 0.11424 10.895 0.031162 30.000 0.033333 700.92 763.38 2.7188 1.9332 2.2973 250.21 0.11424 10.895 0.031162
114.38 272.75 undefined 702.85 765.54 2.7238 30.000 0.033333 702.85 765.54 2.7238 1.9371 2.2999 250.70 0.11323 10.923 0.031308 30.000 0.033333 702.85 765.54 2.7238 1.9371 2.2999 250.70 0.11323 10.923 0.031308
115.38 273.72 undefined 704.79 767.70 2.7288 30.000 0.033333 704.79 767.70 2.7288 1.9410 2.3024 251.20 0.11224 10.952 0.031453 30.000 0.033333 704.79 767.70 2.7288 1.9410 2.3024 251.20 0.11224 10.952 0.031453
116.38 274.69 undefined 706.73 769.86 2.7338 30.000 0.033333 706.73 769.86 2.7338 1.9449 2.3050 251.69 0.11127 10.980 0.031599 30.000 0.033333 706.73 769.86 2.7338 1.9449 2.3050 251.69 0.11127 10.980 0.031599
117.38 275.66 undefined 708.68 772.03 2.7388 30.000 0.033333 708.68 772.03 2.7388 1.9488 2.3077 252.18 0.11030 11.008 0.031745 30.000 0.033333 708.68 772.03 2.7388 1.9488 2.3077 252.18 0.11030 11.008 0.031745
118.38 276.62 undefined 710.63 774.21 2.7438 30.000 0.033333 710.63 774.21 2.7438 1.9528 2.3103 252.67 0.10935 11.037 0.031892 30.000 0.033333 710.63 774.21 2.7438 1.9528 2.3103 252.67 0.10935 11.037 0.031892
119.38 277.59 undefined 712.59 776.38 2.7488 30.000 0.033333 712.59 776.38 2.7488 1.9567 2.3130 253.16 0.10841 11.065 0.032039 30.000 0.033333 712.59 776.38 2.7488 1.9567 2.3130 253.16 0.10841 11.065 0.032039
120.38 278.55 undefined 714.54 778.56 2.7538 30.000 0.033333 714.54 778.56 2.7538 1.9606 2.3157 253.64 0.10748 11.093 0.032186 30.000 0.033333 714.54 778.56 2.7538 1.9606 2.3157 253.64 0.10748 11.093 0.032186
121.38 279.52 undefined 716.51 780.75 2.7587 30.000 0.033333 716.51 780.75 2.7587 1.9645 2.3184 254.13 0.10657 11.121 0.032334 30.000 0.033333 716.51 780.75 2.7587 1.9645 2.3184 254.13 0.10657 11.121 0.032334
122.38 280.48 undefined 718.47 782.94 2.7637 30.000 0.033333 718.47 782.94 2.7637 1.9684 2.3211 254.61 0.10566 11.149 0.032481 30.000 0.033333 718.47 782.94 2.7637 1.9684 2.3211 254.61 0.10566 11.149 0.032481
123.38 281.44 undefined 720.44 785.13 2.7687 30.000 0.033333 720.44 785.13 2.7687 1.9723 2.3238 255.10 0.10477 11.177 0.032629 30.000 0.033333 720.44 785.13 2.7687 1.9723 2.3238 255.10 0.10477 11.177 0.032629
124.38 282.41 undefined 722.42 787.32 2.7737 30.000 0.033333 722.42 787.32 2.7737 1.9763 2.3266 255.58 0.10389 11.205 0.032778 30.000 0.033333 722.42 787.32 2.7737 1.9763 2.3266 255.58 0.10389 11.205 0.032778
125.38 283.37 undefined 724.40 789.52 2.7786 30.000 0.033333 724.40 789.52 2.7786 1.9802 2.3294 256.06 0.10302 11.234 0.032927 30.000 0.033333 724.40 789.52 2.7786 1.9802 2.3294 256.06 0.10302 11.234 0.032927
126.38 284.33 undefined 726.38 791.72 2.7836 30.000 0.033333 726.38 791.72 2.7836 1.9841 2.3322 256.54 0.10216 11.262 0.033076 30.000 0.033333 726.38 791.72 2.7836 1.9841 2.3322 256.54 0.10216 11.262 0.033076
127.38 285.29 undefined 728.37 793.93 2.7886 30.000 0.033333 728.37 793.93 2.7886 1.9881 2.3350 257.02 0.10131 11.290 0.033225 30.000 0.033333 728.37 793.93 2.7886 1.9881 2.3350 257.02 0.10131 11.290 0.033225
128.38 286.25 undefined 730.36 796.14 2.7935 30.000 0.033333 730.36 796.14 2.7935 1.9920 2.3378 257.50 0.10047 11.318 0.033374 30.000 0.033333 730.36 796.14 2.7935 1.9920 2.3378 257.50 0.10047 11.318 0.033374
129.38 287.21 undefined 732.35 798.36 2.7985 30.000 0.033333 732.35 798.36 2.7985 1.9959 2.3407 257.97 0.099638 11.346 0.033524 30.000 0.033333 732.35 798.36 2.7985 1.9959 2.3407 257.97 0.099638 11.346 0.033524
130.38 288.17 undefined 734.35 800.58 2.8035 30.000 0.033333 734.35 800.58 2.8035 1.9999 2.3435 258.45 0.098820 11.374 0.033675 30.000 0.033333 734.35 800.58 2.8035 1.9999 2.3435 258.45 0.098820 11.374 0.033675
131.38 289.13 undefined 736.35 802.80 2.8084 30.000 0.033333 736.35 802.80 2.8084 2.0038 2.3464 258.92 0.098011 11.401 0.033825 30.000 0.033333 736.35 802.80 2.8084 2.0038 2.3464 258.92 0.098011 11.401 0.033825
132.38 290.08 undefined 738.35 805.02 2.8134 30.000 0.033333 738.35 805.02 2.8134 2.0078 2.3493 259.39 0.097212 11.429 0.033976 30.000 0.033333 738.35 805.02 2.8134 2.0078 2.3493 259.39 0.097212 11.429 0.033976
133.38 291.04 undefined 740.36 807.25 2.8183 30.000 0.033333 740.36 807.25 2.8183 2.0117 2.3522 259.86 0.096423 11.457 0.034127 30.000 0.033333 740.36 807.25 2.8183 2.0117 2.3522 259.86 0.096423 11.457 0.034127
134.38 292.00 undefined 742.38 809.49 2.8233 30.000 0.033333 742.38 809.49 2.8233 2.0156 2.3552 260.34 0.095643 11.485 0.034279 30.000 0.033333 742.38 809.49 2.8233 2.0156 2.3552 260.34 0.095643 11.485 0.034279
135.38 292.95 undefined 744.40 811.72 2.8282 30.000 0.033333 744.40 811.72 2.8282 2.0196 2.3581 260.80 0.094873 11.513 0.034430 30.000 0.033333 744.40 811.72 2.8282 2.0196 2.3581 260.80 0.094873 11.513 0.034430
136.38 293.91 undefined 746.42 813.97 2.8331 30.000 0.033333 746.42 813.97 2.8331 2.0235 2.3611 261.27 0.094112 11.541 0.034582 30.000 0.033333 746.42 813.97 2.8331 2.0235 2.3611 261.27 0.094112 11.541 0.034582
137.38 294.87 undefined 748.44 816.21 2.8381 30.000 0.033333 748.44 816.21 2.8381 2.0275 2.3641 261.74 0.093360 11.568 0.034735 30.000 0.033333 748.44 816.21 2.8381 2.0275 2.3641 261.74 0.093360 11.568 0.034735
138.38 295.82 undefined 750.47 818.46 2.8430 30.000 0.033333 750.47 818.46 2.8430 2.0314 2.3670 262.21 0.092616 11.596 0.034887 30.000 0.033333 750.47 818.46 2.8430 2.0314 2.3670 262.21 0.092616 11.596 0.034887
139.38 296.77 undefined 752.51 820.71 2.8480 30.000 0.033333 752.51 820.71 2.8480 2.0354 2.3700 262.67 0.091882 11.624 0.035040 30.000 0.033333 752.51 820.71 2.8480 2.0354 2.3700 262.67 0.091882 11.624 0.035040
140.38 297.73 undefined 754.54 822.97 2.8529 30.000 0.033333 754.54 822.97 2.8529 2.0393 2.3731 263.13 0.091156 11.652 0.035194 30.000 0.033333 754.54 822.97 2.8529 2.0393 2.3731 263.13 0.091156 11.652 0.035194
141.38 298.68 undefined 756.58 825.23 2.8578 30.000 0.033333 756.58 825.23 2.8578 2.0433 2.3761 263.60 0.090439 11.679 0.035347 30.000 0.033333 756.58 825.23 2.8578 2.0433 2.3761 263.60 0.090439 11.679 0.035347
142.38 299.63 undefined 758.63 827.49 2.8627 30.000 0.033333 758.63 827.49 2.8627 2.0472 2.3791 264.06 0.089730 11.707 0.035501 30.000 0.033333 758.63 827.49 2.8627 2.0472 2.3791 264.06 0.089730 11.707 0.035501
143.38 300.59 undefined 760.68 829.76 2.8677 30.000 0.033333 760.68 829.76 2.8677 2.0512 2.3822 264.52 0.089029 11.735 0.035655 30.000 0.033333 760.68 829.76 2.8677 2.0512 2.3822 264.52 0.089029 11.735 0.035655
144.38 301.54 undefined 762.73 832.03 2.8726 30.000 0.033333 762.73 832.03 2.8726 2.0551 2.3852 264.98 0.088337 11.762 0.035810 30.000 0.033333 762.73 832.03 2.8726 2.0551 2.3852 264.98 0.088337 11.762 0.035810
145.38 302.49 undefined 764.79 834.31 2.8775 30.000 0.033333 764.79 834.31 2.8775 2.0591 2.3883 265.44 0.087652 11.790 0.035965 30.000 0.033333 764.79 834.31 2.8775 2.0591 2.3883 265.44 0.087652 11.790 0.035965
146.38 303.44 undefined 766.85 836.59 2.8824 30.000 0.033333 766.85 836.59 2.8824 2.0631 2.3914 265.90 0.086976 11.817 0.036120 30.000 0.033333 766.85 836.59 2.8824 2.0631 2.3914 265.90 0.086976 11.817 0.036120
147.38 304.39 undefined 768.92 838.87 2.8874 30.000 0.033333 768.92 838.87 2.8874 2.0670 2.3945 266.35 0.086307 11.845 0.036275 30.000 0.033333 768.92 838.87 2.8874 2.0670 2.3945 266.35 0.086307 11.845 0.036275
148.38 305.34 undefined 770.98 841.16 2.8923 30.000 0.033333 770.98 841.16 2.8923 2.0710 2.3976 266.81 0.085645 11.872 0.036431 30.000 0.033333 770.98 841.16 2.8923 2.0710 2.3976 266.81 0.085645 11.872 0.036431
149.38 306.29 undefined 773.06 843.45 2.8972 30.000 0.033333 773.06 843.45 2.8972 2.0749 2.4007 267.26 0.084992 11.900 0.036587 30.000 0.033333 773.06 843.45 2.8972 2.0749 2.4007 267.26 0.084992 11.900 0.036587
150.38 307.24 undefined 775.13 845.75 2.9021 30.000 0.033333 775.13 845.75 2.9021 2.0789 2.4038 267.72 0.084345 11.927 0.036743 30.000 0.033333 775.13 845.75 2.9021 2.0789 2.4038 267.72 0.084345 11.927 0.036743
151.38 308.19 undefined 777.21 848.04 2.9070 30.000 0.033333 777.21 848.04 2.9070 2.0828 2.4070 268.17 0.083706 11.955 0.036900 30.000 0.033333 777.21 848.04 2.9070 2.0828 2.4070 268.17 0.083706 11.955 0.036900
152.38 309.14 undefined 779.30 850.35 2.9119 30.000 0.033333 779.30 850.35 2.9119 2.0868 2.4101 268.62 0.083074 11.982 0.037057 30.000 0.033333 779.30 850.35 2.9119 2.0868 2.4101 268.62 0.083074 11.982 0.037057
153.38 310.08 undefined 781.39 852.65 2.9168 30.000 0.033333 781.39 852.65 2.9168 2.0907 2.4133 269.07 0.082449 12.009 0.037214 30.000 0.033333 781.39 852.65 2.9168 2.0907 2.4133 269.07 0.082449 12.009 0.037214
154.38 311.03 undefined 783.48 854.96 2.9217 30.000 0.033333 783.48 854.96 2.9217 2.0947 2.4164 269.52 0.081832 12.037 0.037371 30.000 0.033333 783.48 854.96 2.9217 2.0947 2.4164 269.52 0.081832 12.037 0.037371
155.38 311.98 undefined 785.58 857.28 2.9266 30.000 0.033333 785.58 857.28 2.9266 2.0987 2.4196 269.97 0.081221 12.064 0.037529 30.000 0.033333 785.58 857.28 2.9266 2.0987 2.4196 269.97 0.081221 12.064 0.037529
156.38 312.93 undefined 787.68 859.60 2.9315 30.000 0.033333 787.68 859.60 2.9315 2.1026 2.4228 270.42 0.080617 12.091 0.037687 30.000 0.033333 787.68 859.60 2.9315 2.1026 2.4228 270.42 0.080617 12.091 0.037687
157.38 313.87 undefined 789.78 861.92 2.9364 30.000 0.033333 789.78 861.92 2.9364 2.1066 2.4260 270.87 0.080019 12.119 0.037846 30.000 0.033333 789.78 861.92 2.9364 2.1066 2.4260 270.87 0.080019 12.119 0.037846
158.38 314.82 undefined 791.89 864.24 2.9413 30.000 0.033333 791.89 864.24 2.9413 2.1105 2.4292 271.31 0.079428 12.146 0.038004 30.000 0.033333 791.89 864.24 2.9413 2.1105 2.4292 271.31 0.079428 12.146 0.038004
159.38 315.76 undefined 794.00 866.57 2.9462 30.000 0.033333 794.00 866.57 2.9462 2.1145 2.4324 271.76 0.078844 12.173 0.038163 30.000 0.033333 794.00 866.57 2.9462 2.1145 2.4324 271.76 0.078844 12.173 0.038163
160.38 316.71 undefined 796.12 868.91 2.9511 30.000 0.033333 796.12 868.91 2.9511 2.1184 2.4356 272.20 0.078266 12.200 0.038323 30.000 0.033333 796.12 868.91 2.9511 2.1184 2.4356 272.20 0.078266 12.200 0.038323
161.38 317.65 undefined 798.24 871.25 2.9559 30.000 0.033333 798.24 871.25 2.9559 2.1224 2.4388 272.64 0.077694 12.228 0.038482 30.000 0.033333 798.24 871.25 2.9559 2.1224 2.4388 272.64 0.077694 12.228 0.038482
162.38 318.60 undefined 800.37 873.59 2.9608 30.000 0.033333 800.37 873.59 2.9608 2.1263 2.4421 273.09 0.077128 12.255 0.038642 30.000 0.033333 800.37 873.59 2.9608 2.1263 2.4421 273.09 0.077128 12.255 0.038642
163.38 319.54 undefined 802.49 875.93 2.9657 30.000 0.033333 802.49 875.93 2.9657 2.1303 2.4453 273.53 0.076569 12.282 0.038802 30.000 0.033333 802.49 875.93 2.9657 2.1303 2.4453 273.53 0.076569 12.282 0.038802
164.38 320.48 undefined 804.63 878.28 2.9706 30.000 0.033333 804.63 878.28 2.9706 2.1342 2.4486 273.97 0.076016 12.309 0.038963 30.000 0.033333 804.63 878.28 2.9706 2.1342 2.4486 273.97 0.076016 12.309 0.038963
165.38 321.43 undefined 806.76 880.63 2.9755 30.000 0.033333 806.76 880.63 2.9755 2.1382 2.4518 274.41 0.075468 12.336 0.039123 30.000 0.033333 806.76 880.63 2.9755 2.1382 2.4518 274.41 0.075468 12.336 0.039123
166.38 322.37 undefined 808.90 882.99 2.9803 30.000 0.033333 808.90 882.99 2.9803 2.1421 2.4551 274.85 0.074927 12.363 0.039285 30.000 0.033333 808.90 882.99 2.9803 2.1421 2.4551 274.85 0.074927 12.363 0.039285
167.38 323.31 undefined 811.05 885.35 2.9852 30.000 0.033333 811.05 885.35 2.9852 2.1460 2.4583 275.29 0.074391 12.390 0.039446 30.000 0.033333 811.05 885.35 2.9852 2.1460 2.4583 275.29 0.074391 12.390 0.039446
168.38 324.25 undefined 813.19 887.72 2.9901 30.000 0.033333 813.19 887.72 2.9901 2.1500 2.4616 275.72 0.073861 12.417 0.039608 30.000 0.033333 813.19 887.72 2.9901 2.1500 2.4616 275.72 0.073861 12.417 0.039608
169.38 325.20 undefined 815.35 890.08 2.9950 30.000 0.033333 815.35 890.08 2.9950 2.1539 2.4649 276.16 0.073336 12.444 0.039770 30.000 0.033333 815.35 890.08 2.9950 2.1539 2.4649 276.16 0.073336 12.444 0.039770
170.38 326.14 undefined 817.50 892.46 2.9998 30.000 0.033333 817.50 892.46 2.9998 2.1579 2.4682 276.60 0.072817 12.471 0.039932 30.000 0.033333 817.50 892.46 2.9998 2.1579 2.4682 276.60 0.072817 12.471 0.039932
171.38 327.08 undefined 819.66 894.83 3.0047 30.000 0.033333 819.66 894.83 3.0047 2.1618 2.4715 277.03 0.072304 12.498 0.040094 30.000 0.033333 819.66 894.83 3.0047 2.1618 2.4715 277.03 0.072304 12.498 0.040094
172.38 328.02 undefined 821.83 897.21 3.0095 30.000 0.033333 821.83 897.21 3.0095 2.1657 2.4748 277.46 0.071796 12.525 0.040257 30.000 0.033333 821.83 897.21 3.0095 2.1657 2.4748 277.46 0.071796 12.525 0.040257
173.38 328.96 undefined 823.99 899.60 3.0144 30.000 0.033333 823.99 899.60 3.0144 2.1697 2.4781 277.90 0.071293 12.552 0.040420 30.000 0.033333 823.99 899.60 3.0144 2.1697 2.4781 277.90 0.071293 12.552 0.040420
174.38 329.90 undefined 826.16 901.98 3.0193 30.000 0.033333 826.16 901.98 3.0193 2.1736 2.4814 278.33 0.070795 12.579 0.040584 30.000 0.033333 826.16 901.98 3.0193 2.1736 2.4814 278.33 0.070795 12.579 0.040584
175.38 330.84 undefined 828.34 904.38 3.0241 30.000 0.033333 828.34 904.38 3.0241 2.1775 2.4847 278.76 0.070303 12.606 0.040748 30.000 0.033333 828.34 904.38 3.0241 2.1775 2.4847 278.76 0.070303 12.606 0.040748
176.38 331.78 undefined 830.52 906.77 3.0290 30.000 0.033333 830.52 906.77 3.0290 2.1815 2.4880 279.19 0.069815 12.632 0.040912 30.000 0.033333 830.52 906.77 3.0290 2.1815 2.4880 279.19 0.069815 12.632 0.040912
177.38 332.72 undefined 832.70 909.17 3.0338 30.000 0.033333 832.70 909.17 3.0338 2.1854 2.4913 279.62 0.069333 12.659 0.041076 30.000 0.033333 832.70 909.17 3.0338 2.1854 2.4913 279.62 0.069333 12.659 0.041076
178.38 333.66 undefined 834.89 911.57 3.0387 30.000 0.033333 834.89 911.57 3.0387 2.1893 2.4946 280.05 0.068856 12.686 0.041241 30.000 0.033333 834.89 911.57 3.0387 2.1893 2.4946 280.05 0.068856 12.686 0.041241
179.38 334.60 undefined 837.08 913.98 3.0435 30.000 0.033333 837.08 913.98 3.0435 2.1933 2.4980 280.48 0.068383 12.713 0.041406 30.000 0.033333 837.08 913.98 3.0435 2.1933 2.4980 280.48 0.068383 12.713 0.041406
180.38 335.53 undefined 839.28 916.39 3.0484 30.000 0.033333 839.28 916.39 3.0484 2.1972 2.5013 280.91 0.067915 12.739 0.041571 30.000 0.033333 839.28 916.39 3.0484 2.1972 2.5013 280.91 0.067915 12.739 0.041571
181.38 336.47 undefined 841.48 918.81 3.0532 30.000 0.033333 841.48 918.81 3.0532 2.2011 2.5046 281.33 0.067453 12.766 0.041736 30.000 0.033333 841.48 918.81 3.0532 2.2011 2.5046 281.33 0.067453 12.766 0.041736
182.38 337.41 undefined 843.68 921.22 3.0581 30.000 0.033333 843.68 921.22 3.0581 2.2050 2.5080 281.76 0.066994 12.793 0.041902 30.000 0.033333 843.68 921.22 3.0581 2.2050 2.5080 281.76 0.066994 12.793 0.041902
183.38 338.35 undefined 845.89 923.65 3.0629 30.000 0.033333 845.89 923.65 3.0629 2.2089 2.5113 282.18 0.066541 12.819 0.042068 30.000 0.033333 845.89 923.65 3.0629 2.2089 2.5113 282.18 0.066541 12.819 0.042068
184.38 339.28 undefined 848.10 926.07 3.0677 30.000 0.033333 848.10 926.07 3.0677 2.2128 2.5147 282.61 0.066092 12.846 0.042235 30.000 0.033333 848.10 926.07 3.0677 2.2128 2.5147 282.61 0.066092 12.846 0.042235
185.38 340.22 undefined 850.31 928.50 3.0726 30.000 0.033333 850.31 928.50 3.0726 2.2168 2.5180 283.03 0.065647 12.873 0.042401 30.000 0.033333 850.31 928.50 3.0726 2.2168 2.5180 283.03 0.065647 12.873 0.042401
186.38 341.16 undefined 852.53 930.94 3.0774 30.000 0.033333 852.53 930.94 3.0774 2.2207 2.5214 283.45 0.065207 12.899 0.042568 30.000 0.033333 852.53 930.94 3.0774 2.2207 2.5214 283.45 0.065207 12.899 0.042568
187.38 342.09 undefined 854.75 933.38 3.0822 30.000 0.033333 854.75 933.38 3.0822 2.2246 2.5247 283.88 0.064771 12.926 0.042736 30.000 0.033333 854.75 933.38 3.0822 2.2246 2.5247 283.88 0.064771 12.926 0.042736
188.38 343.03 undefined 856.98 935.82 3.0871 30.000 0.033333 856.98 935.82 3.0871 2.2285 2.5281 284.30 0.064339 12.952 0.042903 30.000 0.033333 856.98 935.82 3.0871 2.2285 2.5281 284.30 0.064339 12.952 0.042903
189.38 343.96 undefined 859.21 938.26 3.0919 30.000 0.033333 859.21 938.26 3.0919 2.2324 2.5315 284.72 0.063912 12.979 0.043071 30.000 0.033333 859.21 938.26 3.0919 2.2324 2.5315 284.72 0.063912 12.979 0.043071
190.38 344.90 undefined 861.44 940.71 3.0967 30.000 0.033333 861.44 940.71 3.0967 2.2363 2.5348 285.14 0.063489 13.005 0.043239 30.000 0.033333 861.44 940.71 3.0967 2.2363 2.5348 285.14 0.063489 13.005 0.043239
191.38 345.84 undefined 863.68 943.16 3.1015 30.000 0.033333 863.68 943.16 3.1015 2.2402 2.5382 285.56 0.063070 13.032 0.043408 30.000 0.033333 863.68 943.16 3.1015 2.2402 2.5382 285.56 0.063070 13.032 0.043408
192.38 346.77 undefined 865.93 945.62 3.1064 30.000 0.033333 865.93 945.62 3.1064 2.2441 2.5416 285.98 0.062656 13.058 0.043577 30.000 0.033333 865.93 945.62 3.1064 2.2441 2.5416 285.98 0.062656 13.058 0.043577
193.38 347.70 undefined 868.17 948.08 3.1112 30.000 0.033333 868.17 948.08 3.1112 2.2480 2.5450 286.39 0.062245 13.085 0.043746 30.000 0.033333 868.17 948.08 3.1112 2.2480 2.5450 286.39 0.062245 13.085 0.043746
194.38 348.64 undefined 870.42 950.55 3.1160 30.000 0.033333 870.42 950.55 3.1160 2.2519 2.5484 286.81 0.061838 13.111 0.043915 30.000 0.033333 870.42 950.55 3.1160 2.2519 2.5484 286.81 0.061838 13.111 0.043915
195.38 349.57 undefined 872.67 953.02 3.1208 30.000 0.033333 872.67 953.02 3.1208 2.2557 2.5517 287.23 0.061435 13.137 0.044085 30.000 0.033333 872.67 953.02 3.1208 2.2557 2.5517 287.23 0.061435 13.137 0.044085
196.38 350.51 undefined 874.93 955.49 3.1256 30.000 0.033333 874.93 955.49 3.1256 2.2596 2.5551 287.64 0.061036 13.164 0.044255 30.000 0.033333 874.93 955.49 3.1256 2.2596 2.5551 287.64 0.061036 13.164 0.044255
197.38 351.44 undefined 877.19 957.96 3.1304 30.000 0.033333 877.19 957.96 3.1304 2.2635 2.5585 288.06 0.060641 13.190 0.044425 30.000 0.033333 877.19 957.96 3.1304 2.2635 2.5585 288.06 0.060641 13.190 0.044425
198.38 352.37 undefined 879.46 960.44 3.1352 30.000 0.033333 879.46 960.44 3.1352 2.2674 2.5619 288.47 0.060250 13.216 0.044595 30.000 0.033333 879.46 960.44 3.1352 2.2674 2.5619 288.47 0.060250 13.216 0.044595
199.38 353.31 undefined 881.73 962.93 3.1401 30.000 0.033333 881.73 962.93 3.1401 2.2713 2.5653 288.89 0.059862 13.243 0.044766 30.000 0.033333 881.73 962.93 3.1401 2.2713 2.5653 288.89 0.059862 13.243 0.044766
200.38 354.24 undefined 884.00 965.42 3.1449 30.000 0.033333 884.00 965.42 3.1449 2.2751 2.5687 289.30 0.059479 13.269 0.044937 30.000 0.033333 884.00 965.42 3.1449 2.2751 2.5687 289.30 0.059479 13.269 0.044937
201.38 355.17 undefined 886.28 967.91 3.1497 30.000 0.033333 886.28 967.91 3.1497 2.2790 2.5721 289.71 0.059098 13.295 0.045109 30.000 0.033333 886.28 967.91 3.1497 2.2790 2.5721 289.71 0.059098 13.295 0.045109
202.38 356.10 undefined 888.56 970.40 3.1545 30.000 0.033333 888.56 970.40 3.1545 2.2829 2.5755 290.12 0.058722 13.321 0.045281 30.000 0.033333 888.56 970.40 3.1545 2.2829 2.5755 290.12 0.058722 13.321 0.045281
203.38 357.04 undefined 890.85 972.90 3.1593 30.000 0.033333 890.85 972.90 3.1593 2.2867 2.5789 290.53 0.058349 13.347 0.045453 30.000 0.033333 890.85 972.90 3.1593 2.2867 2.5789 290.53 0.058349 13.347 0.045453
204.38 357.97 undefined 893.13 975.40 3.1641 30.000 0.033333 893.13 975.40 3.1641 2.2906 2.5823 290.94 0.057979 13.374 0.045625 30.000 0.033333 893.13 975.40 3.1641 2.2906 2.5823 290.94 0.057979 13.374 0.045625
205.38 358.90 undefined 895.43 977.91 3.1689 30.000 0.033333 895.43 977.91 3.1689 2.2945 2.5857 291.35 0.057613 13.400 0.045797 30.000 0.033333 895.43 977.91 3.1689 2.2945 2.5857 291.35 0.057613 13.400 0.045797
206.38 359.83 undefined 897.72 980.42 3.1737 30.000 0.033333 897.72 980.42 3.1737 2.2983 2.5891 291.76 0.057250 13.426 0.045970 30.000 0.033333 897.72 980.42 3.1737 2.2983 2.5891 291.76 0.057250 13.426 0.045970
207.38 360.76 undefined 900.02 982.94 3.1784 30.000 0.033333 900.02 982.94 3.1784 2.3022 2.5925 292.17 0.056891 13.452 0.046144 30.000 0.033333 900.02 982.94 3.1784 2.3022 2.5925 292.17 0.056891 13.452 0.046144
208.38 361.69 undefined 902.33 985.45 3.1832 30.000 0.033333 902.33 985.45 3.1832 2.3060 2.5959 292.58 0.056535 13.478 0.046317 30.000 0.033333 902.33 985.45 3.1832 2.3060 2.5959 292.58 0.056535 13.478 0.046317
209.38 362.63 undefined 904.63 987.98 3.1880 30.000 0.033333 904.63 987.98 3.1880 2.3099 2.5993 292.98 0.056182 13.504 0.046491 30.000 0.033333 904.63 987.98 3.1880 2.3099 2.5993 292.98 0.056182 13.504 0.046491
210.38 363.56 undefined 906.95 990.50 3.1928 30.000 0.033333 906.95 990.50 3.1928 2.3137 2.6027 293.39 0.055832 13.530 0.046665 30.000 0.033333 906.95 990.50 3.1928 2.3137 2.6027 293.39 0.055832 13.530 0.046665
211.38 364.49 undefined 909.26 993.03 3.1976 30.000 0.033333 909.26 993.03 3.1976 2.3175 2.6061 293.79 0.055486 13.556 0.046839 30.000 0.033333 909.26 993.03 3.1976 2.3175 2.6061 293.79 0.055486 13.556 0.046839
212.38 365.42 undefined 911.58 995.56 3.2024 30.000 0.033333 911.58 995.56 3.2024 2.3214 2.6095 294.20 0.055143 13.582 0.047014 30.000 0.033333 911.58 995.56 3.2024 2.3214 2.6095 294.20 0.055143 13.582 0.047014
213.38 366.35 undefined 913.91 998.10 3.2072 30.000 0.033333 913.91 998.10 3.2072 2.3252 2.6129 294.60 0.054803 13.608 0.047189 30.000 0.033333 913.91 998.10 3.2072 2.3252 2.6129 294.60 0.054803 13.608 0.047189
214.38 367.28 undefined 916.23 1000.6 3.2119 30.000 0.033333 916.23 1000.6 3.2119 2.3290 2.6163 295.01 0.054466 13.634 0.047364 30.000 0.033333 916.23 1000.6 3.2119 2.3290 2.6163 295.01 0.054466 13.634 0.047364
215.38 368.21 undefined 918.56 1003.2 3.2167 30.000 0.033333 918.56 1003.2 3.2167 2.3329 2.6197 295.41 0.054132 13.660 0.047540 30.000 0.033333 918.56 1003.2 3.2167 2.3329 2.6197 295.41 0.054132 13.660 0.047540
216.38 369.13 undefined 920.90 1005.7 3.2215 30.000 0.033333 920.90 1005.7 3.2215 2.3367 2.6231 295.81 0.053801 13.685 0.047715 30.000 0.033333 920.90 1005.7 3.2215 2.3367 2.6231 295.81 0.053801 13.685 0.047715
217.38 370.06 undefined 923.24 1008.3 3.2263 30.000 0.033333 923.24 1008.3 3.2263 2.3405 2.6265 296.21 0.053473 13.711 0.047892 30.000 0.033333 923.24 1008.3 3.2263 2.3405 2.6265 296.21 0.053473 13.711 0.047892
218.38 370.99 undefined 925.58 1010.8 3.2310 30.000 0.033333 925.58 1010.8 3.2310 2.3443 2.6299 296.61 0.053148 13.737 0.048068 30.000 0.033333 925.58 1010.8 3.2310 2.3443 2.6299 296.61 0.053148 13.737 0.048068
219.38 371.92 undefined 927.93 1013.4 3.2358 30.000 0.033333 927.93 1013.4 3.2358 2.3481 2.6333 297.01 0.052826 13.763 0.048245 30.000 0.033333 927.93 1013.4 3.2358 2.3481 2.6333 297.01 0.052826 13.763 0.048245
220.38 372.85 undefined 930.28 1016.0 3.2406 30.000 0.033333 930.28 1016.0 3.2406 2.3519 2.6367 297.41 0.052507 13.789 0.048422 30.000 0.033333 930.28 1016.0 3.2406 2.3519 2.6367 297.41 0.052507 13.789 0.048422
221.38 373.78 undefined 932.63 1018.5 3.2453 30.000 0.033333 932.63 1018.5 3.2453 2.3558 2.6401 297.81 0.052190 13.814 0.048599 30.000 0.033333 932.63 1018.5 3.2453 2.3558 2.6401 297.81 0.052190 13.814 0.048599
222.38 374.71 undefined 934.99 1021.1 3.2501 30.000 0.033333 934.99 1021.1 3.2501 2.3596 2.6435 298.21 0.051877 13.840 0.048777 30.000 0.033333 934.99 1021.1 3.2501 2.3596 2.6435 298.21 0.051877 13.840 0.048777
223.38 375.63 undefined 937.35 1023.7 3.2549 30.000 0.033333 937.35 1023.7 3.2549 2.3633 2.6470 298.61 0.051566 13.866 0.048954 30.000 0.033333 937.35 1023.7 3.2549 2.3633 2.6470 298.61 0.051566 13.866 0.048954
224.38 376.56 undefined 939.71 1026.3 3.2596 30.000 0.033333 939.71 1026.3 3.2596 2.3671 2.6504 299.01 0.051258 13.892 0.049133 30.000 0.033333 939.71 1026.3 3.2596 2.3671 2.6504 299.01 0.051258 13.892 0.049133
225.38 377.49 undefined 942.08 1028.8 3.2644 30.000 0.033333 942.08 1028.8 3.2644 2.3709 2.6538 299.40 0.050952 13.917 0.049311 30.000 0.033333 942.08 1028.8 3.2644 2.3709 2.6538 299.40 0.050952 13.917 0.049311
226.38 378.42 undefined 944.46 1031.4 3.2691 30.000 0.033333 944.46 1031.4 3.2691 2.3747 2.6572 299.80 0.050649 13.943 0.049490 30.000 0.033333 944.46 1031.4 3.2691 2.3747 2.6572 299.80 0.050649 13.943 0.049490
227.38 379.34 undefined 946.83 1034.0 3.2739 30.000 0.033333 946.83 1034.0 3.2739 2.3785 2.6606 300.19 0.050349 13.968 0.049669 30.000 0.033333 946.83 1034.0 3.2739 2.3785 2.6606 300.19 0.050349 13.968 0.049669
228.38 380.27 undefined 949.21 1036.6 3.2786 30.000 0.033333 949.21 1036.6 3.2786 2.3823 2.6640 300.59 0.050052 13.994 0.049848 30.000 0.033333 949.21 1036.6 3.2786 2.3823 2.6640 300.59 0.050052 13.994 0.049848
229.38 381.20 undefined 951.60 1039.2 3.2834 30.000 0.033333 951.60 1039.2 3.2834 2.3861 2.6674 300.98 0.049757 14.020 0.050028 30.000 0.033333 951.60 1039.2 3.2834 2.3861 2.6674 300.98 0.049757 14.020 0.050028
230.38 382.12 undefined 953.98 1041.8 3.2881 30.000 0.033333 953.98 1041.8 3.2881 2.3898 2.6708 301.38 0.049464 14.045 0.050208 30.000 0.033333 953.98 1041.8 3.2881 2.3898 2.6708 301.38 0.049464 14.045 0.050208
231.38 383.05 undefined 956.38 1044.4 3.2929 30.000 0.033333 956.38 1044.4 3.2929 2.3936 2.6742 301.77 0.049175 14.071 0.050388 30.000 0.033333 956.38 1044.4 3.2929 2.3936 2.6742 301.77 0.049175 14.071 0.050388
232.38 383.98 undefined 958.77 1047.0 3.2976 30.000 0.033333 958.77 1047.0 3.2976 2.3974 2.6776 302.16 0.048887 14.096 0.050568 30.000 0.033333 958.77 1047.0 3.2976 2.3974 2.6776 302.16 0.048887 14.096 0.050568
233.38 384.90 undefined 961.17 1049.6 3.3024 30.000 0.033333 961.17 1049.6 3.3024 2.4011 2.6810 302.56 0.048602 14.122 0.050749 30.000 0.033333 961.17 1049.6 3.3024 2.4011 2.6810 302.56 0.048602 14.122 0.050749
234.38 385.83 undefined 963.57 1052.2 3.3071 30.000 0.033333 963.57 1052.2 3.3071 2.4049 2.6844 302.95 0.048320 14.147 0.050930 30.000 0.033333 963.57 1052.2 3.3071 2.4049 2.6844 302.95 0.048320 14.147 0.050930
235.38 386.76 undefined 965.98 1054.9 3.3118 30.000 0.033333 965.98 1054.9 3.3118 2.4086 2.6878 303.34 0.048039 14.172 0.051111 30.000 0.033333 965.98 1054.9 3.3118 2.4086 2.6878 303.34 0.048039 14.172 0.051111
236.38 387.68 undefined 968.39 1057.5 3.3166 30.000 0.033333 968.39 1057.5 3.3166 2.4124 2.6912 303.73 0.047762 14.198 0.051293 30.000 0.033333 968.39 1057.5 3.3166 2.4124 2.6912 303.73 0.047762 14.198 0.051293
237.38 388.61 undefined 970.81 1060.1 3.3213 30.000 0.033333 970.81 1060.1 3.3213 2.4161 2.6946 304.12 0.047486 14.223 0.051475 30.000 0.033333 970.81 1060.1 3.3213 2.4161 2.6946 304.12 0.047486 14.223 0.051475
238.38 389.53 undefined 973.22 1062.7 3.3260 30.000 0.033333 973.22 1062.7 3.3260 2.4199 2.6980 304.51 0.047213 14.248 0.051657 30.000 0.033333 973.22 1062.7 3.3260 2.4199 2.6980 304.51 0.047213 14.248 0.051657
239.38 390.46 undefined 975.65 1065.4 3.3308 30.000 0.033333 975.65 1065.4 3.3308 2.4236 2.7014 304.90 0.046942 14.274 0.051840 30.000 0.033333 975.65 1065.4 3.3308 2.4236 2.7014 304.90 0.046942 14.274 0.051840
240.38 391.38 undefined 978.07 1068.0 3.3355 30.000 0.033333 978.07 1068.0 3.3355 2.4273 2.7048 305.28 0.046673 14.299 0.052023 30.000 0.033333 978.07 1068.0 3.3355 2.4273 2.7048 305.28 0.046673 14.299 0.052023
241.38 392.31 undefined 980.50 1070.7 3.3402 30.000 0.033333 980.50 1070.7 3.3402 2.4310 2.7082 305.67 0.046407 14.324 0.052206 30.000 0.033333 980.50 1070.7 3.3402 2.4310 2.7082 305.67 0.046407 14.324 0.052206
242.38 393.23 undefined 982.93 1073.3 3.3449 30.000 0.033333 982.93 1073.3 3.3449 2.4348 2.7115 306.06 0.046143 14.350 0.052389 30.000 0.033333 982.93 1073.3 3.3449 2.4348 2.7115 306.06 0.046143 14.350 0.052389
243.38 394.16 undefined 985.37 1076.0 3.3497 30.000 0.033333 985.37 1076.0 3.3497 2.4385 2.7149 306.44 0.045881 14.375 0.052573 30.000 0.033333 985.37 1076.0 3.3497 2.4385 2.7149 306.44 0.045881 14.375 0.052573
244.38 395.08 undefined 987.81 1078.6 3.3544 30.000 0.033333 987.81 1078.6 3.3544 2.4422 2.7183 306.83 0.045621 14.400 0.052757 30.000 0.033333 987.81 1078.6 3.3544 2.4422 2.7183 306.83 0.045621 14.400 0.052757
245.38 396.01 undefined 990.25 1081.3 3.3591 30.000 0.033333 990.25 1081.3 3.3591 2.4459 2.7217 307.22 0.045363 14.425 0.052941 30.000 0.033333 990.25 1081.3 3.3591 2.4459 2.7217 307.22 0.045363 14.425 0.052941
246.38 396.93 undefined 992.70 1083.9 3.3638 30.000 0.033333 992.70 1083.9 3.3638 2.4496 2.7251 307.60 0.045108 14.450 0.053126 30.000 0.033333 992.70 1083.9 3.3638 2.4496 2.7251 307.60 0.045108 14.450 0.053126
247.38 397.85 undefined 995.15 1086.6 3.3685 30.000 0.033333 995.15 1086.6 3.3685 2.4533 2.7285 307.98 0.044854 14.475 0.053310 30.000 0.033333 995.15 1086.6 3.3685 2.4533 2.7285 307.98 0.044854 14.475 0.053310
248.38 398.78 undefined 997.61 1089.3 3.3732 30.000 0.033333 997.61 1089.3 3.3732 2.4570 2.7318 308.37 0.044603 14.501 0.053495 30.000 0.033333 997.61 1089.3 3.3732 2.4570 2.7318 308.37 0.044603 14.501 0.053495
249.38 399.70 undefined 1000.1 1091.9 3.3779 30.000 0.033333 1000.1 1091.9 3.3779 2.4607 2.7352 308.75 0.044353 14.526 0.053681 30.000 0.033333 1000.1 1091.9 3.3779 2.4607 2.7352 308.75 0.044353 14.526 0.053681
250.38 400.62 undefined 1002.5 1094.6 3.3827 30.000 0.033333 1002.5 1094.6 3.3827 2.4644 2.7386 309.13 0.044106 14.551 0.053867 30.000 0.033333 1002.5 1094.6 3.3827 2.4644 2.7386 309.13 0.044106 14.551 0.053867
251.38 401.55 undefined 1005.0 1097.3 3.3874 30.000 0.033333 1005.0 1097.3 3.3874 2.4681 2.7420 309.52 0.043860 14.576 0.054053 30.000 0.033333 1005.0 1097.3 3.3874 2.4681 2.7420 309.52 0.043860 14.576 0.054053
252.38 402.47 undefined 1007.5 1100.0 3.3921 30.000 0.033333 1007.5 1100.0 3.3921 2.4718 2.7454 309.90 0.043617 14.601 0.054239 30.000 0.033333 1007.5 1100.0 3.3921 2.4718 2.7454 309.90 0.043617 14.601 0.054239
253.38 403.39 undefined 1009.9 1102.6 3.3968 30.000 0.033333 1009.9 1102.6 3.3968 2.4755 2.7487 310.28 0.043376 14.626 0.054425 30.000 0.033333 1009.9 1102.6 3.3968 2.4755 2.7487 310.28 0.043376 14.626 0.054425
254.38 404.32 undefined 1012.4 1105.3 3.4015 30.000 0.033333 1012.4 1105.3 3.4015 2.4791 2.7521 310.66 0.043136 14.651 0.054612 30.000 0.033333 1012.4 1105.3 3.4015 2.4791 2.7521 310.66 0.043136 14.651 0.054612
255.38 405.24 undefined 1014.9 1108.0 3.4062 30.000 0.033333 1014.9 1108.0 3.4062 2.4828 2.7555 311.04 0.042898 14.676 0.054799 30.000 0.033333 1014.9 1108.0 3.4062 2.4828 2.7555 311.04 0.042898 14.676 0.054799
256.38 406.16 undefined 1017.4 1110.7 3.4109 30.000 0.033333 1017.4 1110.7 3.4109 2.4865 2.7588 311.42 0.042663 14.701 0.054987 30.000 0.033333 1017.4 1110.7 3.4109 2.4865 2.7588 311.42 0.042663 14.701 0.054987
257.38 407.08 undefined 1019.9 1113.4 3.4156 30.000 0.033333 1019.9 1113.4 3.4156 2.4901 2.7622 311.80 0.042429 14.725 0.055174 30.000 0.033333 1019.9 1113.4 3.4156 2.4901 2.7622 311.80 0.042429 14.725 0.055174
258.38 408.01 undefined 1022.4 1116.1 3.4203 30.000 0.033333 1022.4 1116.1 3.4203 2.4938 2.7655 312.18 0.042197 14.750 0.055362 30.000 0.033333 1022.4 1116.1 3.4203 2.4938 2.7655 312.18 0.042197 14.750 0.055362
259.38 408.93 undefined 1024.9 1118.8 3.4249 30.000 0.033333 1024.9 1118.8 3.4249 2.4974 2.7689 312.55 0.041966 14.775 0.055551 30.000 0.033333 1024.9 1118.8 3.4249 2.4974 2.7689 312.55 0.041966 14.775 0.055551
260.38 409.85 undefined 1027.4 1121.6 3.4296 30.000 0.033333 1027.4 1121.6 3.4296 2.5011 2.7723 312.93 0.041738 14.800 0.055739 30.000 0.033333 1027.4 1121.6 3.4296 2.5011 2.7723 312.93 0.041738 14.800 0.055739
261.38 410.77 undefined 1029.9 1124.3 3.4343 30.000 0.033333 1029.9 1124.3 3.4343 2.5047 2.7756 313.31 0.041511 14.825 0.055928 30.000 0.033333 1029.9 1124.3 3.4343 2.5047 2.7756 313.31 0.041511 14.825 0.055928
262.38 411.70 undefined 1032.4 1127.0 3.4390 30.000 0.033333 1032.4 1127.0 3.4390 2.5084 2.7790 313.68 0.041286 14.850 0.056117 30.000 0.033333 1032.4 1127.0 3.4390 2.5084 2.7790 313.68 0.041286 14.850 0.056117
263.38 412.62 undefined 1034.9 1129.7 3.4437 30.000 0.033333 1034.9 1129.7 3.4437 2.5120 2.7823 314.06 0.041063 14.874 0.056306 30.000 0.033333 1034.9 1129.7 3.4437 2.5120 2.7823 314.06 0.041063 14.874 0.056306
264.38 413.54 undefined 1037.4 1132.4 3.4484 30.000 0.033333 1037.4 1132.4 3.4484 2.5156 2.7857 314.44 0.040842 14.899 0.056496 30.000 0.033333 1037.4 1132.4 3.4484 2.5156 2.7857 314.44 0.040842 14.899 0.056496
265.38 414.46 undefined 1039.9 1135.2 3.4530 30.000 0.033333 1039.9 1135.2 3.4530 2.5193 2.7890 314.81 0.040622 14.924 0.056686 30.000 0.033333 1039.9 1135.2 3.4530 2.5193 2.7890 314.81 0.040622 14.924 0.056686
266.38 415.38 undefined 1042.4 1137.9 3.4577 30.000 0.033333 1042.4 1137.9 3.4577 2.5229 2.7924 315.19 0.040404 14.948 0.056876 30.000 0.033333 1042.4 1137.9 3.4577 2.5229 2.7924 315.19 0.040404 14.948 0.056876
267.38 416.30 undefined 1045.0 1140.6 3.4624 30.000 0.033333 1045.0 1140.6 3.4624 2.5265 2.7957 315.56 0.040188 14.973 0.057067 30.000 0.033333 1045.0 1140.6 3.4624 2.5265 2.7957 315.56 0.040188 14.973 0.057067
268.38 417.22 undefined 1047.5 1143.4 3.4671 30.000 0.033333 1047.5 1143.4 3.4671 2.5301 2.7990 315.93 0.039973 14.998 0.057257 30.000 0.033333 1047.5 1143.4 3.4671 2.5301 2.7990 315.93 0.039973 14.998 0.057257
269.38 418.14 undefined 1050.0 1146.1 3.4717 30.000 0.033333 1050.0 1146.1 3.4717 2.5337 2.8024 316.31 0.039760 15.022 0.057448 30.000 0.033333 1050.0 1146.1 3.4717 2.5337 2.8024 316.31 0.039760 15.022 0.057448
270.38 419.07 undefined 1052.5 1148.9 3.4764 30.000 0.033333 1052.5 1148.9 3.4764 2.5373 2.8057 316.68 0.039548 15.047 0.057640 30.000 0.033333 1052.5 1148.9 3.4764 2.5373 2.8057 316.68 0.039548 15.047 0.057640
271.38 419.99 undefined 1055.1 1151.6 3.4811 30.000 0.033333 1055.1 1151.6 3.4811 2.5409 2.8090 317.05 0.039339 15.072 0.057831 30.000 0.033333 1055.1 1151.6 3.4811 2.5409 2.8090 317.05 0.039339 15.072 0.057831
272.38 420.91 undefined 1057.6 1154.4 3.4857 30.000 0.033333 1057.6 1154.4 3.4857 2.5445 2.8124 317.42 0.039130 15.096 0.058023 30.000 0.033333 1057.6 1154.4 3.4857 2.5445 2.8124 317.42 0.039130 15.096 0.058023
273.38 421.83 undefined 1060.2 1157.1 3.4904 30.000 0.033333 1060.2 1157.1 3.4904 2.5481 2.8157 317.79 0.038924 15.121 0.058215 30.000 0.033333 1060.2 1157.1 3.4904 2.5481 2.8157 317.79 0.038924 15.121 0.058215
274.38 422.75 undefined 1062.7 1159.9 3.4951 30.000 0.033333 1062.7 1159.9 3.4951 2.5517 2.8190 318.16 0.038718 15.145 0.058407 30.000 0.033333 1062.7 1159.9 3.4951 2.5517 2.8190 318.16 0.038718 15.145 0.058407
275.38 423.67 undefined 1065.3 1162.7 3.4997 30.000 0.033333 1065.3 1162.7 3.4997 2.5553 2.8223 318.53 0.038515 15.170 0.058600 30.000 0.033333 1065.3 1162.7 3.4997 2.5553 2.8223 318.53 0.038515 15.170 0.058600
276.38 424.59 undefined 1067.8 1165.4 3.5044 30.000 0.033333 1067.8 1165.4 3.5044 2.5589 2.8256 318.90 0.038313 15.194 0.058792 30.000 0.033333 1067.8 1165.4 3.5044 2.5589 2.8256 318.90 0.038313 15.194 0.058792
277.38 425.51 undefined 1070.4 1168.2 3.5090 30.000 0.033333 1070.4 1168.2 3.5090 2.5624 2.8290 319.27 0.038112 15.219 0.058985 30.000 0.033333 1070.4 1168.2 3.5090 2.5624 2.8290 319.27 0.038112 15.219 0.058985
278.38 426.43 undefined 1073.0 1171.0 3.5137 30.000 0.033333 1073.0 1171.0 3.5137 2.5660 2.8323 319.64 0.037913 15.243 0.059178 30.000 0.033333 1073.0 1171.0 3.5137 2.5660 2.8323 319.64 0.037913 15.243 0.059178
279.38 427.35 undefined 1075.5 1173.7 3.5183 30.000 0.033333 1075.5 1173.7 3.5183 2.5696 2.8356 320.01 0.037716 15.267 0.059371 30.000 0.033333 1075.5 1173.7 3.5183 2.5696 2.8356 320.01 0.037716 15.267 0.059371
280.38 428.27 undefined 1078.1 1176.5 3.5230 30.000 0.033333 1078.1 1176.5 3.5230 2.5731 2.8389 320.38 0.037519 15.292 0.059564 30.000 0.033333 1078.1 1176.5 3.5230 2.5731 2.8389 320.38 0.037519 15.292 0.059564
281.38 429.19 undefined 1080.7 1179.3 3.5276 30.000 0.033333 1080.7 1179.3 3.5276 2.5767 2.8422 320.74 0.037325 15.316 0.059756 30.000 0.033333 1080.7 1179.3 3.5276 2.5767 2.8422 320.74 0.037325 15.316 0.059756
282.38 430.11 undefined 1083.3 1182.1 3.5323 30.000 0.033333 1083.3 1182.1 3.5323 2.5802 2.8455 321.11 0.037131 15.340 0.059949 30.000 0.033333 1083.3 1182.1 3.5323 2.5802 2.8455 321.11 0.037131 15.340 0.059949
283.38 431.03 undefined 1085.8 1184.9 3.5369 30.000 0.033333 1085.8 1184.9 3.5369 2.5838 2.8488 321.48 0.036940 15.365 0.060145 30.000 0.033333 1085.8 1184.9 3.5369 2.5838 2.8488 321.48 0.036940 15.365 0.060145
284.38 431.94 undefined 1088.4 1187.7 3.5416 30.000 0.033333 1088.4 1187.7 3.5416 2.5873 2.8521 321.84 0.036749 15.389 0.060341 30.000 0.033333 1088.4 1187.7 3.5416 2.5873 2.8521 321.84 0.036749 15.389 0.060341
285.38 432.86 undefined 1091.0 1190.5 3.5462 30.000 0.033333 1091.0 1190.5 3.5462 2.5909 2.8554 322.21 0.036560 15.413 0.060538 30.000 0.033333 1091.0 1190.5 3.5462 2.5909 2.8554 322.21 0.036560 15.413 0.060538
286.38 433.78 undefined 1093.6 1193.3 3.5509 30.000 0.033333 1093.6 1193.3 3.5509 2.5944 2.8587 322.57 0.036372 15.437 0.060735 30.000 0.033333 1093.6 1193.3 3.5509 2.5944 2.8587 322.57 0.036372 15.437 0.060735
287.38 434.70 undefined 1096.2 1196.1 3.5555 30.000 0.033333 1096.2 1196.1 3.5555 2.5979 2.8620 322.94 0.036186 15.462 0.060932 30.000 0.033333 1096.2 1196.1 3.5555 2.5979 2.8620 322.94 0.036186 15.462 0.060932
288.38 435.62 undefined 1098.8 1198.9 3.5601 30.000 0.033333 1098.8 1198.9 3.5601 2.6014 2.8652 323.30 0.036001 15.486 0.061129 30.000 0.033333 1098.8 1198.9 3.5601 2.6014 2.8652 323.30 0.036001 15.486 0.061129
289.38 436.54 undefined 1101.4 1201.7 3.5648 30.000 0.033333 1101.4 1201.7 3.5648 2.6050 2.8685 323.67 0.035817 15.510 0.061327 30.000 0.033333 1101.4 1201.7 3.5648 2.6050 2.8685 323.67 0.035817 15.510 0.061327
290.38 437.46 undefined 1104.0 1204.5 3.5694 30.000 0.033333 1104.0 1204.5 3.5694 2.6085 2.8718 324.03 0.035635 15.534 0.061525 30.000 0.033333 1104.0 1204.5 3.5694 2.6085 2.8718 324.03 0.035635 15.534 0.061525
291.38 438.38 undefined 1106.6 1207.4 3.5740 30.000 0.033333 1106.6 1207.4 3.5740 2.6120 2.8751 324.39 0.035454 15.558 0.061723 30.000 0.033333 1106.6 1207.4 3.5740 2.6120 2.8751 324.39 0.035454 15.558 0.061723
292.38 439.29 undefined 1109.2 1210.2 3.5786 30.000 0.033333 1109.2 1210.2 3.5786 2.6155 2.8783 324.75 0.035274 15.582 0.061921 30.000 0.033333 1109.2 1210.2 3.5786 2.6155 2.8783 324.75 0.035274 15.582 0.061921
293.38 440.21 undefined 1111.9 1213.0 3.5833 30.000 0.033333 1111.9 1213.0 3.5833 2.6190 2.8816 325.12 0.035096 15.606 0.062120 30.000 0.033333 1111.9 1213.0 3.5833 2.6190 2.8816 325.12 0.035096 15.606 0.062120
294.38 441.13 undefined 1114.5 1215.9 3.5879 30.000 0.033333 1114.5 1215.9 3.5879 2.6225 2.8849 325.48 0.034918 15.630 0.062319 30.000 0.033333 1114.5 1215.9 3.5879 2.6225 2.8849 325.48 0.034918 15.630 0.062319
295.38 442.05 undefined 1117.1 1218.7 3.5925 30.000 0.033333 1117.1 1218.7 3.5925 2.6260 2.8881 325.84 0.034742 15.654 0.062519 30.000 0.033333 1117.1 1218.7 3.5925 2.6260 2.8881 325.84 0.034742 15.654 0.062519
296.38 442.97 undefined 1119.7 1221.5 3.5971 30.000 0.033333 1119.7 1221.5 3.5971 2.6295 2.8914 326.20 0.034568 15.678 0.062718 30.000 0.033333 1119.7 1221.5 3.5971 2.6295 2.8914 326.20 0.034568 15.678 0.062718
297.38 443.88 undefined 1122.4 1224.4 3.6017 30.000 0.033333 1122.4 1224.4 3.6017 2.6330 2.8947 326.56 0.034394 15.702 0.062918 30.000 0.033333 1122.4 1224.4 3.6017 2.6330 2.8947 326.56 0.034394 15.702 0.062918
298.38 444.80 undefined 1125.0 1227.2 3.6064 30.000 0.033333 1125.0 1227.2 3.6064 2.6364 2.8979 326.92 0.034222 15.726 0.063119 30.000 0.033333 1125.0 1227.2 3.6064 2.6364 2.8979 326.92 0.034222 15.726 0.063119
299.38 445.72 undefined 1127.6 1230.1 3.6110 30.000 0.033333 1127.6 1230.1 3.6110 2.6399 2.9012 327.28 0.034051 15.750 0.063319 30.000 0.033333 1127.6 1230.1 3.6110 2.6399 2.9012 327.28 0.034051 15.750 0.063319
300.38 446.64 undefined 1130.3 1232.9 3.6156 30.000 0.033333 1130.3 1232.9 3.6156 2.6434 2.9044 327.64 0.033881 15.774 0.063520 30.000 0.033333 1130.3 1232.9 3.6156 2.6434 2.9044 327.64 0.033881 15.774 0.063520