Temperature (C) Pressure (psia) Quality (l+v) Internal Energy (l+v, kJ/kg) Enthalpy (l+v, kJ/kg) Entropy (l+v, J/g*K) Density (l, kg/m3) Volume (l, m3/kg) Internal Energy (l, kJ/kg) Enthalpy (l, kJ/kg) Entropy (l, J/g*K) Cv (l, J/g*K) Cp (l, J/g*K) Sound Spd. (l, m/s) Joule-Thomson (l, F/psia) Viscosity (l, uPa*s) Therm. Cond. (l, W/m*K) Density (v, kg/m3) Volume (v, m3/kg) Internal Energy (v, kJ/kg) Enthalpy (v, kJ/kg) Entropy (v, J/g*K) Cv (v, J/g*K) Cp (v, J/g*K) Sound Spd. (v, m/s) Joule-Thomson (v, F/psia) Viscosity (v, uPa*s) Therm. Cond. (v, W/m*K)
-187.62 2.4953e-08 2.1010e-11 -196.64 -196.64 -1.3959 733.13 0.0013640 -196.64 -196.64 -1.3959 1.3553 1.9158 2136.4 -0.0077592 10960. 0.20792 1.0669e-08 9.3732e+07 350.13 366.26 5.1858 0.69067 0.87923 143.28 6.1051 2.3259 0.0017061
-186.62 3.7339e-08 3.1045e-11 -194.73 -194.73 -1.3736 732.08 0.0013660 -194.73 -194.73 -1.3736 1.3539 1.9166 2129.6 -0.0077546 10073. 0.20765 1.5780e-08 6.3371e+07 350.82 367.14 5.1200 0.69462 0.88317 144.03 5.9178 2.3534 0.0017533
-185.62 5.5322e-08 4.5426e-11 -192.81 -192.81 -1.3516 731.04 0.0013679 -192.81 -192.81 -1.3516 1.3525 1.9174 2122.9 -0.0077498 9276.1 0.20737 2.3112e-08 4.3267e+07 351.52 368.02 5.0561 0.69857 0.88713 144.77 5.7383 2.3808 0.0018007
-184.62 8.1182e-08 6.5842e-11 -190.89 -190.89 -1.3298 730.00 0.0013699 -190.89 -190.89 -1.3298 1.3513 1.9182 2116.1 -0.0077448 8557.8 0.20708 3.3533e-08 2.9821e+07 352.22 368.91 4.9939 0.70253 0.89108 145.51 5.5662 2.4083 0.0018485
-183.62 1.1803e-07 9.4566e-11 -188.97 -188.97 -1.3083 728.96 0.0013718 -188.97 -188.97 -1.3083 1.3501 1.9191 2109.3 -0.0077395 7909.8 0.20678 4.8211e-08 2.0742e+07 352.92 369.81 4.9333 0.70648 0.89504 146.24 5.4011 2.4357 0.0018965
-182.62 1.7009e-07 1.3463e-10 -187.05 -187.05 -1.2869 727.92 0.0013738 -187.05 -187.05 -1.2869 1.3490 1.9201 2102.5 -0.0077340 7324.3 0.20647 6.8704e-08 1.4555e+07 353.63 370.70 4.8744 0.71043 0.89899 146.97 5.2426 2.4632 0.0019448
-181.62 2.4299e-07 1.9004e-10 -185.13 -185.13 -1.2658 726.88 0.0013757 -185.13 -185.13 -1.2658 1.3480 1.9210 2095.7 -0.0077283 6794.5 0.20616 9.7079e-08 1.0301e+07 354.35 371.60 4.8170 0.71438 0.90294 147.69 5.0904 2.4906 0.0019934
-180.62 3.4425e-07 2.6606e-10 -183.21 -183.21 -1.2450 725.85 0.0013777 -183.21 -183.21 -1.2450 1.3470 1.9220 2088.9 -0.0077225 6314.4 0.20584 1.3605e-07 7.3504e+06 355.06 372.51 4.7612 0.71833 0.90688 148.41 4.9442 2.5181 0.0020423
-179.62 4.8378e-07 3.6953e-10 -181.29 -181.29 -1.2243 724.81 0.0013797 -181.29 -181.29 -1.2243 1.3461 1.9231 2082.0 -0.0077164 5878.8 0.20551 1.8915e-07 5.2868e+06 355.78 373.42 4.7068 0.72227 0.91082 149.13 4.8038 2.5456 0.0020915
-178.62 6.7459e-07 5.0932e-10 -179.37 -179.37 -1.2038 723.78 0.0013816 -179.37 -179.37 -1.2038 1.3453 1.9241 2075.2 -0.0077102 5482.9 0.20517 2.6096e-07 3.8320e+06 356.51 374.33 4.6538 0.72620 0.91475 149.84 4.6688 2.5731 0.0021410
-177.62 9.3358e-07 6.9677e-10 -177.44 -177.44 -1.1836 722.75 0.0013836 -177.44 -177.44 -1.1836 1.3445 1.9252 2068.4 -0.0077039 5122.6 0.20483 3.5737e-07 2.7982e+06 357.23 375.25 4.6022 0.73012 0.91867 150.54 4.5390 2.6005 0.0021907
-176.62 1.2826e-06 9.4637e-10 -175.52 -175.52 -1.1635 721.72 0.0013856 -175.52 -175.52 -1.1635 1.3437 1.9263 2061.5 -0.0076973 4794.1 0.20447 4.8588e-07 2.0581e+06 357.97 376.17 4.5519 0.73403 0.92258 151.25 4.4142 2.6280 0.0022408
-175.62 1.7496e-06 1.2765e-09 -173.59 -173.59 -1.1437 720.69 0.0013876 -173.59 -173.59 -1.1437 1.3430 1.9274 2054.7 -0.0076907 4494.3 0.20411 6.5601e-07 1.5244e+06 358.70 377.09 4.5029 0.73792 0.92648 151.95 4.2941 2.6555 0.0022912
-174.62 2.3705e-06 1.7101e-09 -171.66 -171.66 -1.1240 719.66 0.0013895 -171.66 -171.66 -1.1240 1.3423 1.9286 2047.9 -0.0076838 4220.2 0.20375 8.7976e-07 1.1367e+06 359.44 378.02 4.4551 0.74181 0.93036 152.64 4.1784 2.6830 0.0023418
-173.62 3.1903e-06 2.2761e-09 -169.73 -169.73 -1.1045 718.64 0.0013915 -169.73 -169.73 -1.1045 1.3417 1.9298 2041.0 -0.0076769 3969.3 0.20338 1.1721e-06 8.5314e+05 360.19 378.95 4.4085 0.74568 0.93423 153.33 4.0671 2.7105 0.0023928
-172.62 4.2661e-06 3.0102e-09 -167.80 -167.80 -1.0852 717.61 0.0013935 -167.80 -167.80 -1.0852 1.3411 1.9310 2034.2 -0.0076698 3739.3 0.20300 1.5518e-06 6.4441e+05 360.93 379.89 4.3631 0.74953 0.93809 154.02 3.9599 2.7379 0.0024440
-171.62 5.6692e-06 3.9568e-09 -165.87 -165.87 -1.0661 716.58 0.0013955 -165.87 -165.87 -1.0661 1.3405 1.9322 2027.3 -0.0076625 3528.0 0.20261 2.0419e-06 4.8974e+05 361.69 380.83 4.3188 0.75337 0.94193 154.71 3.8566 2.7654 0.0024955
-170.62 7.4884e-06 5.1702e-09 -163.94 -163.94 -1.0472 715.56 0.0013975 -163.94 -163.94 -1.0472 1.3400 1.9334 2020.5 -0.0076552 3333.8 0.20222 2.6708e-06 3.7442e+05 362.44 381.77 4.2755 0.75720 0.94575 155.39 3.7570 2.7929 0.0025473
-169.62 9.8334e-06 6.7167e-09 -162.00 -162.00 -1.0284 714.54 0.0013995 -162.00 -162.00 -1.0284 1.3395 1.9347 2013.6 -0.0076477 3154.9 0.20182 3.4733e-06 2.8791e+05 363.20 382.72 4.2334 0.76100 0.94956 156.07 3.6609 2.8204 0.0025994
-168.62 1.2839e-05 8.6771e-09 -160.07 -160.07 -1.0098 713.52 0.0014015 -160.07 -160.07 -1.0098 1.3390 1.9359 2006.8 -0.0076401 2989.9 0.20141 4.4917e-06 2.2263e+05 363.96 383.67 4.1922 0.76479 0.95335 156.74 3.5683 2.8479 0.0026518
-167.62 1.6672e-05 1.1149e-08 -158.13 -158.13 -0.99134 712.49 0.0014035 -158.13 -158.13 -0.99134 1.3386 1.9372 2000.0 -0.0076323 2837.5 0.20100 5.7771e-06 1.7310e+05 364.73 384.63 4.1521 0.76856 0.95712 157.41 3.4790 2.8754 0.0027045
-166.62 2.1533e-05 1.4249e-08 -156.19 -156.19 -0.97306 711.47 0.0014055 -156.19 -156.19 -0.97306 1.3382 1.9385 1993.1 -0.0076245 2696.5 0.20058 7.3914e-06 1.3529e+05 365.50 385.59 4.1129 0.77232 0.96087 158.08 3.3927 2.9029 0.0027575
-165.62 2.7666e-05 1.8119e-08 -154.25 -154.25 -0.95494 710.45 0.0014075 -154.25 -154.25 -0.95494 1.3378 1.9398 1986.3 -0.0076165 2566.0 0.20016 9.4084e-06 1.0629e+05 366.27 386.55 4.0746 0.77605 0.96460 158.75 3.3095 2.9304 0.0028108
-164.62 3.5367e-05 2.2924e-08 -152.31 -152.31 -0.93698 709.44 0.0014096 -152.31 -152.31 -0.93698 1.3375 1.9411 1979.4 -0.0076084 2444.9 0.19973 1.1916e-05 83918. 367.05 387.52 4.0372 0.77976 0.96832 159.41 3.2291 2.9579 0.0028643
-163.62 4.4989e-05 2.8865e-08 -150.37 -150.37 -0.91917 708.42 0.0014116 -150.37 -150.37 -0.91917 1.3371 1.9424 1972.6 -0.0076002 2332.3 0.19930 1.5020e-05 66577. 367.83 388.49 4.0008 0.78346 0.97201 160.07 3.1514 2.9854 0.0029182
-162.62 5.6956e-05 3.6174e-08 -148.43 -148.43 -0.90151 707.40 0.0014136 -148.43 -148.43 -0.90151 1.3368 1.9437 1965.8 -0.0075919 2227.7 0.19886 1.8844e-05 53068. 368.62 389.46 3.9651 0.78713 0.97569 160.72 3.0764 3.0129 0.0029723
-161.62 7.1773e-05 4.5128e-08 -146.48 -146.48 -0.88400 706.38 0.0014157 -146.48 -146.48 -0.88400 1.3365 1.9451 1959.0 -0.0075834 2130.2 0.19841 2.3533e-05 42494. 369.41 390.44 3.9304 0.79079 0.97935 161.38 3.0038 3.0404 0.0030268
-160.62 9.0036e-05 5.6048e-08 -144.54 -144.54 -0.86663 705.37 0.0014177 -144.54 -144.54 -0.86663 1.3363 1.9465 1952.1 -0.0075748 2039.2 0.19796 2.9258e-05 34178. 370.20 391.42 3.8964 0.79443 0.98298 162.03 2.9337 3.0679 0.0030815
-159.62 0.00011245 6.9312e-08 -142.59 -142.59 -0.84940 704.35 0.0014197 -142.59 -142.59 -0.84940 1.3360 1.9478 1945.3 -0.0075661 1954.2 0.19751 3.6221e-05 27609. 371.00 392.40 3.8632 0.79805 0.98660 162.68 2.8658 3.0955 0.0031365
-158.62 0.00013985 8.5354e-08 -140.64 -140.64 -0.83231 703.34 0.0014218 -140.64 -140.64 -0.83231 1.3358 1.9492 1938.5 -0.0075573 1874.8 0.19705 4.4652e-05 22395. 371.80 393.39 3.8307 0.80164 0.99020 163.32 2.8002 3.1230 0.0031918
-157.62 0.00017320 1.0468e-07 -138.69 -138.69 -0.81536 702.32 0.0014238 -138.69 -138.69 -0.81536 1.3356 1.9506 1931.7 -0.0075484 1800.3 0.19658 5.4822e-05 18241. 372.60 394.38 3.7990 0.80522 0.99378 163.96 2.7367 3.1505 0.0032474
-156.62 0.00021364 1.2788e-07 -136.74 -136.74 -0.79854 701.31 0.0014259 -136.74 -136.74 -0.79854 1.3354 1.9520 1924.9 -0.0075393 1730.5 0.19611 6.7040e-05 14916. 373.41 395.38 3.7680 0.80878 0.99734 164.60 2.6752 3.1780 0.0033033
-155.62 0.00026248 1.5560e-07 -134.79 -134.79 -0.78185 700.30 0.0014280 -134.79 -134.79 -0.78185 1.3352 1.9534 1918.1 -0.0075302 1664.9 0.19564 8.1666e-05 12245. 374.22 396.38 3.7377 0.81232 1.0009 165.24 2.6157 3.2055 0.0033595
-154.62 0.00032125 1.8863e-07 -132.83 -132.83 -0.76530 699.29 0.0014300 -132.83 -132.83 -0.76530 1.3350 1.9548 1911.3 -0.0075209 1603.3 0.19516 9.9109e-05 10090. 375.03 397.38 3.7081 0.81585 1.0044 165.87 2.5580 3.2330 0.0034160
-153.62 0.00039171 2.2784e-07 -130.88 -130.88 -0.74887 698.27 0.0014321 -130.88 -130.88 -0.74887 1.3349 1.9563 1904.5 -0.0075114 1545.3 0.19468 0.00011984 8344.6 375.85 398.39 3.6792 0.81935 1.0079 166.50 2.5022 3.2606 0.0034727
-152.62 0.00047590 2.7421e-07 -128.92 -128.92 -0.73256 697.26 0.0014342 -128.92 -128.92 -0.73256 1.3348 1.9577 1897.8 -0.0075019 1490.6 0.19419 0.00014439 6925.9 376.67 399.40 3.6509 0.82284 1.0114 167.13 2.4481 3.2881 0.0035298
-151.62 0.00057613 3.2887e-07 -126.96 -126.96 -0.71638 696.25 0.0014363 -126.96 -126.96 -0.71638 1.3346 1.9592 1891.0 -0.0074922 1438.9 0.19370 0.00017336 5768.4 377.49 400.41 3.6232 0.82631 1.0149 167.76 2.3957 3.3156 0.0035872
-150.62 0.00069507 3.9309e-07 -125.00 -125.00 -0.70032 695.24 0.0014384 -125.00 -125.00 -0.70032 1.3345 1.9606 1884.2 -0.0074824 1390.2 0.19320 0.00020744 4820.7 378.32 401.42 3.5962 0.82976 1.0183 168.38 2.3448 3.3431 0.0036448
-149.62 0.00083574 4.6830e-07 -123.04 -123.04 -0.68437 694.23 0.0014404 -123.04 -123.04 -0.68438 1.3345 1.9621 1877.4 -0.0074724 1344.0 0.19270 0.00024740 4042.0 379.15 402.44 3.5697 0.83319 1.0218 169.00 2.2956 3.3706 0.0037027
-148.62 0.0010016 5.5611e-07 -121.08 -121.08 -0.66855 693.22 0.0014425 -121.08 -121.08 -0.66855 1.3344 1.9636 1870.7 -0.0074623 1300.3 0.19220 0.00029412 3400.0 379.99 403.47 3.5438 0.83661 1.0252 169.62 2.2478 3.3982 0.0037610
-147.62 0.0011965 6.5831e-07 -119.11 -119.11 -0.65283 692.21 0.0014447 -119.11 -119.11 -0.65284 1.3343 1.9651 1863.9 -0.0074521 1258.9 0.19169 0.00034856 2869.0 380.83 404.49 3.5185 0.84001 1.0286 170.24 2.2014 3.4257 0.0038195
-146.62 0.0014249 7.7691e-07 -117.15 -117.15 -0.63724 691.20 0.0014468 -117.15 -117.15 -0.63724 1.3343 1.9666 1857.2 -0.0074417 1219.6 0.19117 0.00041181 2428.3 381.67 405.52 3.4938 0.84340 1.0320 170.85 2.1565 3.4532 0.0038783
-145.62 0.0016917 9.1414e-07 -115.18 -115.18 -0.62175 690.19 0.0014489 -115.18 -115.18 -0.62175 1.3343 1.9682 1850.4 -0.0074312 1182.3 0.19066 0.00048510 2061.4 382.51 406.56 3.4695 0.84677 1.0353 171.46 2.1128 3.4807 0.0039374
-144.62 0.0020026 1.0725e-06 -113.21 -113.21 -0.60637 689.18 0.0014510 -113.21 -113.21 -0.60637 1.3343 1.9697 1843.7 -0.0074206 1146.8 0.19014 0.00056976 1755.1 383.36 407.59 3.4458 0.85012 1.0387 172.07 2.0705 3.5082 0.0039967
-143.62 0.0023637 1.2547e-06 -111.24 -111.24 -0.59109 688.17 0.0014531 -111.24 -111.24 -0.59110 1.3343 1.9713 1836.9 -0.0074098 1113.0 0.18962 0.00066731 1498.6 384.21 408.63 3.4226 0.85346 1.0420 172.68 2.0294 3.5358 0.0040564
-142.62 0.0027820 1.4637e-06 -109.27 -109.27 -0.57593 687.16 0.0014553 -109.27 -109.27 -0.57593 1.3343 1.9728 1830.2 -0.0073988 1080.8 0.18909 0.00077939 1283.1 385.07 409.68 3.3999 0.85679 1.0454 173.28 1.9896 3.5633 0.0041164
-141.62 0.0032653 1.7030e-06 -107.30 -107.30 -0.56086 686.15 0.0014574 -107.30 -107.30 -0.56087 1.3343 1.9744 1823.5 -0.0073878 1050.1 0.18856 0.00090784 1101.5 385.93 410.72 3.3777 0.86011 1.0487 173.88 1.9508 3.5908 0.0041766
-140.62 0.0038222 1.9762e-06 -105.32 -105.32 -0.54590 685.14 0.0014596 -105.32 -105.32 -0.54591 1.3344 1.9760 1816.7 -0.0073765 1020.7 0.18803 0.0010547 948.16 386.79 411.77 3.3560 0.86341 1.0520 174.48 1.9133 3.6183 0.0042372
-139.62 0.0044623 2.2873e-06 -103.34 -103.34 -0.53104 684.13 0.0014617 -103.34 -103.34 -0.53105 1.3344 1.9776 1810.0 -0.0073651 992.74 0.18749 0.0012221 818.26 387.65 412.83 3.3347 0.86670 1.0553 175.08 1.8768 3.6459 0.0042980
-138.62 0.0051963 2.6407e-06 -101.36 -101.36 -0.51628 683.12 0.0014639 -101.37 -101.37 -0.51629 1.3345 1.9792 1803.3 -0.0073536 965.97 0.18695 0.0014125 707.94 388.52 413.88 3.3139 0.86998 1.0586 175.67 1.8413 3.6734 0.0043592
-137.62 0.0060358 3.0412e-06 -99.385 -99.384 -0.50161 682.11 0.0014660 -99.386 -99.386 -0.50162 1.3346 1.9808 1796.6 -0.0073419 940.35 0.18641 0.0016287 614.00 389.39 414.94 3.2935 0.87325 1.0619 176.26 1.8069 3.7009 0.0044206
-136.62 0.0069938 3.4940e-06 -97.403 -97.403 -0.48704 681.10 0.0014682 -97.404 -97.404 -0.48705 1.3347 1.9825 1789.9 -0.0073301 915.81 0.18586 0.0018733 533.80 390.26 416.00 3.2735 0.87650 1.0651 176.85 1.7734 3.7284 0.0044823
-135.62 0.0080843 4.0048e-06 -95.419 -95.419 -0.47256 680.09 0.0014704 -95.421 -95.421 -0.47258 1.3348 1.9841 1783.2 -0.0073180 892.30 0.18531 0.0021497 465.17 391.14 417.07 3.2540 0.87975 1.0684 177.44 1.7409 3.7559 0.0045443
-134.62 0.0093230 4.5798e-06 -93.434 -93.434 -0.45818 679.08 0.0014726 -93.436 -93.436 -0.45820 1.3350 1.9858 1776.5 -0.0073059 869.75 0.18476 0.0024613 406.30 392.02 418.14 3.2348 0.88299 1.0716 178.02 1.7093 3.7834 0.0046066
-133.62 0.010727 5.2256e-06 -91.447 -91.447 -0.44389 678.07 0.0014748 -91.450 -91.449 -0.44391 1.3351 1.9875 1769.8 -0.0072935 848.11 0.18421 0.0028116 355.67 392.91 419.21 3.2161 0.88622 1.0749 178.61 1.6786 3.8109 0.0046691
-132.62 0.012315 5.9494e-06 -89.458 -89.458 -0.42969 677.06 0.0014770 -89.461 -89.461 -0.42971 1.3353 1.9892 1763.1 -0.0072810 827.32 0.18365 0.0032049 312.03 393.79 420.29 3.1977 0.88944 1.0781 179.19 1.6488 3.8385 0.0047320
-131.62 0.014106 6.7589e-06 -87.468 -87.468 -0.41557 676.04 0.0014792 -87.471 -87.471 -0.41560 1.3354 1.9909 1756.4 -0.0072684 807.34 0.18309 0.0036453 274.33 394.68 421.36 3.1798 0.89266 1.0813 179.76 1.6197 3.8660 0.0047951
-130.62 0.016124 7.6624e-06 -85.476 -85.475 -0.40155 675.03 0.0014814 -85.479 -85.479 -0.40157 1.3356 1.9926 1749.7 -0.0072555 788.12 0.18253 0.0041375 241.69 395.58 422.44 3.1622 0.89586 1.0846 180.34 1.5915 3.8935 0.0048586
-129.62 0.018392 8.6690e-06 -83.482 -83.481 -0.38760 674.02 0.0014836 -83.486 -83.486 -0.38763 1.3358 1.9944 1743.0 -0.0072425 769.63 0.18196 0.0046867 213.37 396.47 423.53 3.1450 0.89906 1.0878 180.91 1.5641 3.9210 0.0049223
-128.62 0.020935 9.7882e-06 -81.486 -81.485 -0.37375 673.01 0.0014859 -81.491 -81.490 -0.37378 1.3360 1.9961 1736.3 -0.0072294 751.83 0.18140 0.0052981 188.75 397.37 424.62 3.1281 0.90226 1.0910 181.48 1.5374 3.9485 0.0049863
-127.62 0.023783 1.1030e-05 -79.488 -79.488 -0.35997 672.00 0.0014881 -79.494 -79.493 -0.36001 1.3363 1.9979 1729.6 -0.0072160 734.67 0.18083 0.0059776 167.29 398.27 425.71 3.1116 0.90545 1.0942 182.05 1.5114 3.9760 0.0050506
-126.62 0.026966 1.2406e-05 -77.489 -77.488 -0.34628 670.98 0.0014904 -77.495 -77.495 -0.34632 1.3365 1.9997 1722.9 -0.0072025 718.14 0.18025 0.0067313 148.56 399.18 426.80 3.0954 0.90863 1.0974 182.62 1.4861 4.0035 0.0051152
-125.62 0.030515 1.3927e-05 -75.488 -75.487 -0.33267 669.97 0.0014926 -75.494 -75.494 -0.33272 1.3368 2.0015 1716.2 -0.0071888 702.18 0.17968 0.0075660 132.17 400.09 427.89 3.0795 0.91181 1.1006 183.18 1.4615 4.0310 0.0051800
-124.62 0.034467 1.5606e-05 -73.484 -73.484 -0.31914 668.95 0.0014949 -73.492 -73.492 -0.31919 1.3371 2.0033 1709.5 -0.0071749 686.79 0.17910 0.0084885 117.81 401.00 428.99 3.0640 0.91499 1.1038 183.74 1.4375 4.0584 0.0052452
-123.62 0.038859 1.7456e-05 -71.479 -71.479 -0.30568 667.94 0.0014971 -71.488 -71.487 -0.30574 1.3374 2.0051 1702.8 -0.0071609 671.93 0.17852 0.0095065 105.19 401.91 430.10 3.0488 0.91816 1.1070 184.30 1.4141 4.0859 0.0053106
-122.62 0.043731 1.9491e-05 -69.472 -69.471 -0.29230 666.92 0.0014994 -69.482 -69.481 -0.29237 1.3377 2.0070 1696.2 -0.0071466 657.57 0.17794 0.010628 94.092 402.83 431.20 3.0339 0.92134 1.1102 184.86 1.3913 4.1134 0.0053764
-121.62 0.049128 2.1726e-05 -67.463 -67.462 -0.27900 665.91 0.0015017 -67.474 -67.473 -0.27907 1.3380 2.0089 1689.5 -0.0071322 643.70 0.17736 0.011861 84.309 403.75 432.31 3.0193 0.92451 1.1134 185.41 1.3691 4.1409 0.0054424
-120.62 0.055096 2.4176e-05 -65.453 -65.451 -0.26577 664.89 0.0015040 -65.464 -65.463 -0.26585 1.3384 2.0107 1682.8 -0.0071176 630.28 0.17678 0.013215 75.669 404.67 433.42 3.0050 0.92767 1.1166 185.96 1.3475 4.1683 0.0055087
-119.62 0.061684 2.6858e-05 -63.440 -63.438 -0.25262 663.87 0.0015063 -63.452 -63.452 -0.25271 1.3387 2.0126 1676.1 -0.0071028 617.30 0.17619 0.014700 68.027 405.60 434.53 2.9909 0.93084 1.1198 186.51 1.3264 4.1958 0.0055752
-118.62 0.068946 2.9789e-05 -61.425 -61.423 -0.23954 662.86 0.0015086 -61.439 -61.438 -0.23963 1.3391 2.0146 1669.4 -0.0070878 604.74 0.17560 0.016325 61.255 406.53 435.64 2.9772 0.93401 1.1231 187.06 1.3058 4.2233 0.0056421
-117.62 0.076937 3.2988e-05 -59.408 -59.406 -0.22653 661.84 0.0015109 -59.423 -59.422 -0.22663 1.3395 2.0165 1662.8 -0.0070726 592.58 0.17501 0.018101 55.245 407.46 436.76 2.9638 0.93718 1.1263 187.60 1.2857 4.2507 0.0057092
-116.62 0.085718 3.6474e-05 -57.389 -57.387 -0.21359 660.82 0.0015133 -57.406 -57.405 -0.21370 1.3400 2.0184 1656.1 -0.0070573 580.80 0.17442 0.020040 49.901 408.39 437.88 2.9506 0.94035 1.1295 188.14 1.2660 4.2782 0.0057767
-115.62 0.095353 4.0268e-05 -55.368 -55.365 -0.20072 659.80 0.0015156 -55.386 -55.385 -0.20084 1.3404 2.0204 1649.4 -0.0070417 569.38 0.17383 0.022152 45.142 409.33 439.01 2.9377 0.94352 1.1327 188.68 1.2468 4.3056 0.0058444
-114.62 0.10591 4.4389e-05 -53.344 -53.342 -0.18791 658.78 0.0015180 -53.365 -53.364 -0.18805 1.3409 2.0224 1642.7 -0.0070260 558.32 0.17323 0.024451 40.898 410.27 440.13 2.9250 0.94669 1.1360 189.22 1.2281 4.3330 0.0059123
-113.62 0.11746 4.8862e-05 -51.319 -51.316 -0.17518 657.76 0.0015203 -51.342 -51.340 -0.17533 1.3413 2.0244 1636.0 -0.0070100 547.59 0.17264 0.026949 37.107 411.21 441.26 2.9126 0.94987 1.1392 189.75 1.2097 4.3604 0.0059806
-112.62 0.13008 5.3708e-05 -49.291 -49.288 -0.16250 656.73 0.0015227 -49.316 -49.315 -0.16267 1.3418 2.0264 1629.3 -0.0069938 537.18 0.17204 0.029661 33.715 412.16 442.39 2.9005 0.95305 1.1424 190.28 1.1918 4.3879 0.0060491
-111.62 0.14384 5.8952e-05 -47.262 -47.258 -0.14990 655.71 0.0015251 -47.289 -47.287 -0.15008 1.3424 2.0285 1622.7 -0.0069774 527.08 0.17144 0.032600 30.675 413.10 443.53 2.8885 0.95623 1.1457 190.81 1.1742 4.4153 0.0061180
-110.62 0.15884 6.4619e-05 -45.230 -45.226 -0.13736 654.69 0.0015274 -45.259 -45.258 -0.13755 1.3429 2.0305 1616.0 -0.0069609 517.28 0.17084 0.035781 27.948 414.06 444.66 2.8769 0.95942 1.1490 191.34 1.1570 4.4427 0.0061871
-109.62 0.17516 7.0736e-05 -43.195 -43.191 -0.12488 653.66 0.0015298 -43.228 -43.226 -0.12509 1.3435 2.0326 1609.3 -0.0069441 507.76 0.17024 0.039220 25.497 415.01 445.80 2.8654 0.96261 1.1522 191.86 1.1402 4.4701 0.0062564
-108.62 0.19290 7.7331e-05 -41.159 -41.154 -0.11246 652.64 0.0015322 -41.194 -41.192 -0.11269 1.3441 2.0347 1602.6 -0.0069271 498.51 0.16964 0.042933 23.292 415.96 446.94 2.8542 0.96581 1.1555 192.38 1.1236 4.4974 0.0063261
-107.62 0.21215 8.4430e-05 -39.120 -39.115 -0.10011 651.61 0.0015347 -39.158 -39.156 -0.10036 1.3447 2.0369 1595.9 -0.0069098 489.52 0.16903 0.046937 21.305 416.92 448.09 2.8433 0.96901 1.1588 192.90 1.1075 4.5248 0.0063960
-106.62 0.23301 9.2065e-05 -37.079 -37.073 -0.087814 650.58 0.0015371 -37.120 -37.118 -0.088082 1.3453 2.0390 1589.2 -0.0068924 480.79 0.16843 0.051250 19.512 417.88 449.23 2.8325 0.97222 1.1621 193.41 1.0916 4.5522 0.0064662
-105.62 0.25561 0.00010027 -35.035 -35.029 -0.075578 649.55 0.0015395 -35.080 -35.078 -0.075868 1.3460 2.0412 1582.6 -0.0068747 472.30 0.16782 0.055891 17.892 418.85 450.38 2.8220 0.97544 1.1655 193.93 1.0760 4.5795 0.0065367
-104.62 0.28004 0.00010906 -32.989 -32.982 -0.063401 648.52 0.0015420 -33.038 -33.035 -0.063714 1.3467 2.0434 1575.9 -0.0068569 464.04 0.16721 0.060878 16.426 419.81 451.53 2.8116 0.97867 1.1688 194.44 1.0608 4.6069 0.0066074
-103.62 0.30643 0.00011849 -30.940 -30.933 -0.051281 647.49 0.0015444 -30.994 -30.991 -0.051619 1.3474 2.0456 1569.2 -0.0068387 456.00 0.16660 0.066231 15.099 420.78 452.68 2.8015 0.98191 1.1722 194.94 1.0458 4.6342 0.0066785
-102.62 0.33490 0.00012859 -28.889 -28.882 -0.039218 646.46 0.0015469 -28.947 -28.944 -0.039582 1.3481 2.0478 1562.5 -0.0068204 448.18 0.16600 0.071971 13.894 421.75 453.84 2.7916 0.98516 1.1755 195.44 1.0310 4.6615 0.0067498
-101.62 0.36558 0.00013938 -26.836 -26.827 -0.027210 645.43 0.0015494 -26.898 -26.894 -0.027602 1.3489 2.0501 1555.8 -0.0068018 440.57 0.16539 0.078120 12.801 422.73 454.99 2.7818 0.98841 1.1789 195.95 1.0166 4.6888 0.0068213
-100.62 0.39862 0.00015091 -24.780 -24.770 -0.015257 644.39 0.0015519 -24.847 -24.843 -0.015678 1.3497 2.0524 1549.1 -0.0067830 433.16 0.16478 0.084699 11.807 423.70 456.15 2.7723 0.99168 1.1823 196.44 1.0024 4.7161 0.0068932
-99.625 0.43414 0.00016321 -22.721 -22.711 -0.0033587 643.36 0.0015544 -22.794 -22.789 -0.0038103 1.3505 2.0547 1542.4 -0.0067639 425.95 0.16416 0.091731 10.901 424.68 457.31 2.7630 0.99496 1.1858 196.94 0.98838 4.7434 0.0069653
-98.625 0.47230 0.00017632 -20.659 -20.648 0.0084869 642.32 0.0015569 -20.738 -20.733 0.0080027 1.3514 2.0570 1535.7 -0.0067447 418.92 0.16355 0.099240 10.077 425.66 458.48 2.7538 0.99825 1.1892 197.43 0.97464 4.7707 0.0070377
-97.625 0.51325 0.00019029 -18.595 -18.583 0.020280 641.28 0.0015594 -18.680 -18.674 0.019762 1.3522 2.0594 1529.0 -0.0067251 412.07 0.16294 0.10725 9.3239 426.65 459.64 2.7448 1.0016 1.1927 197.92 0.96112 4.7979 0.0071103
-96.625 0.55714 0.00020515 -16.528 -16.516 0.032022 640.24 0.0015619 -16.620 -16.614 0.031467 1.3531 2.0618 1522.3 -0.0067053 405.39 0.16233 0.11579 8.6365 427.63 460.81 2.7360 1.0049 1.1962 198.40 0.94783 4.8251 0.0071832
-95.625 0.60416 0.00022094 -14.459 -14.445 0.043713 639.20 0.0015645 -14.557 -14.550 0.043120 1.3540 2.0642 1515.7 -0.0066853 398.88 0.16171 0.12488 8.0078 428.62 461.98 2.7274 1.0082 1.1997 198.88 0.93475 4.8524 0.0072564
-94.625 0.65446 0.00023770 -12.386 -12.371 0.055354 638.16 0.0015670 -12.491 -12.484 0.054721 1.3550 2.0667 1509.0 -0.0066650 392.53 0.16110 0.13455 7.4323 429.61 463.15 2.7189 1.0116 1.2032 199.36 0.92188 4.8796 0.0073299
-93.625 0.70822 0.00025549 -10.311 -10.295 0.066947 637.12 0.0015696 -10.424 -10.416 0.066271 1.3560 2.0691 1502.3 -0.0066444 386.34 0.16048 0.14482 6.9050 430.60 464.32 2.7107 1.0149 1.2068 199.83 0.90921 4.9068 0.0074036
-92.625 0.76564 0.00027434 -8.2328 -8.2152 0.078491 636.07 0.0015722 -8.3535 -8.3452 0.077771 1.3570 2.0716 1495.6 -0.0066236 380.31 0.15987 0.15573 6.4212 431.60 465.49 2.7025 1.0183 1.2104 200.30 0.89673 4.9340 0.0074776
-91.625 0.82689 0.00029431 -6.1517 -6.1327 0.089987 635.02 0.0015747 -6.2808 -6.2719 0.089220 1.3580 2.0742 1488.9 -0.0066025 374.41 0.15925 0.16731 5.9769 432.59 466.67 2.6946 1.0217 1.2140 200.77 0.88445 4.9611 0.0075518
-90.625 0.89218 0.00031543 -4.0675 -4.0470 0.10144 633.98 0.0015773 -4.2056 -4.1959 0.10062 1.3591 2.0767 1482.2 -0.0065811 368.66 0.15864 0.17958 5.5685 433.59 467.84 2.6868 1.0251 1.2177 201.24 0.87236 4.9883 0.0076263
-89.625 0.96172 0.00033776 -1.9804 -1.9583 0.11284 632.93 0.0015800 -2.1279 -2.1174 0.11197 1.3602 2.0793 1475.5 -0.0065595 363.05 0.15802 0.19258 5.1928 434.59 469.02 2.6791 1.0285 1.2213 201.70 0.86045 5.0154 0.0077011
-88.625 1.0357 0.00036135 0.10990 0.13370 0.12420 631.88 0.0015826 -0.047516 -0.036215 0.12328 1.3613 2.0819 1468.8 -0.0065375 357.56 0.15740 0.20633 4.8466 435.59 470.20 2.6717 1.0320 1.2250 202.15 0.84873 5.0425 0.0077761
-87.625 1.1144 0.00038624 2.2033 2.2289 0.13551 630.83 0.0015852 2.0355 2.0476 0.13454 1.3625 2.0846 1462.1 -0.0065153 352.21 0.15679 0.22087 4.5276 436.60 471.39 2.6643 1.0354 1.2288 202.61 0.83718 5.0696 0.0078514
-86.625 1.1979 0.00041249 4.2999 4.3274 0.14678 629.77 0.0015879 4.1211 4.1342 0.14575 1.3637 2.0873 1455.4 -0.0064928 346.98 0.15617 0.23623 4.2331 437.61 472.57 2.6571 1.0389 1.2325 203.06 0.82580 5.0967 0.0079270
-85.625 1.2866 0.00044015 6.3997 6.4292 0.15801 628.72 0.0015905 6.2094 6.2235 0.15691 1.3649 2.0900 1448.8 -0.0064701 341.87 0.15555 0.25245 3.9612 438.61 473.75 2.6501 1.0424 1.2363 203.50 0.81460 5.1237 0.0080028
-84.625 1.3806 0.00046927 8.5028 8.5345 0.16920 627.66 0.0015932 8.3004 8.3155 0.16803 1.3661 2.0927 1442.1 -0.0064470 336.87 0.15494 0.26956 3.7097 439.63 474.94 2.6432 1.0460 1.2402 203.95 0.80356 5.1508 0.0080789
-83.625 1.4803 0.00049991 10.609 10.643 0.18034 626.60 0.0015959 10.394 10.410 0.17911 1.3674 2.0955 1435.4 -0.0064236 331.99 0.15432 0.28760 3.4771 440.64 476.13 2.6364 1.0495 1.2440 204.38 0.79269 5.1778 0.0081553
-82.625 1.5858 0.00053212 12.719 12.755 0.19144 625.54 0.0015986 12.491 12.508 0.19014 1.3687 2.0983 1428.7 -0.0063999 327.22 0.15370 0.30659 3.2616 441.65 477.31 2.6298 1.0531 1.2479 204.82 0.78199 5.2048 0.0082319
-81.625 1.6975 0.00056596 14.832 14.871 0.20251 624.48 0.0016013 14.590 14.609 0.20113 1.3700 2.1012 1422.0 -0.0063759 322.55 0.15309 0.32659 3.0619 442.67 478.50 2.6233 1.0567 1.2519 205.25 0.77144 5.2318 0.0083088
-80.625 1.8155 0.00060148 16.949 16.991 0.21353 623.42 0.0016041 16.692 16.712 0.21208 1.3714 2.1041 1415.4 -0.0063516 317.99 0.15247 0.34763 2.8766 443.69 479.70 2.6169 1.0603 1.2558 205.67 0.76106 5.2587 0.0083860
-79.625 1.9402 0.00063875 19.069 19.114 0.22451 622.36 0.0016068 18.797 18.819 0.22299 1.3728 2.1070 1408.7 -0.0063270 313.52 0.15186 0.36974 2.7046 444.71 480.89 2.6106 1.0639 1.2598 206.10 0.75083 5.2857 0.0084634
-78.625 2.0718 0.00067781 21.193 21.241 0.23546 621.29 0.0016096 20.905 20.928 0.23385 1.3742 2.1099 1402.0 -0.0063021 309.15 0.15124 0.39296 2.5448 445.73 482.08 2.6045 1.0676 1.2639 206.51 0.74076 5.3126 0.0085411
-77.625 2.2107 0.00071874 23.320 23.371 0.24637 620.22 0.0016123 23.016 23.040 0.24468 1.3757 2.1129 1395.3 -0.0062768 304.88 0.15062 0.41735 2.3961 446.75 483.27 2.5985 1.0712 1.2680 206.93 0.73084 5.3395 0.0086190
-76.625 2.3571 0.00076158 25.452 25.506 0.25724 619.15 0.0016151 25.130 25.156 0.25546 1.3772 2.1159 1388.7 -0.0062512 300.69 0.15001 0.44292 2.2577 447.78 484.47 2.5926 1.0749 1.2721 207.34 0.72107 5.3664 0.0086972
-75.625 2.5113 0.00080641 27.586 27.644 0.26807 618.08 0.0016179 27.247 27.275 0.26620 1.3787 2.1190 1382.0 -0.0062253 296.59 0.14939 0.46974 2.1288 448.81 485.67 2.5869 1.0787 1.2762 207.74 0.71146 5.3933 0.0087757
-74.625 2.6736 0.00085328 29.725 29.787 0.27888 617.01 0.0016207 29.366 29.396 0.27691 1.3802 2.1221 1375.4 -0.0061990 292.58 0.14878 0.49783 2.0087 449.83 486.86 2.5812 1.0824 1.2804 208.14 0.70200 5.4201 0.0088544
-73.625 2.8444 0.00090226 31.868 31.933 0.28964 615.93 0.0016236 31.489 31.521 0.28758 1.3818 2.1252 1368.7 -0.0061724 288.65 0.14816 0.52725 1.8966 450.86 488.06 2.5757 1.0862 1.2847 208.54 0.69268 5.4469 0.0089334
-72.625 3.0240 0.00095341 34.014 34.084 0.30037 614.85 0.0016264 33.615 33.649 0.29821 1.3834 2.1284 1362.0 -0.0061454 284.81 0.14755 0.55804 1.7920 451.90 489.26 2.5703 1.0900 1.2889 208.93 0.68351 5.4737 0.0090126
-71.625 3.2127 0.0010068 36.165 36.238 0.31107 613.78 0.0016293 35.745 35.781 0.30880 1.3851 2.1316 1355.4 -0.0061181 281.03 0.14694 0.59024 1.6942 452.93 490.46 2.5650 1.0938 1.2932 209.32 0.67448 5.5005 0.0090922
-70.625 3.4108 0.0010625 38.319 38.397 0.32173 612.69 0.0016321 37.877 37.915 0.31935 1.3867 2.1349 1348.7 -0.0060904 277.34 0.14632 0.62390 1.6028 453.96 491.66 2.5598 1.0976 1.2976 209.70 0.66560 5.5273 0.0091720
-69.625 3.6187 0.0011205 40.478 40.561 0.33237 611.61 0.0016350 40.013 40.053 0.32987 1.3884 2.1382 1342.1 -0.0060624 273.72 0.14571 0.65906 1.5173 455.00 492.86 2.5547 1.1015 1.3020 210.08 0.65687 5.5540 0.0092520
-68.625 3.8367 0.0011810 42.640 42.728 0.34297 610.53 0.0016379 42.152 42.195 0.34036 1.3902 2.1415 1335.5 -0.0060339 270.17 0.14510 0.69577 1.4372 456.04 494.06 2.5497 1.1054 1.3064 210.45 0.64827 5.5807 0.0093324
-67.625 4.0652 0.0012439 44.807 44.901 0.35353 609.44 0.0016409 44.294 44.340 0.35080 1.3919 2.1449 1328.8 -0.0060051 266.69 0.14449 0.73408 1.3622 457.08 495.26 2.5448 1.1093 1.3109 210.82 0.63981 5.6074 0.0094130
-66.625 4.3046 0.0013094 46.978 47.077 0.36407 608.35 0.0016438 46.439 46.488 0.36122 1.3937 2.1483 1322.2 -0.0059760 263.28 0.14388 0.77404 1.2919 458.12 496.46 2.5400 1.1133 1.3154 211.18 0.63150 5.6341 0.0094939
-65.625 4.5551 0.0013776 49.154 49.258 0.37458 607.26 0.0016467 48.588 48.640 0.37160 1.3955 2.1518 1315.6 -0.0059464 259.93 0.14327 0.81570 1.2259 459.16 497.67 2.5353 1.1172 1.3200 211.54 0.62332 5.6608 0.0095750
-64.625 4.8173 0.0014484 51.333 51.444 0.38506 606.16 0.0016497 50.740 50.795 0.38195 1.3974 2.1553 1308.9 -0.0059164 256.65 0.14266 0.85910 1.1640 460.21 498.87 2.5307 1.1212 1.3246 211.89 0.61527 5.6874 0.0096564
-63.625 5.0915 0.0015221 53.518 53.635 0.39551 605.07 0.0016527 52.896 52.954 0.39226 1.3993 2.1588 1302.3 -0.0058861 253.42 0.14205 0.90429 1.1058 461.25 500.07 2.5262 1.1252 1.3293 212.24 0.60736 5.7140 0.0097382
-62.625 5.3781 0.0015985 55.706 55.830 0.40593 603.97 0.0016557 55.055 55.117 0.40254 1.4012 2.1624 1295.7 -0.0058553 250.26 0.14144 0.95134 1.0511 462.30 501.28 2.5218 1.1293 1.3340 212.58 0.59958 5.7406 0.0098201
-61.625 5.6774 0.0016779 57.900 58.030 0.41632 602.87 0.0016587 57.218 57.283 0.41279 1.4031 2.1660 1289.1 -0.0058241 247.16 0.14084 1.0003 0.99972 463.35 502.48 2.5175 1.1333 1.3387 212.92 0.59194 5.7672 0.0099024
-60.625 5.9899 0.0017602 60.097 60.235 0.42669 601.77 0.0016618 59.385 59.453 0.42301 1.4051 2.1697 1282.5 -0.0057925 244.12 0.14023 1.0512 0.95131 464.40 503.68 2.5133 1.1374 1.3435 213.26 0.58442 5.7938 0.0099850
-59.625 6.3160 0.0018456 62.300 62.445 0.43703 600.66 0.0016648 61.554 61.627 0.43320 1.4071 2.1734 1275.9 -0.0057605 241.13 0.13962 1.1041 0.90573 465.45 504.89 2.5091 1.1415 1.3483 213.58 0.57704 5.8203 0.010068
-58.625 6.6561 0.0019341 64.507 64.660 0.44734 599.55 0.0016679 63.728 63.805 0.44335 1.4091 2.1772 1269.3 -0.0057280 238.19 0.13902 1.1591 0.86277 466.50 506.09 2.5051 1.1457 1.3532 213.90 0.56978 5.8468 0.010151
-57.625 7.0107 0.0020257 66.719 66.880 0.45763 598.44 0.0016710 65.905 65.986 0.45348 1.4111 2.1810 1262.7 -0.0056951 235.31 0.13842 1.2161 0.82228 467.55 507.30 2.5011 1.1498 1.3581 214.22 0.56265 5.8733 0.010234
-56.625 7.3801 0.0021207 68.936 69.105 0.46789 597.33 0.0016741 68.086 68.172 0.46358 1.4132 2.1848 1256.1 -0.0056617 232.48 0.13781 1.2754 0.78408 468.60 508.50 2.4972 1.1540 1.3631 214.53 0.55564 5.8998 0.010318
-55.625 7.7648 0.0022190 71.157 71.336 0.47813 596.22 0.0016772 70.271 70.361 0.47364 1.4153 2.1887 1249.5 -0.0056279 229.69 0.13721 1.3369 0.74802 469.66 509.71 2.4934 1.1582 1.3681 214.84 0.54875 5.9263 0.010402
-54.625 8.1652 0.0023206 73.384 73.572 0.48834 595.10 0.0016804 72.460 72.554 0.48368 1.4174 2.1927 1242.9 -0.0055937 226.96 0.13661 1.4006 0.71396 470.72 510.91 2.4897 1.1624 1.3731 215.14 0.54199 5.9527 0.010486
-53.625 8.5819 0.0024258 75.616 75.813 0.49853 593.98 0.0016836 74.652 74.752 0.49369 1.4196 2.1967 1236.3 -0.0055589 224.27 0.13601 1.4667 0.68178 471.77 512.11 2.4860 1.1667 1.3782 215.43 0.53535 5.9792 0.010571
-52.625 9.0151 0.0025345 77.852 78.060 0.50869 592.86 0.0016867 76.849 76.954 0.50368 1.4218 2.2007 1229.8 -0.0055237 221.63 0.13541 1.5353 0.65136 472.83 513.32 2.4824 1.1710 1.3834 215.72 0.52882 6.0056 0.010656
-51.625 9.4655 0.0026468 80.094 80.312 0.51884 591.73 0.0016900 79.049 79.159 0.51363 1.4240 2.2048 1223.2 -0.0054880 219.04 0.13482 1.6062 0.62258 473.89 514.52 2.4789 1.1752 1.3886 216.00 0.52241 6.0320 0.010741
-50.625 9.9335 0.0027628 82.341 82.569 0.52896 590.60 0.0016932 81.253 81.369 0.52356 1.4262 2.2089 1216.6 -0.0054519 216.48 0.13422 1.6797 0.59534 474.95 515.73 2.4755 1.1796 1.3938 216.28 0.51612 6.0584 0.010827
-49.625 10.419 0.0028826 84.593 84.833 0.53905 589.47 0.0016964 83.462 83.584 0.53347 1.4285 2.2131 1210.1 -0.0054152 213.98 0.13363 1.7558 0.56954 476.01 516.93 2.4722 1.1839 1.3991 216.55 0.50994 6.0848 0.010913
-48.625 10.924 0.0030063 86.851 87.102 0.54913 588.34 0.0016997 85.674 85.802 0.54334 1.4308 2.2173 1203.5 -0.0053780 211.51 0.13303 1.8345 0.54510 477.07 518.13 2.4689 1.1883 1.4044 216.82 0.50387 6.1112 0.010999
-47.625 11.448 0.0031339 89.114 89.377 0.55919 587.20 0.0017030 87.891 88.025 0.55319 1.4331 2.2216 1196.9 -0.0053403 209.08 0.13244 1.9159 0.52194 478.14 519.33 2.4657 1.1927 1.4098 217.08 0.49792 6.1375 0.011085
-46.625 11.991 0.0032654 91.382 91.657 0.56922 586.06 0.0017063 90.111 90.252 0.56302 1.4354 2.2259 1190.4 -0.0053020 206.69 0.13185 2.0001 0.49997 479.20 520.53 2.4625 1.1971 1.4153 217.33 0.49207 6.1639 0.011172
-45.625 12.554 0.0034011 93.656 93.944 0.57924 584.92 0.0017096 92.336 92.484 0.57282 1.4378 2.2303 1183.8 -0.0052633 204.34 0.13126 2.0872 0.47912 480.27 521.74 2.4594 1.2015 1.4207 217.58 0.48633 6.1902 0.011259
-44.625 13.137 0.0035408 95.935 96.237 0.58923 583.77 0.0017130 94.565 94.720 0.58260 1.4402 2.2347 1177.3 -0.0052240 202.03 0.13067 2.1771 0.45933 481.33 522.94 2.4564 1.2060 1.4263 217.82 0.48069 6.2165 0.011347
-43.625 13.741 0.0036848 98.220 98.535 0.59921 582.62 0.0017164 96.799 96.961 0.59235 1.4426 2.2392 1170.7 -0.0051841 199.75 0.13008 2.2700 0.44053 482.40 524.14 2.4535 1.2104 1.4319 218.05 0.47516 6.2429 0.011435
-42.625 14.367 0.0038331 100.51 100.84 0.60917 581.47 0.0017198 99.036 99.207 0.60208 1.4450 2.2437 1164.2 -0.0051437 197.51 0.12949 2.3659 0.42267 483.46 525.33 2.4506 1.2149 1.4375 218.28 0.46973 6.2692 0.011523
-41.625 15.015 0.0039858 102.81 103.15 0.61910 580.32 0.0017232 101.28 101.46 0.61179 1.4475 2.2483 1157.7 -0.0051027 195.30 0.12891 2.4649 0.40569 484.53 526.53 2.4478 1.2195 1.4432 218.50 0.46440 6.2955 0.011612
-40.625 15.686 0.0041429 105.11 105.47 0.62903 579.16 0.0017266 103.52 103.71 0.62147 1.4500 2.2529 1151.1 -0.0050611 193.13 0.12832 2.5671 0.38954 485.60 527.73 2.4450 1.2240 1.4489 218.72 0.45917 6.3218 0.011701
-39.625 16.380 0.0043046 107.42 107.79 0.63893 578.00 0.0017301 105.78 105.97 0.63113 1.4525 2.2576 1144.6 -0.0050189 190.99 0.12774 2.6725 0.37418 486.67 528.93 2.4423 1.2286 1.4547 218.93 0.45403 6.3481 0.011790
-38.625 17.097 0.0044708 109.73 110.12 0.64881 576.83 0.0017336 108.03 108.24 0.64077 1.4550 2.2623 1138.0 -0.0049761 188.88 0.12716 2.7813 0.35955 487.74 530.12 2.4397 1.2332 1.4606 219.13 0.44900 6.3744 0.011880
-37.625 17.838 0.0046418 112.05 112.46 0.65868 575.66 0.0017371 110.29 110.51 0.65039 1.4576 2.2671 1131.5 -0.0049327 186.81 0.12658 2.8934 0.34562 488.81 531.32 2.4371 1.2378 1.4665 219.33 0.44405 6.4007 0.011970
-36.625 18.604 0.0048174 114.37 114.80 0.66854 574.49 0.0017407 112.56 112.78 0.65999 1.4602 2.2719 1125.0 -0.0048887 184.76 0.12600 3.0089 0.33235 489.88 532.51 2.4346 1.2424 1.4724 219.52 0.43920 6.4270 0.012060
-35.625 19.395 0.0049980 116.71 117.15 0.67837 573.32 0.0017442 114.83 115.06 0.66956 1.4628 2.2768 1118.5 -0.0048440 182.75 0.12542 3.1280 0.31969 490.95 533.70 2.4321 1.2471 1.4784 219.70 0.43444 6.4533 0.012151
-34.625 20.212 0.0051834 119.04 119.51 0.68819 572.14 0.0017478 117.10 117.34 0.67912 1.4654 2.2818 1111.9 -0.0047987 180.76 0.12485 3.2506 0.30763 492.02 534.89 2.4297 1.2517 1.4845 219.88 0.42977 6.4797 0.012243
-33.625 21.056 0.0053738 121.39 121.87 0.69800 570.96 0.0017514 119.38 119.63 0.68865 1.4681 2.2868 1105.4 -0.0047527 178.80 0.12427 3.3770 0.29612 493.09 536.08 2.4273 1.2564 1.4906 220.05 0.42519 6.5060 0.012334
-32.625 21.926 0.0055693 123.74 124.24 0.70779 569.77 0.0017551 121.66 121.93 0.69817 1.4708 2.2918 1098.9 -0.0047061 176.87 0.12370 3.5071 0.28514 494.17 537.27 2.4250 1.2611 1.4968 220.21 0.42070 6.5323 0.012426
-31.625 22.823 0.0057699 126.09 126.62 0.71756 568.58 0.0017588 123.95 124.23 0.70767 1.4735 2.2970 1092.3 -0.0046587 174.97 0.12313 3.6410 0.27465 495.24 538.46 2.4227 1.2659 1.5031 220.36 0.41629 6.5587 0.012519
-30.625 23.749 0.0059757 128.45 129.00 0.72732 567.39 0.0017625 126.24 126.53 0.71714 1.4762 2.3021 1085.8 -0.0046107 173.09 0.12256 3.7787 0.26464 496.31 539.64 2.4205 1.2706 1.5094 220.51 0.41196 6.5850 0.012612
-29.625 24.703 0.0061868 130.82 131.39 0.73707 566.19 0.0017662 128.54 128.84 0.72660 1.4790 2.3074 1079.3 -0.0045619 171.24 0.12200 3.9205 0.25507 497.38 540.83 2.4184 1.2754 1.5157 220.65 0.40772 6.6114 0.012706
-28.625 25.687 0.0064033 133.20 133.79 0.74680 564.99 0.0017699 130.84 131.16 0.73604 1.4818 2.3126 1072.8 -0.0045124 169.42 0.12143 4.0663 0.24592 498.46 542.01 2.4162 1.2802 1.5222 220.79 0.40356 6.6378 0.012800
-27.625 26.700 0.0066253 135.58 136.19 0.75652 563.78 0.0017737 133.15 133.48 0.74547 1.4846 2.3180 1066.2 -0.0044621 167.62 0.12087 4.2163 0.23717 499.53 543.19 2.4142 1.2850 1.5286 220.91 0.39947 6.6642 0.012894
-26.625 27.743 0.0068528 137.97 138.61 0.76623 562.57 0.0017775 135.47 135.81 0.75487 1.4874 2.3234 1059.7 -0.0044111 165.84 0.12031 4.3705 0.22881 500.60 544.37 2.4122 1.2899 1.5352 221.03 0.39547 6.6906 0.012989
-25.625 28.817 0.0070858 140.36 141.02 0.77592 561.36 0.0017814 137.78 138.14 0.76426 1.4902 2.3289 1053.2 -0.0043593 164.09 0.11975 4.5290 0.22080 501.68 545.55 2.4102 1.2947 1.5418 221.14 0.39154 6.7171 0.013084
-24.625 29.923 0.0073246 142.76 143.45 0.78560 560.14 0.0017853 140.11 140.48 0.77363 1.4931 2.3344 1046.7 -0.0043067 162.36 0.11919 4.6918 0.21314 502.75 546.72 2.4083 1.2996 1.5485 221.25 0.38768 6.7436 0.013180
-23.625 31.061 0.0075692 145.17 145.89 0.79527 558.92 0.0017892 142.44 142.82 0.78298 1.4960 2.3400 1040.1 -0.0042533 160.65 0.11863 4.8592 0.20580 503.82 547.90 2.4064 1.3045 1.5552 221.35 0.38391 6.7701 0.013277
-22.625 32.232 0.0078195 147.59 148.33 0.80493 557.69 0.0017931 144.77 145.17 0.79232 1.4990 2.3457 1033.6 -0.0041990 158.97 0.11807 5.0311 0.19877 504.90 549.07 2.4045 1.3095 1.5621 221.44 0.38020 6.7967 0.013374
-21.625 33.435 0.0080758 150.01 150.78 0.81457 556.46 0.0017971 147.11 147.52 0.80164 1.5019 2.3514 1027.1 -0.0041439 157.30 0.11752 5.2076 0.19203 505.97 550.24 2.4027 1.3144 1.5690 221.52 0.37656 6.8232 0.013471
-20.625 34.673 0.0083381 152.44 153.23 0.82421 555.23 0.0018011 149.45 149.88 0.81095 1.5049 2.3572 1020.6 -0.0040879 155.66 0.11697 5.3889 0.18557 507.04 551.40 2.4010 1.3194 1.5759 221.59 0.37300 6.8499 0.013569
-19.625 35.946 0.0086065 154.87 155.70 0.83383 553.99 0.0018051 151.80 152.25 0.82024 1.5079 2.3630 1014.0 -0.0040311 154.04 0.11642 5.5750 0.17937 508.11 552.57 2.3992 1.3244 1.5829 221.66 0.36950 6.8765 0.013668
-18.625 37.253 0.0088810 157.31 158.17 0.84345 552.74 0.0018092 154.16 154.62 0.82952 1.5109 2.3689 1007.5 -0.0039733 152.44 0.11587 5.7660 0.17343 509.19 553.73 2.3976 1.3294 1.5901 221.72 0.36608 6.9032 0.013767
-17.625 38.596 0.0091618 159.76 160.65 0.85305 551.49 0.0018133 156.52 157.00 0.83878 1.5140 2.3749 1001.0 -0.0039145 150.86 0.11532 5.9621 0.16773 510.26 554.89 2.3959 1.3345 1.5972 221.77 0.36272 6.9300 0.013867
-16.625 39.976 0.0094488 162.22 163.14 0.86264 550.24 0.0018174 158.89 159.39 0.84803 1.5171 2.3810 994.44 -0.0038549 149.29 0.11478 6.1632 0.16225 511.33 556.05 2.3943 1.3395 1.6045 221.81 0.35942 6.9568 0.013968
-15.625 41.392 0.0097423 164.68 165.63 0.87222 548.98 0.0018216 161.26 161.78 0.85726 1.5202 2.3871 987.91 -0.0037942 147.75 0.11423 6.3696 0.15700 512.40 557.20 2.3927 1.3446 1.6119 221.85 0.35619 6.9836 0.014069
-14.625 42.846 0.010042 167.15 168.14 0.88180 547.71 0.0018258 163.64 164.18 0.86649 1.5233 2.3933 981.37 -0.0037325 146.22 0.11369 6.5812 0.15195 513.47 558.36 2.3912 1.3497 1.6193 221.87 0.35302 7.0105 0.014170
-13.625 44.338 0.010349 169.63 170.65 0.89136 546.44 0.0018300 166.02 166.58 0.87569 1.5264 2.3996 974.83 -0.0036698 144.72 0.11315 6.7983 0.14710 514.54 559.51 2.3897 1.3549 1.6268 221.89 0.34992 7.0375 0.014273
-12.625 45.870 0.010662 172.11 173.17 0.90092 545.17 0.0018343 168.41 168.99 0.88489 1.5296 2.4059 968.29 -0.0036061 143.23 0.11261 7.0208 0.14243 515.61 560.65 2.3883 1.3600 1.6344 221.90 0.34688 7.0646 0.014376
-11.625 47.440 0.010982 174.60 175.69 0.91046 543.89 0.0018386 170.81 171.41 0.89407 1.5328 2.4124 961.75 -0.0035413 141.76 0.11208 7.2490 0.13795 516.68 561.80 2.3868 1.3652 1.6421 221.91 0.34389 7.0917 0.014479
-10.625 49.051 0.011308 177.10 178.23 0.92000 542.60 0.0018430 173.21 173.83 0.90324 1.5360 2.4189 955.20 -0.0034753 140.30 0.11154 7.4829 0.13364 517.75 562.94 2.3854 1.3704 1.6498 221.90 0.34097 7.1188 0.014584
-9.6250 50.703 0.011642 179.61 180.78 0.92953 541.31 0.0018474 175.61 176.26 0.91240 1.5393 2.4255 948.65 -0.0034082 138.86 0.11101 7.7226 0.12949 518.81 564.08 2.3841 1.3757 1.6577 221.88 0.33810 7.1461 0.014689
-8.6250 52.396 0.011982 182.12 183.33 0.93905 540.02 0.0018518 178.03 178.70 0.92154 1.5426 2.4321 942.10 -0.0033400 137.44 0.11048 7.9683 0.12550 519.88 565.21 2.3827 1.3809 1.6657 221.86 0.33529 7.1734 0.014795
-7.6250 54.131 0.012330 184.65 185.89 0.94857 538.72 0.0018563 180.45 181.14 0.93068 1.5459 2.4389 935.55 -0.0032705 136.03 0.10995 8.2200 0.12165 520.94 566.35 2.3814 1.3862 1.6737 221.83 0.33254 7.2008 0.014902
-6.6250 55.909 0.012684 187.17 188.46 0.95807 537.41 0.0018608 182.87 183.59 0.93980 1.5492 2.4457 928.99 -0.0031998 134.64 0.10942 8.4779 0.11795 522.01 567.48 2.3801 1.3915 1.6819 221.79 0.32984 7.2284 0.015009
-5.6250 57.730 0.013046 189.71 191.04 0.96757 536.10 0.0018653 185.30 186.05 0.94892 1.5525 2.4526 922.43 -0.0031279 133.27 0.10889 8.7420 0.11439 523.07 568.60 2.3789 1.3969 1.6902 221.74 0.32720 7.2560 0.015117
-4.6250 59.595 0.013415 192.26 193.63 0.97707 534.78 0.0018699 187.74 188.51 0.95802 1.5559 2.4596 915.87 -0.0030546 131.91 0.10837 9.0126 0.11096 524.13 569.72 2.3777 1.4022 1.6985 221.68 0.32461 7.2837 0.015226
-3.6250 61.505 0.013791 194.81 196.22 0.98655 533.45 0.0018746 190.19 190.98 0.96711 1.5593 2.4667 909.30 -0.0029800 130.56 0.10785 9.2896 0.10765 525.19 570.84 2.3765 1.4076 1.7070 221.62 0.32207 7.3115 0.015336
-2.6250 63.461 0.014175 197.37 198.83 0.99603 532.12 0.0018793 192.64 193.46 0.97620 1.5627 2.4739 902.73 -0.0029041 129.23 0.10733 9.5733 0.10446 526.25 571.96 2.3753 1.4131 1.7156 221.54 0.31958 7.3394 0.015447
-1.6250 65.462 0.014566 199.93 201.44 1.0055 530.78 0.0018840 195.10 195.95 0.98527 1.5662 2.4811 896.16 -0.0028267 127.91 0.10681 9.8638 0.10138 527.31 573.07 2.3742 1.4185 1.7243 221.45 0.31715 7.3674 0.015559
-0.62500 67.510 0.014965 202.51 204.06 1.0150 529.44 0.0018888 197.56 198.44 0.99434 1.5696 2.4885 889.58 -0.0027478 126.61 0.10629 10.161 0.098414 528.37 574.18 2.3731 1.4240 1.7331 221.36 0.31476 7.3956 0.015671
0.37500 69.606 0.015372 205.09 206.69 1.0244 528.09 0.0018936 200.03 200.94 1.0034 1.5731 2.4960 883.00 -0.0026675 125.32 0.10578 10.466 0.095552 529.42 575.28 2.3720 1.4295 1.7421 221.26 0.31242 7.4239 0.015785
1.3750 71.749 0.015786 207.68 209.33 1.0339 526.73 0.0018985 202.51 203.45 1.0124 1.5767 2.5035 876.42 -0.0025856 124.04 0.10527 10.777 0.092790 530.48 576.38 2.3709 1.4350 1.7512 221.14 0.31013 7.4523 0.015899
2.3750 73.941 0.016208 210.28 211.98 1.0433 525.37 0.0019034 204.99 205.96 1.0215 1.5802 2.5112 869.83 -0.0025022 122.78 0.10476 11.096 0.090123 531.53 577.47 2.3699 1.4406 1.7604 221.02 0.30789 7.4808 0.016015
3.3750 76.183 0.016638 212.89 214.64 1.0528 523.99 0.0019084 207.48 208.48 1.0305 1.5838 2.5190 863.24 -0.0024171 121.53 0.10425 11.422 0.087549 532.58 578.56 2.3688 1.4462 1.7697 220.89 0.30569 7.5095 0.016131
4.3750 78.475 0.017076 215.51 217.31 1.0622 522.62 0.0019134 209.98 211.01 1.0395 1.5874 2.5268 856.64 -0.0023303 120.29 0.10374 11.756 0.085062 533.63 579.65 2.3678 1.4518 1.7792 220.75 0.30354 7.5384 0.016249
5.3750 80.817 0.017522 218.13 219.99 1.0717 521.23 0.0019185 212.48 213.55 1.0486 1.5910 2.5348 850.04 -0.0022417 119.06 0.10324 12.098 0.082660 534.67 580.73 2.3669 1.4575 1.7888 220.60 0.30144 7.5674 0.016368
6.3750 83.211 0.017977 220.76 222.67 1.0811 519.84 0.0019237 215.00 216.10 1.0576 1.5946 2.5429 843.43 -0.0021514 117.85 0.10273 12.447 0.080340 535.72 581.81 2.3659 1.4632 1.7986 220.44 0.29938 7.5966 0.016487
7.3750 85.657 0.018439 223.40 225.37 1.0905 518.44 0.0019289 217.51 218.65 1.0666 1.5983 2.5511 836.82 -0.0020593 116.65 0.10223 12.805 0.078096 536.76 582.88 2.3650 1.4689 1.8085 220.27 0.29736 7.6259 0.016608
8.3750 88.156 0.018910 226.05 228.07 1.0999 517.03 0.0019341 220.04 221.22 1.0756 1.6020 2.5595 830.20 -0.0019652 115.46 0.10173 13.170 0.075928 537.80 583.95 2.3640 1.4746 1.8186 220.08 0.29538 7.6555 0.016730
9.3750 90.708 0.019389 228.71 230.79 1.1094 515.62 0.0019394 222.57 223.79 1.0846 1.6057 2.5679 823.58 -0.0018691 114.28 0.10124 13.545 0.073830 538.84 585.01 2.3631 1.4804 1.8288 219.89 0.29345 7.6852 0.016853
10.375 93.315 0.019877 231.37 233.52 1.1188 514.19 0.0019448 225.11 226.37 1.0936 1.6095 2.5765 816.96 -0.0017710 113.11 0.10074 13.927 0.071802 539.87 586.07 2.3622 1.4863 1.8392 219.69 0.29156 7.7151 0.016978
11.375 95.977 0.020373 234.04 236.25 1.1282 512.76 0.0019502 227.66 228.95 1.1025 1.6132 2.5852 810.32 -0.0016708 111.95 0.10025 14.319 0.069840 540.90 587.12 2.3614 1.4921 1.8498 219.48 0.28971 7.7452 0.017103
12.375 98.694 0.020878 236.73 238.99 1.1376 511.32 0.0019557 230.22 231.55 1.1115 1.6170 2.5940 803.68 -0.0015685 110.80 0.099756 14.719 0.067941 541.93 588.17 2.3605 1.4980 1.8605 219.26 0.28790 7.7756 0.017230
13.375 101.47 0.021391 239.42 241.75 1.1470 509.87 0.0019613 232.78 234.15 1.1205 1.6208 2.6030 797.04 -0.0014639 109.67 0.099267 15.128 0.066103 542.96 589.21 2.3597 1.5040 1.8715 219.03 0.28612 7.8061 0.017359
14.375 104.30 0.021914 242.12 244.51 1.1564 508.42 0.0019669 235.35 236.77 1.1295 1.6247 2.6121 790.39 -0.0013569 108.54 0.098779 15.547 0.064323 543.99 590.24 2.3588 1.5099 1.8826 218.79 0.28439 7.8369 0.017488
15.375 107.19 0.022445 244.82 247.29 1.1658 506.95 0.0019726 237.93 239.39 1.1384 1.6286 2.6214 783.73 -0.0012476 107.43 0.098294 15.974 0.062600 545.01 591.27 2.3580 1.5159 1.8940 218.53 0.28270 7.8680 0.017619
16.375 110.13 0.022985 247.54 250.07 1.1752 505.48 0.0019783 240.52 242.02 1.1474 1.6324 2.6308 777.07 -0.0011357 106.32 0.097810 16.412 0.060931 546.03 592.29 2.3572 1.5220 1.9055 218.27 0.28104 7.8993 0.017752
17.375 113.14 0.023534 250.27 252.87 1.1846 504.00 0.0019841 243.11 244.66 1.1564 1.6364 2.6403 770.40 -0.0010213 105.22 0.097328 16.859 0.059314 547.04 593.31 2.3564 1.5281 1.9172 217.99 0.27942 7.9308 0.017886
18.375 116.21 0.024092 253.00 255.67 1.1940 502.50 0.0019900 245.72 247.31 1.1653 1.6403 2.6501 763.72 -0.00090422 104.14 0.096848 17.317 0.057747 548.05 594.32 2.3557 1.5342 1.9292 217.71 0.27783 7.9626 0.018021
19.375 119.33 0.024659 255.74 258.48 1.2034 501.00 0.0019960 248.33 249.97 1.1743 1.6443 2.6599 757.04 -0.00078435 103.06 0.096371 17.785 0.056228 549.06 595.33 2.3549 1.5404 1.9414 217.41 0.27628 7.9947 0.018159
20.375 122.52 0.025236 258.49 261.31 1.2128 499.49 0.0020020 250.95 252.64 1.1832 1.6483 2.6700 750.35 -0.00066161 101.99 0.095895 18.263 0.054756 550.07 596.32 2.3541 1.5466 1.9538 217.10 0.27477 8.0272 0.018297
21.375 125.77 0.025822 261.26 264.15 1.2222 497.97 0.0020082 253.57 255.32 1.1922 1.6523 2.6802 743.64 -0.00053589 100.93 0.095420 18.752 0.053328 551.07 597.31 2.3534 1.5528 1.9665 216.78 0.27329 8.0599 0.018438
22.375 129.08 0.026417 264.03 266.99 1.2316 496.43 0.0020144 256.21 258.00 1.2012 1.6563 2.6906 736.94 -0.00040708 99.877 0.094948 19.252 0.051943 552.07 598.30 2.3526 1.5591 1.9795 216.45 0.27184 8.0929 0.018580
23.375 132.46 0.027022 266.80 269.85 1.2410 494.89 0.0020206 258.86 260.70 1.2101 1.6604 2.7012 730.22 -0.00027505 98.834 0.094478 19.763 0.050600 553.06 599.27 2.3519 1.5655 1.9927 216.11 0.27043 8.1263 0.018724
24.375 135.90 0.027636 269.59 272.72 1.2503 493.34 0.0020270 261.51 263.41 1.2191 1.6645 2.7120 723.49 -0.00013968 97.800 0.094009 20.285 0.049297 554.05 600.24 2.3512 1.5718 2.0061 215.75 0.26906 8.1600 0.018870
25.375 139.41 0.028259 272.39 275.60 1.2597 491.77 0.0020335 264.17 266.13 1.2280 1.6686 2.7230 716.76 -8.3775e-07 96.773 0.093543 20.820 0.048032 555.03 601.20 2.3504 1.5783 2.0199 215.39 0.26771 8.1941 0.019017
26.375 142.98 0.028893 275.20 278.48 1.2691 490.20 0.0020400 266.84 268.85 1.2370 1.6728 2.7342 710.01 0.00014161 95.755 0.093078 21.366 0.046804 556.01 602.15 2.3497 1.5847 2.0340 215.01 0.26640 8.2286 0.019167
27.375 146.62 0.029536 278.01 281.38 1.2785 488.61 0.0020466 269.52 271.59 1.2459 1.6770 2.7456 703.26 0.00028782 94.745 0.092615 21.924 0.045612 556.99 603.10 2.3490 1.5913 2.0484 214.62 0.26512 8.2634 0.019319
28.375 150.33 0.030189 280.84 284.30 1.2879 487.01 0.0020533 272.21 274.34 1.2549 1.6812 2.7573 696.49 0.00043793 93.742 0.092154 22.495 0.044454 557.96 604.03 2.3483 1.5978 2.0631 214.21 0.26387 8.2987 0.019472
29.375 154.10 0.030851 283.68 287.22 1.2973 485.40 0.0020601 274.91 277.10 1.2638 1.6854 2.7691 689.72 0.00059212 92.747 0.091695 23.079 0.043329 558.92 604.96 2.3476 1.6044 2.0781 213.80 0.26265 8.3344 0.019628
30.375 157.94 0.031523 286.52 290.15 1.3067 483.78 0.0020671 277.62 279.87 1.2728 1.6897 2.7813 682.93 0.00075055 91.760 0.091238 23.676 0.042237 559.88 605.88 2.3469 1.6111 2.0935 213.37 0.26147 8.3705 0.019786
31.375 161.86 0.032206 289.38 293.10 1.3161 482.15 0.0020741 280.34 282.66 1.2818 1.6939 2.7936 676.13 0.00091340 90.779 0.090782 24.287 0.041175 560.84 606.79 2.3462 1.6178 2.1092 212.93 0.26031 8.4071 0.019947
32.375 165.84 0.032898 292.24 296.05 1.3255 480.50 0.0020812 283.07 285.45 1.2908 1.6983 2.8063 669.32 0.0010809 89.806 0.090328 24.911 0.040143 561.79 607.69 2.3455 1.6246 2.1254 212.48 0.25919 8.4442 0.020110
33.375 169.90 0.033600 295.11 299.02 1.3348 478.83 0.0020884 285.81 288.26 1.2997 1.7026 2.8192 662.50 0.0012532 88.840 0.089876 25.549 0.039140 562.73 608.58 2.3448 1.6314 2.1419 212.01 0.25809 8.4818 0.020275
34.375 174.02 0.034312 298.00 302.00 1.3442 477.16 0.0020957 288.56 291.07 1.3087 1.7070 2.8324 655.67 0.0014305 87.880 0.089426 26.202 0.038164 563.67 609.46 2.3440 1.6383 2.1589 211.53 0.25702 8.5199 0.020443
35.375 178.22 0.035034 300.89 304.99 1.3536 475.47 0.0021032 291.32 293.90 1.3177 1.7114 2.8459 648.82 0.0016131 86.927 0.088977 26.870 0.037216 564.60 610.33 2.3433 1.6452 2.1763 211.04 0.25599 8.5586 0.020613
36.375 182.50 0.035767 303.80 307.99 1.3630 473.77 0.0021107 294.09 296.74 1.3267 1.7158 2.8597 641.96 0.0018012 85.980 0.088531 27.553 0.036293 565.52 611.19 2.3426 1.6522 2.1942 210.53 0.25498 8.5978 0.020786
37.375 186.84 0.036509 306.71 311.00 1.3724 472.05 0.0021184 296.87 299.60 1.3357 1.7203 2.8739 635.08 0.0019950 85.040 0.088085 28.252 0.035395 566.44 612.04 2.3419 1.6592 2.2125 210.01 0.25400 8.6376 0.020962
38.375 191.27 0.037261 309.63 314.03 1.3818 470.31 0.0021262 299.66 302.46 1.3447 1.7248 2.8884 628.19 0.0021949 84.105 0.087642 28.967 0.034522 567.35 612.88 2.3411 1.6663 2.2314 209.47 0.25305 8.6780 0.021141
39.375 195.77 0.038023 312.57 317.07 1.3912 468.56 0.0021342 302.46 305.34 1.3537 1.7293 2.9033 621.29 0.0024011 83.177 0.087200 29.699 0.033671 568.26 613.70 2.3404 1.6734 2.2508 208.92 0.25213 8.7190 0.021323
40.375 200.34 0.038796 315.51 320.12 1.4006 466.80 0.0021423 305.27 308.23 1.3627 1.7339 2.9185 614.37 0.0026140 82.254 0.086760 30.447 0.032844 569.15 614.52 2.3396 1.6806 2.2708 208.36 0.25123 8.7608 0.021508
41.375 205.00 0.039578 318.47 323.18 1.4100 465.01 0.0021505 308.10 311.14 1.3718 1.7385 2.9342 607.43 0.0028338 81.338 0.086322 31.214 0.032037 570.04 615.32 2.3389 1.6879 2.2913 207.78 0.25037 8.8032 0.021696
42.375 209.73 0.040370 321.43 326.25 1.4195 463.21 0.0021588 310.94 314.06 1.3808 1.7432 2.9502 600.47 0.0030609 80.426 0.085885 31.998 0.031252 570.92 616.11 2.3381 1.6952 2.3125 207.19 0.24953 8.8463 0.021888
43.375 214.54 0.041172 324.41 329.34 1.4289 461.40 0.0021673 313.79 316.99 1.3899 1.7478 2.9667 593.50 0.0032957 79.520 0.085449 32.800 0.030488 571.79 616.88 2.3373 1.7027 2.3344 206.58 0.24871 8.8902 0.022084
44.375 219.43 0.041984 327.40 332.44 1.4383 459.56 0.0021760 316.65 319.94 1.3989 1.7525 2.9837 586.51 0.0035386 78.619 0.085015 33.622 0.029742 572.65 617.65 2.3365 1.7101 2.3569 205.96 0.24793 8.9349 0.022283
45.375 224.41 0.042805 330.39 335.55 1.4477 457.71 0.0021848 319.52 322.90 1.4080 1.7573 3.0012 579.50 0.0037900 77.723 0.084583 34.463 0.029016 573.50 618.40 2.3357 1.7177 2.3802 205.32 0.24717 8.9805 0.022485
46.375 229.46 0.043637 333.40 338.68 1.4572 455.83 0.0021938 322.41 325.88 1.4171 1.7621 3.0192 572.46 0.0040504 76.832 0.084152 35.325 0.028308 574.34 619.13 2.3349 1.7253 2.4042 204.67 0.24644 9.0269 0.022692
47.375 234.60 0.044477 336.42 341.81 1.4666 453.94 0.0022029 325.31 328.87 1.4262 1.7669 3.0377 565.41 0.0043202 75.946 0.083723 36.208 0.027618 575.17 619.85 2.3340 1.7329 2.4291 204.00 0.24573 9.0742 0.022903
48.375 239.83 0.045327 339.45 344.96 1.4760 452.03 0.0022123 328.22 331.88 1.4353 1.7718 3.0569 558.34 0.0046000 75.064 0.083295 37.112 0.026945 576.00 620.55 2.3332 1.7407 2.4548 203.31 0.24505 9.1224 0.023119
49.375 245.13 0.046186 342.49 348.13 1.4855 450.09 0.0022218 331.15 334.90 1.4445 1.7767 3.0766 551.24 0.0048904 74.186 0.082868 38.039 0.026289 576.81 621.24 2.3323 1.7485 2.4815 202.61 0.24440 9.1716 0.023339
50.375 250.53 0.047053 345.55 351.30 1.4949 448.13 0.0022315 334.09 337.94 1.4536 1.7817 3.0970 544.13 0.0051920 73.313 0.082442 38.989 0.025648 577.61 621.91 2.3314 1.7564 2.5092 201.89 0.24377 9.2219 0.023564
51.375 256.01 0.047930 348.61 354.50 1.5044 446.15 0.0022414 337.04 341.00 1.4628 1.7867 3.1181 536.98 0.0055054 72.443 0.082018 39.962 0.025024 578.39 622.56 2.3304 1.7644 2.5379 201.16 0.24317 9.2733 0.023794
52.375 261.57 0.048814 351.69 357.70 1.5139 444.15 0.0022515 340.01 344.07 1.4720 1.7918 3.1400 529.82 0.0058313 71.577 0.081595 40.961 0.024414 579.17 623.20 2.3295 1.7724 2.5677 200.41 0.24260 9.3258 0.024029
53.375 267.23 0.049707 354.78 360.92 1.5233 442.12 0.0022618 343.00 347.17 1.4812 1.7969 3.1627 522.62 0.0061705 70.715 0.081174 41.985 0.023818 579.93 623.81 2.3285 1.7805 2.5987 199.63 0.24205 9.3795 0.024270
54.375 272.97 0.050606 357.88 364.15 1.5328 440.06 0.0022724 346.00 350.28 1.4904 1.8021 3.1862 515.40 0.0065239 69.856 0.080753 43.036 0.023237 580.68 624.41 2.3274 1.7887 2.6310 198.85 0.24154 9.4344 0.024516
55.375 278.81 0.051513 360.99 367.39 1.5423 437.98 0.0022832 349.02 353.40 1.4997 1.8073 3.2106 508.15 0.0068923 69.001 0.080334 44.114 0.022669 581.41 624.99 2.3264 1.7969 2.6646 198.04 0.24105 9.4907 0.024769
56.375 284.74 0.052427 364.11 370.65 1.5518 435.87 0.0022943 352.05 356.55 1.5090 1.8126 3.2360 500.87 0.0072767 68.148 0.079915 45.221 0.022114 582.13 625.54 2.3253 1.8052 2.6998 197.22 0.24059 9.5484 0.025028
57.375 290.76 0.053346 367.25 373.93 1.5613 433.73 0.0023056 355.10 359.72 1.5183 1.8179 3.2624 493.56 0.0076782 67.299 0.079498 46.358 0.021571 582.83 626.07 2.3241 1.8136 2.7365 196.37 0.24016 9.6075 0.025294
58.375 296.87 0.054271 370.40 377.22 1.5708 431.56 0.0023172 358.17 362.91 1.5276 1.8233 3.2900 486.22 0.0080980 66.451 0.079082 47.525 0.021041 583.52 626.58 2.3230 1.8220 2.7749 195.51 0.23976 9.6682 0.025568
59.375 303.08 0.055200 373.56 380.52 1.5803 429.36 0.0023290 361.25 366.12 1.5370 1.8288 3.3188 478.84 0.0085373 65.606 0.078666 48.726 0.020523 584.18 627.07 2.3218 1.8305 2.8152 194.63 0.23939 9.7305 0.025849
60.375 309.38 0.056132 376.73 383.84 1.5899 427.13 0.0023412 364.36 369.35 1.5464 1.8343 3.3489 471.43 0.0089976 64.763 0.078251 49.960 0.020016 584.83 627.53 2.3205 1.8391 2.8576 193.73 0.23905 9.7945 0.026138
61.375 315.78 0.057067 379.92 387.18 1.5994 424.87 0.0023537 367.48 372.60 1.5558 1.8400 3.3805 463.99 0.0094803 63.922 0.077838 51.229 0.019520 585.46 627.96 2.3192 1.8479 2.9022 192.82 0.23873 9.8603 0.026436
62.375 322.28 0.058003 383.12 390.53 1.6089 422.56 0.0023665 370.62 375.88 1.5653 1.8457 3.4136 456.50 0.0099871 63.083 0.077425 52.535 0.019035 586.07 628.37 2.3178 1.8567 2.9492 191.88 0.23845 9.9281 0.026744
63.375 328.88 0.058939 386.33 393.89 1.6185 420.22 0.0023797 373.79 379.18 1.5748 1.8514 3.4483 448.97 0.010520 62.244 0.077012 53.879 0.018560 586.66 628.74 2.3164 1.8656 2.9989 190.92 0.23819 9.9979 0.027061
64.375 335.58 0.059873 389.56 397.27 1.6281 417.85 0.0023932 376.97 382.51 1.5844 1.8573 3.4850 441.40 0.011081 61.407 0.076600 55.265 0.018095 587.22 629.09 2.3149 1.8747 3.0517 189.95 0.23796 10.070 0.027389
65.375 342.38 0.060804 392.80 400.67 1.6377 415.42 0.0024072 380.18 385.86 1.5939 1.8633 3.5236 433.79 0.011672 60.570 0.076189 56.692 0.017639 587.76 629.40 2.3133 1.8839 3.1077 188.95 0.23775 10.144 0.027729
66.375 349.28 0.061728 396.06 404.09 1.6473 412.96 0.0024215 383.41 389.25 1.6036 1.8693 3.5645 426.12 0.012296 59.733 0.075779 58.165 0.017193 588.28 629.68 2.3117 1.8933 3.1674 187.93 0.23757 10.221 0.028080
67.375 356.28 0.062645 399.33 407.52 1.6569 410.45 0.0024363 386.67 392.65 1.6133 1.8755 3.6078 418.41 0.012956 58.897 0.075368 59.684 0.016755 588.76 629.92 2.3100 1.9030 3.2311 186.89 0.23740 10.300 0.028446
68.375 363.40 0.063550 402.62 410.97 1.6665 407.89 0.0024516 389.95 396.09 1.6230 1.8818 3.6537 410.64 0.013655 58.059 0.074959 61.253 0.016326 589.22 630.13 2.3082 1.9129 3.2994 185.83 0.23724 10.382 0.028825
69.375 370.61 0.064441 405.92 414.43 1.6762 405.28 0.0024674 393.26 399.57 1.6328 1.8882 3.7027 402.81 0.014396 57.221 0.074549 62.875 0.015905 589.65 630.29 2.3064 1.9231 3.3727 184.74 0.23710 10.467 0.029221
70.375 377.94 0.065314 409.23 417.92 1.6859 402.62 0.0024838 396.60 403.07 1.6426 1.8947 3.7550 394.92 0.015183 56.381 0.074141 64.552 0.015491 590.04 630.41 2.3044 1.9336 3.4518 183.63 0.23697 10.555 0.029633
71.375 385.37 0.066163 412.56 421.42 1.6955 399.89 0.0025007 399.96 406.61 1.6525 1.9014 3.8109 386.97 0.016021 55.540 0.073732 66.288 0.015086 590.40 630.49 2.3024 1.9444 3.5371 182.50 0.23684 10.647 0.030064
72.375 392.92 0.066985 415.91 424.94 1.7052 397.11 0.0025182 403.36 410.18 1.6625 1.9083 3.8711 378.95 0.016915 54.696 0.073324 68.087 0.014687 590.73 630.51 2.3002 1.9556 3.6297 181.34 0.23671 10.743 0.030515
73.375 400.57 0.067772 419.28 428.48 1.7150 394.26 0.0025364 406.79 413.80 1.6726 1.9153 3.9359 370.85 0.017871 53.848 0.072917 69.953 0.014295 591.01 630.49 2.2979 1.9673 3.7303 180.16 0.23658 10.842 0.030989
74.375 408.34 0.068516 422.66 432.05 1.7247 391.34 0.0025553 410.26 417.45 1.6827 1.9226 4.0060 362.67 0.018894 52.997 0.072510 71.890 0.013910 591.25 630.41 2.2955 1.9793 3.8401 178.95 0.23643 10.946 0.031488
75.375 416.23 0.069210 426.06 435.63 1.7345 388.34 0.0025751 413.76 421.15 1.6930 1.9301 4.0822 354.41 0.019993 52.142 0.072104 73.904 0.013531 591.44 630.27 2.2930 1.9919 3.9604 177.71 0.23627 11.054 0.032014
76.375 424.23 0.069842 429.48 439.23 1.7443 385.26 0.0025957 417.31 424.90 1.7033 1.9378 4.1654 346.06 0.021177 51.281 0.071699 76.001 0.013158 591.59 630.07 2.2903 2.0050 4.0927 176.44 0.23609 11.168 0.032570
77.375 432.35 0.070399 432.92 442.85 1.7541 382.09 0.0026172 420.89 428.70 1.7137 1.9459 4.2565 337.60 0.022455 50.414 0.071295 78.187 0.012790 591.68 629.80 2.2874 2.0186 4.2389 175.15 0.23588 11.287 0.033161
78.375 440.59 0.070866 436.37 446.50 1.7640 378.83 0.0026397 424.53 432.54 1.7243 1.9543 4.3570 329.05 0.023838 49.539 0.070893 80.469 0.012427 591.71 629.46 2.2844 2.0328 4.4012 173.82 0.23563 11.412 0.033789
79.375 448.95 0.071224 439.85 450.17 1.7738 375.46 0.0026634 428.21 436.45 1.7349 1.9631 4.4684 320.38 0.025341 48.657 0.070494 82.856 0.012069 591.68 629.04 2.2812 2.0475 4.5824 172.46 0.23535 11.544 0.034461
80.375 457.44 0.071448 443.35 453.86 1.7837 371.97 0.0026884 431.94 440.42 1.7457 1.9723 4.5928 311.58 0.026980 47.764 0.070099 85.359 0.011715 591.58 628.53 2.2778 2.0630 4.7859 171.07 0.23501 11.684 0.035181
81.375 466.05 0.071510 446.87 457.58 1.7937 368.36 0.0027147 435.74 444.46 1.7567 1.9820 4.7327 302.66 0.028773 46.860 0.069708 87.988 0.011365 591.40 627.92 2.2742 2.0791 5.0161 169.64 0.23461 11.832 0.035957
82.375 474.79 0.071372 450.42 461.33 1.8037 364.61 0.0027427 439.60 448.58 1.7678 1.9924 4.8914 293.60 0.030744 45.942 0.069323 90.757 0.011018 591.14 627.21 2.2703 2.0959 5.2786 168.17 0.23413 11.989 0.036797
83.375 483.66 0.070986 453.99 465.10 1.8137 360.70 0.0027724 443.53 452.78 1.7791 2.0034 5.0731 284.38 0.032920 45.010 0.068948 93.681 0.010674 590.79 626.38 2.2661 2.1136 5.5807 166.67 0.23357 12.157 0.037711
84.375 492.67 0.070292 457.58 468.90 1.8238 356.61 0.0028041 447.54 457.07 1.7907 2.0153 5.2834 275.00 0.035335 44.059 0.068586 96.781 0.010333 590.33 625.42 2.2616 2.1321 5.9321 165.13 0.23290 12.338 0.038713
85.375 501.81 0.069207 461.20 472.74 1.8339 352.33 0.0028382 451.65 461.47 1.8025 2.0281 5.5302 265.44 0.038030 43.088 0.068241 100.08 0.0099920 589.74 624.31 2.2567 2.1517 6.3459 163.54 0.23209 12.532 0.039819
86.375 511.09 0.067621 464.86 476.60 1.8441 347.82 0.0028751 455.85 465.98 1.8145 2.0420 5.8240 255.69 0.041058 42.092 0.067923 103.61 0.0096520 589.03 623.04 2.2514 2.1723 6.8405 161.91 0.23112 12.743 0.041051
87.375 520.51 0.065384 468.54 480.51 1.8543 343.04 0.0029151 460.18 470.64 1.8269 2.0574 6.1803 245.72 0.044485 41.066 0.067640 107.40 0.0093114 588.15 621.56 2.2456 2.1943 7.4422 160.23 0.22995 12.973 0.042436
88.375 530.07 0.062280 472.26 484.45 1.8646 337.95 0.0029590 464.64 475.45 1.8397 2.0745 6.6221 235.52 0.048397 40.005 0.067412 111.50 0.0089689 587.08 619.86 2.2392 2.2178 8.1900 158.49 0.22854 13.226 0.044014
89.375 539.79 0.057991 476.02 488.43 1.8750 332.48 0.0030077 469.27 480.46 1.8530 2.0936 7.1851 225.04 0.052906 38.901 0.067265 115.97 0.0086228 585.79 617.88 2.2321 2.2433 9.1445 156.69 0.22681 13.508 0.045839
90.375 549.66 0.052030 479.83 492.46 1.8855 326.55 0.0030623 474.10 485.71 1.8669 2.1156 7.9284 214.26 0.058166 37.742 0.067243 120.91 0.0082708 584.22 615.56 2.2241 2.2711 10.405 154.82 0.22467 13.825 0.047992
91.375 559.68 0.043600 483.68 496.55 1.8961 320.03 0.0031247 479.19 491.25 1.8815 2.1412 8.9568 203.11 0.064389 36.514 0.067421 126.43 0.0079097 582.29 612.82 2.2150 2.3019 12.146 152.85 0.22200 14.189 0.050600
92.375 569.87 0.031296 487.60 500.70 1.9068 312.73 0.0031976 484.62 497.18 1.8972 2.1718 10.475 191.54 0.071885 35.195 0.067931 132.72 0.0075346 579.91 609.51 2.2045 2.3370 14.705 150.75 0.21862 14.618 0.053877
93.375 580.24 0.012349 491.59 504.92 1.9177 304.34 0.0032858 490.52 503.67 1.9143 2.2100 12.945 179.43 0.081133 33.755 0.069025 140.11 0.0071373 576.87 605.42 2.1919 2.3779 18.828 148.48 0.21421 15.146 0.058225
94.375 594.39 undefined 494.65 508.31 1.9260 300.00 0.0033333 494.65 508.31 1.9260 2.2206 13.505 176.83 0.083937 33.083 0.069091 300.00 0.0033333 494.65 508.31 1.9260 2.2206 13.505 176.83 0.083937 33.083 0.069091
95.375 611.79 undefined 496.86 510.92 1.9320 300.00 0.0033333 496.86 510.92 1.9320 2.2035 11.910 182.23 0.080337 33.177 0.067997 300.00 0.0033333 496.86 510.92 1.9320 2.2035 11.910 182.23 0.080337 33.177 0.067997
96.375 629.39 undefined 499.06 513.52 1.9380 300.00 0.0033333 499.06 513.52 1.9380 2.1889 10.762 187.20 0.077197 33.333 0.067154 300.00 0.0033333 499.06 513.52 1.9380 2.1889 10.762 187.20 0.077197 33.333 0.067154
97.375 647.17 undefined 501.24 516.12 1.9439 300.00 0.0033333 501.24 516.12 1.9439 2.1765 9.8898 191.79 0.074413 33.320 0.066540 300.00 0.0033333 501.24 516.12 1.9439 2.1765 9.8898 191.79 0.074413 33.320 0.066540
98.375 665.11 undefined 503.41 518.70 1.9497 300.00 0.0033333 503.41 518.70 1.9497 2.1661 9.1997 196.06 0.071910 33.244 0.066068 300.00 0.0033333 503.41 518.70 1.9497 2.1661 9.1997 196.06 0.071910 33.244 0.066068
99.375 683.19 undefined 505.57 521.28 1.9556 300.00 0.0033333 505.57 521.28 1.9556 2.1574 8.6374 200.07 0.069634 33.220 0.065676 300.00 0.0033333 505.57 521.28 1.9556 2.1574 8.6374 200.07 0.069634 33.220 0.065676
100.38 701.39 undefined 507.73 523.85 1.9613 300.00 0.0033333 507.73 523.85 1.9613 2.1501 8.1685 203.84 0.067542 33.222 0.065351 300.00 0.0033333 507.73 523.85 1.9613 2.1501 8.1685 203.84 0.067542 33.222 0.065351
101.38 719.71 undefined 509.87 526.42 1.9671 300.00 0.0033333 509.87 526.42 1.9671 2.1441 7.7704 207.43 0.065605 33.238 0.065080 300.00 0.0033333 509.87 526.42 1.9671 2.1441 7.7704 207.43 0.065605 33.238 0.065080
102.38 738.14 undefined 512.02 528.98 1.9728 300.00 0.0033333 512.02 528.98 1.9728 2.1391 7.4275 210.84 0.063799 33.260 0.064855 300.00 0.0033333 512.02 528.98 1.9728 2.1391 7.4275 210.84 0.063799 33.260 0.064855
103.38 756.66 undefined 514.15 531.54 1.9785 300.00 0.0033333 514.15 531.54 1.9785 2.1350 7.1285 214.11 0.062105 33.286 0.064667 300.00 0.0033333 514.15 531.54 1.9785 2.1350 7.1285 214.11 0.062105 33.286 0.064667
104.38 775.27 undefined 516.29 534.10 1.9841 300.00 0.0033333 516.29 534.10 1.9841 2.1317 6.8653 217.26 0.060510 33.313 0.064510 300.00 0.0033333 516.29 534.10 1.9841 2.1317 6.8653 217.26 0.060510 33.313 0.064510
105.38 793.96 undefined 518.42 536.66 1.9898 300.00 0.0033333 518.42 536.66 1.9898 2.1291 6.6315 220.30 0.059002 33.342 0.064380 300.00 0.0033333 518.42 536.66 1.9898 2.1291 6.6315 220.30 0.059002 33.342 0.064380
106.38 812.73 undefined 520.55 539.22 1.9954 300.00 0.0033333 520.55 539.22 1.9954 2.1270 6.4223 223.25 0.057572 33.371 0.064272 300.00 0.0033333 520.55 539.22 1.9954 2.1270 6.4223 223.25 0.057572 33.371 0.064272
107.38 831.58 undefined 522.67 541.78 2.0010 300.00 0.0033333 522.67 541.78 2.0010 2.1254 6.2340 226.11 0.056211 33.400 0.064183 300.00 0.0033333 522.67 541.78 2.0010 2.1254 6.2340 226.11 0.056211 33.400 0.064183
108.38 850.49 undefined 524.80 544.34 2.0065 300.00 0.0033333 524.80 544.34 2.0065 2.1242 6.0636 228.90 0.054914 33.429 0.064111 300.00 0.0033333 524.80 544.34 2.0065 2.1242 6.0636 228.90 0.054914 33.429 0.064111
109.38 869.46 undefined 526.92 546.90 2.0121 300.00 0.0033333 526.92 546.90 2.0121 2.1233 5.9085 231.62 0.053675 33.458 0.064054 300.00 0.0033333 526.92 546.90 2.0121 2.1233 5.9085 231.62 0.053675 33.458 0.064054
110.38 888.49 undefined 529.04 549.46 2.0176 300.00 0.0033333 529.04 549.46 2.0176 2.1228 5.7667 234.28 0.052489 33.487 0.064010 300.00 0.0033333 529.04 549.46 2.0176 2.1228 5.7667 234.28 0.052489 33.487 0.064010
111.38 907.59 undefined 531.17 552.02 2.0232 300.00 0.0033333 531.17 552.02 2.0232 2.1225 5.6367 236.88 0.051353 33.516 0.063977 300.00 0.0033333 531.17 552.02 2.0232 2.1225 5.6367 236.88 0.051353 33.516 0.063977
112.38 926.73 undefined 533.29 554.59 2.0287 300.00 0.0033333 533.29 554.59 2.0287 2.1225 5.5169 239.43 0.050262 33.545 0.063954 300.00 0.0033333 533.29 554.59 2.0287 2.1225 5.5169 239.43 0.050262 33.545 0.063954
113.38 945.93 undefined 535.41 557.15 2.0342 300.00 0.0033333 535.41 557.15 2.0342 2.1227 5.4061 241.93 0.049213 33.574 0.063940 300.00 0.0033333 535.41 557.15 2.0342 2.1227 5.4061 241.93 0.049213 33.574 0.063940
114.38 965.18 undefined 537.53 559.72 2.0397 300.00 0.0033333 537.53 559.72 2.0397 2.1231 5.3035 244.39 0.048204 33.603 0.063935 300.00 0.0033333 537.53 559.72 2.0397 2.1231 5.3035 244.39 0.048204 33.603 0.063935
115.38 984.48 undefined 539.66 562.28 2.0451 300.00 0.0033333 539.66 562.28 2.0451 2.1236 5.2081 246.80 0.047232 33.632 0.063936 300.00 0.0033333 539.66 562.28 2.0451 2.1236 5.2081 246.80 0.047232 33.632 0.063936
116.38 1003.8 undefined 541.78 564.85 2.0506 300.00 0.0033333 541.78 564.85 2.0506 2.1244 5.1192 249.18 0.046294 33.661 0.063945 300.00 0.0033333 541.78 564.85 2.0506 2.1244 5.1192 249.18 0.046294 33.661 0.063945
117.38 1023.2 undefined 543.91 567.42 2.0560 300.00 0.0033333 543.91 567.42 2.0560 2.1253 5.0362 251.51 0.045389 33.690 0.063959 300.00 0.0033333 543.91 567.42 2.0560 2.1253 5.0362 251.51 0.045389 33.690 0.063959
118.38 1042.6 undefined 546.03 569.99 2.0615 300.00 0.0033333 546.03 569.99 2.0615 2.1263 4.9584 253.82 0.044515 33.719 0.063979 300.00 0.0033333 546.03 569.99 2.0615 2.1263 4.9584 253.82 0.044515 33.719 0.063979
119.38 1062.1 undefined 548.16 572.57 2.0669 300.00 0.0033333 548.16 572.57 2.0669 2.1274 4.8855 256.08 0.043669 33.748 0.064004 300.00 0.0033333 548.16 572.57 2.0669 2.1274 4.8855 256.08 0.043669 33.748 0.064004
120.38 1081.6 undefined 550.29 575.14 2.0723 300.00 0.0033333 550.29 575.14 2.0723 2.1287 4.8169 258.32 0.042851 33.777 0.064033 300.00 0.0033333 550.29 575.14 2.0723 2.1287 4.8169 258.32 0.042851 33.777 0.064033
121.38 1101.2 undefined 552.42 577.72 2.0777 300.00 0.0033333 552.42 577.72 2.0777 2.1301 4.7524 260.52 0.042058 33.806 0.064067 300.00 0.0033333 552.42 577.72 2.0777 2.1301 4.7524 260.52 0.042058 33.806 0.064067
122.38 1120.8 undefined 554.55 580.30 2.0831 300.00 0.0033333 554.55 580.30 2.0831 2.1316 4.6915 262.70 0.041290 33.835 0.064105 300.00 0.0033333 554.55 580.30 2.0831 2.1316 4.6915 262.70 0.041290 33.835 0.064105
123.38 1140.4 undefined 556.68 582.89 2.0885 300.00 0.0033333 556.68 582.89 2.0885 2.1332 4.6340 264.84 0.040544 33.864 0.064146 300.00 0.0033333 556.68 582.89 2.0885 2.1332 4.6340 264.84 0.040544 33.864 0.064146
124.38 1160.0 undefined 558.81 585.47 2.0939 300.00 0.0033333 558.81 585.47 2.0939 2.1349 4.5796 266.96 0.039821 33.893 0.064191 300.00 0.0033333 558.81 585.47 2.0939 2.1349 4.5796 266.96 0.039821 33.893 0.064191
125.38 1179.7 undefined 560.95 588.06 2.0993 300.00 0.0033333 560.95 588.06 2.0993 2.1367 4.5281 269.06 0.039119 33.922 0.064240 300.00 0.0033333 560.95 588.06 2.0993 2.1367 4.5281 269.06 0.039119 33.922 0.064240
126.38 1199.4 undefined 563.09 590.65 2.1046 300.00 0.0033333 563.09 590.65 2.1046 2.1386 4.4792 271.12 0.038437 33.950 0.064291 300.00 0.0033333 563.09 590.65 2.1046 2.1386 4.4792 271.12 0.038437 33.950 0.064291
127.38 1219.2 undefined 565.23 593.25 2.1100 300.00 0.0033333 565.23 593.25 2.1100 2.1406 4.4328 273.17 0.037773 33.979 0.064345 300.00 0.0033333 565.23 593.25 2.1100 2.1406 4.4328 273.17 0.037773 33.979 0.064345
128.38 1238.9 undefined 567.37 595.84 2.1153 300.00 0.0033333 567.37 595.84 2.1153 2.1426 4.3887 275.19 0.037128 34.008 0.064401 300.00 0.0033333 567.37 595.84 2.1153 2.1426 4.3887 275.19 0.037128 34.008 0.064401
129.38 1258.7 undefined 569.51 598.44 2.1206 300.00 0.0033333 569.51 598.44 2.1206 2.1447 4.3467 277.19 0.036500 34.036 0.064460 300.00 0.0033333 569.51 598.44 2.1206 2.1447 4.3467 277.19 0.036500 34.036 0.064460
130.38 1278.6 undefined 571.66 601.04 2.1260 300.00 0.0033333 571.66 601.04 2.1260 2.1469 4.3067 279.17 0.035889 34.065 0.064522 300.00 0.0033333 571.66 601.04 2.1260 2.1469 4.3067 279.17 0.035889 34.065 0.064522
131.38 1298.4 undefined 573.81 603.65 2.1313 300.00 0.0033333 573.81 603.65 2.1313 2.1492 4.2685 281.13 0.035293 34.094 0.064585 300.00 0.0033333 573.81 603.65 2.1313 2.1492 4.2685 281.13 0.035293 34.094 0.064585
132.38 1318.3 undefined 575.96 606.25 2.1366 300.00 0.0033333 575.96 606.25 2.1366 2.1515 4.2322 283.07 0.034713 34.122 0.064651 300.00 0.0033333 575.96 606.25 2.1366 2.1515 4.2322 283.07 0.034713 34.122 0.064651
133.38 1338.2 undefined 578.11 608.86 2.1419 300.00 0.0033333 578.11 608.86 2.1419 2.1538 4.1974 284.99 0.034147 34.151 0.064719 300.00 0.0033333 578.11 608.86 2.1419 2.1538 4.1974 284.99 0.034147 34.151 0.064719
134.38 1358.1 undefined 580.26 611.48 2.1472 300.00 0.0033333 580.26 611.48 2.1472 2.1562 4.1642 286.89 0.033596 34.180 0.064788 300.00 0.0033333 580.26 611.48 2.1472 2.1562 4.1642 286.89 0.033596 34.180 0.064788
135.38 1378.1 undefined 582.42 614.09 2.1525 300.00 0.0033333 582.42 614.09 2.1525 2.1587 4.1324 288.78 0.033058 34.208 0.064860 300.00 0.0033333 582.42 614.09 2.1525 2.1587 4.1324 288.78 0.033058 34.208 0.064860
136.38 1398.1 undefined 584.58 616.71 2.1577 300.00 0.0033333 584.58 616.71 2.1577 2.1612 4.1020 290.65 0.032532 34.237 0.064933 300.00 0.0033333 584.58 616.71 2.1577 2.1612 4.1020 290.65 0.032532 34.237 0.064933
137.38 1418.1 undefined 586.74 619.33 2.1630 300.00 0.0033333 586.74 619.33 2.1630 2.1638 4.0728 292.50 0.032020 34.265 0.065007 300.00 0.0033333 586.74 619.33 2.1630 2.1638 4.0728 292.50 0.032020 34.265 0.065007
138.38 1438.1 undefined 588.91 621.96 2.1683 300.00 0.0033333 588.91 621.96 2.1683 2.1664 4.0449 294.33 0.031519 34.294 0.065083 300.00 0.0033333 588.91 621.96 2.1683 2.1664 4.0449 294.33 0.031519 34.294 0.065083
139.38 1458.1 undefined 591.08 624.59 2.1735 300.00 0.0033333 591.08 624.59 2.1735 2.1690 4.0181 296.15 0.031030 34.322 0.065161 300.00 0.0033333 591.08 624.59 2.1735 2.1690 4.0181 296.15 0.031030 34.322 0.065161
140.38 1478.2 undefined 593.25 627.22 2.1788 300.00 0.0033333 593.25 627.22 2.1788 2.1717 3.9924 297.95 0.030552 34.350 0.065240 300.00 0.0033333 593.25 627.22 2.1788 2.1717 3.9924 297.95 0.030552 34.350 0.065240
141.38 1498.2 undefined 595.42 629.85 2.1840 300.00 0.0033333 595.42 629.85 2.1840 2.1744 3.9677 299.74 0.030085 34.379 0.065321 300.00 0.0033333 595.42 629.85 2.1840 2.1744 3.9677 299.74 0.030085 34.379 0.065321
142.38 1518.3 undefined 597.60 632.49 2.1893 300.00 0.0033333 597.60 632.49 2.1893 2.1772 3.9440 301.52 0.029628 34.407 0.065402 300.00 0.0033333 597.60 632.49 2.1893 2.1772 3.9440 301.52 0.029628 34.407 0.065402
143.38 1538.4 undefined 599.77 635.13 2.1945 300.00 0.0033333 599.77 635.13 2.1945 2.1800 3.9212 303.28 0.029181 34.435 0.065485 300.00 0.0033333 599.77 635.13 2.1945 2.1800 3.9212 303.28 0.029181 34.435 0.065485
144.38 1558.6 undefined 601.96 637.77 2.1998 300.00 0.0033333 601.96 637.77 2.1998 2.1828 3.8992 305.03 0.028744 34.464 0.065569 300.00 0.0033333 601.96 637.77 2.1998 2.1828 3.8992 305.03 0.028744 34.464 0.065569
145.38 1578.7 undefined 604.14 640.42 2.2050 300.00 0.0033333 604.14 640.42 2.2050 2.1856 3.8781 306.76 0.028317 34.492 0.065655 300.00 0.0033333 604.14 640.42 2.2050 2.1856 3.8781 306.76 0.028317 34.492 0.065655
146.38 1598.9 undefined 606.33 643.07 2.2102 300.00 0.0033333 606.33 643.07 2.2102 2.1885 3.8578 308.49 0.027898 34.520 0.065741 300.00 0.0033333 606.33 643.07 2.2102 2.1885 3.8578 308.49 0.027898 34.520 0.065741
147.38 1619.0 undefined 608.52 645.73 2.2154 300.00 0.0033333 608.52 645.73 2.2154 2.1914 3.8382 310.20 0.027489 34.548 0.065829 300.00 0.0033333 608.52 645.73 2.2154 2.1914 3.8382 310.20 0.027489 34.548 0.065829
148.38 1639.2 undefined 610.71 648.38 2.2206 300.00 0.0033333 610.71 648.38 2.2206 2.1944 3.8194 311.90 0.027087 34.577 0.065917 300.00 0.0033333 610.71 648.38 2.2206 2.1944 3.8194 311.90 0.027087 34.577 0.065917
149.38 1659.4 undefined 612.91 651.04 2.2258 300.00 0.0033333 612.91 651.04 2.2258 2.1973 3.8012 313.58 0.026694 34.605 0.066007 300.00 0.0033333 612.91 651.04 2.2258 2.1973 3.8012 313.58 0.026694 34.605 0.066007
150.38 1679.6 undefined 615.10 653.71 2.2310 300.00 0.0033333 615.10 653.71 2.2310 2.2003 3.7837 315.26 0.026309 34.633 0.066097 300.00 0.0033333 615.10 653.71 2.2310 2.2003 3.7837 315.26 0.026309 34.633 0.066097
151.38 1699.9 undefined 617.31 656.37 2.2362 300.00 0.0033333 617.31 656.37 2.2362 2.2033 3.7668 316.92 0.025932 34.661 0.066189 300.00 0.0033333 617.31 656.37 2.2362 2.2033 3.7668 316.92 0.025932 34.661 0.066189
152.38 1720.1 undefined 619.51 659.04 2.2414 300.00 0.0033333 619.51 659.04 2.2414 2.2063 3.7505 318.57 0.025563 34.689 0.066281 300.00 0.0033333 619.51 659.04 2.2414 2.2063 3.7505 318.57 0.025563 34.689 0.066281
153.38 1740.4 undefined 621.72 661.72 2.2466 300.00 0.0033333 621.72 661.72 2.2466 2.2094 3.7348 320.22 0.025200 34.717 0.066374 300.00 0.0033333 621.72 661.72 2.2466 2.2094 3.7348 320.22 0.025200 34.717 0.066374
154.38 1760.7 undefined 623.93 664.39 2.2518 300.00 0.0033333 623.93 664.39 2.2518 2.2124 3.7196 321.85 0.024845 34.745 0.066468 300.00 0.0033333 623.93 664.39 2.2518 2.2124 3.7196 321.85 0.024845 34.745 0.066468
155.38 1780.9 undefined 626.14 667.07 2.2569 300.00 0.0033333 626.14 667.07 2.2569 2.2155 3.7049 323.47 0.024497 34.773 0.066563 300.00 0.0033333 626.14 667.07 2.2569 2.2155 3.7049 323.47 0.024497 34.773 0.066563
156.38 1801.2 undefined 628.36 669.76 2.2621 300.00 0.0033333 628.36 669.76 2.2621 2.2186 3.6908 325.08 0.024155 34.801 0.066659 300.00 0.0033333 628.36 669.76 2.2621 2.2186 3.6908 325.08 0.024155 34.801 0.066659
157.38 1821.5 undefined 630.58 672.44 2.2673 300.00 0.0033333 630.58 672.44 2.2673 2.2217 3.6771 326.68 0.023820 34.829 0.066756 300.00 0.0033333 630.58 672.44 2.2673 2.2217 3.6771 326.68 0.023820 34.829 0.066756
158.38 1841.9 undefined 632.80 675.13 2.2724 300.00 0.0033333 632.80 675.13 2.2724 2.2248 3.6638 328.27 0.023491 34.857 0.066853 300.00 0.0033333 632.80 675.13 2.2724 2.2248 3.6638 328.27 0.023491 34.857 0.066853
159.38 1862.2 undefined 635.03 677.83 2.2776 300.00 0.0033333 635.03 677.83 2.2776 2.2279 3.6510 329.86 0.023169 34.885 0.066951 300.00 0.0033333 635.03 677.83 2.2776 2.2279 3.6510 329.86 0.023169 34.885 0.066951
160.38 1882.5 undefined 637.26 680.52 2.2827 300.00 0.0033333 637.26 680.52 2.2827 2.2311 3.6387 331.43 0.022852 34.913 0.067050 300.00 0.0033333 637.26 680.52 2.2827 2.2311 3.6387 331.43 0.022852 34.913 0.067050
161.38 1902.9 undefined 639.49 683.23 2.2879 300.00 0.0033333 639.49 683.23 2.2879 2.2343 3.6267 332.99 0.022541 34.941 0.067149 300.00 0.0033333 639.49 683.23 2.2879 2.2343 3.6267 332.99 0.022541 34.941 0.067149
162.38 1923.3 undefined 641.73 685.93 2.2930 300.00 0.0033333 641.73 685.93 2.2930 2.2374 3.6151 334.55 0.022236 34.969 0.067249 300.00 0.0033333 641.73 685.93 2.2930 2.2374 3.6151 334.55 0.022236 34.969 0.067249
163.38 1943.6 undefined 643.97 688.64 2.2981 300.00 0.0033333 643.97 688.64 2.2981 2.2406 3.6040 336.09 0.021936 34.997 0.067350 300.00 0.0033333 643.97 688.64 2.2981 2.2406 3.6040 336.09 0.021936 34.997 0.067350
164.38 1964.0 undefined 646.21 691.35 2.3033 300.00 0.0033333 646.21 691.35 2.3033 2.2438 3.5931 337.63 0.021642 35.024 0.067452 300.00 0.0033333 646.21 691.35 2.3033 2.2438 3.5931 337.63 0.021642 35.024 0.067452
165.38 1984.4 undefined 648.45 694.06 2.3084 300.00 0.0033333 648.45 694.06 2.3084 2.2470 3.5826 339.16 0.021353 35.052 0.067554 300.00 0.0033333 648.45 694.06 2.3084 2.2470 3.5826 339.16 0.021353 35.052 0.067554
166.38 2004.8 undefined 650.70 696.78 2.3135 300.00 0.0033333 650.70 696.78 2.3135 2.2503 3.5725 340.68 0.021069 35.080 0.067657 300.00 0.0033333 650.70 696.78 2.3135 2.2503 3.5725 340.68 0.021069 35.080 0.067657
167.38 2025.2 undefined 652.96 699.50 2.3186 300.00 0.0033333 652.96 699.50 2.3186 2.2535 3.5627 342.20 0.020790 35.108 0.067760 300.00 0.0033333 652.96 699.50 2.3186 2.2535 3.5627 342.20 0.020790 35.108 0.067760
168.38 2045.6 undefined 655.21 702.22 2.3238 300.00 0.0033333 655.21 702.22 2.3238 2.2567 3.5532 343.70 0.020516 35.135 0.067864 300.00 0.0033333 655.21 702.22 2.3238 2.2567 3.5532 343.70 0.020516 35.135 0.067864
169.38 2066.1 undefined 657.47 704.95 2.3289 300.00 0.0033333 657.47 704.95 2.3289 2.2600 3.5440 345.20 0.020246 35.163 0.067969 300.00 0.0033333 657.47 704.95 2.3289 2.2600 3.5440 345.20 0.020246 35.163 0.067969
170.38 2086.5 undefined 659.73 707.68 2.3340 300.00 0.0033333 659.73 707.68 2.3340 2.2632 3.5350 346.69 0.019981 35.191 0.068074 300.00 0.0033333 659.73 707.68 2.3340 2.2632 3.5350 346.69 0.019981 35.191 0.068074
171.38 2106.9 undefined 662.00 710.42 2.3391 300.00 0.0033333 662.00 710.42 2.3391 2.2665 3.5264 348.17 0.019721 35.218 0.068180 300.00 0.0033333 662.00 710.42 2.3391 2.2665 3.5264 348.17 0.019721 35.218 0.068180
172.38 2127.4 undefined 664.26 713.16 2.3442 300.00 0.0033333 664.26 713.16 2.3442 2.2698 3.5180 349.64 0.019465 35.246 0.068286 300.00 0.0033333 664.26 713.16 2.3442 2.2698 3.5180 349.64 0.019465 35.246 0.068286
173.38 2147.8 undefined 666.53 715.90 2.3493 300.00 0.0033333 666.53 715.90 2.3493 2.2731 3.5099 351.11 0.019213 35.273 0.068393 300.00 0.0033333 666.53 715.90 2.3493 2.2731 3.5099 351.11 0.019213 35.273 0.068393
174.38 2168.3 undefined 668.81 718.64 2.3544 300.00 0.0033333 668.81 718.64 2.3544 2.2764 3.5021 352.57 0.018966 35.301 0.068501 300.00 0.0033333 668.81 718.64 2.3544 2.2764 3.5021 352.57 0.018966 35.301 0.068501
175.38 2188.8 undefined 671.09 721.39 2.3594 300.00 0.0033333 671.09 721.39 2.3594 2.2797 3.4944 354.02 0.018722 35.328 0.068609 300.00 0.0033333 671.09 721.39 2.3594 2.2797 3.4944 354.02 0.018722 35.328 0.068609
176.38 2209.3 undefined 673.37 724.14 2.3645 300.00 0.0033333 673.37 724.14 2.3645 2.2830 3.4871 355.47 0.018483 35.356 0.068717 300.00 0.0033333 673.37 724.14 2.3645 2.2830 3.4871 355.47 0.018483 35.356 0.068717
177.38 2229.7 undefined 675.65 726.90 2.3696 300.00 0.0033333 675.65 726.90 2.3696 2.2863 3.4799 356.91 0.018247 35.383 0.068826 300.00 0.0033333 675.65 726.90 2.3696 2.2863 3.4799 356.91 0.018247 35.383 0.068826
178.38 2250.2 undefined 677.94 729.66 2.3747 300.00 0.0033333 677.94 729.66 2.3747 2.2896 3.4730 358.34 0.018015 35.411 0.068936 300.00 0.0033333 677.94 729.66 2.3747 2.2896 3.4730 358.34 0.018015 35.411 0.068936
179.38 2270.7 undefined 680.23 732.42 2.3797 300.00 0.0033333 680.23 732.42 2.3797 2.2929 3.4663 359.76 0.017787 35.438 0.069046 300.00 0.0033333 680.23 732.42 2.3797 2.2929 3.4663 359.76 0.017787 35.438 0.069046
180.38 2291.2 undefined 682.53 735.19 2.3848 300.00 0.0033333 682.53 735.19 2.3848 2.2962 3.4598 361.18 0.017562 35.466 0.069157 300.00 0.0033333 682.53 735.19 2.3848 2.2962 3.4598 361.18 0.017562 35.466 0.069157
181.38 2311.7 undefined 684.83 737.95 2.3899 300.00 0.0033333 684.83 737.95 2.3899 2.2996 3.4535 362.59 0.017342 35.493 0.069268 300.00 0.0033333 684.83 737.95 2.3899 2.2996 3.4535 362.59 0.017342 35.493 0.069268
182.38 2332.3 undefined 687.13 740.73 2.3949 300.00 0.0033333 687.13 740.73 2.3949 2.3029 3.4474 364.00 0.017124 35.520 0.069379 300.00 0.0033333 687.13 740.73 2.3949 2.3029 3.4474 364.00 0.017124 35.520 0.069379
183.38 2352.8 undefined 689.43 743.50 2.4000 300.00 0.0033333 689.43 743.50 2.4000 2.3062 3.4415 365.40 0.016910 35.548 0.069491 300.00 0.0033333 689.43 743.50 2.4000 2.3062 3.4415 365.40 0.016910 35.548 0.069491
184.38 2373.3 undefined 691.74 746.28 2.4050 300.00 0.0033333 691.74 746.28 2.4050 2.3096 3.4357 366.79 0.016699 35.575 0.069604 300.00 0.0033333 691.74 746.28 2.4050 2.3096 3.4357 366.79 0.016699 35.575 0.069604
185.38 2393.8 undefined 694.05 749.07 2.4101 300.00 0.0033333 694.05 749.07 2.4101 2.3129 3.4302 368.18 0.016491 35.602 0.069717 300.00 0.0033333 694.05 749.07 2.4101 2.3129 3.4302 368.18 0.016491 35.602 0.069717
186.38 2414.4 undefined 696.36 751.85 2.4151 300.00 0.0033333 696.36 751.85 2.4151 2.3163 3.4248 369.56 0.016287 35.629 0.069830 300.00 0.0033333 696.36 751.85 2.4151 2.3163 3.4248 369.56 0.016287 35.629 0.069830
187.38 2434.9 undefined 698.68 754.64 2.4201 300.00 0.0033333 698.68 754.64 2.4201 2.3196 3.4196 370.93 0.016086 35.657 0.069944 300.00 0.0033333 698.68 754.64 2.4201 2.3196 3.4196 370.93 0.016086 35.657 0.069944
188.38 2455.5 undefined 701.00 757.44 2.4252 300.00 0.0033333 701.00 757.44 2.4252 2.3230 3.4145 372.30 0.015887 35.684 0.070058 300.00 0.0033333 701.00 757.44 2.4252 2.3230 3.4145 372.30 0.015887 35.684 0.070058
189.38 2476.0 undefined 703.33 760.23 2.4302 300.00 0.0033333 703.33 760.23 2.4302 2.3264 3.4097 373.66 0.015692 35.711 0.070173 300.00 0.0033333 703.33 760.23 2.4302 2.3264 3.4097 373.66 0.015692 35.711 0.070173
190.38 2496.6 undefined 705.66 763.03 2.4352 300.00 0.0033333 705.66 763.03 2.4352 2.3297 3.4049 375.02 0.015500 35.738 0.070288 300.00 0.0033333 705.66 763.03 2.4352 2.3297 3.4049 375.02 0.015500 35.738 0.070288
191.38 2517.1 undefined 707.99 765.84 2.4403 300.00 0.0033333 707.99 765.84 2.4403 2.3331 3.4003 376.37 0.015310 35.765 0.070404 300.00 0.0033333 707.99 765.84 2.4403 2.3331 3.4003 376.37 0.015310 35.765 0.070404
192.38 2537.7 undefined 710.32 768.65 2.4453 300.00 0.0033333 710.32 768.65 2.4453 2.3365 3.3959 377.71 0.015123 35.792 0.070520 300.00 0.0033333 710.32 768.65 2.4453 2.3365 3.3959 377.71 0.015123 35.792 0.070520
193.38 2558.3 undefined 712.66 771.46 2.4503 300.00 0.0033333 712.66 771.46 2.4503 2.3399 3.3916 379.05 0.014939 35.819 0.070637 300.00 0.0033333 712.66 771.46 2.4503 2.3399 3.3916 379.05 0.014939 35.819 0.070637
194.38 2578.8 undefined 715.00 774.27 2.4553 300.00 0.0033333 715.00 774.27 2.4553 2.3433 3.3874 380.39 0.014758 35.846 0.070753 300.00 0.0033333 715.00 774.27 2.4553 2.3433 3.3874 380.39 0.014758 35.846 0.070753
195.38 2599.4 undefined 717.35 777.09 2.4603 300.00 0.0033333 717.35 777.09 2.4603 2.3466 3.3834 381.71 0.014579 35.873 0.070871 300.00 0.0033333 717.35 777.09 2.4603 2.3466 3.3834 381.71 0.014579 35.873 0.070871
196.38 2620.0 undefined 719.70 779.91 2.4653 300.00 0.0033333 719.70 779.91 2.4653 2.3500 3.3795 383.04 0.014403 35.900 0.070988 300.00 0.0033333 719.70 779.91 2.4653 2.3500 3.3795 383.04 0.014403 35.900 0.070988
197.38 2640.6 undefined 722.05 782.73 2.4703 300.00 0.0033333 722.05 782.73 2.4703 2.3534 3.3757 384.35 0.014229 35.927 0.071107 300.00 0.0033333 722.05 782.73 2.4703 2.3534 3.3757 384.35 0.014229 35.927 0.071107
198.38 2661.1 undefined 724.40 785.56 2.4753 300.00 0.0033333 724.40 785.56 2.4753 2.3568 3.3721 385.66 0.014058 35.954 0.071225 300.00 0.0033333 724.40 785.56 2.4753 2.3568 3.3721 385.66 0.014058 35.954 0.071225
199.38 2681.7 undefined 726.76 788.39 2.4803 300.00 0.0033333 726.76 788.39 2.4803 2.3602 3.3685 386.97 0.013889 35.981 0.071344 300.00 0.0033333 726.76 788.39 2.4803 2.3602 3.3685 386.97 0.013889 35.981 0.071344
200.38 2702.3 undefined 729.12 791.23 2.4853 300.00 0.0033333 729.12 791.23 2.4853 2.3636 3.3651 388.27 0.013723 36.008 0.071463 300.00 0.0033333 729.12 791.23 2.4853 2.3636 3.3651 388.27 0.013723 36.008 0.071463
201.38 2722.9 undefined 731.49 794.07 2.4903 300.00 0.0033333 731.49 794.07 2.4903 2.3670 3.3618 389.57 0.013558 36.035 0.071583 300.00 0.0033333 731.49 794.07 2.4903 2.3670 3.3618 389.57 0.013558 36.035 0.071583
202.38 2743.5 undefined 733.86 796.91 2.4953 300.00 0.0033333 733.86 796.91 2.4953 2.3704 3.3586 390.86 0.013397 36.062 0.071703 300.00 0.0033333 733.86 796.91 2.4953 2.3704 3.3586 390.86 0.013397 36.062 0.071703
203.38 2764.1 undefined 736.23 799.76 2.5003 300.00 0.0033333 736.23 799.76 2.5003 2.3738 3.3555 392.15 0.013237 36.089 0.071823 300.00 0.0033333 736.23 799.76 2.5003 2.3738 3.3555 392.15 0.013237 36.089 0.071823
204.38 2784.7 undefined 738.60 802.60 2.5053 300.00 0.0033333 738.60 802.60 2.5053 2.3772 3.3526 393.43 0.013079 36.115 0.071944 300.00 0.0033333 738.60 802.60 2.5053 2.3772 3.3526 393.43 0.013079 36.115 0.071944
205.38 2805.3 undefined 740.98 805.46 2.5102 300.00 0.0033333 740.98 805.46 2.5102 2.3806 3.3497 394.70 0.012924 36.142 0.072065 300.00 0.0033333 740.98 805.46 2.5102 2.3806 3.3497 394.70 0.012924 36.142 0.072065
206.38 2825.9 undefined 743.37 808.31 2.5152 300.00 0.0033333 743.37 808.31 2.5152 2.3840 3.3469 395.97 0.012771 36.169 0.072187 300.00 0.0033333 743.37 808.31 2.5152 2.3840 3.3469 395.97 0.012771 36.169 0.072187
207.38 2846.5 undefined 745.75 811.17 2.5202 300.00 0.0033333 745.75 811.17 2.5202 2.3875 3.3442 397.24 0.012620 36.196 0.072309 300.00 0.0033333 745.75 811.17 2.5202 2.3875 3.3442 397.24 0.012620 36.196 0.072309
208.38 2867.1 undefined 748.14 814.03 2.5252 300.00 0.0033333 748.14 814.03 2.5252 2.3909 3.3416 398.50 0.012471 36.222 0.072431 300.00 0.0033333 748.14 814.03 2.5252 2.3909 3.3416 398.50 0.012471 36.222 0.072431
209.38 2887.7 undefined 750.53 816.90 2.5301 300.00 0.0033333 750.53 816.90 2.5301 2.3943 3.3392 399.76 0.012323 36.249 0.072554 300.00 0.0033333 750.53 816.90 2.5301 2.3943 3.3392 399.76 0.012323 36.249 0.072554
210.38 2908.4 undefined 752.93 819.77 2.5351 300.00 0.0033333 752.93 819.77 2.5351 2.3977 3.3368 401.01 0.012178 36.276 0.072677 300.00 0.0033333 752.93 819.77 2.5351 2.3977 3.3368 401.01 0.012178 36.276 0.072677
211.38 2929.0 undefined 755.33 822.64 2.5400 300.00 0.0033333 755.33 822.64 2.5400 2.4011 3.3345 402.26 0.012035 36.302 0.072800 300.00 0.0033333 755.33 822.64 2.5400 2.4011 3.3345 402.26 0.012035 36.302 0.072800
212.38 2949.6 undefined 757.73 825.52 2.5450 300.00 0.0033333 757.73 825.52 2.5450 2.4045 3.3322 403.50 0.011894 36.329 0.072924 300.00 0.0033333 757.73 825.52 2.5450 2.4045 3.3322 403.50 0.011894 36.329 0.072924
213.38 2970.2 undefined 760.14 828.40 2.5499 300.00 0.0033333 760.14 828.40 2.5499 2.4079 3.3301 404.74 0.011754 36.355 0.073048 300.00 0.0033333 760.14 828.40 2.5499 2.4079 3.3301 404.74 0.011754 36.355 0.073048
214.38 2990.8 undefined 762.55 831.28 2.5549 300.00 0.0033333 762.55 831.28 2.5549 2.4114 3.3280 405.98 0.011616 36.382 0.073172 300.00 0.0033333 762.55 831.28 2.5549 2.4114 3.3280 405.98 0.011616 36.382 0.073172
215.38 3011.4 undefined 764.96 834.17 2.5598 300.00 0.0033333 764.96 834.17 2.5598 2.4148 3.3261 407.21 0.011480 36.408 0.073297 300.00 0.0033333 764.96 834.17 2.5598 2.4148 3.3261 407.21 0.011480 36.408 0.073297
216.38 3032.1 undefined 767.38 837.06 2.5648 300.00 0.0033333 767.38 837.06 2.5648 2.4182 3.3242 408.43 0.011346 36.435 0.073422 300.00 0.0033333 767.38 837.06 2.5648 2.4182 3.3242 408.43 0.011346 36.435 0.073422
217.38 3052.7 undefined 769.80 839.96 2.5697 300.00 0.0033333 769.80 839.96 2.5697 2.4216 3.3224 409.65 0.011214 36.461 0.073547 300.00 0.0033333 769.80 839.96 2.5697 2.4216 3.3224 409.65 0.011214 36.461 0.073547
218.38 3073.3 undefined 772.22 842.85 2.5747 300.00 0.0033333 772.22 842.85 2.5747 2.4250 3.3206 410.87 0.011083 36.488 0.073673 300.00 0.0033333 772.22 842.85 2.5747 2.4250 3.3206 410.87 0.011083 36.488 0.073673
219.38 3093.9 undefined 774.65 845.75 2.5796 300.00 0.0033333 774.65 845.75 2.5796 2.4285 3.3189 412.08 0.010954 36.514 0.073799 300.00 0.0033333 774.65 845.75 2.5796 2.4285 3.3189 412.08 0.010954 36.514 0.073799
220.38 3114.5 undefined 777.08 848.66 2.5845 300.00 0.0033333 777.08 848.66 2.5845 2.4319 3.3173 413.29 0.010826 36.541 0.073925 300.00 0.0033333 777.08 848.66 2.5845 2.4319 3.3173 413.29 0.010826 36.541 0.073925
221.38 3135.2 undefined 779.51 851.57 2.5894 300.00 0.0033333 779.51 851.57 2.5894 2.4353 3.3158 414.49 0.010700 36.567 0.074052 300.00 0.0033333 779.51 851.57 2.5894 2.4353 3.3158 414.49 0.010700 36.567 0.074052
222.38 3155.8 undefined 781.95 854.48 2.5944 300.00 0.0033333 781.95 854.48 2.5944 2.4387 3.3144 415.69 0.010576 36.593 0.074178 300.00 0.0033333 781.95 854.48 2.5944 2.4387 3.3144 415.69 0.010576 36.593 0.074178
223.38 3176.4 undefined 784.39 857.39 2.5993 300.00 0.0033333 784.39 857.39 2.5993 2.4422 3.3130 416.89 0.010453 36.620 0.074306 300.00 0.0033333 784.39 857.39 2.5993 2.4422 3.3130 416.89 0.010453 36.620 0.074306
224.38 3197.0 undefined 786.83 860.31 2.6042 300.00 0.0033333 786.83 860.31 2.6042 2.4456 3.3116 418.08 0.010332 36.646 0.074433 300.00 0.0033333 786.83 860.31 2.6042 2.4456 3.3116 418.08 0.010332 36.646 0.074433
225.38 3217.7 undefined 789.28 863.23 2.6091 300.00 0.0033333 789.28 863.23 2.6091 2.4490 3.3104 419.27 0.010212 36.672 0.074561 300.00 0.0033333 789.28 863.23 2.6091 2.4490 3.3104 419.27 0.010212 36.672 0.074561
226.38 3238.3 undefined 791.73 866.15 2.6140 300.00 0.0033333 791.73 866.15 2.6140 2.4524 3.3092 420.45 0.010094 36.698 0.074689 300.00 0.0033333 791.73 866.15 2.6140 2.4524 3.3092 420.45 0.010094 36.698 0.074689
227.38 3258.9 undefined 794.18 869.08 2.6189 300.00 0.0033333 794.18 869.08 2.6189 2.4558 3.3081 421.63 0.0099769 36.725 0.074818 300.00 0.0033333 794.18 869.08 2.6189 2.4558 3.3081 421.63 0.0099769 36.725 0.074818
228.38 3279.5 undefined 796.64 872.01 2.6238 300.00 0.0033333 796.64 872.01 2.6238 2.4593 3.3070 422.80 0.0098614 36.751 0.074946 300.00 0.0033333 796.64 872.01 2.6238 2.4593 3.3070 422.80 0.0098614 36.751 0.074946
229.38 3300.2 undefined 799.10 874.95 2.6287 300.00 0.0033333 799.10 874.95 2.6287 2.4627 3.3060 423.97 0.0097474 36.777 0.075075 300.00 0.0033333 799.10 874.95 2.6287 2.4627 3.3060 423.97 0.0097474 36.777 0.075075
230.38 3320.8 undefined 801.57 877.89 2.6336 300.00 0.0033333 801.57 877.89 2.6336 2.4661 3.3050 425.14 0.0096347 36.803 0.075205 300.00 0.0033333 801.57 877.89 2.6336 2.4661 3.3050 425.14 0.0096347 36.803 0.075205
231.38 3341.4 undefined 804.04 880.83 2.6385 300.00 0.0033333 804.04 880.83 2.6385 2.4695 3.3041 426.31 0.0095234 36.829 0.075334 300.00 0.0033333 804.04 880.83 2.6385 2.4695 3.3041 426.31 0.0095234 36.829 0.075334
232.38 3362.0 undefined 806.51 883.77 2.6434 300.00 0.0033333 806.51 883.77 2.6434 2.4730 3.3033 427.47 0.0094134 36.855 0.075464 300.00 0.0033333 806.51 883.77 2.6434 2.4730 3.3033 427.47 0.0094134 36.855 0.075464
233.38 3382.7 undefined 808.98 886.72 2.6483 300.00 0.0033333 808.98 886.72 2.6483 2.4764 3.3025 428.62 0.0093047 36.881 0.075594 300.00 0.0033333 808.98 886.72 2.6483 2.4764 3.3025 428.62 0.0093047 36.881 0.075594
234.38 3403.3 undefined 811.46 889.68 2.6532 300.00 0.0033333 811.46 889.68 2.6532 2.4798 3.3017 429.78 0.0091973 36.907 0.075725 300.00 0.0033333 811.46 889.68 2.6532 2.4798 3.3017 429.78 0.0091973 36.907 0.075725
235.38 3423.9 undefined 813.94 892.63 2.6581 300.00 0.0033333 813.94 892.63 2.6581 2.4832 3.3010 430.92 0.0090912 36.933 0.075855 300.00 0.0033333 813.94 892.63 2.6581 2.4832 3.3010 430.92 0.0090912 36.933 0.075855
236.38 3444.5 undefined 816.43 895.59 2.6630 300.00 0.0033333 816.43 895.59 2.6630 2.4866 3.3004 432.07 0.0089863 36.959 0.075986 300.00 0.0033333 816.43 895.59 2.6630 2.4866 3.3004 432.07 0.0089863 36.959 0.075986
237.38 3465.2 undefined 818.91 898.55 2.6678 300.00 0.0033333 818.91 898.55 2.6678 2.4901 3.2998 433.21 0.0088826 36.985 0.076118 300.00 0.0033333 818.91 898.55 2.6678 2.4901 3.2998 433.21 0.0088826 36.985 0.076118
238.38 3485.8 undefined 821.41 901.52 2.6727 300.00 0.0033333 821.41 901.52 2.6727 2.4935 3.2993 434.35 0.0087802 37.011 0.076249 300.00 0.0033333 821.41 901.52 2.6727 2.4935 3.2993 434.35 0.0087802 37.011 0.076249
239.38 3506.4 undefined 823.90 904.49 2.6776 300.00 0.0033333 823.90 904.49 2.6776 2.4969 3.2988 435.48 0.0086789 37.037 0.076381 300.00 0.0033333 823.90 904.49 2.6776 2.4969 3.2988 435.48 0.0086789 37.037 0.076381
240.38 3527.0 undefined 826.40 907.46 2.6825 300.00 0.0033333 826.40 907.46 2.6825 2.5003 3.2984 436.61 0.0085789 37.063 0.076513 300.00 0.0033333 826.40 907.46 2.6825 2.5003 3.2984 436.61 0.0085789 37.063 0.076513
241.38 3547.6 undefined 828.90 910.44 2.6873 300.00 0.0033333 828.90 910.44 2.6873 2.5037 3.2980 437.74 0.0084799 37.089 0.076645 300.00 0.0033333 828.90 910.44 2.6873 2.5037 3.2980 437.74 0.0084799 37.089 0.076645
242.38 3568.3 undefined 831.41 913.41 2.6922 300.00 0.0033333 831.41 913.41 2.6922 2.5072 3.2976 438.86 0.0083821 37.115 0.076777 300.00 0.0033333 831.41 913.41 2.6922 2.5072 3.2976 438.86 0.0083821 37.115 0.076777
243.38 3588.9 undefined 833.92 916.40 2.6971 300.00 0.0033333 833.92 916.40 2.6971 2.5106 3.2973 439.99 0.0082854 37.141 0.076910 300.00 0.0033333 833.92 916.40 2.6971 2.5106 3.2973 439.99 0.0082854 37.141 0.076910
244.38 3609.5 undefined 836.43 919.38 2.7019 300.00 0.0033333 836.43 919.38 2.7019 2.5140 3.2970 441.10 0.0081898 37.166 0.077043 300.00 0.0033333 836.43 919.38 2.7019 2.5140 3.2970 441.10 0.0081898 37.166 0.077043
245.38 3630.1 undefined 838.94 922.37 2.7068 300.00 0.0033333 838.94 922.37 2.7068 2.5174 3.2968 442.22 0.0080953 37.192 0.077176 300.00 0.0033333 838.94 922.37 2.7068 2.5174 3.2968 442.22 0.0080953 37.192 0.077176
246.38 3650.7 undefined 841.46 925.37 2.7116 300.00 0.0033333 841.46 925.37 2.7116 2.5208 3.2966 443.33 0.0080019 37.218 0.077309 300.00 0.0033333 841.46 925.37 2.7116 2.5208 3.2966 443.33 0.0080019 37.218 0.077309
247.38 3671.3 undefined 843.99 928.36 2.7165 300.00 0.0033333 843.99 928.36 2.7165 2.5242 3.2965 444.43 0.0079095 37.244 0.077443 300.00 0.0033333 843.99 928.36 2.7165 2.5242 3.2965 444.43 0.0079095 37.244 0.077443
248.38 3691.9 undefined 846.51 931.36 2.7213 300.00 0.0033333 846.51 931.36 2.7213 2.5276 3.2964 445.54 0.0078182 37.269 0.077576 300.00 0.0033333 846.51 931.36 2.7213 2.5276 3.2964 445.54 0.0078182 37.269 0.077576
249.38 3712.6 undefined 849.04 934.36 2.7262 300.00 0.0033333 849.04 934.36 2.7262 2.5311 3.2963 446.64 0.0077278 37.295 0.077710 300.00 0.0033333 849.04 934.36 2.7262 2.5311 3.2963 446.64 0.0077278 37.295 0.077710
250.38 3733.2 undefined 851.57 937.37 2.7310 300.00 0.0033333 851.57 937.37 2.7310 2.5345 3.2963 447.73 0.0076385 37.321 0.077844 300.00 0.0033333 851.57 937.37 2.7310 2.5345 3.2963 447.73 0.0076385 37.321 0.077844
251.38 3753.8 undefined 854.11 940.38 2.7359 300.00 0.0033333 854.11 940.38 2.7359 2.5379 3.2963 448.83 0.0075501 37.346 0.077979 300.00 0.0033333 854.11 940.38 2.7359 2.5379 3.2963 448.83 0.0075501 37.346 0.077979
252.38 3774.4 undefined 856.65 943.39 2.7407 300.00 0.0033333 856.65 943.39 2.7407 2.5413 3.2964 449.92 0.0074628 37.372 0.078113 300.00 0.0033333 856.65 943.39 2.7407 2.5413 3.2964 449.92 0.0074628 37.372 0.078113
253.38 3795.0 undefined 859.19 946.41 2.7455 300.00 0.0033333 859.19 946.41 2.7455 2.5447 3.2965 451.00 0.0073764 37.397 0.078247 300.00 0.0033333 859.19 946.41 2.7455 2.5447 3.2965 451.00 0.0073764 37.397 0.078247
254.38 3815.6 undefined 861.74 949.43 2.7504 300.00 0.0033333 861.74 949.43 2.7504 2.5481 3.2966 452.09 0.0072909 37.423 0.078382 300.00 0.0033333 861.74 949.43 2.7504 2.5481 3.2966 452.09 0.0072909 37.423 0.078382
255.38 3836.2 undefined 864.29 952.45 2.7552 300.00 0.0033333 864.29 952.45 2.7552 2.5515 3.2968 453.17 0.0072064 37.448 0.078517 300.00 0.0033333 864.29 952.45 2.7552 2.5515 3.2968 453.17 0.0072064 37.448 0.078517
256.38 3856.8 undefined 866.84 955.48 2.7600 300.00 0.0033333 866.84 955.48 2.7600 2.5549 3.2970 454.25 0.0071228 37.474 0.078652 300.00 0.0033333 866.84 955.48 2.7600 2.5549 3.2970 454.25 0.0071228 37.474 0.078652
257.38 3877.4 undefined 869.40 958.51 2.7648 300.00 0.0033333 869.40 958.51 2.7648 2.5583 3.2972 455.32 0.0070401 37.499 0.078787 300.00 0.0033333 869.40 958.51 2.7648 2.5583 3.2972 455.32 0.0070401 37.499 0.078787
258.38 3898.0 undefined 871.96 961.54 2.7697 300.00 0.0033333 871.96 961.54 2.7697 2.5617 3.2975 456.39 0.0069582 37.525 0.078922 300.00 0.0033333 871.96 961.54 2.7697 2.5617 3.2975 456.39 0.0069582 37.525 0.078922
259.38 3918.6 undefined 874.52 964.58 2.7745 300.00 0.0033333 874.52 964.58 2.7745 2.5651 3.2978 457.46 0.0068773 37.550 0.079057 300.00 0.0033333 874.52 964.58 2.7745 2.5651 3.2978 457.46 0.0068773 37.550 0.079057
260.38 3939.1 undefined 877.09 967.62 2.7793 300.00 0.0033333 877.09 967.62 2.7793 2.5685 3.2981 458.53 0.0067973 37.576 0.079192 300.00 0.0033333 877.09 967.62 2.7793 2.5685 3.2981 458.53 0.0067973 37.576 0.079192
261.38 3959.7 undefined 879.66 970.66 2.7841 300.00 0.0033333 879.66 970.66 2.7841 2.5719 3.2985 459.59 0.0067180 37.601 0.079328 300.00 0.0033333 879.66 970.66 2.7841 2.5719 3.2985 459.59 0.0067180 37.601 0.079328
262.38 3980.3 undefined 882.23 973.71 2.7889 300.00 0.0033333 882.23 973.71 2.7889 2.5753 3.2989 460.65 0.0066397 37.626 0.079463 300.00 0.0033333 882.23 973.71 2.7889 2.5753 3.2989 460.65 0.0066397 37.626 0.079463
263.38 4000.9 undefined 884.81 976.76 2.7937 300.00 0.0033333 884.81 976.76 2.7937 2.5787 3.2993 461.71 0.0065621 37.652 0.079598 300.00 0.0033333 884.81 976.76 2.7937 2.5787 3.2993 461.71 0.0065621 37.652 0.079598
264.38 4021.5 undefined 887.39 979.81 2.7985 300.00 0.0033333 887.39 979.81 2.7985 2.5820 3.2997 462.76 0.0064854 37.677 0.079733 300.00 0.0033333 887.39 979.81 2.7985 2.5820 3.2997 462.76 0.0064854 37.677 0.079733
265.38 4042.1 undefined 889.97 982.87 2.8033 300.00 0.0033333 889.97 982.87 2.8033 2.5854 3.3002 463.81 0.0064095 37.702 0.079868 300.00 0.0033333 889.97 982.87 2.8033 2.5854 3.3002 463.81 0.0064095 37.702 0.079868
266.38 4062.6 undefined 892.56 985.93 2.8081 300.00 0.0033333 892.56 985.93 2.8081 2.5888 3.3007 464.86 0.0063344 37.728 0.080003 300.00 0.0033333 892.56 985.93 2.8081 2.5888 3.3007 464.86 0.0063344 37.728 0.080003
267.38 4083.2 undefined 895.15 988.99 2.8129 300.00 0.0033333 895.15 988.99 2.8129 2.5922 3.3013 465.91 0.0062601 37.753 0.080138 300.00 0.0033333 895.15 988.99 2.8129 2.5922 3.3013 465.91 0.0062601 37.753 0.080138
268.38 4103.8 undefined 897.74 992.06 2.8177 300.00 0.0033333 897.74 992.06 2.8177 2.5956 3.3018 466.95 0.0061865 37.778 0.080273 300.00 0.0033333 897.74 992.06 2.8177 2.5956 3.3018 466.95 0.0061865 37.778 0.080273
269.38 4124.4 undefined 900.34 995.13 2.8225 300.00 0.0033333 900.34 995.13 2.8225 2.5990 3.3024 467.99 0.0061137 37.803 0.080407 300.00 0.0033333 900.34 995.13 2.8225 2.5990 3.3024 467.99 0.0061137 37.803 0.080407
270.38 4144.9 undefined 902.94 998.20 2.8273 300.00 0.0033333 902.94 998.20 2.8273 2.6023 3.3031 469.02 0.0060417 37.828 0.080541 300.00 0.0033333 902.94 998.20 2.8273 2.6023 3.3031 469.02 0.0060417 37.828 0.080541
271.38 4165.5 undefined 905.55 1001.3 2.8321 300.00 0.0033333 905.55 1001.3 2.8321 2.6057 3.3037 470.06 0.0059704 37.854 0.080674 300.00 0.0033333 905.55 1001.3 2.8321 2.6057 3.3037 470.06 0.0059704 37.854 0.080674
272.38 4186.1 undefined 908.15 1004.4 2.8369 300.00 0.0033333 908.15 1004.4 2.8369 2.6091 3.3044 471.09 0.0058999 37.879 0.080807 300.00 0.0033333 908.15 1004.4 2.8369 2.6091 3.3044 471.09 0.0058999 37.879 0.080807
273.38 4206.6 undefined 910.76 1007.4 2.8417 300.00 0.0033333 910.76 1007.4 2.8417 2.6125 3.3051 472.12 0.0058300 37.904 0.080939 300.00 0.0033333 910.76 1007.4 2.8417 2.6125 3.3051 472.12 0.0058300 37.904 0.080939
274.38 4227.2 undefined 913.38 1010.5 2.8464 300.00 0.0033333 913.38 1010.5 2.8464 2.6158 3.3058 473.14 0.0057609 37.929 0.081070 300.00 0.0033333 913.38 1010.5 2.8464 2.6158 3.3058 473.14 0.0057609 37.929 0.081070
275.38 4247.7 undefined 916.00 1013.6 2.8512 300.00 0.0033333 916.00 1013.6 2.8512 2.6192 3.3065 474.17 0.0056925 37.954 0.081199 300.00 0.0033333 916.00 1013.6 2.8512 2.6192 3.3065 474.17 0.0056925 37.954 0.081199
276.38 4268.3 undefined 918.62 1016.7 2.8560 300.00 0.0033333 918.62 1016.7 2.8560 2.6226 3.3073 475.19 0.0056248 37.979 0.081328 300.00 0.0033333 918.62 1016.7 2.8560 2.6226 3.3073 475.19 0.0056248 37.979 0.081328
277.38 4288.9 undefined 921.24 1019.8 2.8608 300.00 0.0033333 921.24 1019.8 2.8608 2.6259 3.3081 476.21 0.0055577 38.004 0.081453 300.00 0.0033333 921.24 1019.8 2.8608 2.6259 3.3081 476.21 0.0055577 38.004 0.081453
278.38 4309.4 undefined 923.87 1022.9 2.8655 300.00 0.0033333 923.87 1022.9 2.8655 2.6293 3.3089 477.22 0.0054914 38.029 0.081576 300.00 0.0033333 923.87 1022.9 2.8655 2.6293 3.3089 477.22 0.0054914 38.029 0.081576
279.38 4329.9 undefined 926.50 1026.0 2.8703 300.00 0.0033333 926.50 1026.0 2.8703 2.6326 3.3098 478.23 0.0054257 38.054 0.081693 300.00 0.0033333 926.50 1026.0 2.8703 2.6326 3.3098 478.23 0.0054257 38.054 0.081693
280.38 4350.5 undefined 929.13 1029.1 2.8751 300.00 0.0033333 929.13 1029.1 2.8751 2.6360 3.3106 479.24 0.0053607 38.079 0.081800 300.00 0.0033333 929.13 1029.1 2.8751 2.6360 3.3106 479.24 0.0053607 38.079 0.081800
281.38 4371.0 undefined 931.77 1032.2 2.8798 300.00 0.0033333 931.77 1032.2 2.8798 2.6393 3.3115 480.25 0.0052963 38.103 0.081876 300.00 0.0033333 931.77 1032.2 2.8798 2.6393 3.3115 480.25 0.0052963 38.103 0.081876
282.38 4391.6 undefined 934.41 1035.3 2.8846 300.00 0.0033333 934.41 1035.3 2.8846 2.6427 3.3124 481.26 0.0052326 38.128 0.081977 300.00 0.0033333 934.41 1035.3 2.8846 2.6427 3.3124 481.26 0.0052326 38.128 0.081977
283.38 4412.1 undefined 937.06 1038.5 2.8893 300.00 0.0033333 937.06 1038.5 2.8893 2.6461 3.3134 482.26 0.0051695 38.153 0.082134 300.00 0.0033333 937.06 1038.5 2.8893 2.6461 3.3134 482.26 0.0051695 38.153 0.082134
284.38 4432.6 undefined 939.71 1041.6 2.8941 300.00 0.0033333 939.71 1041.6 2.8941 2.6494 3.3143 483.26 0.0051070 38.178 0.082290 300.00 0.0033333 939.71 1041.6 2.8941 2.6494 3.3143 483.26 0.0051070 38.178 0.082290
285.38 4453.2 undefined 942.36 1044.7 2.8988 300.00 0.0033333 942.36 1044.7 2.8988 2.6527 3.3153 484.25 0.0050451 38.203 0.082447 300.00 0.0033333 942.36 1044.7 2.8988 2.6527 3.3153 484.25 0.0050451 38.203 0.082447
286.38 4473.7 undefined 945.01 1047.8 2.9036 300.00 0.0033333 945.01 1047.8 2.9036 2.6561 3.3163 485.25 0.0049839 38.228 0.082605 300.00 0.0033333 945.01 1047.8 2.9036 2.6561 3.3163 485.25 0.0049839 38.228 0.082605
287.38 4494.2 undefined 947.67 1051.0 2.9083 300.00 0.0033333 947.67 1051.0 2.9083 2.6594 3.3173 486.24 0.0049232 38.252 0.082762 300.00 0.0033333 947.67 1051.0 2.9083 2.6594 3.3173 486.24 0.0049232 38.252 0.082762
288.38 4514.7 undefined 950.33 1054.1 2.9131 300.00 0.0033333 950.33 1054.1 2.9131 2.6628 3.3183 487.23 0.0048632 38.277 0.082920 300.00 0.0033333 950.33 1054.1 2.9131 2.6628 3.3183 487.23 0.0048632 38.277 0.082920
289.38 4535.3 undefined 952.99 1057.2 2.9178 300.00 0.0033333 952.99 1057.2 2.9178 2.6661 3.3194 488.22 0.0048037 38.302 0.083079 300.00 0.0033333 952.99 1057.2 2.9178 2.6661 3.3194 488.22 0.0048037 38.302 0.083079
290.38 4555.8 undefined 955.66 1060.4 2.9226 300.00 0.0033333 955.66 1060.4 2.9226 2.6694 3.3204 489.20 0.0047448 38.326 0.083237 300.00 0.0033333 955.66 1060.4 2.9226 2.6694 3.3204 489.20 0.0047448 38.326 0.083237
291.38 4576.3 undefined 958.33 1063.5 2.9273 300.00 0.0033333 958.33 1063.5 2.9273 2.6728 3.3215 490.19 0.0046865 38.351 0.083396 300.00 0.0033333 958.33 1063.5 2.9273 2.6728 3.3215 490.19 0.0046865 38.351 0.083396
292.38 4596.8 undefined 961.01 1066.7 2.9320 300.00 0.0033333 961.01 1066.7 2.9320 2.6761 3.3226 491.17 0.0046287 38.376 0.083555 300.00 0.0033333 961.01 1066.7 2.9320 2.6761 3.3226 491.17 0.0046287 38.376 0.083555
293.38 4617.3 undefined 963.69 1069.8 2.9367 300.00 0.0033333 963.69 1069.8 2.9367 2.6794 3.3237 492.14 0.0045715 38.400 0.083715 300.00 0.0033333 963.69 1069.8 2.9367 2.6794 3.3237 492.14 0.0045715 38.400 0.083715
294.38 4637.8 undefined 966.37 1073.0 2.9415 300.00 0.0033333 966.37 1073.0 2.9415 2.6827 3.3249 493.12 0.0045149 38.425 0.083874 300.00 0.0033333 966.37 1073.0 2.9415 2.6827 3.3249 493.12 0.0045149 38.425 0.083874
295.38 4658.3 undefined 969.05 1076.1 2.9462 300.00 0.0033333 969.05 1076.1 2.9462 2.6861 3.3260 494.09 0.0044588 38.449 0.084034 300.00 0.0033333 969.05 1076.1 2.9462 2.6861 3.3260 494.09 0.0044588 38.449 0.084034
296.38 4678.8 undefined 971.74 1079.3 2.9509 300.00 0.0033333 971.74 1079.3 2.9509 2.6894 3.3272 495.06 0.0044032 38.474 0.084195 300.00 0.0033333 971.74 1079.3 2.9509 2.6894 3.3272 495.06 0.0044032 38.474 0.084195
297.38 4699.3 undefined 974.43 1082.4 2.9556 300.00 0.0033333 974.43 1082.4 2.9556 2.6927 3.3284 496.03 0.0043482 38.498 0.084355 300.00 0.0033333 974.43 1082.4 2.9556 2.6927 3.3284 496.03 0.0043482 38.498 0.084355
298.38 4719.8 undefined 977.12 1085.6 2.9604 300.00 0.0033333 977.12 1085.6 2.9604 2.6960 3.3296 497.00 0.0042937 38.523 0.084516 300.00 0.0033333 977.12 1085.6 2.9604 2.6960 3.3296 497.00 0.0042937 38.523 0.084516
299.38 4740.3 undefined 979.82 1088.8 2.9651 300.00 0.0033333 979.82 1088.8 2.9651 2.6993 3.3308 497.96 0.0042397 38.547 0.084677 300.00 0.0033333 979.82 1088.8 2.9651 2.6993 3.3308 497.96 0.0042397 38.547 0.084677
300.38 4760.7 undefined 982.52 1091.9 2.9698 300.00 0.0033333 982.52 1091.9 2.9698 2.7026 3.3321 498.92 0.0041862 38.572 0.084839 300.00 0.0033333 982.52 1091.9 2.9698 2.7026 3.3321 498.92 0.0041862 38.572 0.084839