Temperature (C) Pressure (psia) Quality (l+v) Internal Energy (l+v, kJ/kg) Enthalpy (l+v, kJ/kg) Entropy (l+v, J/g*K) Density (l, kg/m3) Volume (l, m3/kg) Internal Energy (l, kJ/kg) Enthalpy (l, kJ/kg) Entropy (l, J/g*K) Cv (l, J/g*K) Cp (l, J/g*K) Sound Spd. (l, m/s) Joule-Thomson (l, F/psia) Viscosity (l, uPa*s) Therm. Cond. (l, W/m*K) Density (v, kg/m3) Volume (v, m3/kg) Internal Energy (v, kJ/kg) Enthalpy (v, kJ/kg) Entropy (v, J/g*K) Cv (v, J/g*K) Cp (v, J/g*K) Sound Spd. (v, m/s) Joule-Thomson (v, F/psia) Viscosity (v, uPa*s) Therm. Cond. (v, W/m*K)
-187.62 2.4953e-08 1.9317e-11 -196.64 -196.64 -1.3959 733.13 0.0013640 -196.64 -196.64 -1.3959 1.3553 1.9158 2136.4 -0.0077592 10960. 0.20792 1.0669e-08 9.3732e+07 350.13 366.26 5.1858 0.69067 0.87923 143.28 6.1051 2.3259 0.0017061
-186.62 3.7339e-08 2.8540e-11 -194.73 -194.73 -1.3736 732.08 0.0013660 -194.73 -194.73 -1.3736 1.3539 1.9166 2129.6 -0.0077546 10073. 0.20765 1.5780e-08 6.3371e+07 350.82 367.14 5.1200 0.69462 0.88317 144.03 5.9178 2.3534 0.0017533
-185.62 5.5322e-08 4.1757e-11 -192.81 -192.81 -1.3516 731.04 0.0013679 -192.81 -192.81 -1.3516 1.3525 1.9174 2122.9 -0.0077498 9276.1 0.20737 2.3112e-08 4.3267e+07 351.52 368.02 5.0561 0.69857 0.88713 144.77 5.7383 2.3808 0.0018007
-184.62 8.1182e-08 6.0519e-11 -190.89 -190.89 -1.3298 730.00 0.0013699 -190.89 -190.89 -1.3298 1.3513 1.9182 2116.1 -0.0077448 8557.8 0.20708 3.3533e-08 2.9821e+07 352.22 368.91 4.9939 0.70253 0.89108 145.51 5.5662 2.4083 0.0018485
-183.62 1.1803e-07 8.6913e-11 -188.97 -188.97 -1.3083 728.96 0.0013718 -188.97 -188.97 -1.3083 1.3501 1.9191 2109.3 -0.0077395 7909.8 0.20678 4.8211e-08 2.0742e+07 352.92 369.81 4.9333 0.70648 0.89504 146.24 5.4011 2.4357 0.0018965
-182.62 1.7009e-07 1.2372e-10 -187.05 -187.05 -1.2869 727.92 0.0013738 -187.05 -187.05 -1.2869 1.3490 1.9201 2102.5 -0.0077340 7324.3 0.20647 6.8704e-08 1.4555e+07 353.63 370.70 4.8744 0.71043 0.89899 146.97 5.2426 2.4632 0.0019448
-181.62 2.4299e-07 1.7463e-10 -185.13 -185.13 -1.2658 726.88 0.0013757 -185.13 -185.13 -1.2658 1.3480 1.9210 2095.7 -0.0077283 6794.5 0.20616 9.7079e-08 1.0301e+07 354.35 371.60 4.8170 0.71438 0.90294 147.69 5.0904 2.4906 0.0019934
-180.62 3.4425e-07 2.4446e-10 -183.21 -183.21 -1.2450 725.85 0.0013777 -183.21 -183.21 -1.2450 1.3470 1.9220 2088.9 -0.0077225 6314.4 0.20584 1.3605e-07 7.3504e+06 355.06 372.51 4.7612 0.71833 0.90688 148.41 4.9442 2.5181 0.0020423
-179.62 4.8378e-07 3.3951e-10 -181.29 -181.29 -1.2243 724.81 0.0013797 -181.29 -181.29 -1.2243 1.3461 1.9231 2082.0 -0.0077164 5878.8 0.20551 1.8915e-07 5.2868e+06 355.78 373.42 4.7068 0.72227 0.91082 149.13 4.8038 2.5456 0.0020915
-178.62 6.7459e-07 4.6790e-10 -179.37 -179.37 -1.2038 723.78 0.0013816 -179.37 -179.37 -1.2038 1.3453 1.9241 2075.2 -0.0077102 5482.9 0.20517 2.6096e-07 3.8320e+06 356.51 374.33 4.6538 0.72620 0.91475 149.84 4.6688 2.5731 0.0021410
-177.62 9.3358e-07 6.4005e-10 -177.44 -177.44 -1.1836 722.75 0.0013836 -177.44 -177.44 -1.1836 1.3445 1.9252 2068.4 -0.0077039 5122.6 0.20483 3.5737e-07 2.7982e+06 357.23 375.25 4.6022 0.73012 0.91867 150.54 4.5390 2.6005 0.0021907
-176.62 1.2826e-06 8.6925e-10 -175.52 -175.52 -1.1635 721.72 0.0013856 -175.52 -175.52 -1.1635 1.3437 1.9263 2061.5 -0.0076973 4794.1 0.20447 4.8588e-07 2.0581e+06 357.97 376.17 4.5519 0.73403 0.92258 151.25 4.4142 2.6280 0.0022408
-175.62 1.7496e-06 1.1723e-09 -173.59 -173.59 -1.1437 720.69 0.0013876 -173.59 -173.59 -1.1437 1.3430 1.9274 2054.7 -0.0076907 4494.3 0.20411 6.5601e-07 1.5244e+06 358.70 377.09 4.5029 0.73792 0.92648 151.95 4.2941 2.6555 0.0022912
-174.62 2.3705e-06 1.5704e-09 -171.66 -171.66 -1.1240 719.66 0.0013895 -171.66 -171.66 -1.1240 1.3423 1.9286 2047.9 -0.0076838 4220.2 0.20375 8.7976e-07 1.1367e+06 359.44 378.02 4.4551 0.74181 0.93036 152.64 4.1784 2.6830 0.0023418
-173.62 3.1903e-06 2.0900e-09 -169.73 -169.73 -1.1045 718.64 0.0013915 -169.73 -169.73 -1.1045 1.3417 1.9298 2041.0 -0.0076769 3969.3 0.20338 1.1721e-06 8.5314e+05 360.19 378.95 4.4085 0.74568 0.93423 153.33 4.0671 2.7105 0.0023928
-172.62 4.2661e-06 2.7639e-09 -167.80 -167.80 -1.0852 717.61 0.0013935 -167.80 -167.80 -1.0852 1.3411 1.9310 2034.2 -0.0076698 3739.3 0.20300 1.5518e-06 6.4441e+05 360.93 379.89 4.3631 0.74953 0.93809 154.02 3.9599 2.7379 0.0024440
-171.62 5.6692e-06 3.6327e-09 -165.87 -165.87 -1.0661 716.58 0.0013955 -165.87 -165.87 -1.0661 1.3405 1.9322 2027.3 -0.0076625 3528.0 0.20261 2.0419e-06 4.8974e+05 361.69 380.83 4.3188 0.75337 0.94193 154.71 3.8566 2.7654 0.0024955
-170.62 7.4884e-06 4.7463e-09 -163.94 -163.94 -1.0472 715.56 0.0013975 -163.94 -163.94 -1.0472 1.3400 1.9334 2020.5 -0.0076552 3333.8 0.20222 2.6708e-06 3.7442e+05 362.44 381.77 4.2755 0.75720 0.94575 155.39 3.7570 2.7929 0.0025473
-169.62 9.8334e-06 6.1654e-09 -162.00 -162.00 -1.0284 714.54 0.0013995 -162.00 -162.00 -1.0284 1.3395 1.9347 2013.6 -0.0076477 3154.9 0.20182 3.4733e-06 2.8791e+05 363.20 382.72 4.2334 0.76100 0.94956 156.07 3.6609 2.8204 0.0025994
-168.62 1.2839e-05 7.9641e-09 -160.07 -160.07 -1.0098 713.52 0.0014015 -160.07 -160.07 -1.0098 1.3390 1.9359 2006.8 -0.0076401 2989.9 0.20141 4.4917e-06 2.2263e+05 363.96 383.67 4.1922 0.76479 0.95335 156.74 3.5683 2.8479 0.0026518
-167.62 1.6672e-05 1.0232e-08 -158.13 -158.13 -0.99134 712.49 0.0014035 -158.13 -158.13 -0.99134 1.3386 1.9372 2000.0 -0.0076323 2837.5 0.20100 5.7771e-06 1.7310e+05 364.73 384.63 4.1521 0.76856 0.95712 157.41 3.4790 2.8754 0.0027045
-166.62 2.1533e-05 1.3076e-08 -156.19 -156.19 -0.97306 711.47 0.0014055 -156.19 -156.19 -0.97306 1.3382 1.9385 1993.1 -0.0076245 2696.5 0.20058 7.3914e-06 1.3529e+05 365.50 385.59 4.1129 0.77232 0.96087 158.08 3.3927 2.9029 0.0027575
-165.62 2.7666e-05 1.6625e-08 -154.25 -154.25 -0.95494 710.45 0.0014075 -154.25 -154.25 -0.95494 1.3378 1.9398 1986.3 -0.0076165 2566.0 0.20016 9.4084e-06 1.0629e+05 366.27 386.55 4.0746 0.77605 0.96460 158.75 3.3095 2.9304 0.0028108
-164.62 3.5367e-05 2.1033e-08 -152.31 -152.31 -0.93698 709.44 0.0014096 -152.31 -152.31 -0.93698 1.3375 1.9411 1979.4 -0.0076084 2444.9 0.19973 1.1916e-05 83918. 367.05 387.52 4.0372 0.77976 0.96832 159.41 3.2291 2.9579 0.0028643
-163.62 4.4989e-05 2.6481e-08 -150.37 -150.37 -0.91917 708.42 0.0014116 -150.37 -150.37 -0.91917 1.3371 1.9424 1972.6 -0.0076002 2332.3 0.19930 1.5020e-05 66577. 367.83 388.49 4.0008 0.78346 0.97201 160.07 3.1514 2.9854 0.0029182
-162.62 5.6956e-05 3.3183e-08 -148.43 -148.43 -0.90151 707.40 0.0014136 -148.43 -148.43 -0.90151 1.3368 1.9437 1965.8 -0.0075919 2227.7 0.19886 1.8844e-05 53068. 368.62 389.46 3.9651 0.78713 0.97569 160.72 3.0764 3.0129 0.0029723
-161.62 7.1773e-05 4.1393e-08 -146.48 -146.48 -0.88400 706.38 0.0014157 -146.48 -146.48 -0.88400 1.3365 1.9451 1959.0 -0.0075834 2130.2 0.19841 2.3533e-05 42494. 369.41 390.44 3.9304 0.79079 0.97935 161.38 3.0038 3.0404 0.0030268
-160.62 9.0036e-05 5.1404e-08 -144.54 -144.54 -0.86663 705.37 0.0014177 -144.54 -144.54 -0.86663 1.3363 1.9465 1952.1 -0.0075748 2039.2 0.19796 2.9258e-05 34178. 370.20 391.42 3.8964 0.79443 0.98298 162.03 2.9337 3.0679 0.0030815
-159.62 0.00011245 6.3562e-08 -142.59 -142.59 -0.84940 704.35 0.0014197 -142.59 -142.59 -0.84940 1.3360 1.9478 1945.3 -0.0075661 1954.2 0.19751 3.6221e-05 27609. 371.00 392.40 3.8632 0.79805 0.98660 162.68 2.8658 3.0955 0.0031365
-158.62 0.00013985 7.8267e-08 -140.64 -140.64 -0.83231 703.34 0.0014218 -140.64 -140.64 -0.83231 1.3358 1.9492 1938.5 -0.0075573 1874.8 0.19705 4.4652e-05 22395. 371.80 393.39 3.8307 0.80164 0.99020 163.32 2.8002 3.1230 0.0031918
-157.62 0.00017320 9.5979e-08 -138.69 -138.69 -0.81536 702.32 0.0014238 -138.69 -138.69 -0.81536 1.3356 1.9506 1931.7 -0.0075484 1800.3 0.19658 5.4822e-05 18241. 372.60 394.38 3.7990 0.80522 0.99378 163.96 2.7367 3.1505 0.0032474
-156.62 0.00021364 1.1723e-07 -136.74 -136.74 -0.79854 701.31 0.0014259 -136.74 -136.74 -0.79854 1.3354 1.9520 1924.9 -0.0075393 1730.5 0.19611 6.7040e-05 14916. 373.41 395.38 3.7680 0.80878 0.99734 164.60 2.6752 3.1780 0.0033033
-155.62 0.00026248 1.4264e-07 -134.79 -134.79 -0.78185 700.30 0.0014280 -134.79 -134.79 -0.78185 1.3352 1.9534 1918.1 -0.0075302 1664.9 0.19564 8.1666e-05 12245. 374.22 396.38 3.7377 0.81232 1.0009 165.24 2.6157 3.2055 0.0033595
-154.62 0.00032125 1.7290e-07 -132.83 -132.83 -0.76530 699.29 0.0014300 -132.83 -132.83 -0.76530 1.3350 1.9548 1911.3 -0.0075209 1603.3 0.19516 9.9109e-05 10090. 375.03 397.38 3.7081 0.81585 1.0044 165.87 2.5580 3.2330 0.0034160
-153.62 0.00039171 2.0882e-07 -130.88 -130.88 -0.74887 698.27 0.0014321 -130.88 -130.88 -0.74887 1.3349 1.9563 1904.5 -0.0075114 1545.3 0.19468 0.00011984 8344.6 375.85 398.39 3.6792 0.81935 1.0079 166.50 2.5022 3.2606 0.0034727
-152.62 0.00047590 2.5129e-07 -128.92 -128.92 -0.73256 697.26 0.0014342 -128.92 -128.92 -0.73256 1.3348 1.9577 1897.8 -0.0075019 1490.6 0.19419 0.00014439 6925.9 376.67 399.40 3.6509 0.82284 1.0114 167.13 2.4481 3.2881 0.0035298
-151.62 0.00057613 3.0135e-07 -126.96 -126.96 -0.71638 696.25 0.0014363 -126.96 -126.96 -0.71638 1.3346 1.9592 1891.0 -0.0074922 1438.9 0.19370 0.00017336 5768.4 377.49 400.41 3.6232 0.82631 1.0149 167.76 2.3957 3.3156 0.0035872
-150.62 0.00069507 3.6017e-07 -125.00 -125.00 -0.70032 695.24 0.0014384 -125.00 -125.00 -0.70032 1.3345 1.9606 1884.2 -0.0074824 1390.2 0.19320 0.00020744 4820.7 378.32 401.42 3.5962 0.82976 1.0183 168.38 2.3448 3.3431 0.0036448
-149.62 0.00083574 4.2903e-07 -123.04 -123.04 -0.68437 694.23 0.0014404 -123.04 -123.04 -0.68438 1.3345 1.9621 1877.4 -0.0074724 1344.0 0.19270 0.00024740 4042.0 379.15 402.44 3.5697 0.83319 1.0218 169.00 2.2956 3.3706 0.0037027
-148.62 0.0010016 5.0943e-07 -121.08 -121.08 -0.66855 693.22 0.0014425 -121.08 -121.08 -0.66855 1.3344 1.9636 1870.7 -0.0074623 1300.3 0.19220 0.00029412 3400.0 379.99 403.47 3.5438 0.83661 1.0252 169.62 2.2478 3.3982 0.0037610
-147.62 0.0011965 6.0299e-07 -119.11 -119.11 -0.65283 692.21 0.0014447 -119.11 -119.11 -0.65284 1.3343 1.9651 1863.9 -0.0074521 1258.9 0.19169 0.00034856 2869.0 380.83 404.49 3.5185 0.84001 1.0286 170.24 2.2014 3.4257 0.0038195
-146.62 0.0014249 7.1154e-07 -117.15 -117.15 -0.63724 691.20 0.0014468 -117.15 -117.15 -0.63724 1.3343 1.9666 1857.2 -0.0074417 1219.6 0.19117 0.00041181 2428.3 381.67 405.52 3.4938 0.84340 1.0320 170.85 2.1565 3.4532 0.0038783
-145.62 0.0016917 8.3714e-07 -115.18 -115.18 -0.62175 690.19 0.0014489 -115.18 -115.18 -0.62175 1.3343 1.9682 1850.4 -0.0074312 1182.3 0.19066 0.00048510 2061.4 382.51 406.56 3.4695 0.84677 1.0353 171.46 2.1128 3.4807 0.0039374
-144.62 0.0020026 9.8204e-07 -113.21 -113.21 -0.60637 689.18 0.0014510 -113.21 -113.21 -0.60637 1.3343 1.9697 1843.7 -0.0074206 1146.8 0.19014 0.00056976 1755.1 383.36 407.59 3.4458 0.85012 1.0387 172.07 2.0705 3.5082 0.0039967
-143.62 0.0023637 1.1488e-06 -111.24 -111.24 -0.59109 688.17 0.0014531 -111.24 -111.24 -0.59110 1.3343 1.9713 1836.9 -0.0074098 1113.0 0.18962 0.00066731 1498.6 384.21 408.63 3.4226 0.85346 1.0420 172.68 2.0294 3.5358 0.0040564
-142.62 0.0027820 1.3400e-06 -109.27 -109.27 -0.57593 687.16 0.0014553 -109.27 -109.27 -0.57593 1.3343 1.9728 1830.2 -0.0073988 1080.8 0.18909 0.00077939 1283.1 385.07 409.68 3.3999 0.85679 1.0454 173.28 1.9896 3.5633 0.0041164
-141.62 0.0032653 1.5589e-06 -107.30 -107.30 -0.56086 686.15 0.0014574 -107.30 -107.30 -0.56087 1.3343 1.9744 1823.5 -0.0073878 1050.1 0.18856 0.00090784 1101.5 385.93 410.72 3.3777 0.86011 1.0487 173.88 1.9508 3.5908 0.0041766
-140.62 0.0038222 1.8088e-06 -105.32 -105.32 -0.54590 685.14 0.0014596 -105.32 -105.32 -0.54591 1.3344 1.9760 1816.7 -0.0073765 1020.7 0.18803 0.0010547 948.16 386.79 411.77 3.3560 0.86341 1.0520 174.48 1.9133 3.6183 0.0042372
-139.62 0.0044623 2.0933e-06 -103.34 -103.34 -0.53104 684.13 0.0014617 -103.34 -103.34 -0.53105 1.3344 1.9776 1810.0 -0.0073651 992.74 0.18749 0.0012221 818.26 387.65 412.83 3.3347 0.86670 1.0553 175.08 1.8768 3.6459 0.0042980
-138.62 0.0051963 2.4165e-06 -101.36 -101.36 -0.51628 683.12 0.0014639 -101.37 -101.37 -0.51629 1.3345 1.9792 1803.3 -0.0073536 965.97 0.18695 0.0014125 707.94 388.52 413.88 3.3139 0.86998 1.0586 175.67 1.8413 3.6734 0.0043592
-137.62 0.0060358 2.7827e-06 -99.385 -99.385 -0.50161 682.11 0.0014660 -99.386 -99.386 -0.50162 1.3346 1.9808 1796.6 -0.0073419 940.35 0.18641 0.0016287 614.00 389.39 414.94 3.2935 0.87325 1.0619 176.26 1.8069 3.7009 0.0044206
-136.62 0.0069938 3.1967e-06 -97.403 -97.403 -0.48704 681.10 0.0014682 -97.404 -97.404 -0.48705 1.3347 1.9825 1789.9 -0.0073301 915.81 0.18586 0.0018733 533.80 390.26 416.00 3.2735 0.87650 1.0651 176.85 1.7734 3.7284 0.0044823
-135.62 0.0080843 3.6636e-06 -95.419 -95.419 -0.47257 680.09 0.0014704 -95.421 -95.421 -0.47258 1.3348 1.9841 1783.2 -0.0073180 892.30 0.18531 0.0021497 465.17 391.14 417.07 3.2540 0.87975 1.0684 177.44 1.7409 3.7559 0.0045443
-134.62 0.0093230 4.1891e-06 -93.434 -93.434 -0.45818 679.08 0.0014726 -93.436 -93.436 -0.45820 1.3350 1.9858 1776.5 -0.0073059 869.75 0.18476 0.0024613 406.30 392.02 418.14 3.2348 0.88299 1.0716 178.02 1.7093 3.7834 0.0046066
-133.62 0.010727 4.7793e-06 -91.447 -91.447 -0.44389 678.07 0.0014748 -91.450 -91.449 -0.44391 1.3351 1.9875 1769.8 -0.0072935 848.11 0.18421 0.0028116 355.67 392.91 419.21 3.2161 0.88622 1.0749 178.61 1.6786 3.8109 0.0046691
-132.62 0.012315 5.4406e-06 -89.459 -89.458 -0.42969 677.06 0.0014770 -89.461 -89.461 -0.42971 1.3353 1.9892 1763.1 -0.0072810 827.32 0.18365 0.0032049 312.03 393.79 420.29 3.1977 0.88944 1.0781 179.19 1.6488 3.8385 0.0047320
-131.62 0.014106 6.1802e-06 -87.468 -87.468 -0.41557 676.04 0.0014792 -87.471 -87.471 -0.41560 1.3354 1.9909 1756.4 -0.0072684 807.34 0.18309 0.0036453 274.33 394.68 421.36 3.1798 0.89266 1.0813 179.76 1.6197 3.8660 0.0047951
-130.62 0.016124 7.0057e-06 -85.476 -85.476 -0.40155 675.03 0.0014814 -85.479 -85.479 -0.40157 1.3356 1.9926 1749.7 -0.0072555 788.12 0.18253 0.0041375 241.69 395.58 422.44 3.1622 0.89586 1.0846 180.34 1.5915 3.8935 0.0048586
-129.62 0.018392 7.9251e-06 -83.482 -83.482 -0.38761 674.02 0.0014836 -83.486 -83.486 -0.38763 1.3358 1.9944 1743.0 -0.0072425 769.63 0.18196 0.0046867 213.37 396.47 423.53 3.1450 0.89906 1.0878 180.91 1.5641 3.9210 0.0049223
-128.62 0.020935 8.9472e-06 -81.486 -81.486 -0.37375 673.01 0.0014859 -81.491 -81.490 -0.37378 1.3360 1.9961 1736.3 -0.0072294 751.83 0.18140 0.0052981 188.75 397.37 424.62 3.1281 0.90226 1.0910 181.48 1.5374 3.9485 0.0049863
-127.62 0.023783 1.0081e-05 -79.489 -79.488 -0.35998 672.00 0.0014881 -79.494 -79.493 -0.36001 1.3363 1.9979 1729.6 -0.0072160 734.67 0.18083 0.0059776 167.29 398.27 425.71 3.1116 0.90545 1.0942 182.05 1.5114 3.9760 0.0050506
-126.62 0.026966 1.1337e-05 -77.489 -77.489 -0.34628 670.98 0.0014904 -77.495 -77.495 -0.34632 1.3365 1.9997 1722.9 -0.0072025 718.14 0.18025 0.0067313 148.56 399.18 426.80 3.0954 0.90863 1.0974 182.62 1.4861 4.0035 0.0051152
-125.62 0.030515 1.2726e-05 -75.488 -75.488 -0.33267 669.97 0.0014926 -75.494 -75.494 -0.33272 1.3368 2.0015 1716.2 -0.0071888 702.18 0.17968 0.0075660 132.17 400.09 427.89 3.0795 0.91181 1.1006 183.18 1.4615 4.0310 0.0051800
-124.62 0.034467 1.4259e-05 -73.485 -73.484 -0.31914 668.95 0.0014949 -73.492 -73.492 -0.31919 1.3371 2.0033 1709.5 -0.0071749 686.79 0.17910 0.0084885 117.81 401.00 428.99 3.0640 0.91499 1.1038 183.74 1.4375 4.0584 0.0052452
-123.62 0.038859 1.5947e-05 -71.480 -71.479 -0.30569 667.94 0.0014971 -71.488 -71.487 -0.30574 1.3374 2.0051 1702.8 -0.0071609 671.93 0.17852 0.0095065 105.19 401.91 430.10 3.0488 0.91816 1.1070 184.30 1.4141 4.0859 0.0053106
-122.62 0.043731 1.7804e-05 -69.473 -69.472 -0.29231 666.92 0.0014994 -69.482 -69.481 -0.29237 1.3377 2.0070 1696.2 -0.0071466 657.57 0.17794 0.010628 94.092 402.83 431.20 3.0339 0.92134 1.1102 184.86 1.3913 4.1134 0.0053764
-121.62 0.049128 1.9843e-05 -67.464 -67.463 -0.27901 665.91 0.0015017 -67.474 -67.473 -0.27907 1.3380 2.0089 1689.5 -0.0071322 643.70 0.17736 0.011861 84.309 403.75 432.31 3.0193 0.92451 1.1134 185.41 1.3691 4.1409 0.0054424
-120.62 0.055096 2.2078e-05 -65.454 -65.452 -0.26578 664.89 0.0015040 -65.464 -65.463 -0.26585 1.3384 2.0107 1682.8 -0.0071176 630.28 0.17678 0.013215 75.669 404.67 433.42 3.0050 0.92767 1.1166 185.96 1.3475 4.1683 0.0055087
-119.62 0.061684 2.4524e-05 -63.441 -63.439 -0.25263 663.87 0.0015063 -63.452 -63.452 -0.25271 1.3387 2.0126 1676.1 -0.0071028 617.30 0.17619 0.014700 68.027 405.60 434.53 2.9909 0.93084 1.1198 186.51 1.3264 4.1958 0.0055752
-118.62 0.068946 2.7198e-05 -61.426 -61.424 -0.23955 662.86 0.0015086 -61.439 -61.438 -0.23963 1.3391 2.0146 1669.4 -0.0070878 604.74 0.17560 0.016325 61.255 406.53 435.64 2.9772 0.93401 1.1231 187.06 1.3058 4.2233 0.0056421
-117.62 0.076937 3.0115e-05 -59.409 -59.407 -0.22654 661.84 0.0015109 -59.423 -59.422 -0.22663 1.3395 2.0165 1662.8 -0.0070726 592.58 0.17501 0.018101 55.245 407.46 436.76 2.9638 0.93718 1.1263 187.60 1.2857 4.2507 0.0057092
-116.62 0.085718 3.3293e-05 -57.390 -57.388 -0.21360 660.82 0.0015133 -57.406 -57.405 -0.21370 1.3400 2.0184 1656.1 -0.0070573 580.80 0.17442 0.020040 49.901 408.39 437.88 2.9506 0.94035 1.1295 188.14 1.2660 4.2782 0.0057767
-115.62 0.095353 3.6751e-05 -55.369 -55.367 -0.20073 659.80 0.0015156 -55.386 -55.385 -0.20084 1.3404 2.0204 1649.4 -0.0070417 569.38 0.17383 0.022152 45.142 409.33 439.01 2.9377 0.94352 1.1327 188.68 1.2468 4.3056 0.0058444
-114.62 0.10591 4.0508e-05 -53.346 -53.344 -0.18792 658.78 0.0015180 -53.365 -53.364 -0.18805 1.3409 2.0224 1642.7 -0.0070260 558.32 0.17323 0.024451 40.898 410.27 440.13 2.9250 0.94669 1.1360 189.22 1.2281 4.3330 0.0059123
-113.62 0.11746 4.4584e-05 -51.321 -51.318 -0.17519 657.76 0.0015203 -51.342 -51.340 -0.17533 1.3413 2.0244 1636.0 -0.0070100 547.59 0.17264 0.026949 37.107 411.21 441.26 2.9126 0.94987 1.1392 189.75 1.2097 4.3604 0.0059806
-112.62 0.13008 4.8999e-05 -49.294 -49.291 -0.16252 656.73 0.0015227 -49.316 -49.315 -0.16267 1.3418 2.0264 1629.3 -0.0069938 537.18 0.17204 0.029661 33.715 412.16 442.39 2.9005 0.95305 1.1424 190.28 1.1918 4.3879 0.0060491
-111.62 0.14384 5.3777e-05 -47.264 -47.261 -0.14992 655.71 0.0015251 -47.289 -47.287 -0.15008 1.3424 2.0285 1622.7 -0.0069774 527.08 0.17144 0.032600 30.675 413.10 443.53 2.8885 0.95623 1.1457 190.81 1.1742 4.4153 0.0061180
-110.62 0.15884 5.8939e-05 -45.232 -45.229 -0.13738 654.69 0.0015274 -45.259 -45.258 -0.13755 1.3429 2.0305 1616.0 -0.0069609 517.28 0.17084 0.035781 27.948 414.06 444.66 2.8769 0.95942 1.1490 191.34 1.1570 4.4427 0.0061871
-109.62 0.17516 6.4511e-05 -43.198 -43.194 -0.12490 653.66 0.0015298 -43.228 -43.226 -0.12509 1.3435 2.0326 1609.3 -0.0069441 507.76 0.17024 0.039220 25.497 415.01 445.80 2.8654 0.96261 1.1522 191.86 1.1402 4.4701 0.0062564
-108.62 0.19290 7.0515e-05 -41.162 -41.158 -0.11248 652.64 0.0015322 -41.194 -41.192 -0.11269 1.3441 2.0347 1602.6 -0.0069271 498.51 0.16964 0.042933 23.292 415.96 446.94 2.8542 0.96581 1.1555 192.38 1.1236 4.4974 0.0063261
-107.62 0.21215 7.6979e-05 -39.123 -39.119 -0.10013 651.61 0.0015347 -39.158 -39.156 -0.10036 1.3447 2.0369 1595.9 -0.0069098 489.52 0.16903 0.046937 21.305 416.92 448.09 2.8433 0.96901 1.1588 192.90 1.1075 4.5248 0.0063960
-106.62 0.23301 8.3930e-05 -37.082 -37.077 -0.087837 650.58 0.0015371 -37.120 -37.118 -0.088082 1.3453 2.0390 1589.2 -0.0068924 480.79 0.16843 0.051250 19.512 417.88 449.23 2.8325 0.97222 1.1621 193.41 1.0916 4.5522 0.0064662
-105.62 0.25561 9.1394e-05 -35.039 -35.033 -0.075604 649.55 0.0015395 -35.080 -35.078 -0.075868 1.3460 2.0412 1582.6 -0.0068747 472.30 0.16782 0.055891 17.892 418.85 450.38 2.8220 0.97544 1.1655 193.93 1.0760 4.5795 0.0065367
-104.62 0.28004 9.9401e-05 -32.993 -32.987 -0.063428 648.52 0.0015420 -33.038 -33.035 -0.063714 1.3467 2.0434 1575.9 -0.0068569 464.04 0.16721 0.060878 16.426 419.81 451.53 2.8116 0.97867 1.1688 194.44 1.0608 4.6069 0.0066074
-103.62 0.30643 0.00010798 -30.945 -30.938 -0.051311 647.49 0.0015444 -30.994 -30.991 -0.051619 1.3474 2.0456 1569.2 -0.0068387 456.00 0.16660 0.066231 15.099 420.78 452.68 2.8015 0.98191 1.1722 194.94 1.0458 4.6342 0.0066785
-102.62 0.33490 0.00011716 -28.894 -28.887 -0.039250 646.46 0.0015469 -28.947 -28.944 -0.039582 1.3481 2.0478 1562.5 -0.0068204 448.18 0.16600 0.071971 13.894 421.75 453.84 2.7916 0.98516 1.1755 195.44 1.0310 4.6615 0.0067498
-101.62 0.36558 0.00012698 -26.841 -26.833 -0.027245 645.43 0.0015494 -26.898 -26.894 -0.027602 1.3489 2.0501 1555.8 -0.0068018 440.57 0.16539 0.078120 12.801 422.73 454.99 2.7818 0.98841 1.1789 195.95 1.0166 4.6888 0.0068213
-100.62 0.39862 0.00013746 -24.786 -24.777 -0.015295 644.39 0.0015519 -24.847 -24.843 -0.015678 1.3497 2.0524 1549.1 -0.0067830 433.16 0.16478 0.084699 11.807 423.70 456.15 2.7723 0.99168 1.1823 196.44 1.0024 4.7161 0.0068932
-99.625 0.43414 0.00014865 -22.727 -22.718 -0.0033990 643.36 0.0015544 -22.794 -22.789 -0.0038103 1.3505 2.0547 1542.4 -0.0067639 425.95 0.16416 0.091731 10.901 424.68 457.31 2.7630 0.99496 1.1858 196.94 0.98838 4.7434 0.0069653
-98.625 0.47230 0.00016057 -20.666 -20.656 0.0084436 642.32 0.0015569 -20.738 -20.733 0.0080027 1.3514 2.0570 1535.7 -0.0067447 418.92 0.16355 0.099240 10.077 425.66 458.48 2.7538 0.99825 1.1892 197.43 0.97464 4.7707 0.0070377
-97.625 0.51325 0.00017326 -18.603 -18.592 0.020234 641.28 0.0015594 -18.680 -18.674 0.019762 1.3522 2.0594 1529.0 -0.0067251 412.07 0.16294 0.10725 9.3239 426.65 459.64 2.7448 1.0016 1.1927 197.92 0.96112 4.7979 0.0071103
-96.625 0.55714 0.00018676 -16.537 -16.524 0.031972 640.24 0.0015619 -16.620 -16.614 0.031467 1.3531 2.0618 1522.3 -0.0067053 405.39 0.16233 0.11579 8.6365 427.63 460.81 2.7360 1.0049 1.1962 198.40 0.94783 4.8251 0.0071832
-95.625 0.60416 0.00020111 -14.468 -14.454 0.043660 639.20 0.0015645 -14.557 -14.550 0.043120 1.3540 2.0642 1515.7 -0.0066853 398.88 0.16171 0.12488 8.0078 428.62 461.98 2.7274 1.0082 1.1997 198.88 0.93475 4.8524 0.0072564
-94.625 0.65446 0.00021634 -12.396 -12.381 0.055297 638.16 0.0015670 -12.491 -12.484 0.054721 1.3550 2.0667 1509.0 -0.0066650 392.53 0.16110 0.13455 7.4323 429.61 463.15 2.7189 1.0116 1.2032 199.36 0.92188 4.8796 0.0073299
-93.625 0.70822 0.00023250 -10.321 -10.306 0.066886 637.12 0.0015696 -10.424 -10.416 0.066271 1.3560 2.0691 1502.3 -0.0066444 386.34 0.16048 0.14482 6.9050 430.60 464.32 2.7107 1.0149 1.2068 199.83 0.90921 4.9068 0.0074036
-92.625 0.76564 0.00024962 -8.2437 -8.2269 0.078426 636.07 0.0015722 -8.3535 -8.3452 0.077771 1.3570 2.0716 1495.6 -0.0066236 380.31 0.15987 0.15573 6.4212 431.60 465.49 2.7025 1.0183 1.2104 200.30 0.89673 4.9340 0.0074776
-91.625 0.82689 0.00026774 -6.1633 -6.1452 0.089918 635.02 0.0015747 -6.2808 -6.2719 0.089220 1.3580 2.0742 1488.9 -0.0066025 374.41 0.15925 0.16731 5.9769 432.59 466.67 2.6946 1.0217 1.2140 200.77 0.88445 4.9611 0.0075518
-90.625 0.89218 0.00028692 -4.0800 -4.0605 0.10136 633.98 0.0015773 -4.2056 -4.1959 0.10062 1.3591 2.0767 1482.2 -0.0065811 368.66 0.15864 0.17958 5.5685 433.59 467.84 2.6868 1.0251 1.2177 201.24 0.87236 4.9883 0.0076263
-89.625 0.96172 0.00030718 -1.9937 -1.9727 0.11276 632.93 0.0015800 -2.1279 -2.1174 0.11197 1.3602 2.0793 1475.5 -0.0065595 363.05 0.15802 0.19258 5.1928 434.59 469.02 2.6791 1.0285 1.2213 201.70 0.86045 5.0154 0.0077011
-88.625 1.0357 0.00032859 0.095629 0.11830 0.12412 631.88 0.0015826 -0.047516 -0.036215 0.12328 1.3613 2.0819 1468.8 -0.0065375 357.56 0.15740 0.20633 4.8466 435.59 470.20 2.6717 1.0320 1.2250 202.15 0.84873 5.0425 0.0077761
-87.625 1.1144 0.00035117 2.1881 2.2124 0.13542 630.83 0.0015852 2.0355 2.0476 0.13454 1.3625 2.0846 1462.1 -0.0065153 352.21 0.15679 0.22087 4.5276 436.60 471.39 2.6643 1.0354 1.2288 202.61 0.83718 5.0696 0.0078514
-86.625 1.1979 0.00037498 4.2836 4.3098 0.14669 629.77 0.0015879 4.1211 4.1342 0.14575 1.3637 2.0873 1455.4 -0.0064928 346.98 0.15617 0.23623 4.2331 437.61 472.57 2.6571 1.0389 1.2325 203.06 0.82580 5.0967 0.0079270
-85.625 1.2866 0.00040006 6.3823 6.4105 0.15791 628.72 0.0015905 6.2094 6.2235 0.15691 1.3649 2.0900 1448.8 -0.0064701 341.87 0.15555 0.25245 3.9612 438.61 473.75 2.6501 1.0424 1.2363 203.50 0.81460 5.1237 0.0080028
-84.625 1.3806 0.00042646 8.4843 8.5145 0.16909 627.66 0.0015932 8.3004 8.3155 0.16803 1.3661 2.0927 1442.1 -0.0064470 336.87 0.15494 0.26956 3.7097 439.63 474.94 2.6432 1.0460 1.2402 203.95 0.80356 5.1508 0.0080789
-83.625 1.4803 0.00045424 10.590 10.622 0.18023 626.60 0.0015959 10.394 10.410 0.17911 1.3674 2.0955 1435.4 -0.0064236 331.99 0.15432 0.28760 3.4771 440.64 476.13 2.6364 1.0495 1.2440 204.38 0.79269 5.1778 0.0081553
-82.625 1.5858 0.00048343 12.698 12.733 0.19132 625.54 0.0015986 12.491 12.508 0.19014 1.3687 2.0983 1428.7 -0.0063999 327.22 0.15370 0.30659 3.2616 441.65 477.31 2.6298 1.0531 1.2479 204.82 0.78199 5.2048 0.0082319
-81.625 1.6975 0.00051409 14.810 14.847 0.20238 624.48 0.0016013 14.590 14.609 0.20113 1.3700 2.1012 1422.0 -0.0063759 322.55 0.15309 0.32659 3.0619 442.67 478.50 2.6233 1.0567 1.2519 205.25 0.77144 5.2318 0.0083088
-80.625 1.8155 0.00054627 16.925 16.965 0.21340 623.42 0.0016041 16.692 16.712 0.21208 1.3714 2.1041 1415.4 -0.0063516 317.99 0.15247 0.34763 2.8766 443.69 479.70 2.6169 1.0603 1.2558 205.67 0.76106 5.2587 0.0083860
-79.625 1.9402 0.00058002 19.044 19.087 0.22437 622.36 0.0016068 18.797 18.819 0.22299 1.3728 2.1070 1408.7 -0.0063270 313.52 0.15186 0.36974 2.7046 444.71 480.89 2.6106 1.0639 1.2598 206.10 0.75083 5.2857 0.0084634
-78.625 2.0718 0.00061540 21.166 21.212 0.23531 621.29 0.0016096 20.905 20.928 0.23385 1.3742 2.1099 1402.0 -0.0063021 309.15 0.15124 0.39296 2.5448 445.73 482.08 2.6045 1.0676 1.2639 206.51 0.74076 5.3126 0.0085411
-77.625 2.2107 0.00065245 23.292 23.341 0.24621 620.22 0.0016123 23.016 23.040 0.24468 1.3757 2.1129 1395.3 -0.0062768 304.88 0.15062 0.41735 2.3961 446.75 483.27 2.5985 1.0712 1.2680 206.93 0.73084 5.3395 0.0086190
-76.625 2.3571 0.00069123 25.422 25.473 0.25707 619.15 0.0016151 25.130 25.156 0.25546 1.3772 2.1159 1388.7 -0.0062512 300.69 0.15001 0.44292 2.2577 447.78 484.47 2.5926 1.0749 1.2721 207.34 0.72107 5.3664 0.0086972
-75.625 2.5113 0.00073179 27.555 27.610 0.26790 618.08 0.0016179 27.247 27.275 0.26620 1.3787 2.1190 1382.0 -0.0062253 296.59 0.14939 0.46974 2.1288 448.81 485.67 2.5869 1.0787 1.2762 207.74 0.71146 5.3933 0.0087757
-74.625 2.6736 0.00077420 29.692 29.750 0.27869 617.01 0.0016207 29.366 29.396 0.27691 1.3802 2.1221 1375.4 -0.0061990 292.58 0.14878 0.49783 2.0087 449.83 486.86 2.5812 1.0824 1.2804 208.14 0.70200 5.4201 0.0088544
-73.625 2.8444 0.00081850 31.833 31.895 0.28945 615.93 0.0016236 31.489 31.521 0.28758 1.3818 2.1252 1368.7 -0.0061724 288.65 0.14816 0.52725 1.8966 450.86 488.06 2.5757 1.0862 1.2847 208.54 0.69268 5.4469 0.0089334
-72.625 3.0240 0.00086475 33.977 34.043 0.30017 614.85 0.0016264 33.615 33.649 0.29821 1.3834 2.1284 1362.0 -0.0061454 284.81 0.14755 0.55804 1.7920 451.90 489.26 2.5703 1.0900 1.2889 208.93 0.68351 5.4737 0.0090126
-71.625 3.2127 0.00091300 36.126 36.196 0.31086 613.78 0.0016293 35.745 35.781 0.30880 1.3851 2.1316 1355.4 -0.0061181 281.03 0.14694 0.59024 1.6942 452.93 490.46 2.5650 1.0938 1.2932 209.32 0.67448 5.5005 0.0090922
-70.625 3.4108 0.00096333 38.278 38.353 0.32151 612.69 0.0016321 37.877 37.915 0.31935 1.3867 2.1349 1348.7 -0.0060904 277.34 0.14632 0.62390 1.6028 453.96 491.66 2.5598 1.0976 1.2976 209.70 0.66560 5.5273 0.0091720
-69.625 3.6187 0.0010158 40.434 40.513 0.33213 611.61 0.0016350 40.013 40.053 0.32987 1.3884 2.1382 1342.1 -0.0060624 273.72 0.14571 0.65906 1.5173 455.00 492.86 2.5547 1.1015 1.3020 210.08 0.65687 5.5540 0.0092520
-68.625 3.8367 0.0010704 42.595 42.679 0.34272 610.53 0.0016379 42.152 42.195 0.34036 1.3902 2.1415 1335.5 -0.0060339 270.17 0.14510 0.69577 1.4372 456.04 494.06 2.5497 1.1054 1.3064 210.45 0.64827 5.5807 0.0093324
-67.625 4.0652 0.0011273 44.759 44.848 0.35328 609.44 0.0016409 44.294 44.340 0.35080 1.3919 2.1449 1328.8 -0.0060051 266.69 0.14449 0.73408 1.3622 457.08 495.26 2.5448 1.1093 1.3109 210.82 0.63981 5.6074 0.0094130
-66.625 4.3046 0.0011864 46.928 47.022 0.36380 608.35 0.0016438 46.439 46.488 0.36122 1.3937 2.1483 1322.2 -0.0059760 263.28 0.14388 0.77404 1.2919 458.12 496.46 2.5400 1.1133 1.3154 211.18 0.63150 5.6341 0.0094939
-65.625 4.5551 0.0012479 49.100 49.200 0.37430 607.26 0.0016467 48.588 48.640 0.37160 1.3955 2.1518 1315.6 -0.0059464 259.93 0.14327 0.81570 1.2259 459.16 497.67 2.5353 1.1172 1.3200 211.54 0.62332 5.6608 0.0095750
-64.625 4.8173 0.0013119 51.278 51.383 0.38477 606.16 0.0016497 50.740 50.795 0.38195 1.3974 2.1553 1308.9 -0.0059164 256.65 0.14266 0.85910 1.1640 460.21 498.87 2.5307 1.1212 1.3246 211.89 0.61527 5.6874 0.0096564
-63.625 5.0915 0.0013783 53.459 53.570 0.39520 605.07 0.0016527 52.896 52.954 0.39226 1.3993 2.1588 1302.3 -0.0058861 253.42 0.14205 0.90429 1.1058 461.25 500.07 2.5262 1.1252 1.3293 212.24 0.60736 5.7140 0.0097382
-62.625 5.3781 0.0014473 55.645 55.763 0.40561 603.97 0.0016557 55.055 55.117 0.40254 1.4012 2.1624 1295.7 -0.0058553 250.26 0.14144 0.95134 1.0511 462.30 501.28 2.5218 1.1293 1.3340 212.58 0.59958 5.7406 0.0098201
-61.625 5.6774 0.0015188 57.835 57.959 0.41599 602.87 0.0016587 57.218 57.283 0.41279 1.4031 2.1660 1289.1 -0.0058241 247.16 0.14084 1.0003 0.99972 463.35 502.48 2.5175 1.1333 1.3387 212.92 0.59194 5.7672 0.0099024
-60.625 5.9899 0.0015930 60.030 60.161 0.42634 601.77 0.0016618 59.385 59.453 0.42301 1.4051 2.1697 1282.5 -0.0057925 244.12 0.14023 1.0512 0.95131 464.40 503.68 2.5133 1.1374 1.3435 213.26 0.58442 5.7938 0.0099850
-59.625 6.3160 0.0016700 62.229 62.367 0.43666 600.66 0.0016648 61.554 61.627 0.43320 1.4071 2.1734 1275.9 -0.0057605 241.13 0.13962 1.1041 0.90573 465.45 504.89 2.5091 1.1415 1.3483 213.58 0.57704 5.8203 0.010068
-58.625 6.6561 0.0017497 64.433 64.579 0.44696 599.55 0.0016679 63.728 63.805 0.44335 1.4091 2.1772 1269.3 -0.0057280 238.19 0.13902 1.1591 0.86277 466.50 506.09 2.5051 1.1457 1.3532 213.90 0.56978 5.8468 0.010151
-57.625 7.0107 0.0018323 66.641 66.795 0.45723 598.44 0.0016710 65.905 65.986 0.45348 1.4111 2.1810 1262.7 -0.0056951 235.31 0.13842 1.2161 0.82228 467.55 507.30 2.5011 1.1498 1.3581 214.22 0.56265 5.8733 0.010234
-56.625 7.3801 0.0019178 68.855 69.016 0.46748 597.33 0.0016741 68.086 68.172 0.46358 1.4132 2.1848 1256.1 -0.0056617 232.48 0.13781 1.2754 0.78408 468.60 508.50 2.4972 1.1540 1.3631 214.53 0.55564 5.8998 0.010318
-55.625 7.7648 0.0020063 71.073 71.242 0.47770 596.22 0.0016772 70.271 70.361 0.47364 1.4153 2.1887 1249.5 -0.0056279 229.69 0.13721 1.3369 0.74802 469.66 509.71 2.4934 1.1582 1.3681 214.84 0.54875 5.9263 0.010402
-54.625 8.1652 0.0020978 73.295 73.474 0.48789 595.10 0.0016804 72.460 72.554 0.48368 1.4174 2.1927 1242.9 -0.0055937 226.96 0.13661 1.4006 0.71396 470.72 510.91 2.4897 1.1624 1.3731 215.14 0.54199 5.9527 0.010486
-53.625 8.5819 0.0021924 75.523 75.711 0.49806 593.98 0.0016836 74.652 74.752 0.49369 1.4196 2.1967 1236.3 -0.0055589 224.27 0.13601 1.4667 0.68178 471.77 512.11 2.4860 1.1667 1.3782 215.43 0.53535 5.9792 0.010571
-52.625 9.0151 0.0022902 77.756 77.953 0.50821 592.86 0.0016867 76.849 76.954 0.50368 1.4218 2.2007 1229.8 -0.0055237 221.63 0.13541 1.5353 0.65136 472.83 513.32 2.4824 1.1710 1.3834 215.72 0.52882 6.0056 0.010656
-51.625 9.4655 0.0023912 79.993 80.200 0.51833 591.73 0.0016900 79.049 79.159 0.51363 1.4240 2.2048 1223.2 -0.0054880 219.04 0.13482 1.6062 0.62258 473.89 514.52 2.4789 1.1752 1.3886 216.00 0.52241 6.0320 0.010741
-50.625 9.9335 0.0024955 82.236 82.453 0.52843 590.60 0.0016932 81.253 81.369 0.52356 1.4262 2.2089 1216.6 -0.0054519 216.48 0.13422 1.6797 0.59534 474.95 515.73 2.4755 1.1796 1.3938 216.28 0.51612 6.0584 0.010827
-49.625 10.419 0.0026031 84.484 84.712 0.53851 589.47 0.0016964 83.462 83.584 0.53347 1.4285 2.2131 1210.1 -0.0054152 213.98 0.13363 1.7558 0.56954 476.01 516.93 2.4722 1.1839 1.3991 216.55 0.50994 6.0848 0.010913
-48.625 10.924 0.0027142 86.736 86.976 0.54857 588.34 0.0016997 85.674 85.802 0.54334 1.4308 2.2173 1203.5 -0.0053780 211.51 0.13303 1.8345 0.54510 477.07 518.13 2.4689 1.1883 1.4044 216.82 0.50387 6.1112 0.010999
-47.625 11.448 0.0028287 88.995 89.245 0.55860 587.20 0.0017030 87.891 88.025 0.55319 1.4331 2.2216 1196.9 -0.0053403 209.08 0.13244 1.9159 0.52194 478.14 519.33 2.4657 1.1927 1.4098 217.08 0.49792 6.1375 0.011085
-46.625 11.991 0.0029469 91.258 91.520 0.56862 586.06 0.0017063 90.111 90.252 0.56302 1.4354 2.2259 1190.4 -0.0053020 206.69 0.13185 2.0001 0.49997 479.20 520.53 2.4625 1.1971 1.4153 217.33 0.49207 6.1639 0.011172
-45.625 12.554 0.0030686 93.527 93.801 0.57861 584.92 0.0017096 92.336 92.484 0.57282 1.4378 2.2303 1183.8 -0.0052633 204.34 0.13126 2.0872 0.47912 480.27 521.74 2.4594 1.2015 1.4207 217.58 0.48633 6.1902 0.011259
-44.625 13.137 0.0031940 95.801 96.088 0.58858 583.77 0.0017130 94.565 94.720 0.58260 1.4402 2.2347 1177.3 -0.0052240 202.03 0.13067 2.1771 0.45933 481.33 522.94 2.4564 1.2060 1.4263 217.82 0.48069 6.2165 0.011347
-43.625 13.741 0.0033231 98.080 98.381 0.59854 582.62 0.0017164 96.799 96.961 0.59235 1.4426 2.2392 1170.7 -0.0051841 199.75 0.13008 2.2700 0.44053 482.40 524.14 2.4535 1.2104 1.4319 218.05 0.47516 6.2429 0.011435
-42.625 14.367 0.0034561 100.36 100.68 0.60847 581.47 0.0017198 99.036 99.207 0.60208 1.4450 2.2437 1164.2 -0.0051437 197.51 0.12949 2.3659 0.42267 483.46 525.33 2.4506 1.2149 1.4375 218.28 0.46973 6.2692 0.011523
-41.625 15.015 0.0035929 102.66 102.98 0.61838 580.32 0.0017232 101.28 101.46 0.61179 1.4475 2.2483 1157.7 -0.0051027 195.30 0.12891 2.4649 0.40569 484.53 526.53 2.4478 1.2195 1.4432 218.50 0.46440 6.2955 0.011612
-40.625 15.686 0.0037336 104.95 105.29 0.62828 579.16 0.0017266 103.52 103.71 0.62147 1.4500 2.2529 1151.1 -0.0050611 193.13 0.12832 2.5671 0.38954 485.60 527.73 2.4450 1.2240 1.4489 218.72 0.45917 6.3218 0.011701
-39.625 16.380 0.0038784 107.25 107.61 0.63816 578.00 0.0017301 105.78 105.97 0.63113 1.4525 2.2576 1144.6 -0.0050189 190.99 0.12774 2.6725 0.37418 486.67 528.93 2.4423 1.2286 1.4547 218.93 0.45403 6.3481 0.011790
-38.625 17.097 0.0040272 109.56 109.93 0.64802 576.83 0.0017336 108.03 108.24 0.64077 1.4550 2.2623 1138.0 -0.0049761 188.88 0.12716 2.7813 0.35955 487.74 530.12 2.4397 1.2332 1.4606 219.13 0.44900 6.3744 0.011880
-37.625 17.838 0.0041802 111.87 112.26 0.65786 575.66 0.0017371 110.29 110.51 0.65039 1.4576 2.2671 1131.5 -0.0049327 186.81 0.12658 2.8934 0.34562 488.81 531.32 2.4371 1.2378 1.4665 219.33 0.44405 6.4007 0.011970
-36.625 18.604 0.0043373 114.19 114.60 0.66768 574.49 0.0017407 112.56 112.78 0.65999 1.4602 2.2719 1125.0 -0.0048887 184.76 0.12600 3.0089 0.33235 489.88 532.51 2.4346 1.2424 1.4724 219.52 0.43920 6.4270 0.012060
-35.625 19.395 0.0044987 116.52 116.94 0.67749 573.32 0.0017442 114.83 115.06 0.66956 1.4628 2.2768 1118.5 -0.0048440 182.75 0.12542 3.1280 0.31969 490.95 533.70 2.4321 1.2471 1.4784 219.70 0.43444 6.4533 0.012151
-34.625 20.212 0.0046645 118.85 119.29 0.68728 572.14 0.0017478 117.10 117.34 0.67912 1.4654 2.2818 1111.9 -0.0047987 180.76 0.12485 3.2506 0.30763 492.02 534.89 2.4297 1.2517 1.4845 219.88 0.42977 6.4797 0.012243
-33.625 21.056 0.0048346 121.18 121.65 0.69706 570.96 0.0017514 119.38 119.63 0.68865 1.4681 2.2868 1105.4 -0.0047527 178.80 0.12427 3.3770 0.29612 493.09 536.08 2.4273 1.2564 1.4906 220.05 0.42519 6.5060 0.012334
-32.625 21.926 0.0050091 123.53 124.01 0.70682 569.77 0.0017551 121.66 121.93 0.69817 1.4708 2.2918 1098.9 -0.0047061 176.87 0.12370 3.5071 0.28514 494.17 537.27 2.4250 1.2611 1.4968 220.21 0.42070 6.5323 0.012426
-31.625 22.823 0.0051882 125.88 126.38 0.71656 568.58 0.0017588 123.95 124.23 0.70767 1.4735 2.2970 1092.3 -0.0046587 174.97 0.12313 3.6410 0.27465 495.24 538.46 2.4227 1.2659 1.5031 220.36 0.41629 6.5587 0.012519
-30.625 23.749 0.0053719 128.23 128.75 0.72629 567.39 0.0017625 126.24 126.53 0.71714 1.4762 2.3021 1085.8 -0.0046107 173.09 0.12256 3.7787 0.26464 496.31 539.64 2.4205 1.2706 1.5094 220.51 0.41196 6.5850 0.012612
-29.625 24.703 0.0055602 130.59 131.13 0.73601 566.19 0.0017662 128.54 128.84 0.72660 1.4790 2.3074 1079.3 -0.0045619 171.24 0.12200 3.9205 0.25507 497.38 540.83 2.4184 1.2754 1.5157 220.65 0.40772 6.6114 0.012706
-28.625 25.687 0.0057532 132.96 133.52 0.74571 564.99 0.0017699 130.84 131.16 0.73604 1.4818 2.3126 1072.8 -0.0045124 169.42 0.12143 4.0663 0.24592 498.46 542.01 2.4162 1.2802 1.5222 220.79 0.40356 6.6378 0.012800
-27.625 26.700 0.0059510 135.33 135.92 0.75540 563.78 0.0017737 133.15 133.48 0.74547 1.4846 2.3180 1066.2 -0.0044621 167.62 0.12087 4.2163 0.23717 499.53 543.19 2.4142 1.2850 1.5286 220.91 0.39947 6.6642 0.012894
-26.625 27.743 0.0061536 137.71 138.32 0.76507 562.57 0.0017775 135.47 135.81 0.75487 1.4874 2.3234 1059.7 -0.0044111 165.84 0.12031 4.3705 0.22881 500.60 544.37 2.4122 1.2899 1.5352 221.03 0.39547 6.6906 0.012989
-25.625 28.817 0.0063611 140.10 140.73 0.77473 561.36 0.0017814 137.78 138.14 0.76426 1.4902 2.3289 1053.2 -0.0043593 164.09 0.11975 4.5290 0.22080 501.68 545.55 2.4102 1.2947 1.5418 221.14 0.39154 6.7171 0.013084
-24.625 29.923 0.0065736 142.49 143.15 0.78437 560.14 0.0017853 140.11 140.48 0.77363 1.4931 2.3344 1046.7 -0.0043067 162.36 0.11919 4.6918 0.21314 502.75 546.72 2.4083 1.2996 1.5485 221.25 0.38768 6.7436 0.013180
-23.625 31.061 0.0067911 144.89 145.57 0.79401 558.92 0.0017892 142.44 142.82 0.78298 1.4960 2.3400 1040.1 -0.0042533 160.65 0.11863 4.8592 0.20580 503.82 547.90 2.4064 1.3045 1.5552 221.35 0.38391 6.7701 0.013277
-22.625 32.232 0.0070137 147.30 148.00 0.80363 557.69 0.0017931 144.77 145.17 0.79232 1.4990 2.3457 1033.6 -0.0041990 158.97 0.11807 5.0311 0.19877 504.90 549.07 2.4045 1.3095 1.5621 221.44 0.38020 6.7967 0.013374
-21.625 33.435 0.0072414 149.71 150.44 0.81324 556.46 0.0017971 147.11 147.52 0.80164 1.5019 2.3514 1027.1 -0.0041439 157.30 0.11752 5.2076 0.19203 505.97 550.24 2.4027 1.3144 1.5690 221.52 0.37656 6.8232 0.013471
-20.625 34.673 0.0074744 152.13 152.89 0.82284 555.23 0.0018011 149.45 149.88 0.81095 1.5049 2.3572 1020.6 -0.0040879 155.66 0.11697 5.3889 0.18557 507.04 551.40 2.4010 1.3194 1.5759 221.59 0.37300 6.8499 0.013569
-19.625 35.946 0.0077126 154.55 155.34 0.83242 553.99 0.0018051 151.80 152.25 0.82024 1.5079 2.3630 1014.0 -0.0040311 154.04 0.11642 5.5750 0.17937 508.11 552.57 2.3992 1.3244 1.5829 221.66 0.36950 6.8765 0.013668
-18.625 37.253 0.0079561 156.98 157.80 0.84200 552.74 0.0018092 154.16 154.62 0.82952 1.5109 2.3689 1007.5 -0.0039733 152.44 0.11587 5.7660 0.17343 509.19 553.73 2.3976 1.3294 1.5901 221.72 0.36608 6.9032 0.013767
-17.625 38.596 0.0082051 159.42 160.27 0.85156 551.49 0.0018133 156.52 157.00 0.83878 1.5140 2.3749 1001.0 -0.0039145 150.86 0.11532 5.9621 0.16773 510.26 554.89 2.3959 1.3345 1.5972 221.77 0.36272 6.9300 0.013867
-16.625 39.976 0.0084595 161.87 162.74 0.86111 550.24 0.0018174 158.89 159.39 0.84803 1.5171 2.3810 994.44 -0.0038549 149.29 0.11478 6.1632 0.16225 511.33 556.05 2.3943 1.3395 1.6045 221.81 0.35942 6.9568 0.013968
-15.625 41.392 0.0087194 164.32 165.23 0.87065 548.98 0.0018216 161.26 161.78 0.85726 1.5202 2.3871 987.91 -0.0037942 147.75 0.11423 6.3696 0.15700 512.40 557.20 2.3927 1.3446 1.6119 221.85 0.35619 6.9836 0.014069
-14.625 42.846 0.0089849 166.78 167.72 0.88019 547.71 0.0018258 163.64 164.18 0.86649 1.5233 2.3933 981.37 -0.0037325 146.22 0.11369 6.5812 0.15195 513.47 558.36 2.3912 1.3497 1.6193 221.87 0.35302 7.0105 0.014170
-13.625 44.338 0.0092560 169.25 170.22 0.88971 546.44 0.0018300 166.02 166.58 0.87569 1.5264 2.3996 974.83 -0.0036698 144.72 0.11315 6.7983 0.14710 514.54 559.51 2.3897 1.3549 1.6268 221.89 0.34992 7.0375 0.014273
-12.625 45.870 0.0095329 171.72 172.72 0.89922 545.17 0.0018343 168.41 168.99 0.88489 1.5296 2.4059 968.29 -0.0036061 143.23 0.11261 7.0208 0.14243 515.61 560.65 2.3883 1.3600 1.6344 221.90 0.34688 7.0646 0.014376
-11.625 47.440 0.0098155 174.20 175.24 0.90872 543.89 0.0018386 170.81 171.41 0.89407 1.5328 2.4124 961.75 -0.0035413 141.76 0.11208 7.2490 0.13795 516.68 561.80 2.3868 1.3652 1.6421 221.91 0.34389 7.0917 0.014479
-10.625 49.051 0.010104 176.69 177.76 0.91822 542.60 0.0018430 173.21 173.83 0.90324 1.5360 2.4189 955.20 -0.0034753 140.30 0.11154 7.4829 0.13364 517.75 562.94 2.3854 1.3704 1.6498 221.90 0.34097 7.1188 0.014584
-9.6250 50.703 0.010398 179.18 180.29 0.92770 541.31 0.0018474 175.61 176.26 0.91240 1.5393 2.4255 948.65 -0.0034082 138.86 0.11101 7.7226 0.12949 518.81 564.08 2.3841 1.3757 1.6577 221.88 0.33810 7.1461 0.014689
-8.6250 52.396 0.010698 181.69 182.83 0.93718 540.02 0.0018518 178.03 178.70 0.92154 1.5426 2.4321 942.10 -0.0033400 137.44 0.11048 7.9683 0.12550 519.88 565.21 2.3827 1.3809 1.6657 221.86 0.33529 7.1734 0.014795
-7.6250 54.131 0.011005 184.19 185.38 0.94664 538.72 0.0018563 180.45 181.14 0.93068 1.5459 2.4389 935.55 -0.0032705 136.03 0.10995 8.2200 0.12165 520.94 566.35 2.3814 1.3862 1.6737 221.83 0.33254 7.2008 0.014902
-6.6250 55.909 0.011317 186.71 187.93 0.95610 537.41 0.0018608 182.87 183.59 0.93980 1.5492 2.4457 928.99 -0.0031998 134.64 0.10942 8.4779 0.11795 522.01 567.48 2.3801 1.3915 1.6819 221.79 0.32984 7.2284 0.015009
-5.6250 57.730 0.011635 189.23 190.50 0.96556 536.10 0.0018653 185.30 186.05 0.94892 1.5525 2.4526 922.43 -0.0031279 133.27 0.10889 8.7420 0.11439 523.07 568.60 2.3789 1.3969 1.6902 221.74 0.32720 7.2560 0.015117
-4.6250 59.595 0.011960 191.77 193.07 0.97500 534.78 0.0018699 187.74 188.51 0.95802 1.5559 2.4596 915.87 -0.0030546 131.91 0.10837 9.0126 0.11096 524.13 569.72 2.3777 1.4022 1.6985 221.68 0.32461 7.2837 0.015226
-3.6250 61.505 0.012291 194.30 195.65 0.98444 533.45 0.0018746 190.19 190.98 0.96711 1.5593 2.4667 909.30 -0.0029800 130.56 0.10785 9.2896 0.10765 525.19 570.84 2.3765 1.4076 1.7070 221.62 0.32207 7.3115 0.015336
-2.6250 63.461 0.012628 196.85 198.24 0.99387 532.12 0.0018793 192.64 193.46 0.97620 1.5627 2.4739 902.73 -0.0029041 129.23 0.10733 9.5733 0.10446 526.25 571.96 2.3753 1.4131 1.7156 221.54 0.31958 7.3394 0.015447
-1.6250 65.462 0.012971 199.40 200.84 1.0033 530.78 0.0018840 195.10 195.95 0.98527 1.5662 2.4811 896.16 -0.0028267 127.91 0.10681 9.8638 0.10138 527.31 573.07 2.3742 1.4185 1.7243 221.45 0.31715 7.3674 0.015559
-0.62500 67.510 0.013321 201.97 203.44 1.0127 529.44 0.0018888 197.56 198.44 0.99434 1.5696 2.4885 889.58 -0.0027478 126.61 0.10629 10.161 0.098414 528.37 574.18 2.3731 1.4240 1.7331 221.36 0.31476 7.3956 0.015671
0.37500 69.606 0.013677 204.53 206.06 1.0221 528.09 0.0018936 200.03 200.94 1.0034 1.5731 2.4960 883.00 -0.0026675 125.32 0.10578 10.466 0.095552 529.42 575.28 2.3720 1.4295 1.7421 221.26 0.31242 7.4239 0.015785
1.3750 71.749 0.014040 207.11 208.68 1.0315 526.73 0.0018985 202.51 203.45 1.0124 1.5767 2.5035 876.42 -0.0025856 124.04 0.10527 10.777 0.092790 530.48 576.38 2.3709 1.4350 1.7512 221.14 0.31013 7.4523 0.015899
2.3750 73.941 0.014409 209.70 211.31 1.0409 525.37 0.0019034 204.99 205.96 1.0215 1.5802 2.5112 869.83 -0.0025022 122.78 0.10476 11.096 0.090123 531.53 577.47 2.3699 1.4406 1.7604 221.02 0.30789 7.4808 0.016015
3.3750 76.183 0.014785 212.29 213.96 1.0503 523.99 0.0019084 207.48 208.48 1.0305 1.5838 2.5190 863.24 -0.0024171 121.53 0.10425 11.422 0.087549 532.58 578.56 2.3688 1.4462 1.7697 220.89 0.30569 7.5095 0.016131
4.3750 78.475 0.015167 214.89 216.61 1.0597 522.62 0.0019134 209.98 211.01 1.0395 1.5874 2.5268 856.64 -0.0023303 120.29 0.10374 11.756 0.085062 533.63 579.65 2.3678 1.4518 1.7792 220.75 0.30354 7.5384 0.016249
5.3750 80.817 0.015557 217.50 219.26 1.0691 521.23 0.0019185 212.48 213.55 1.0486 1.5910 2.5348 850.04 -0.0022417 119.06 0.10324 12.098 0.082660 534.67 580.73 2.3669 1.4575 1.7888 220.60 0.30144 7.5674 0.016368
6.3750 83.211 0.015953 220.11 221.93 1.0784 519.84 0.0019237 215.00 216.10 1.0576 1.5946 2.5429 843.43 -0.0021514 117.85 0.10273 12.447 0.080340 535.72 581.81 2.3659 1.4632 1.7986 220.44 0.29938 7.5966 0.016487
7.3750 85.657 0.016355 222.74 224.61 1.0878 518.44 0.0019289 217.51 218.65 1.0666 1.5983 2.5511 836.82 -0.0020593 116.65 0.10223 12.805 0.078096 536.76 582.88 2.3650 1.4689 1.8085 220.27 0.29736 7.6259 0.016608
8.3750 88.156 0.016765 225.37 227.30 1.0972 517.03 0.0019341 220.04 221.22 1.0756 1.6020 2.5595 830.20 -0.0019652 115.46 0.10173 13.170 0.075928 537.80 583.95 2.3640 1.4746 1.8186 220.08 0.29538 7.6555 0.016730
9.3750 90.708 0.017181 228.01 229.99 1.1065 515.62 0.0019394 222.57 223.79 1.0846 1.6057 2.5679 823.58 -0.0018691 114.28 0.10124 13.545 0.073830 538.84 585.01 2.3631 1.4804 1.8288 219.89 0.29345 7.6852 0.016853
10.375 93.315 0.017605 230.66 232.70 1.1159 514.19 0.0019448 225.11 226.37 1.0936 1.6095 2.5765 816.96 -0.0017710 113.11 0.10074 13.927 0.071802 539.87 586.07 2.3622 1.4863 1.8392 219.69 0.29156 7.7151 0.016978
11.375 95.977 0.018035 233.31 235.41 1.1252 512.76 0.0019502 227.66 228.95 1.1025 1.6132 2.5852 810.32 -0.0016708 111.95 0.10025 14.319 0.069840 540.90 587.12 2.3614 1.4921 1.8498 219.48 0.28971 7.7452 0.017103
12.375 98.694 0.018472 235.98 238.14 1.1346 511.32 0.0019557 230.22 231.55 1.1115 1.6170 2.5940 803.68 -0.0015685 110.80 0.099756 14.719 0.067941 541.93 588.17 2.3605 1.4980 1.8605 219.26 0.28790 7.7756 0.017230
13.375 101.47 0.018917 238.65 240.87 1.1439 509.87 0.0019613 232.78 234.15 1.1205 1.6208 2.6030 797.04 -0.0014639 109.67 0.099267 15.128 0.066103 542.96 589.21 2.3597 1.5040 1.8715 219.03 0.28612 7.8061 0.017359
14.375 104.30 0.019368 241.33 243.61 1.1533 508.42 0.0019669 235.35 236.77 1.1295 1.6247 2.6121 790.39 -0.0013569 108.54 0.098779 15.547 0.064323 543.99 590.24 2.3588 1.5099 1.8826 218.79 0.28439 7.8369 0.017488
15.375 107.19 0.019827 244.02 246.37 1.1626 506.95 0.0019726 237.93 239.39 1.1384 1.6286 2.6214 783.73 -0.0012476 107.43 0.098294 15.974 0.062600 545.01 591.27 2.3580 1.5159 1.8940 218.53 0.28270 7.8680 0.017619
16.375 110.13 0.020292 246.72 249.13 1.1720 505.48 0.0019783 240.52 242.02 1.1474 1.6324 2.6308 777.07 -0.0011357 106.32 0.097810 16.412 0.060931 546.03 592.29 2.3572 1.5220 1.9055 218.27 0.28104 7.8993 0.017752
17.375 113.14 0.020765 249.42 251.90 1.1813 504.00 0.0019841 243.11 244.66 1.1564 1.6364 2.6403 770.40 -0.0010213 105.22 0.097328 16.859 0.059314 547.04 593.31 2.3564 1.5281 1.9172 217.99 0.27942 7.9308 0.017886
18.375 116.21 0.021245 252.14 254.68 1.1906 502.50 0.0019900 245.72 247.31 1.1653 1.6403 2.6501 763.72 -0.00090422 104.14 0.096848 17.317 0.057747 548.05 594.32 2.3557 1.5342 1.9292 217.71 0.27783 7.9626 0.018021
19.375 119.33 0.021732 254.86 257.47 1.1999 501.00 0.0019960 248.33 249.97 1.1743 1.6443 2.6599 757.04 -0.00078435 103.06 0.096371 17.785 0.056228 549.06 595.33 2.3549 1.5404 1.9414 217.41 0.27628 7.9947 0.018159
20.375 122.52 0.022227 257.59 260.28 1.2093 499.49 0.0020020 250.95 252.64 1.1832 1.6483 2.6700 750.35 -0.00066161 101.99 0.095895 18.263 0.054756 550.07 596.32 2.3541 1.5466 1.9538 217.10 0.27477 8.0272 0.018297
21.375 125.77 0.022729 260.34 263.09 1.2186 497.97 0.0020082 253.57 255.32 1.1922 1.6523 2.6802 743.64 -0.00053589 100.93 0.095420 18.752 0.053328 551.07 597.31 2.3534 1.5528 1.9665 216.78 0.27329 8.0599 0.018438
22.375 129.08 0.023238 263.09 265.91 1.2279 496.43 0.0020144 256.21 258.00 1.2012 1.6563 2.6906 736.94 -0.00040708 99.877 0.094948 19.252 0.051943 552.07 598.30 2.3526 1.5591 1.9795 216.45 0.27184 8.0929 0.018580
23.375 132.46 0.023754 265.84 268.74 1.2372 494.89 0.0020206 258.86 260.70 1.2101 1.6604 2.7012 730.22 -0.00027505 98.834 0.094478 19.763 0.050600 553.06 599.27 2.3519 1.5655 1.9927 216.11 0.27043 8.1263 0.018724
24.375 135.90 0.024278 268.61 271.59 1.2465 493.34 0.0020270 261.51 263.41 1.2191 1.6645 2.7120 723.49 -0.00013968 97.800 0.094009 20.285 0.049297 554.05 600.24 2.3512 1.5718 2.0061 215.75 0.26906 8.1600 0.018870
25.375 139.41 0.024809 271.39 274.44 1.2559 491.77 0.0020335 264.17 266.13 1.2280 1.6686 2.7230 716.76 -8.3775e-07 96.773 0.093543 20.820 0.048032 555.03 601.20 2.3504 1.5783 2.0199 215.39 0.26771 8.1941 0.019017
26.375 142.98 0.025347 274.17 277.30 1.2652 490.20 0.0020400 266.84 268.85 1.2370 1.6728 2.7342 710.01 0.00014161 95.755 0.093078 21.366 0.046804 556.01 602.15 2.3497 1.5847 2.0340 215.01 0.26640 8.2286 0.019167
27.375 146.62 0.025892 276.97 280.18 1.2745 488.61 0.0020466 269.52 271.59 1.2459 1.6770 2.7456 703.26 0.00028782 94.745 0.092615 21.924 0.045612 556.99 603.10 2.3490 1.5913 2.0484 214.62 0.26512 8.2634 0.019319
28.375 150.33 0.026445 279.77 283.06 1.2838 487.01 0.0020533 272.21 274.34 1.2549 1.6812 2.7573 696.49 0.00043793 93.742 0.092154 22.495 0.044454 557.96 604.03 2.3483 1.5978 2.0631 214.21 0.26387 8.2987 0.019472
29.375 154.10 0.027005 282.58 285.96 1.2931 485.40 0.0020601 274.91 277.10 1.2638 1.6854 2.7691 689.72 0.00059212 92.747 0.091695 23.079 0.043329 558.92 604.96 2.3476 1.6044 2.0781 213.80 0.26265 8.3344 0.019628
30.375 157.94 0.027572 285.41 288.86 1.3024 483.78 0.0020671 277.62 279.87 1.2728 1.6897 2.7813 682.93 0.00075055 91.760 0.091238 23.676 0.042237 559.88 605.88 2.3469 1.6111 2.0935 213.37 0.26147 8.3705 0.019786
31.375 161.86 0.028146 288.24 291.78 1.3117 482.15 0.0020741 280.34 282.66 1.2818 1.6939 2.7936 676.13 0.00091340 90.779 0.090782 24.287 0.041175 560.84 606.79 2.3462 1.6178 2.1092 212.93 0.26031 8.4071 0.019947
32.375 165.84 0.028728 291.08 294.71 1.3211 480.50 0.0020812 283.07 285.45 1.2908 1.6983 2.8063 669.32 0.0010809 89.806 0.090328 24.911 0.040143 561.79 607.69 2.3455 1.6246 2.1254 212.48 0.25919 8.4442 0.020110
33.375 169.90 0.029316 293.93 297.65 1.3304 478.83 0.0020884 285.81 288.26 1.2997 1.7026 2.8192 662.50 0.0012532 88.840 0.089876 25.549 0.039140 562.73 608.58 2.3448 1.6314 2.1419 212.01 0.25809 8.4818 0.020275
34.375 174.02 0.029911 296.79 300.60 1.3397 477.16 0.0020957 288.56 291.07 1.3087 1.7070 2.8324 655.67 0.0014305 87.880 0.089426 26.202 0.038164 563.67 609.46 2.3440 1.6383 2.1589 211.53 0.25702 8.5199 0.020443
35.375 178.22 0.030514 299.66 303.56 1.3490 475.47 0.0021032 291.32 293.90 1.3177 1.7114 2.8459 648.82 0.0016131 86.927 0.088977 26.870 0.037216 564.60 610.33 2.3433 1.6452 2.1763 211.04 0.25599 8.5586 0.020613
36.375 182.50 0.031123 302.53 306.53 1.3583 473.77 0.0021107 294.09 296.74 1.3267 1.7158 2.8597 641.96 0.0018012 85.980 0.088531 27.553 0.036293 565.52 611.19 2.3426 1.6522 2.1942 210.53 0.25498 8.5978 0.020786
37.375 186.84 0.031739 305.42 309.51 1.3676 472.05 0.0021184 296.87 299.60 1.3357 1.7203 2.8739 635.08 0.0019950 85.040 0.088085 28.252 0.035395 566.44 612.04 2.3419 1.6592 2.2125 210.01 0.25400 8.6376 0.020962
38.375 191.27 0.032361 308.32 312.51 1.3769 470.31 0.0021262 299.66 302.46 1.3447 1.7248 2.8884 628.19 0.0021949 84.105 0.087642 28.967 0.034522 567.35 612.88 2.3411 1.6663 2.2314 209.47 0.25305 8.6780 0.021141
39.375 195.77 0.032990 311.23 315.51 1.3863 468.56 0.0021342 302.46 305.34 1.3537 1.7293 2.9033 621.29 0.0024011 83.177 0.087200 29.699 0.033671 568.26 613.70 2.3404 1.6734 2.2508 208.92 0.25213 8.7190 0.021323
40.375 200.34 0.033625 314.15 318.53 1.3956 466.80 0.0021423 305.27 308.23 1.3627 1.7339 2.9185 614.37 0.0026140 82.254 0.086760 30.447 0.032844 569.15 614.52 2.3396 1.6806 2.2708 208.36 0.25123 8.7608 0.021508
41.375 205.00 0.034267 317.08 321.56 1.4049 465.01 0.0021505 308.10 311.14 1.3718 1.7385 2.9342 607.43 0.0028338 81.338 0.086322 31.214 0.032037 570.04 615.32 2.3389 1.6879 2.2913 207.78 0.25037 8.8032 0.021696
42.375 209.73 0.034914 320.01 324.60 1.4142 463.21 0.0021588 310.94 314.06 1.3808 1.7432 2.9502 600.47 0.0030609 80.426 0.085885 31.998 0.031252 570.92 616.11 2.3381 1.6952 2.3125 207.19 0.24953 8.8463 0.021888
43.375 214.54 0.035567 322.96 327.66 1.4236 461.40 0.0021673 313.79 316.99 1.3899 1.7478 2.9667 593.50 0.0032957 79.520 0.085449 32.800 0.030488 571.79 616.88 2.3373 1.7027 2.3344 206.58 0.24871 8.8902 0.022084
44.375 219.43 0.036226 325.92 330.72 1.4329 459.56 0.0021760 316.65 319.94 1.3989 1.7525 2.9837 586.51 0.0035386 78.619 0.085015 33.622 0.029742 572.65 617.65 2.3365 1.7101 2.3569 205.96 0.24793 8.9349 0.022283
45.375 224.41 0.036890 328.89 333.80 1.4422 457.71 0.0021848 319.52 322.90 1.4080 1.7573 3.0012 579.50 0.0037900 77.723 0.084583 34.463 0.029016 573.50 618.40 2.3357 1.7177 2.3802 205.32 0.24717 8.9805 0.022485
46.375 229.46 0.037558 331.87 336.89 1.4516 455.83 0.0021938 322.41 325.88 1.4171 1.7621 3.0192 572.46 0.0040504 76.832 0.084152 35.325 0.028308 574.34 619.13 2.3349 1.7253 2.4042 204.67 0.24644 9.0269 0.022692
47.375 234.60 0.038232 334.86 340.00 1.4609 453.94 0.0022029 325.31 328.87 1.4262 1.7669 3.0377 565.41 0.0043202 75.946 0.083723 36.208 0.027618 575.17 619.85 2.3340 1.7329 2.4291 204.00 0.24573 9.0742 0.022903
48.375 239.83 0.038909 337.86 343.11 1.4703 452.03 0.0022123 328.22 331.88 1.4353 1.7718 3.0569 558.34 0.0046000 75.064 0.083295 37.112 0.026945 576.00 620.55 2.3332 1.7407 2.4548 203.31 0.24505 9.1224 0.023119
49.375 245.13 0.039590 340.87 346.24 1.4796 450.09 0.0022218 331.15 334.90 1.4445 1.7767 3.0766 551.24 0.0048904 74.186 0.082868 38.039 0.026289 576.81 621.24 2.3323 1.7485 2.4815 202.61 0.24440 9.1716 0.023339
50.375 250.53 0.040275 343.90 349.38 1.4890 448.13 0.0022315 334.09 337.94 1.4536 1.7817 3.0970 544.13 0.0051920 73.313 0.082442 38.989 0.025648 577.61 621.91 2.3314 1.7564 2.5092 201.89 0.24377 9.2219 0.023564
51.375 256.01 0.040962 346.93 352.53 1.4983 446.15 0.0022414 337.04 341.00 1.4628 1.7867 3.1181 536.98 0.0055054 72.443 0.082018 39.962 0.025024 578.39 622.56 2.3304 1.7644 2.5379 201.16 0.24317 9.2733 0.023794
52.375 261.57 0.041652 349.97 355.70 1.5077 444.15 0.0022515 340.01 344.07 1.4720 1.7918 3.1400 529.82 0.0058313 71.577 0.081595 40.961 0.024414 579.17 623.20 2.3295 1.7724 2.5677 200.41 0.24260 9.3258 0.024029
53.375 267.23 0.042343 353.03 358.88 1.5171 442.12 0.0022618 343.00 347.17 1.4812 1.7969 3.1627 522.62 0.0061705 70.715 0.081174 41.985 0.023818 579.93 623.81 2.3285 1.7805 2.5987 199.63 0.24205 9.3795 0.024270
54.375 272.97 0.043035 356.10 362.07 1.5265 440.06 0.0022724 346.00 350.28 1.4904 1.8021 3.1862 515.40 0.0065239 69.856 0.080753 43.036 0.023237 580.68 624.41 2.3274 1.7887 2.6310 198.85 0.24154 9.4344 0.024516
55.375 278.81 0.043727 359.18 365.28 1.5359 437.98 0.0022832 349.02 353.40 1.4997 1.8073 3.2106 508.15 0.0068923 69.001 0.080334 44.114 0.022669 581.41 624.99 2.3264 1.7969 2.6646 198.04 0.24105 9.4907 0.024769
56.375 284.74 0.044418 362.27 368.50 1.5452 435.87 0.0022943 352.05 356.55 1.5090 1.8126 3.2360 500.87 0.0072767 68.148 0.079915 45.221 0.022114 582.13 625.54 2.3253 1.8052 2.6998 197.22 0.24059 9.5484 0.025028
57.375 290.76 0.045107 365.37 371.74 1.5546 433.73 0.0023056 355.10 359.72 1.5183 1.8179 3.2624 493.56 0.0076782 67.299 0.079498 46.358 0.021571 582.83 626.07 2.3241 1.8136 2.7365 196.37 0.24016 9.6075 0.025294
58.375 296.87 0.045794 368.49 374.98 1.5641 431.56 0.0023172 358.17 362.91 1.5276 1.8233 3.2900 486.22 0.0080980 66.451 0.079082 47.525 0.021041 583.52 626.58 2.3230 1.8220 2.7749 195.51 0.23976 9.6682 0.025568
59.375 303.08 0.046476 371.61 378.25 1.5735 429.36 0.0023290 361.25 366.12 1.5370 1.8288 3.3188 478.84 0.0085373 65.606 0.078666 48.726 0.020523 584.18 627.07 2.3218 1.8305 2.8152 194.63 0.23939 9.7305 0.025849
60.375 309.38 0.047152 374.75 381.52 1.5829 427.13 0.0023412 364.36 369.35 1.5464 1.8343 3.3489 471.43 0.0089976 64.763 0.078251 49.960 0.020016 584.83 627.53 2.3205 1.8391 2.8576 193.73 0.23905 9.7945 0.026138
61.375 315.78 0.047821 377.90 384.82 1.5923 424.87 0.0023537 367.48 372.60 1.5558 1.8400 3.3805 463.99 0.0094803 63.922 0.077838 51.229 0.019520 585.46 627.96 2.3192 1.8479 2.9022 192.82 0.23873 9.8603 0.026436
62.375 322.28 0.048481 381.07 388.12 1.6018 422.56 0.0023665 370.62 375.88 1.5653 1.8457 3.4136 456.50 0.0099871 63.083 0.077425 52.535 0.019035 586.07 628.37 2.3178 1.8567 2.9492 191.88 0.23845 9.9281 0.026744
63.375 328.88 0.049129 384.25 391.44 1.6112 420.22 0.0023797 373.79 379.18 1.5748 1.8514 3.4483 448.97 0.010520 62.244 0.077012 53.879 0.018560 586.66 628.74 2.3164 1.8656 2.9989 190.92 0.23819 9.9979 0.027061
64.375 335.58 0.049764 387.44 394.78 1.6207 417.85 0.0023932 376.97 382.51 1.5844 1.8573 3.4850 441.40 0.011081 61.407 0.076600 55.265 0.018095 587.22 629.09 2.3149 1.8747 3.0517 189.95 0.23796 10.070 0.027389
65.375 342.38 0.050383 390.64 398.13 1.6302 415.42 0.0024072 380.18 385.86 1.5939 1.8633 3.5236 433.79 0.011672 60.570 0.076189 56.692 0.017639 587.76 629.40 2.3133 1.8839 3.1077 188.95 0.23775 10.144 0.027729
66.375 349.28 0.050982 393.86 401.50 1.6397 412.96 0.0024215 383.41 389.25 1.6036 1.8693 3.5645 426.12 0.012296 59.733 0.075779 58.165 0.017193 588.28 629.68 2.3117 1.8933 3.1674 187.93 0.23757 10.221 0.028080
67.375 356.28 0.051559 397.09 404.89 1.6492 410.45 0.0024363 386.67 392.65 1.6133 1.8755 3.6078 418.41 0.012956 58.897 0.075368 59.684 0.016755 588.76 629.92 2.3100 1.9030 3.2311 186.89 0.23740 10.300 0.028446
68.375 363.40 0.052110 400.34 408.29 1.6587 407.89 0.0024516 389.95 396.09 1.6230 1.8818 3.6537 410.64 0.013655 58.059 0.074959 61.253 0.016326 589.22 630.13 2.3082 1.9129 3.2994 185.83 0.23724 10.382 0.028825
69.375 370.61 0.052629 403.60 411.71 1.6682 405.28 0.0024674 393.26 399.57 1.6328 1.8882 3.7027 402.81 0.014396 57.221 0.074549 62.875 0.015905 589.65 630.29 2.3064 1.9231 3.3727 184.74 0.23710 10.467 0.029221
70.375 377.94 0.053111 406.87 415.14 1.6778 402.62 0.0024838 396.60 403.07 1.6426 1.8947 3.7550 394.92 0.015183 56.381 0.074141 64.552 0.015491 590.04 630.41 2.3044 1.9336 3.4518 183.63 0.23697 10.555 0.029633
71.375 385.37 0.053551 410.16 418.60 1.6873 399.89 0.0025007 399.96 406.61 1.6525 1.9014 3.8109 386.97 0.016021 55.540 0.073732 66.288 0.015086 590.40 630.49 2.3024 1.9444 3.5371 182.50 0.23684 10.647 0.030064
72.375 392.92 0.053941 413.47 422.07 1.6969 397.11 0.0025182 403.36 410.18 1.6625 1.9083 3.8711 378.95 0.016915 54.696 0.073324 68.087 0.014687 590.73 630.51 2.3002 1.9556 3.6297 181.34 0.23671 10.743 0.030515
73.375 400.57 0.054273 416.79 425.56 1.7065 394.26 0.0025364 406.79 413.80 1.6726 1.9153 3.9359 370.85 0.017871 53.848 0.072917 69.953 0.014295 591.01 630.49 2.2979 1.9673 3.7303 180.16 0.23658 10.842 0.030989
74.375 408.34 0.054537 420.13 429.07 1.7162 391.34 0.0025553 410.26 417.45 1.6827 1.9226 4.0060 362.67 0.018894 52.997 0.072510 71.890 0.013910 591.25 630.41 2.2955 1.9793 3.8401 178.95 0.23643 10.946 0.031488
75.375 416.23 0.054722 423.49 432.60 1.7258 388.34 0.0025751 413.76 421.15 1.6930 1.9301 4.0822 354.41 0.019993 52.142 0.072104 73.904 0.013531 591.44 630.27 2.2930 1.9919 3.9604 177.71 0.23627 11.054 0.032014
76.375 424.23 0.054814 426.86 436.15 1.7355 385.26 0.0025957 417.31 424.90 1.7033 1.9378 4.1654 346.06 0.021177 51.281 0.071699 76.001 0.013158 591.59 630.07 2.2903 2.0050 4.0927 176.44 0.23609 11.168 0.032570
77.375 432.35 0.054796 430.25 439.72 1.7452 382.09 0.0026172 420.89 428.70 1.7137 1.9459 4.2565 337.60 0.022455 50.414 0.071295 78.187 0.012790 591.68 629.80 2.2874 2.0186 4.2389 175.15 0.23588 11.287 0.033161
78.375 440.59 0.054648 433.66 443.31 1.7549 378.83 0.0026397 424.53 432.54 1.7243 1.9543 4.3570 329.05 0.023838 49.539 0.070893 80.469 0.012427 591.71 629.46 2.2844 2.0328 4.4012 173.82 0.23563 11.412 0.033789
79.375 448.95 0.054348 437.09 446.92 1.7646 375.46 0.0026634 428.21 436.45 1.7349 1.9631 4.4684 320.38 0.025341 48.657 0.070494 82.856 0.012069 591.68 629.04 2.2812 2.0475 4.5824 172.46 0.23535 11.544 0.034461
80.375 457.44 0.053864 440.54 450.56 1.7744 371.97 0.0026884 431.94 440.42 1.7457 1.9723 4.5928 311.58 0.026980 47.764 0.070099 85.359 0.011715 591.58 628.53 2.2778 2.0630 4.7859 171.07 0.23501 11.684 0.035181
81.375 466.05 0.053161 444.02 454.22 1.7842 368.36 0.0027147 435.74 444.46 1.7567 1.9820 4.7327 302.66 0.028773 46.860 0.069708 87.988 0.011365 591.40 627.92 2.2742 2.0791 5.0161 169.64 0.23461 11.832 0.035957
82.375 474.79 0.052192 447.51 457.90 1.7940 364.61 0.0027427 439.60 448.58 1.7678 1.9924 4.8914 293.60 0.030744 45.942 0.069323 90.757 0.011018 591.14 627.21 2.2703 2.0959 5.2786 168.17 0.23413 11.989 0.036797
83.375 483.66 0.050899 451.03 461.61 1.8039 360.70 0.0027724 443.53 452.78 1.7791 2.0034 5.0731 284.38 0.032920 45.010 0.068948 93.681 0.010674 590.79 626.38 2.2661 2.1136 5.5807 166.67 0.23357 12.157 0.037711
84.375 492.67 0.049208 454.57 465.35 1.8138 356.61 0.0028041 447.54 457.07 1.7907 2.0153 5.2834 275.00 0.035335 44.059 0.068586 96.781 0.010333 590.33 625.42 2.2616 2.1321 5.9321 165.13 0.23290 12.338 0.038713
85.375 501.81 0.047018 458.14 469.12 1.8238 352.33 0.0028382 451.65 461.47 1.8025 2.0281 5.5302 265.44 0.038030 43.088 0.068241 100.08 0.0099920 589.74 624.31 2.2567 2.1517 6.3459 163.54 0.23209 12.532 0.039819
86.375 511.09 0.044199 461.74 472.93 1.8338 347.82 0.0028751 455.85 465.98 1.8145 2.0420 5.8240 255.69 0.041058 42.092 0.067923 103.61 0.0096520 589.03 623.04 2.2514 2.1723 6.8405 161.91 0.23112 12.743 0.041051
87.375 520.51 0.040568 465.37 476.76 1.8439 343.04 0.0029151 460.18 470.64 1.8269 2.0574 6.1803 245.72 0.044485 41.066 0.067640 107.40 0.0093114 588.15 621.56 2.2456 2.1943 7.4422 160.23 0.22995 12.973 0.042436
88.375 530.07 0.035868 469.03 480.63 1.8541 337.95 0.0029590 464.64 475.45 1.8397 2.0745 6.6221 235.52 0.048397 40.005 0.067412 111.50 0.0089689 587.08 619.86 2.2392 2.2178 8.1900 158.49 0.22854 13.226 0.044014
89.375 539.79 0.029723 472.73 484.55 1.8643 332.48 0.0030077 469.27 480.46 1.8530 2.0936 7.1851 225.04 0.052906 38.901 0.067265 115.97 0.0086228 585.79 617.88 2.2321 2.2433 9.1445 156.69 0.22681 13.508 0.045839
90.375 549.66 0.021555 476.47 488.50 1.8746 326.55 0.0030623 474.10 485.71 1.8669 2.1156 7.9284 214.26 0.058166 37.742 0.067243 120.91 0.0082708 584.22 615.56 2.2241 2.2711 10.405 154.82 0.22467 13.825 0.047992
91.375 559.68 0.010428 480.26 492.51 1.8850 320.03 0.0031247 479.19 491.25 1.8815 2.1412 8.9568 203.11 0.064389 36.514 0.067421 126.43 0.0079097 582.29 612.82 2.2150 2.3019 12.146 152.85 0.22200 14.189 0.050600
92.375 572.54 undefined 483.60 496.14 1.8942 315.00 0.0031746 483.60 496.14 1.8942 2.1586 9.6828 196.68 0.068598 35.608 0.067544 315.00 0.0031746 483.60 496.14 1.8942 2.1586 9.6828 196.68 0.068598 35.608 0.067544
93.375 591.90 undefined 485.76 498.71 1.9000 315.00 0.0031746 485.76 498.71 1.9000 2.1477 8.9221 201.94 0.065814 35.643 0.067011 315.00 0.0031746 485.76 498.71 1.9000 2.1477 8.9221 201.94 0.065814 35.643 0.067011
94.375 611.45 undefined 487.90 501.28 1.9059 315.00 0.0031746 487.90 501.28 1.9059 2.1382 8.3282 206.83 0.063353 35.683 0.066598 315.00 0.0031746 487.90 501.28 1.9059 2.1382 8.3282 206.83 0.063353 35.683 0.066598
95.375 631.19 undefined 490.03 503.85 1.9117 315.00 0.0031746 490.03 503.85 1.9117 2.1302 7.8484 211.40 0.061147 35.735 0.066271 315.00 0.0031746 490.03 503.85 1.9117 2.1302 7.8484 211.40 0.061147 35.735 0.066271
96.375 651.09 undefined 492.16 506.41 1.9174 315.00 0.0031746 492.16 506.41 1.9174 2.1233 7.4507 215.69 0.059147 35.809 0.066006 315.00 0.0031746 492.16 506.41 1.9174 2.1233 7.4507 215.69 0.059147 35.809 0.066006
97.375 671.13 undefined 494.28 508.97 1.9232 315.00 0.0031746 494.28 508.97 1.9232 2.1175 7.1140 219.74 0.057317 35.822 0.065801 315.00 0.0031746 494.28 508.97 1.9232 2.1175 7.1140 219.74 0.057317 35.822 0.065801
98.375 691.31 undefined 496.40 511.53 1.9289 315.00 0.0031746 496.40 511.53 1.9289 2.1127 6.8244 223.58 0.055628 35.813 0.065640 315.00 0.0031746 496.40 511.53 1.9289 2.1127 6.8244 223.58 0.055628 35.813 0.065640
99.375 711.61 undefined 498.51 514.08 1.9345 315.00 0.0031746 498.51 514.08 1.9345 2.1088 6.5719 227.24 0.054058 35.823 0.065507 315.00 0.0031746 498.51 514.08 1.9345 2.1088 6.5719 227.24 0.054058 35.823 0.065507
100.38 732.02 undefined 500.61 516.64 1.9402 315.00 0.0031746 500.61 516.64 1.9402 2.1056 6.3495 230.74 0.052590 35.842 0.065399 315.00 0.0031746 500.61 516.64 1.9402 2.1056 6.3495 230.74 0.052590 35.842 0.065399
101.38 752.53 undefined 502.72 519.19 1.9458 315.00 0.0031746 502.72 519.19 1.9458 2.1030 6.1516 234.11 0.051210 35.865 0.065312 315.00 0.0031746 502.72 519.19 1.9458 2.1030 6.1516 234.11 0.051210 35.865 0.065312
102.38 773.14 undefined 504.82 521.74 1.9514 315.00 0.0031746 504.82 521.74 1.9514 2.1010 5.9744 237.36 0.049909 35.891 0.065243 315.00 0.0031746 504.82 521.74 1.9514 2.1010 5.9744 237.36 0.049909 35.891 0.065243
103.38 793.84 undefined 506.92 524.30 1.9570 315.00 0.0031746 506.92 524.30 1.9570 2.0996 5.8145 240.50 0.048676 35.919 0.065190 315.00 0.0031746 506.92 524.30 1.9570 2.0996 5.8145 240.50 0.048676 35.919 0.065190
104.38 814.62 undefined 509.02 526.85 1.9626 315.00 0.0031746 509.02 526.85 1.9626 2.0985 5.6695 243.55 0.047505 35.947 0.065150 315.00 0.0031746 509.02 526.85 1.9626 2.0985 5.6695 243.55 0.047505 35.947 0.065150
105.38 835.48 undefined 511.12 529.40 1.9681 315.00 0.0031746 511.12 529.40 1.9681 2.0978 5.5373 246.51 0.046391 35.975 0.065122 315.00 0.0031746 511.12 529.40 1.9681 2.0978 5.5373 246.51 0.046391 35.975 0.065122
106.38 856.41 undefined 513.21 531.96 1.9737 315.00 0.0031746 513.21 531.96 1.9737 2.0974 5.4162 249.40 0.045327 36.003 0.065105 315.00 0.0031746 513.21 531.96 1.9737 2.0974 5.4162 249.40 0.045327 36.003 0.065105
107.38 877.41 undefined 515.31 534.52 1.9792 315.00 0.0031746 515.31 534.52 1.9792 2.0974 5.3049 252.22 0.044310 36.032 0.065097 315.00 0.0031746 515.31 534.52 1.9792 2.0974 5.3049 252.22 0.044310 36.032 0.065097
108.38 898.48 undefined 517.41 537.08 1.9847 315.00 0.0031746 517.41 537.08 1.9847 2.0975 5.2021 254.98 0.043336 36.060 0.065096 315.00 0.0031746 517.41 537.08 1.9847 2.0975 5.2021 254.98 0.043336 36.060 0.065096
109.38 919.61 undefined 519.51 539.64 1.9902 315.00 0.0031746 519.51 539.64 1.9902 2.0979 5.1071 257.68 0.042402 36.088 0.065103 315.00 0.0031746 519.51 539.64 1.9902 2.0979 5.1071 257.68 0.042402 36.088 0.065103
110.38 940.80 undefined 521.60 542.20 1.9956 315.00 0.0031746 521.60 542.20 1.9956 2.0985 5.0188 260.32 0.041504 36.117 0.065117 315.00 0.0031746 521.60 542.20 1.9956 2.0985 5.0188 260.32 0.041504 36.117 0.065117
111.38 962.05 undefined 523.70 544.76 2.0011 315.00 0.0031746 523.70 544.76 2.0011 2.0993 4.9366 262.92 0.040641 36.145 0.065137 315.00 0.0031746 523.70 544.76 2.0011 2.0993 4.9366 262.92 0.040641 36.145 0.065137
112.38 983.36 undefined 525.80 547.33 2.0066 315.00 0.0031746 525.80 547.33 2.0066 2.1002 4.8599 265.47 0.039809 36.174 0.065161 315.00 0.0031746 525.80 547.33 2.0066 2.1002 4.8599 265.47 0.039809 36.174 0.065161
113.38 1004.7 undefined 527.90 549.90 2.0120 315.00 0.0031746 527.90 549.90 2.0120 2.1013 4.7881 267.97 0.039008 36.202 0.065191 315.00 0.0031746 527.90 549.90 2.0120 2.1013 4.7881 267.97 0.039008 36.202 0.065191
114.38 1026.1 undefined 530.01 552.47 2.0174 315.00 0.0031746 530.01 552.47 2.0174 2.1025 4.7208 270.43 0.038234 36.230 0.065226 315.00 0.0031746 530.01 552.47 2.0174 2.1025 4.7208 270.43 0.038234 36.230 0.065226
115.38 1047.6 undefined 532.11 555.04 2.0229 315.00 0.0031746 532.11 555.04 2.0229 2.1039 4.6576 272.86 0.037487 36.258 0.065264 315.00 0.0031746 532.11 555.04 2.0229 2.1039 4.6576 272.86 0.037487 36.258 0.065264
116.38 1069.1 undefined 534.21 557.61 2.0283 315.00 0.0031746 534.21 557.61 2.0283 2.1054 4.5981 275.24 0.036765 36.287 0.065306 315.00 0.0031746 534.21 557.61 2.0283 2.1054 4.5981 275.24 0.036765 36.287 0.065306
117.38 1090.6 undefined 536.32 560.19 2.0337 315.00 0.0031746 536.32 560.19 2.0337 2.1070 4.5420 277.60 0.036066 36.315 0.065352 315.00 0.0031746 536.32 560.19 2.0337 2.1070 4.5420 277.60 0.036066 36.315 0.065352
118.38 1112.2 undefined 538.43 562.77 2.0391 315.00 0.0031746 538.43 562.77 2.0391 2.1087 4.4891 279.91 0.035389 36.343 0.065401 315.00 0.0031746 538.43 562.77 2.0391 2.1087 4.4891 279.91 0.035389 36.343 0.065401
119.38 1133.9 undefined 540.54 565.36 2.0444 315.00 0.0031746 540.54 565.36 2.0444 2.1104 4.4390 282.20 0.034733 36.371 0.065453 315.00 0.0031746 540.54 565.36 2.0444 2.1104 4.4390 282.20 0.034733 36.371 0.065453
120.38 1155.5 undefined 542.65 567.94 2.0498 315.00 0.0031746 542.65 567.94 2.0498 2.1123 4.3916 284.45 0.034097 36.400 0.065508 315.00 0.0031746 542.65 567.94 2.0498 2.1123 4.3916 284.45 0.034097 36.400 0.065508
121.38 1177.2 undefined 544.76 570.53 2.0552 315.00 0.0031746 544.76 570.53 2.0552 2.1143 4.3466 286.68 0.033480 36.428 0.065565 315.00 0.0031746 544.76 570.53 2.0552 2.1143 4.3466 286.68 0.033480 36.428 0.065565
122.38 1199.0 undefined 546.88 573.12 2.0605 315.00 0.0031746 546.88 573.12 2.0605 2.1163 4.3039 288.88 0.032881 36.456 0.065625 315.00 0.0031746 546.88 573.12 2.0605 2.1163 4.3039 288.88 0.032881 36.456 0.065625
123.38 1220.8 undefined 548.99 575.72 2.0659 315.00 0.0031746 548.99 575.72 2.0659 2.1185 4.2634 291.05 0.032299 36.484 0.065687 315.00 0.0031746 548.99 575.72 2.0659 2.1185 4.2634 291.05 0.032299 36.484 0.065687
124.38 1242.6 undefined 551.11 578.31 2.0712 315.00 0.0031746 551.11 578.31 2.0712 2.1207 4.2248 293.20 0.031733 36.512 0.065751 315.00 0.0031746 551.11 578.31 2.0712 2.1207 4.2248 293.20 0.031733 36.512 0.065751
125.38 1264.4 undefined 553.24 580.91 2.0765 315.00 0.0031746 553.24 580.91 2.0765 2.1229 4.1880 295.32 0.031183 36.540 0.065818 315.00 0.0031746 553.24 580.91 2.0765 2.1229 4.1880 295.32 0.031183 36.540 0.065818
126.38 1286.3 undefined 555.36 583.52 2.0819 315.00 0.0031746 555.36 583.52 2.0819 2.1253 4.1530 297.41 0.030647 36.568 0.065886 315.00 0.0031746 555.36 583.52 2.0819 2.1253 4.1530 297.41 0.030647 36.568 0.065886
127.38 1308.2 undefined 557.49 586.12 2.0872 315.00 0.0031746 557.49 586.12 2.0872 2.1277 4.1195 299.49 0.030126 36.596 0.065956 315.00 0.0031746 557.49 586.12 2.0872 2.1277 4.1195 299.49 0.030126 36.596 0.065956
128.38 1330.2 undefined 559.62 588.73 2.0925 315.00 0.0031746 559.62 588.73 2.0925 2.1301 4.0876 301.54 0.029618 36.624 0.066028 315.00 0.0031746 559.62 588.73 2.0925 2.1301 4.0876 301.54 0.029618 36.624 0.066028
129.38 1352.1 undefined 561.75 591.34 2.0978 315.00 0.0031746 561.75 591.34 2.0978 2.1326 4.0571 303.57 0.029123 36.652 0.066102 315.00 0.0031746 561.75 591.34 2.0978 2.1326 4.0571 303.57 0.029123 36.652 0.066102
130.38 1374.1 undefined 563.88 593.96 2.1031 315.00 0.0031746 563.88 593.96 2.1031 2.1352 4.0279 305.58 0.028641 36.680 0.066177 315.00 0.0031746 563.88 593.96 2.1031 2.1352 4.0279 305.58 0.028641 36.680 0.066177
131.38 1396.2 undefined 566.02 596.58 2.1084 315.00 0.0031746 566.02 596.58 2.1084 2.1378 3.9999 307.57 0.028170 36.708 0.066254 315.00 0.0031746 566.02 596.58 2.1084 2.1378 3.9999 307.57 0.028170 36.708 0.066254
132.38 1418.2 undefined 568.16 599.20 2.1137 315.00 0.0031746 568.16 599.20 2.1137 2.1404 3.9731 309.54 0.027712 36.736 0.066332 315.00 0.0031746 568.16 599.20 2.1137 2.1404 3.9731 309.54 0.027712 36.736 0.066332
133.38 1440.3 undefined 570.30 601.82 2.1189 315.00 0.0031746 570.30 601.82 2.1189 2.1431 3.9475 311.49 0.027264 36.764 0.066411 315.00 0.0031746 570.30 601.82 2.1189 2.1431 3.9475 311.49 0.027264 36.764 0.066411
134.38 1462.4 undefined 572.44 604.45 2.1242 315.00 0.0031746 572.44 604.45 2.1242 2.1458 3.9229 313.43 0.026827 36.792 0.066492 315.00 0.0031746 572.44 604.45 2.1242 2.1458 3.9229 313.43 0.026827 36.792 0.066492
135.38 1484.5 undefined 574.59 607.08 2.1295 315.00 0.0031746 574.59 607.08 2.1295 2.1486 3.8993 315.34 0.026400 36.820 0.066574 315.00 0.0031746 574.59 607.08 2.1295 2.1486 3.8993 315.34 0.026400 36.820 0.066574
136.38 1506.7 undefined 576.74 609.72 2.1347 315.00 0.0031746 576.74 609.72 2.1347 2.1514 3.8766 317.25 0.025983 36.848 0.066657 315.00 0.0031746 576.74 609.72 2.1347 2.1514 3.8766 317.25 0.025983 36.848 0.066657
137.38 1528.9 undefined 578.89 612.36 2.1400 315.00 0.0031746 578.89 612.36 2.1400 2.1542 3.8548 319.13 0.025575 36.875 0.066742 315.00 0.0031746 578.89 612.36 2.1400 2.1542 3.8548 319.13 0.025575 36.875 0.066742
138.38 1551.1 undefined 581.05 615.00 2.1452 315.00 0.0031746 581.05 615.00 2.1452 2.1571 3.8339 321.00 0.025177 36.903 0.066827 315.00 0.0031746 581.05 615.00 2.1452 2.1571 3.8339 321.00 0.025177 36.903 0.066827
139.38 1573.3 undefined 583.21 617.64 2.1505 315.00 0.0031746 583.21 617.64 2.1505 2.1600 3.8137 322.85 0.024787 36.931 0.066914 315.00 0.0031746 583.21 617.64 2.1505 2.1600 3.8137 322.85 0.024787 36.931 0.066914
140.38 1595.5 undefined 585.37 620.29 2.1557 315.00 0.0031746 585.37 620.29 2.1557 2.1629 3.7943 324.69 0.024406 36.959 0.067001 315.00 0.0031746 585.37 620.29 2.1557 2.1629 3.7943 324.69 0.024406 36.959 0.067001
141.38 1617.8 undefined 587.53 622.94 2.1609 315.00 0.0031746 587.53 622.94 2.1609 2.1659 3.7757 326.51 0.024033 36.986 0.067090 315.00 0.0031746 587.53 622.94 2.1609 2.1659 3.7757 326.51 0.024033 36.986 0.067090
142.38 1640.0 undefined 589.70 625.60 2.1661 315.00 0.0031746 589.70 625.60 2.1661 2.1689 3.7577 328.32 0.023669 37.014 0.067179 315.00 0.0031746 589.70 625.60 2.1661 2.1689 3.7577 328.32 0.023669 37.014 0.067179
143.38 1662.3 undefined 591.87 628.26 2.1714 315.00 0.0031746 591.87 628.26 2.1714 2.1719 3.7405 330.12 0.023312 37.042 0.067270 315.00 0.0031746 591.87 628.26 2.1714 2.1719 3.7405 330.12 0.023312 37.042 0.067270
144.38 1684.6 undefined 594.04 630.92 2.1766 315.00 0.0031746 594.04 630.92 2.1766 2.1750 3.7238 331.90 0.022962 37.069 0.067361 315.00 0.0031746 594.04 630.92 2.1766 2.1750 3.7238 331.90 0.022962 37.069 0.067361
145.38 1707.0 undefined 596.22 633.58 2.1818 315.00 0.0031746 596.22 633.58 2.1818 2.1780 3.7077 333.67 0.022620 37.097 0.067453 315.00 0.0031746 596.22 633.58 2.1818 2.1780 3.7077 333.67 0.022620 37.097 0.067453
146.38 1729.3 undefined 598.40 636.25 2.1870 315.00 0.0031746 598.40 636.25 2.1870 2.1811 3.6922 335.43 0.022285 37.125 0.067546 315.00 0.0031746 598.40 636.25 2.1870 2.1811 3.6922 335.43 0.022285 37.125 0.067546
147.38 1751.7 undefined 600.58 638.92 2.1922 315.00 0.0031746 600.58 638.92 2.1922 2.1842 3.6773 337.18 0.021956 37.152 0.067640 315.00 0.0031746 600.58 638.92 2.1922 2.1842 3.6773 337.18 0.021956 37.152 0.067640
148.38 1774.1 undefined 602.77 641.60 2.1974 315.00 0.0031746 602.77 641.60 2.1974 2.1873 3.6629 338.91 0.021634 37.180 0.067735 315.00 0.0031746 602.77 641.60 2.1974 2.1873 3.6629 338.91 0.021634 37.180 0.067735
149.38 1796.4 undefined 604.96 644.28 2.2026 315.00 0.0031746 604.96 644.28 2.2026 2.1905 3.6490 340.63 0.021319 37.207 0.067830 315.00 0.0031746 604.96 644.28 2.2026 2.1905 3.6490 340.63 0.021319 37.207 0.067830
150.38 1818.9 undefined 607.15 646.96 2.2077 315.00 0.0031746 607.15 646.96 2.2077 2.1936 3.6355 342.34 0.021010 37.235 0.067927 315.00 0.0031746 607.15 646.96 2.2077 2.1936 3.6355 342.34 0.021010 37.235 0.067927
151.38 1841.3 undefined 609.34 649.65 2.2129 315.00 0.0031746 609.34 649.65 2.2129 2.1968 3.6225 344.04 0.020707 37.262 0.068024 315.00 0.0031746 609.34 649.65 2.2129 2.1968 3.6225 344.04 0.020707 37.262 0.068024
152.38 1863.7 undefined 611.54 652.34 2.2181 315.00 0.0031746 611.54 652.34 2.2181 2.2000 3.6100 345.73 0.020409 37.290 0.068121 315.00 0.0031746 611.54 652.34 2.2181 2.2000 3.6100 345.73 0.020409 37.290 0.068121
153.38 1886.2 undefined 613.74 655.03 2.2233 315.00 0.0031746 613.74 655.03 2.2233 2.2032 3.5979 347.40 0.020118 37.317 0.068220 315.00 0.0031746 613.74 655.03 2.2233 2.2032 3.5979 347.40 0.020118 37.317 0.068220
154.38 1908.6 undefined 615.95 657.73 2.2284 315.00 0.0031746 615.95 657.73 2.2284 2.2064 3.5862 349.07 0.019832 37.344 0.068319 315.00 0.0031746 615.95 657.73 2.2284 2.2064 3.5862 349.07 0.019832 37.344 0.068319
155.38 1931.1 undefined 618.16 660.43 2.2336 315.00 0.0031746 618.16 660.43 2.2336 2.2096 3.5749 350.73 0.019551 37.372 0.068419 315.00 0.0031746 618.16 660.43 2.2336 2.2096 3.5749 350.73 0.019551 37.372 0.068419
156.38 1953.6 undefined 620.37 663.13 2.2387 315.00 0.0031746 620.37 663.13 2.2387 2.2129 3.5639 352.37 0.019275 37.399 0.068519 315.00 0.0031746 620.37 663.13 2.2387 2.2129 3.5639 352.37 0.019275 37.399 0.068519
157.38 1976.1 undefined 622.58 665.84 2.2439 315.00 0.0031746 622.58 665.84 2.2439 2.2161 3.5534 354.01 0.019005 37.427 0.068620 315.00 0.0031746 622.58 665.84 2.2439 2.2161 3.5534 354.01 0.019005 37.427 0.068620
158.38 1998.6 undefined 624.80 668.55 2.2490 315.00 0.0031746 624.80 668.55 2.2490 2.2194 3.5431 355.63 0.018739 37.454 0.068722 315.00 0.0031746 624.80 668.55 2.2490 2.2194 3.5431 355.63 0.018739 37.454 0.068722
159.38 2021.2 undefined 627.02 671.26 2.2542 315.00 0.0031746 627.02 671.26 2.2542 2.2227 3.5332 357.25 0.018479 37.481 0.068824 315.00 0.0031746 627.02 671.26 2.2542 2.2227 3.5332 357.25 0.018479 37.481 0.068824
160.38 2043.7 undefined 629.25 673.98 2.2593 315.00 0.0031746 629.25 673.98 2.2593 2.2259 3.5237 358.86 0.018223 37.508 0.068927 315.00 0.0031746 629.25 673.98 2.2593 2.2259 3.5237 358.86 0.018223 37.508 0.068927
161.38 2066.2 undefined 631.47 676.70 2.2644 315.00 0.0031746 631.47 676.70 2.2644 2.2292 3.5144 360.46 0.017971 37.536 0.069030 315.00 0.0031746 631.47 676.70 2.2644 2.2292 3.5144 360.46 0.017971 37.536 0.069030
162.38 2088.8 undefined 633.70 679.42 2.2696 315.00 0.0031746 633.70 679.42 2.2696 2.2325 3.5054 362.04 0.017724 37.563 0.069134 315.00 0.0031746 633.70 679.42 2.2696 2.2325 3.5054 362.04 0.017724 37.563 0.069134
163.38 2111.4 undefined 635.94 682.15 2.2747 315.00 0.0031746 635.94 682.15 2.2747 2.2359 3.4968 363.63 0.017481 37.590 0.069239 315.00 0.0031746 635.94 682.15 2.2747 2.2359 3.4968 363.63 0.017481 37.590 0.069239
164.38 2134.0 undefined 638.18 684.88 2.2798 315.00 0.0031746 638.18 684.88 2.2798 2.2392 3.4884 365.20 0.017243 37.617 0.069344 315.00 0.0031746 638.18 684.88 2.2798 2.2392 3.4884 365.20 0.017243 37.617 0.069344
165.38 2156.6 undefined 640.42 687.62 2.2849 315.00 0.0031746 640.42 687.62 2.2849 2.2425 3.4803 366.76 0.017009 37.644 0.069450 315.00 0.0031746 640.42 687.62 2.2849 2.2425 3.4803 366.76 0.017009 37.644 0.069450
166.38 2179.2 undefined 642.66 690.36 2.2900 315.00 0.0031746 642.66 690.36 2.2900 2.2459 3.4724 368.31 0.016778 37.672 0.069556 315.00 0.0031746 642.66 690.36 2.2900 2.2459 3.4724 368.31 0.016778 37.672 0.069556
167.38 2201.8 undefined 644.91 693.10 2.2951 315.00 0.0031746 644.91 693.10 2.2951 2.2492 3.4648 369.86 0.016552 37.699 0.069663 315.00 0.0031746 644.91 693.10 2.2951 2.2492 3.4648 369.86 0.016552 37.699 0.069663
168.38 2224.4 undefined 647.16 695.85 2.3002 315.00 0.0031746 647.16 695.85 2.3002 2.2526 3.4574 371.40 0.016329 37.726 0.069770 315.00 0.0031746 647.16 695.85 2.3002 2.2526 3.4574 371.40 0.016329 37.726 0.069770
169.38 2247.0 undefined 649.41 698.60 2.3053 315.00 0.0031746 649.41 698.60 2.3053 2.2559 3.4503 372.93 0.016110 37.753 0.069878 315.00 0.0031746 649.41 698.60 2.3053 2.2559 3.4503 372.93 0.016110 37.753 0.069878
170.38 2269.7 undefined 651.67 701.35 2.3104 315.00 0.0031746 651.67 701.35 2.3104 2.2593 3.4433 374.45 0.015895 37.780 0.069987 315.00 0.0031746 651.67 701.35 2.3104 2.2593 3.4433 374.45 0.015895 37.780 0.069987
171.38 2292.3 undefined 653.93 704.11 2.3155 315.00 0.0031746 653.93 704.11 2.3155 2.2627 3.4367 375.97 0.015683 37.807 0.070095 315.00 0.0031746 653.93 704.11 2.3155 2.2627 3.4367 375.97 0.015683 37.807 0.070095
172.38 2315.0 undefined 656.20 706.87 2.3206 315.00 0.0031746 656.20 706.87 2.3206 2.2660 3.4302 377.47 0.015475 37.834 0.070205 315.00 0.0031746 656.20 706.87 2.3206 2.2660 3.4302 377.47 0.015475 37.834 0.070205
173.38 2337.6 undefined 658.46 709.63 2.3257 315.00 0.0031746 658.46 709.63 2.3257 2.2694 3.4239 378.97 0.015270 37.861 0.070314 315.00 0.0031746 658.46 709.63 2.3257 2.2694 3.4239 378.97 0.015270 37.861 0.070314
174.38 2360.3 undefined 660.74 712.40 2.3308 315.00 0.0031746 660.74 712.40 2.3308 2.2728 3.4178 380.47 0.015069 37.888 0.070425 315.00 0.0031746 660.74 712.40 2.3308 2.2728 3.4178 380.47 0.015069 37.888 0.070425
175.38 2383.0 undefined 663.01 715.17 2.3359 315.00 0.0031746 663.01 715.17 2.3359 2.2762 3.4119 381.95 0.014870 37.915 0.070535 315.00 0.0031746 663.01 715.17 2.3359 2.2762 3.4119 381.95 0.014870 37.915 0.070535
176.38 2405.6 undefined 665.29 717.94 2.3409 315.00 0.0031746 665.29 717.94 2.3409 2.2796 3.4062 383.43 0.014675 37.942 0.070647 315.00 0.0031746 665.29 717.94 2.3409 2.2796 3.4062 383.43 0.014675 37.942 0.070647
177.38 2428.3 undefined 667.57 720.72 2.3460 315.00 0.0031746 667.57 720.72 2.3460 2.2830 3.4007 384.90 0.014483 37.969 0.070758 315.00 0.0031746 667.57 720.72 2.3460 2.2830 3.4007 384.90 0.014483 37.969 0.070758
178.38 2451.0 undefined 669.85 723.50 2.3511 315.00 0.0031746 669.85 723.50 2.3511 2.2864 3.3954 386.36 0.014294 37.995 0.070870 315.00 0.0031746 669.85 723.50 2.3511 2.2864 3.3954 386.36 0.014294 37.995 0.070870
179.38 2473.7 undefined 672.14 726.29 2.3561 315.00 0.0031746 672.14 726.29 2.3561 2.2898 3.3902 387.82 0.014108 38.022 0.070983 315.00 0.0031746 672.14 726.29 2.3561 2.2898 3.3902 387.82 0.014108 38.022 0.070983
180.38 2496.4 undefined 674.43 729.08 2.3612 315.00 0.0031746 674.43 729.08 2.3612 2.2933 3.3852 389.27 0.013924 38.049 0.071096 315.00 0.0031746 674.43 729.08 2.3612 2.2933 3.3852 389.27 0.013924 38.049 0.071096
181.38 2519.2 undefined 676.73 731.87 2.3662 315.00 0.0031746 676.73 731.87 2.3662 2.2967 3.3804 390.71 0.013744 38.076 0.071209 315.00 0.0031746 676.73 731.87 2.3662 2.2967 3.3804 390.71 0.013744 38.076 0.071209
182.38 2541.9 undefined 679.03 734.66 2.3713 315.00 0.0031746 679.03 734.66 2.3713 2.3001 3.3757 392.15 0.013566 38.103 0.071323 315.00 0.0031746 679.03 734.66 2.3713 2.3001 3.3757 392.15 0.013566 38.103 0.071323
183.38 2564.6 undefined 681.33 737.46 2.3763 315.00 0.0031746 681.33 737.46 2.3763 2.3035 3.3711 393.58 0.013391 38.129 0.071438 315.00 0.0031746 681.33 737.46 2.3763 2.3035 3.3711 393.58 0.013391 38.129 0.071438
184.38 2587.3 undefined 683.63 740.27 2.3814 315.00 0.0031746 683.63 740.27 2.3814 2.3070 3.3667 395.00 0.013219 38.156 0.071552 315.00 0.0031746 683.63 740.27 2.3814 2.3070 3.3667 395.00 0.013219 38.156 0.071552
185.38 2610.1 undefined 685.94 743.07 2.3864 315.00 0.0031746 685.94 743.07 2.3864 2.3104 3.3625 396.42 0.013049 38.183 0.071667 315.00 0.0031746 685.94 743.07 2.3864 2.3104 3.3625 396.42 0.013049 38.183 0.071667
186.38 2632.8 undefined 688.26 745.88 2.3915 315.00 0.0031746 688.26 745.88 2.3915 2.3138 3.3584 397.83 0.012882 38.209 0.071783 315.00 0.0031746 688.26 745.88 2.3915 2.3138 3.3584 397.83 0.012882 38.209 0.071783
187.38 2655.6 undefined 690.57 748.70 2.3965 315.00 0.0031746 690.57 748.70 2.3965 2.3173 3.3544 399.24 0.012717 38.236 0.071899 315.00 0.0031746 690.57 748.70 2.3965 2.3173 3.3544 399.24 0.012717 38.236 0.071899
188.38 2678.3 undefined 692.89 751.51 2.4015 315.00 0.0031746 692.89 751.51 2.4015 2.3207 3.3506 400.64 0.012554 38.263 0.072015 315.00 0.0031746 692.89 751.51 2.4015 2.3207 3.3506 400.64 0.012554 38.263 0.072015
189.38 2701.1 undefined 695.21 754.33 2.4066 315.00 0.0031746 695.21 754.33 2.4066 2.3242 3.3468 402.03 0.012394 38.289 0.072132 315.00 0.0031746 695.21 754.33 2.4066 2.3242 3.3468 402.03 0.012394 38.289 0.072132
190.38 2723.8 undefined 697.54 757.16 2.4116 315.00 0.0031746 697.54 757.16 2.4116 2.3276 3.3432 403.41 0.012237 38.316 0.072249 315.00 0.0031746 697.54 757.16 2.4116 2.3276 3.3432 403.41 0.012237 38.316 0.072249
191.38 2746.6 undefined 699.87 759.99 2.4166 315.00 0.0031746 699.87 759.99 2.4166 2.3311 3.3398 404.80 0.012081 38.342 0.072367 315.00 0.0031746 699.87 759.99 2.4166 2.3311 3.3398 404.80 0.012081 38.342 0.072367
192.38 2769.4 undefined 702.20 762.82 2.4216 315.00 0.0031746 702.20 762.82 2.4216 2.3345 3.3364 406.17 0.011928 38.369 0.072485 315.00 0.0031746 702.20 762.82 2.4216 2.3345 3.3364 406.17 0.011928 38.369 0.072485
193.38 2792.2 undefined 704.54 765.65 2.4266 315.00 0.0031746 704.54 765.65 2.4266 2.3380 3.3332 407.54 0.011777 38.395 0.072603 315.00 0.0031746 704.54 765.65 2.4266 2.3380 3.3332 407.54 0.011777 38.395 0.072603
194.38 2814.9 undefined 706.88 768.49 2.4316 315.00 0.0031746 706.88 768.49 2.4316 2.3414 3.3301 408.90 0.011628 38.422 0.072722 315.00 0.0031746 706.88 768.49 2.4316 2.3414 3.3301 408.90 0.011628 38.422 0.072722
195.38 2837.7 undefined 709.22 771.33 2.4366 315.00 0.0031746 709.22 771.33 2.4366 2.3449 3.3270 410.26 0.011481 38.448 0.072841 315.00 0.0031746 709.22 771.33 2.4366 2.3449 3.3270 410.26 0.011481 38.448 0.072841
196.38 2860.5 undefined 711.57 774.18 2.4416 315.00 0.0031746 711.57 774.18 2.4416 2.3483 3.3241 411.61 0.011336 38.475 0.072960 315.00 0.0031746 711.57 774.18 2.4416 2.3483 3.3241 411.61 0.011336 38.475 0.072960
197.38 2883.3 undefined 713.92 777.03 2.4466 315.00 0.0031746 713.92 777.03 2.4466 2.3518 3.3213 412.96 0.011194 38.501 0.073080 315.00 0.0031746 713.92 777.03 2.4466 2.3518 3.3213 412.96 0.011194 38.501 0.073080
198.38 2906.1 undefined 716.27 779.88 2.4516 315.00 0.0031746 716.27 779.88 2.4516 2.3553 3.3186 414.30 0.011053 38.528 0.073200 315.00 0.0031746 716.27 779.88 2.4516 2.3553 3.3186 414.30 0.011053 38.528 0.073200
199.38 2928.9 undefined 718.63 782.73 2.4566 315.00 0.0031746 718.63 782.73 2.4566 2.3587 3.3160 415.64 0.010914 38.554 0.073321 315.00 0.0031746 718.63 782.73 2.4566 2.3587 3.3160 415.64 0.010914 38.554 0.073321
200.38 2951.7 undefined 720.99 785.59 2.4616 315.00 0.0031746 720.99 785.59 2.4616 2.3622 3.3135 416.97 0.010777 38.580 0.073441 315.00 0.0031746 720.99 785.59 2.4616 2.3622 3.3135 416.97 0.010777 38.580 0.073441
201.38 2974.5 undefined 723.35 788.46 2.4666 315.00 0.0031746 723.35 788.46 2.4666 2.3657 3.3111 418.29 0.010642 38.607 0.073563 315.00 0.0031746 723.35 788.46 2.4666 2.3657 3.3111 418.29 0.010642 38.607 0.073563
202.38 2997.3 undefined 725.72 791.32 2.4716 315.00 0.0031746 725.72 791.32 2.4716 2.3691 3.3087 419.61 0.010509 38.633 0.073684 315.00 0.0031746 725.72 791.32 2.4716 2.3691 3.3087 419.61 0.010509 38.633 0.073684
203.38 3020.1 undefined 728.09 794.19 2.4766 315.00 0.0031746 728.09 794.19 2.4766 2.3726 3.3065 420.93 0.010377 38.659 0.073806 315.00 0.0031746 728.09 794.19 2.4766 2.3726 3.3065 420.93 0.010377 38.659 0.073806
204.38 3042.9 undefined 730.46 797.07 2.4816 315.00 0.0031746 730.46 797.07 2.4816 2.3761 3.3043 422.24 0.010248 38.686 0.073929 315.00 0.0031746 730.46 797.07 2.4816 2.3761 3.3043 422.24 0.010248 38.686 0.073929
205.38 3065.7 undefined 732.84 799.94 2.4865 315.00 0.0031746 732.84 799.94 2.4865 2.3795 3.3023 423.54 0.010120 38.712 0.074051 315.00 0.0031746 732.84 799.94 2.4865 2.3795 3.3023 423.54 0.010120 38.712 0.074051
206.38 3088.5 undefined 735.22 802.82 2.4915 315.00 0.0031746 735.22 802.82 2.4915 2.3830 3.3003 424.84 0.0099933 38.738 0.074174 315.00 0.0031746 735.22 802.82 2.4915 2.3830 3.3003 424.84 0.0099933 38.738 0.074174
207.38 3111.3 undefined 737.61 805.71 2.4965 315.00 0.0031746 737.61 805.71 2.4965 2.3865 3.2984 426.14 0.0098687 38.764 0.074298 315.00 0.0031746 737.61 805.71 2.4965 2.3865 3.2984 426.14 0.0098687 38.764 0.074298
208.38 3134.1 undefined 740.00 808.60 2.5014 315.00 0.0031746 740.00 808.60 2.5014 2.3899 3.2965 427.43 0.0097457 38.790 0.074421 315.00 0.0031746 740.00 808.60 2.5014 2.3899 3.2965 427.43 0.0097457 38.790 0.074421
209.38 3156.9 undefined 742.39 811.49 2.5064 315.00 0.0031746 742.39 811.49 2.5064 2.3934 3.2948 428.72 0.0096244 38.817 0.074545 315.00 0.0031746 742.39 811.49 2.5064 2.3934 3.2948 428.72 0.0096244 38.817 0.074545
210.38 3179.8 undefined 744.78 814.38 2.5114 315.00 0.0031746 744.78 814.38 2.5114 2.3969 3.2931 430.00 0.0095046 38.843 0.074670 315.00 0.0031746 744.78 814.38 2.5114 2.3969 3.2931 430.00 0.0095046 38.843 0.074670
211.38 3202.6 undefined 747.18 817.28 2.5163 315.00 0.0031746 747.18 817.28 2.5163 2.4004 3.2915 431.27 0.0093863 38.869 0.074794 315.00 0.0031746 747.18 817.28 2.5163 2.4004 3.2915 431.27 0.0093863 38.869 0.074794
212.38 3225.4 undefined 749.58 820.18 2.5213 315.00 0.0031746 749.58 820.18 2.5213 2.4038 3.2900 432.54 0.0092696 38.895 0.074919 315.00 0.0031746 749.58 820.18 2.5213 2.4038 3.2900 432.54 0.0092696 38.895 0.074919
213.38 3248.2 undefined 751.99 823.09 2.5262 315.00 0.0031746 751.99 823.09 2.5262 2.4073 3.2885 433.81 0.0091543 38.921 0.075044 315.00 0.0031746 751.99 823.09 2.5262 2.4073 3.2885 433.81 0.0091543 38.921 0.075044
214.38 3271.0 undefined 754.40 825.99 2.5312 315.00 0.0031746 754.40 825.99 2.5312 2.4108 3.2871 435.07 0.0090406 38.947 0.075170 315.00 0.0031746 754.40 825.99 2.5312 2.4108 3.2871 435.07 0.0090406 38.947 0.075170
215.38 3293.9 undefined 756.81 828.91 2.5361 315.00 0.0031746 756.81 828.91 2.5361 2.4143 3.2858 436.33 0.0089282 38.973 0.075296 315.00 0.0031746 756.81 828.91 2.5361 2.4143 3.2858 436.33 0.0089282 38.973 0.075296
216.38 3316.7 undefined 759.23 831.82 2.5410 315.00 0.0031746 759.23 831.82 2.5410 2.4177 3.2845 437.58 0.0088173 38.999 0.075422 315.00 0.0031746 759.23 831.82 2.5410 2.4177 3.2845 437.58 0.0088173 38.999 0.075422
217.38 3339.5 undefined 761.65 834.74 2.5460 315.00 0.0031746 761.65 834.74 2.5460 2.4212 3.2833 438.83 0.0087078 39.025 0.075549 315.00 0.0031746 761.65 834.74 2.5460 2.4212 3.2833 438.83 0.0087078 39.025 0.075549
218.38 3362.3 undefined 764.07 837.66 2.5509 315.00 0.0031746 764.07 837.66 2.5509 2.4247 3.2822 440.07 0.0085996 39.051 0.075676 315.00 0.0031746 764.07 837.66 2.5509 2.4247 3.2822 440.07 0.0085996 39.051 0.075676
219.38 3385.2 undefined 766.50 840.59 2.5558 315.00 0.0031746 766.50 840.59 2.5558 2.4282 3.2811 441.31 0.0084928 39.077 0.075803 315.00 0.0031746 766.50 840.59 2.5558 2.4282 3.2811 441.31 0.0084928 39.077 0.075803
220.38 3408.0 undefined 768.93 843.52 2.5608 315.00 0.0031746 768.93 843.52 2.5608 2.4316 3.2801 442.55 0.0083873 39.103 0.075931 315.00 0.0031746 768.93 843.52 2.5608 2.4316 3.2801 442.55 0.0083873 39.103 0.075931
221.38 3430.8 undefined 771.36 846.45 2.5657 315.00 0.0031746 771.36 846.45 2.5657 2.4351 3.2792 443.78 0.0082831 39.129 0.076058 315.00 0.0031746 771.36 846.45 2.5657 2.4351 3.2792 443.78 0.0082831 39.129 0.076058
222.38 3453.6 undefined 773.80 849.39 2.5706 315.00 0.0031746 773.80 849.39 2.5706 2.4386 3.2783 445.01 0.0081802 39.154 0.076186 315.00 0.0031746 773.80 849.39 2.5706 2.4386 3.2783 445.01 0.0081802 39.154 0.076186
223.38 3476.5 undefined 776.24 852.33 2.5755 315.00 0.0031746 776.24 852.33 2.5755 2.4420 3.2774 446.23 0.0080785 39.180 0.076315 315.00 0.0031746 776.24 852.33 2.5755 2.4420 3.2774 446.23 0.0080785 39.180 0.076315
224.38 3499.3 undefined 778.68 855.27 2.5805 315.00 0.0031746 778.68 855.27 2.5805 2.4455 3.2766 447.45 0.0079781 39.206 0.076444 315.00 0.0031746 778.68 855.27 2.5805 2.4455 3.2766 447.45 0.0079781 39.206 0.076444
225.38 3522.1 undefined 781.13 858.22 2.5854 315.00 0.0031746 781.13 858.22 2.5854 2.4490 3.2759 448.66 0.0078788 39.232 0.076573 315.00 0.0031746 781.13 858.22 2.5854 2.4490 3.2759 448.66 0.0078788 39.232 0.076573
226.38 3544.9 undefined 783.58 861.17 2.5903 315.00 0.0031746 783.58 861.17 2.5903 2.4525 3.2752 449.87 0.0077808 39.258 0.076702 315.00 0.0031746 783.58 861.17 2.5903 2.4525 3.2752 449.87 0.0077808 39.258 0.076702
227.38 3567.8 undefined 786.03 864.12 2.5952 315.00 0.0031746 786.03 864.12 2.5952 2.4559 3.2746 451.08 0.0076840 39.283 0.076831 315.00 0.0031746 786.03 864.12 2.5952 2.4559 3.2746 451.08 0.0076840 39.283 0.076831
228.38 3590.6 undefined 788.49 867.08 2.6001 315.00 0.0031746 788.49 867.08 2.6001 2.4594 3.2740 452.28 0.0075883 39.309 0.076961 315.00 0.0031746 788.49 867.08 2.6001 2.4594 3.2740 452.28 0.0075883 39.309 0.076961
229.38 3613.4 undefined 790.95 870.04 2.6050 315.00 0.0031746 790.95 870.04 2.6050 2.4629 3.2735 453.48 0.0074937 39.335 0.077091 315.00 0.0031746 790.95 870.04 2.6050 2.4629 3.2735 453.48 0.0074937 39.335 0.077091
230.38 3636.2 undefined 793.42 873.01 2.6099 315.00 0.0031746 793.42 873.01 2.6099 2.4663 3.2730 454.67 0.0074003 39.360 0.077222 315.00 0.0031746 793.42 873.01 2.6099 2.4663 3.2730 454.67 0.0074003 39.360 0.077222
231.38 3659.1 undefined 795.88 875.97 2.6148 315.00 0.0031746 795.88 875.97 2.6148 2.4698 3.2726 455.86 0.0073079 39.386 0.077352 315.00 0.0031746 795.88 875.97 2.6148 2.4698 3.2726 455.86 0.0073079 39.386 0.077352
232.38 3681.9 undefined 798.35 878.94 2.6197 315.00 0.0031746 798.35 878.94 2.6197 2.4733 3.2722 457.05 0.0072167 39.412 0.077483 315.00 0.0031746 798.35 878.94 2.6197 2.4733 3.2722 457.05 0.0072167 39.412 0.077483
233.38 3704.7 undefined 800.83 881.92 2.6246 315.00 0.0031746 800.83 881.92 2.6246 2.4767 3.2719 458.23 0.0071265 39.437 0.077615 315.00 0.0031746 800.83 881.92 2.6246 2.4767 3.2719 458.23 0.0071265 39.437 0.077615
234.38 3727.5 undefined 803.31 884.90 2.6295 315.00 0.0031746 803.31 884.90 2.6295 2.4802 3.2716 459.41 0.0070374 39.463 0.077746 315.00 0.0031746 803.31 884.90 2.6295 2.4802 3.2716 459.41 0.0070374 39.463 0.077746
235.38 3750.3 undefined 805.79 887.88 2.6344 315.00 0.0031746 805.79 887.88 2.6344 2.4837 3.2713 460.59 0.0069492 39.488 0.077878 315.00 0.0031746 805.79 887.88 2.6344 2.4837 3.2713 460.59 0.0069492 39.488 0.077878
236.38 3773.2 undefined 808.28 890.86 2.6392 315.00 0.0031746 808.28 890.86 2.6392 2.4871 3.2711 461.76 0.0068622 39.514 0.078010 315.00 0.0031746 808.28 890.86 2.6392 2.4871 3.2711 461.76 0.0068622 39.514 0.078010
237.38 3796.0 undefined 810.76 893.85 2.6441 315.00 0.0031746 810.76 893.85 2.6441 2.4906 3.2710 462.93 0.0067761 39.539 0.078142 315.00 0.0031746 810.76 893.85 2.6441 2.4906 3.2710 462.93 0.0067761 39.539 0.078142
238.38 3818.8 undefined 813.26 896.84 2.6490 315.00 0.0031746 813.26 896.84 2.6490 2.4941 3.2709 464.09 0.0066910 39.565 0.078275 315.00 0.0031746 813.26 896.84 2.6490 2.4941 3.2709 464.09 0.0066910 39.565 0.078275
239.38 3841.6 undefined 815.75 899.84 2.6539 315.00 0.0031746 815.75 899.84 2.6539 2.4975 3.2708 465.25 0.0066068 39.590 0.078407 315.00 0.0031746 815.75 899.84 2.6539 2.4975 3.2708 465.25 0.0066068 39.590 0.078407
240.38 3864.4 undefined 818.25 902.84 2.6587 315.00 0.0031746 818.25 902.84 2.6587 2.5010 3.2707 466.41 0.0065236 39.616 0.078540 315.00 0.0031746 818.25 902.84 2.6587 2.5010 3.2707 466.41 0.0065236 39.616 0.078540
241.38 3887.2 undefined 820.75 905.84 2.6636 315.00 0.0031746 820.75 905.84 2.6636 2.5044 3.2707 467.56 0.0064414 39.641 0.078674 315.00 0.0031746 820.75 905.84 2.6636 2.5044 3.2707 467.56 0.0064414 39.641 0.078674
242.38 3910.1 undefined 823.26 908.84 2.6685 315.00 0.0031746 823.26 908.84 2.6685 2.5079 3.2708 468.71 0.0063601 39.666 0.078807 315.00 0.0031746 823.26 908.84 2.6685 2.5079 3.2708 468.71 0.0063601 39.666 0.078807
243.38 3932.9 undefined 825.77 911.85 2.6733 315.00 0.0031746 825.77 911.85 2.6733 2.5113 3.2708 469.86 0.0062797 39.692 0.078941 315.00 0.0031746 825.77 911.85 2.6733 2.5113 3.2708 469.86 0.0062797 39.692 0.078941
244.38 3955.7 undefined 828.28 914.87 2.6782 315.00 0.0031746 828.28 914.87 2.6782 2.5148 3.2710 471.00 0.0062002 39.717 0.079075 315.00 0.0031746 828.28 914.87 2.6782 2.5148 3.2710 471.00 0.0062002 39.717 0.079075
245.38 3978.5 undefined 830.80 917.88 2.6831 315.00 0.0031746 830.80 917.88 2.6831 2.5182 3.2711 472.14 0.0061216 39.743 0.079209 315.00 0.0031746 830.80 917.88 2.6831 2.5182 3.2711 472.14 0.0061216 39.743 0.079209
246.38 4001.3 undefined 833.32 920.90 2.6879 315.00 0.0031746 833.32 920.90 2.6879 2.5217 3.2713 473.27 0.0060439 39.768 0.079343 315.00 0.0031746 833.32 920.90 2.6879 2.5217 3.2713 473.27 0.0060439 39.768 0.079343
247.38 4024.1 undefined 835.84 923.92 2.6928 315.00 0.0031746 835.84 923.92 2.6928 2.5251 3.2715 474.41 0.0059670 39.793 0.079478 315.00 0.0031746 835.84 923.92 2.6928 2.5251 3.2715 474.41 0.0059670 39.793 0.079478
248.38 4046.9 undefined 838.37 926.95 2.6976 315.00 0.0031746 838.37 926.95 2.6976 2.5286 3.2718 475.54 0.0058909 39.818 0.079612 315.00 0.0031746 838.37 926.95 2.6976 2.5286 3.2718 475.54 0.0058909 39.818 0.079612
249.38 4069.7 undefined 840.90 929.98 2.7025 315.00 0.0031746 840.90 929.98 2.7025 2.5320 3.2720 476.66 0.0058157 39.844 0.079747 315.00 0.0031746 840.90 929.98 2.7025 2.5320 3.2720 476.66 0.0058157 39.844 0.079747
250.38 4092.5 undefined 843.43 933.01 2.7073 315.00 0.0031746 843.43 933.01 2.7073 2.5355 3.2724 477.78 0.0057414 39.869 0.079882 315.00 0.0031746 843.43 933.01 2.7073 2.5355 3.2724 477.78 0.0057414 39.869 0.079882
251.38 4115.3 undefined 845.97 936.05 2.7121 315.00 0.0031746 845.97 936.05 2.7121 2.5389 3.2727 478.90 0.0056678 39.894 0.080018 315.00 0.0031746 845.97 936.05 2.7121 2.5389 3.2727 478.90 0.0056678 39.894 0.080018
252.38 4138.1 undefined 848.51 939.09 2.7170 315.00 0.0031746 848.51 939.09 2.7170 2.5424 3.2731 480.02 0.0055950 39.919 0.080153 315.00 0.0031746 848.51 939.09 2.7170 2.5424 3.2731 480.02 0.0055950 39.919 0.080153
253.38 4160.9 undefined 851.06 942.13 2.7218 315.00 0.0031746 851.06 942.13 2.7218 2.5458 3.2735 481.13 0.0055231 39.944 0.080289 315.00 0.0031746 851.06 942.13 2.7218 2.5458 3.2735 481.13 0.0055231 39.944 0.080289
254.38 4183.6 undefined 853.60 945.18 2.7267 315.00 0.0031746 853.60 945.18 2.7267 2.5492 3.2740 482.24 0.0054519 39.969 0.080424 315.00 0.0031746 853.60 945.18 2.7267 2.5492 3.2740 482.24 0.0054519 39.969 0.080424
255.38 4206.4 undefined 856.15 948.23 2.7315 315.00 0.0031746 856.15 948.23 2.7315 2.5527 3.2744 483.35 0.0053814 39.994 0.080560 315.00 0.0031746 856.15 948.23 2.7315 2.5527 3.2744 483.35 0.0053814 39.994 0.080560
256.38 4229.2 undefined 858.71 951.28 2.7363 315.00 0.0031746 858.71 951.28 2.7363 2.5561 3.2749 484.45 0.0053117 40.019 0.080696 315.00 0.0031746 858.71 951.28 2.7363 2.5561 3.2749 484.45 0.0053117 40.019 0.080696
257.38 4252.0 undefined 861.27 954.33 2.7411 315.00 0.0031746 861.27 954.33 2.7411 2.5595 3.2755 485.55 0.0052428 40.045 0.080832 315.00 0.0031746 861.27 954.33 2.7411 2.5595 3.2755 485.55 0.0052428 40.045 0.080832
258.38 4274.8 undefined 863.83 957.39 2.7460 315.00 0.0031746 863.83 957.39 2.7460 2.5630 3.2760 486.65 0.0051746 40.070 0.080969 315.00 0.0031746 863.83 957.39 2.7460 2.5630 3.2760 486.65 0.0051746 40.070 0.080969
259.38 4297.6 undefined 866.39 960.46 2.7508 315.00 0.0031746 866.39 960.46 2.7508 2.5664 3.2766 487.74 0.0051071 40.095 0.081105 315.00 0.0031746 866.39 960.46 2.7508 2.5664 3.2766 487.74 0.0051071 40.095 0.081105
260.38 4320.3 undefined 868.96 963.52 2.7556 315.00 0.0031746 868.96 963.52 2.7556 2.5698 3.2772 488.83 0.0050403 40.120 0.081241 315.00 0.0031746 868.96 963.52 2.7556 2.5698 3.2772 488.83 0.0050403 40.120 0.081241
261.38 4343.1 undefined 871.53 966.59 2.7604 315.00 0.0031746 871.53 966.59 2.7604 2.5732 3.2779 489.92 0.0049743 40.144 0.081378 315.00 0.0031746 871.53 966.59 2.7604 2.5732 3.2779 489.92 0.0049743 40.144 0.081378
262.38 4365.9 undefined 874.11 969.67 2.7652 315.00 0.0031746 874.11 969.67 2.7652 2.5766 3.2785 491.00 0.0049089 40.169 0.081514 315.00 0.0031746 874.11 969.67 2.7652 2.5766 3.2785 491.00 0.0049089 40.169 0.081514
263.38 4388.6 undefined 876.69 972.74 2.7700 315.00 0.0031746 876.69 972.74 2.7700 2.5801 3.2792 492.08 0.0048442 40.194 0.081651 315.00 0.0031746 876.69 972.74 2.7700 2.5801 3.2792 492.08 0.0048442 40.194 0.081651
264.38 4411.4 undefined 879.27 975.82 2.7748 315.00 0.0031746 879.27 975.82 2.7748 2.5835 3.2800 493.16 0.0047802 40.219 0.081787 315.00 0.0031746 879.27 975.82 2.7748 2.5835 3.2800 493.16 0.0047802 40.219 0.081787
265.38 4434.2 undefined 881.85 978.91 2.7797 315.00 0.0031746 881.85 978.91 2.7797 2.5869 3.2807 494.24 0.0047169 40.244 0.081923 315.00 0.0031746 881.85 978.91 2.7797 2.5869 3.2807 494.24 0.0047169 40.244 0.081923
266.38 4456.9 undefined 884.44 981.99 2.7845 315.00 0.0031746 884.44 981.99 2.7845 2.5903 3.2815 495.31 0.0046542 40.269 0.082060 315.00 0.0031746 884.44 981.99 2.7845 2.5903 3.2815 495.31 0.0046542 40.269 0.082060
267.38 4479.7 undefined 887.03 985.08 2.7893 315.00 0.0031746 887.03 985.08 2.7893 2.5937 3.2823 496.38 0.0045921 40.294 0.082196 315.00 0.0031746 887.03 985.08 2.7893 2.5937 3.2823 496.38 0.0045921 40.294 0.082196
268.38 4502.4 undefined 889.63 988.18 2.7941 315.00 0.0031746 889.63 988.18 2.7941 2.5971 3.2831 497.45 0.0045307 40.318 0.082332 315.00 0.0031746 889.63 988.18 2.7941 2.5971 3.2831 497.45 0.0045307 40.318 0.082332
269.38 4525.2 undefined 892.23 991.27 2.7988 315.00 0.0031746 892.23 991.27 2.7988 2.6005 3.2839 498.51 0.0044699 40.343 0.082467 315.00 0.0031746 892.23 991.27 2.7988 2.6005 3.2839 498.51 0.0044699 40.343 0.082467
270.38 4547.9 undefined 894.83 994.37 2.8036 315.00 0.0031746 894.83 994.37 2.8036 2.6039 3.2848 499.57 0.0044098 40.368 0.082603 315.00 0.0031746 894.83 994.37 2.8036 2.6039 3.2848 499.57 0.0044098 40.368 0.082603
271.38 4570.7 undefined 897.43 997.48 2.8084 315.00 0.0031746 897.43 997.48 2.8084 2.6073 3.2857 500.63 0.0043502 40.393 0.082737 315.00 0.0031746 897.43 997.48 2.8084 2.6073 3.2857 500.63 0.0043502 40.393 0.082737
272.38 4593.4 undefined 900.04 1000.6 2.8132 315.00 0.0031746 900.04 1000.6 2.8132 2.6107 3.2866 501.69 0.0042913 40.417 0.082872 315.00 0.0031746 900.04 1000.6 2.8132 2.6107 3.2866 501.69 0.0042913 40.417 0.082872
273.38 4616.1 undefined 902.66 1003.7 2.8180 315.00 0.0031746 902.66 1003.7 2.8180 2.6141 3.2875 502.74 0.0042329 40.442 0.083006 315.00 0.0031746 902.66 1003.7 2.8180 2.6141 3.2875 502.74 0.0042329 40.442 0.083006
274.38 4638.9 undefined 905.27 1006.8 2.8228 315.00 0.0031746 905.27 1006.8 2.8228 2.6175 3.2885 503.79 0.0041752 40.467 0.083138 315.00 0.0031746 905.27 1006.8 2.8228 2.6175 3.2885 503.79 0.0041752 40.467 0.083138
275.38 4661.6 undefined 907.89 1009.9 2.8276 315.00 0.0031746 907.89 1009.9 2.8276 2.6209 3.2894 504.84 0.0041180 40.491 0.083270 315.00 0.0031746 907.89 1009.9 2.8276 2.6209 3.2894 504.84 0.0041180 40.491 0.083270
276.38 4684.3 undefined 910.51 1013.0 2.8323 315.00 0.0031746 910.51 1013.0 2.8323 2.6243 3.2904 505.88 0.0040614 40.516 0.083400 315.00 0.0031746 910.51 1013.0 2.8323 2.6243 3.2904 505.88 0.0040614 40.516 0.083400
277.38 4707.0 undefined 913.14 1016.2 2.8371 315.00 0.0031746 913.14 1016.2 2.8371 2.6277 3.2915 506.92 0.0040054 40.540 0.083528 315.00 0.0031746 913.14 1016.2 2.8371 2.6277 3.2915 506.92 0.0040054 40.540 0.083528
278.38 4729.8 undefined 915.77 1019.3 2.8419 315.00 0.0031746 915.77 1019.3 2.8419 2.6311 3.2925 507.96 0.0039499 40.565 0.083653 315.00 0.0031746 915.77 1019.3 2.8419 2.6311 3.2925 507.96 0.0039499 40.565 0.083653
279.38 4752.5 undefined 918.40 1022.4 2.8467 315.00 0.0031746 918.40 1022.4 2.8467 2.6345 3.2935 509.00 0.0038950 40.590 0.083774 315.00 0.0031746 918.40 1022.4 2.8467 2.6345 3.2935 509.00 0.0038950 40.590 0.083774
280.38 4775.2 undefined 921.04 1025.6 2.8514 315.00 0.0031746 921.04 1025.6 2.8514 2.6378 3.2946 510.03 0.0038406 40.614 0.083885 315.00 0.0031746 921.04 1025.6 2.8514 2.6378 3.2946 510.03 0.0038406 40.614 0.083885
281.38 4797.9 undefined 923.68 1028.7 2.8562 315.00 0.0031746 923.68 1028.7 2.8562 2.6412 3.2957 511.06 0.0037868 40.639 0.083968 315.00 0.0031746 923.68 1028.7 2.8562 2.6412 3.2957 511.06 0.0037868 40.639 0.083968
282.38 4820.6 undefined 926.32 1031.8 2.8609 315.00 0.0031746 926.32 1031.8 2.8609 2.6446 3.2968 512.09 0.0037335 40.663 0.084074 315.00 0.0031746 926.32 1031.8 2.8609 2.6446 3.2968 512.09 0.0037335 40.663 0.084074
283.38 4843.3 undefined 928.97 1035.0 2.8657 315.00 0.0031746 928.97 1035.0 2.8657 2.6480 3.2979 513.12 0.0036807 40.687 0.084230 315.00 0.0031746 928.97 1035.0 2.8657 2.6480 3.2979 513.12 0.0036807 40.687 0.084230
284.38 4866.0 undefined 931.62 1038.1 2.8705 315.00 0.0031746 931.62 1038.1 2.8705 2.6513 3.2991 514.14 0.0036284 40.712 0.084386 315.00 0.0031746 931.62 1038.1 2.8705 2.6513 3.2991 514.14 0.0036284 40.712 0.084386
285.38 4888.7 undefined 934.27 1041.3 2.8752 315.00 0.0031746 934.27 1041.3 2.8752 2.6547 3.3003 515.16 0.0035767 40.736 0.084543 315.00 0.0031746 934.27 1041.3 2.8752 2.6547 3.3003 515.16 0.0035767 40.736 0.084543
286.38 4911.4 undefined 936.93 1044.4 2.8800 315.00 0.0031746 936.93 1044.4 2.8800 2.6581 3.3014 516.18 0.0035254 40.761 0.084700 315.00 0.0031746 936.93 1044.4 2.8800 2.6581 3.3014 516.18 0.0035254 40.761 0.084700
287.38 4934.1 undefined 939.59 1047.6 2.8847 315.00 0.0031746 939.59 1047.6 2.8847 2.6614 3.3026 517.20 0.0034747 40.785 0.084858 315.00 0.0031746 939.59 1047.6 2.8847 2.6614 3.3026 517.20 0.0034747 40.785 0.084858
288.38 4956.8 undefined 942.25 1050.7 2.8895 315.00 0.0031746 942.25 1050.7 2.8895 2.6648 3.3039 518.21 0.0034244 40.809 0.085015 315.00 0.0031746 942.25 1050.7 2.8895 2.6648 3.3039 518.21 0.0034244 40.809 0.085015
289.38 4979.5 undefined 944.92 1053.9 2.8942 315.00 0.0031746 944.92 1053.9 2.8942 2.6681 3.3051 519.22 0.0033747 40.834 0.085173 315.00 0.0031746 944.92 1053.9 2.8942 2.6681 3.3051 519.22 0.0033747 40.834 0.085173
290.38 5002.1 undefined 947.59 1057.1 2.8990 315.00 0.0031746 947.59 1057.1 2.8990 2.6715 3.3063 520.23 0.0033254 40.858 0.085332 315.00 0.0031746 947.59 1057.1 2.8990 2.6715 3.3063 520.23 0.0033254 40.858 0.085332
291.38 5024.8 undefined 950.26 1060.2 2.9037 315.00 0.0031746 950.26 1060.2 2.9037 2.6748 3.3076 521.24 0.0032765 40.882 0.085490 315.00 0.0031746 950.26 1060.2 2.9037 2.6748 3.3076 521.24 0.0032765 40.882 0.085490
292.38 5047.5 undefined 952.94 1063.4 2.9084 315.00 0.0031746 952.94 1063.4 2.9084 2.6782 3.3089 522.24 0.0032282 40.906 0.085649 315.00 0.0031746 952.94 1063.4 2.9084 2.6782 3.3089 522.24 0.0032282 40.906 0.085649
293.38 5070.1 undefined 955.61 1066.6 2.9132 315.00 0.0031746 955.61 1066.6 2.9132 2.6815 3.3102 523.24 0.0031803 40.931 0.085808 315.00 0.0031746 955.61 1066.6 2.9132 2.6815 3.3102 523.24 0.0031803 40.931 0.085808
294.38 5092.8 undefined 958.30 1069.8 2.9179 315.00 0.0031746 958.30 1069.8 2.9179 2.6849 3.3115 524.24 0.0031329 40.955 0.085967 315.00 0.0031746 958.30 1069.8 2.9179 2.6849 3.3115 524.24 0.0031329 40.955 0.085967
295.38 5115.5 undefined 960.98 1073.0 2.9226 315.00 0.0031746 960.98 1073.0 2.9226 2.6882 3.3128 525.24 0.0030859 40.979 0.086127 315.00 0.0031746 960.98 1073.0 2.9226 2.6882 3.3128 525.24 0.0030859 40.979 0.086127
296.38 5138.1 undefined 963.67 1076.1 2.9274 315.00 0.0031746 963.67 1076.1 2.9274 2.6915 3.3142 526.23 0.0030393 41.003 0.086287 315.00 0.0031746 963.67 1076.1 2.9274 2.6915 3.3142 526.23 0.0030393 41.003 0.086287
297.38 5160.8 undefined 966.37 1079.3 2.9321 315.00 0.0031746 966.37 1079.3 2.9321 2.6949 3.3155 527.22 0.0029932 41.027 0.086448 315.00 0.0031746 966.37 1079.3 2.9321 2.6949 3.3155 527.22 0.0029932 41.027 0.086448
298.38 5183.4 undefined 969.06 1082.5 2.9368 315.00 0.0031746 969.06 1082.5 2.9368 2.6982 3.3169 528.21 0.0029476 41.051 0.086608 315.00 0.0031746 969.06 1082.5 2.9368 2.6982 3.3169 528.21 0.0029476 41.051 0.086608
299.38 5206.1 undefined 971.76 1085.7 2.9415 315.00 0.0031746 971.76 1085.7 2.9415 2.7015 3.3183 529.20 0.0029023 41.075 0.086769 315.00 0.0031746 971.76 1085.7 2.9415 2.7015 3.3183 529.20 0.0029023 41.075 0.086769
300.38 5228.7 undefined 974.47 1088.9 2.9462 315.00 0.0031746 974.47 1088.9 2.9462 2.7049 3.3197 530.18 0.0028575 41.100 0.086930 315.00 0.0031746 974.47 1088.9 2.9462 2.7049 3.3197 530.18 0.0028575 41.100 0.086930