Temperature (C) Pressure (psia) Quality (l+v) Internal Energy (l+v, kJ/kg) Enthalpy (l+v, kJ/kg) Entropy (l+v, J/g*K) Density (l, kg/m3) Volume (l, m3/kg) Internal Energy (l, kJ/kg) Enthalpy (l, kJ/kg) Entropy (l, J/g*K) Cv (l, J/g*K) Cp (l, J/g*K) Sound Spd. (l, m/s) Joule-Thomson (l, F/psia) Viscosity (l, uPa*s) Therm. Cond. (l, W/m*K) Density (v, kg/m3) Volume (v, m3/kg) Internal Energy (v, kJ/kg) Enthalpy (v, kJ/kg) Entropy (v, J/g*K) Cv (v, J/g*K) Cp (v, J/g*K) Sound Spd. (v, m/s) Joule-Thomson (v, F/psia) Viscosity (v, uPa*s) Therm. Cond. (v, W/m*K)
-187.62 2.4953e-08 1.7295e-11 -196.64 -196.64 -1.3959 733.13 0.0013640 -196.64 -196.64 -1.3959 1.3553 1.9158 2136.4 -0.0077592 10960. 0.20792 1.0669e-08 9.3732e+07 350.13 366.26 5.1858 0.69067 0.87923 143.28 6.1051 2.3259 0.0017061
-186.62 3.7339e-08 2.5549e-11 -194.73 -194.73 -1.3736 732.08 0.0013660 -194.73 -194.73 -1.3736 1.3539 1.9166 2129.6 -0.0077546 10073. 0.20765 1.5780e-08 6.3371e+07 350.82 367.14 5.1200 0.69462 0.88317 144.03 5.9178 2.3534 0.0017533
-185.62 5.5322e-08 3.7376e-11 -192.81 -192.81 -1.3516 731.04 0.0013679 -192.81 -192.81 -1.3516 1.3525 1.9174 2122.9 -0.0077498 9276.1 0.20737 2.3112e-08 4.3267e+07 351.52 368.02 5.0561 0.69857 0.88713 144.77 5.7383 2.3808 0.0018007
-184.62 8.1182e-08 5.4163e-11 -190.89 -190.89 -1.3298 730.00 0.0013699 -190.89 -190.89 -1.3298 1.3513 1.9182 2116.1 -0.0077448 8557.8 0.20708 3.3533e-08 2.9821e+07 352.22 368.91 4.9939 0.70253 0.89108 145.51 5.5662 2.4083 0.0018485
-183.62 1.1803e-07 7.7776e-11 -188.97 -188.97 -1.3083 728.96 0.0013718 -188.97 -188.97 -1.3083 1.3501 1.9191 2109.3 -0.0077395 7909.8 0.20678 4.8211e-08 2.0742e+07 352.92 369.81 4.9333 0.70648 0.89504 146.24 5.4011 2.4357 0.0018965
-182.62 1.7009e-07 1.1070e-10 -187.05 -187.05 -1.2869 727.92 0.0013738 -187.05 -187.05 -1.2869 1.3490 1.9201 2102.5 -0.0077340 7324.3 0.20647 6.8704e-08 1.4555e+07 353.63 370.70 4.8744 0.71043 0.89899 146.97 5.2426 2.4632 0.0019448
-181.62 2.4299e-07 1.5623e-10 -185.13 -185.13 -1.2658 726.88 0.0013757 -185.13 -185.13 -1.2658 1.3480 1.9210 2095.7 -0.0077283 6794.5 0.20616 9.7079e-08 1.0301e+07 354.35 371.60 4.8170 0.71438 0.90294 147.69 5.0904 2.4906 0.0019934
-180.62 3.4425e-07 2.1868e-10 -183.21 -183.21 -1.2450 725.85 0.0013777 -183.21 -183.21 -1.2450 1.3470 1.9220 2088.9 -0.0077225 6314.4 0.20584 1.3605e-07 7.3504e+06 355.06 372.51 4.7612 0.71833 0.90688 148.41 4.9442 2.5181 0.0020423
-179.62 4.8378e-07 3.0366e-10 -181.29 -181.29 -1.2243 724.81 0.0013797 -181.29 -181.29 -1.2243 1.3461 1.9231 2082.0 -0.0077164 5878.8 0.20551 1.8915e-07 5.2868e+06 355.78 373.42 4.7068 0.72227 0.91082 149.13 4.8038 2.5456 0.0020915
-178.62 6.7459e-07 4.1844e-10 -179.37 -179.37 -1.2038 723.78 0.0013816 -179.37 -179.37 -1.2038 1.3453 1.9241 2075.2 -0.0077102 5482.9 0.20517 2.6096e-07 3.8320e+06 356.51 374.33 4.6538 0.72620 0.91475 149.84 4.6688 2.5731 0.0021410
-177.62 9.3358e-07 5.7231e-10 -177.44 -177.44 -1.1836 722.75 0.0013836 -177.44 -177.44 -1.1836 1.3445 1.9252 2068.4 -0.0077039 5122.6 0.20483 3.5737e-07 2.7982e+06 357.23 375.25 4.6022 0.73012 0.91867 150.54 4.5390 2.6005 0.0021907
-176.62 1.2826e-06 7.7716e-10 -175.52 -175.52 -1.1635 721.72 0.0013856 -175.52 -175.52 -1.1635 1.3437 1.9263 2061.5 -0.0076973 4794.1 0.20447 4.8588e-07 2.0581e+06 357.97 376.17 4.5519 0.73403 0.92258 151.25 4.4142 2.6280 0.0022408
-175.62 1.7496e-06 1.0480e-09 -173.59 -173.59 -1.1437 720.69 0.0013876 -173.59 -173.59 -1.1437 1.3430 1.9274 2054.7 -0.0076907 4494.3 0.20411 6.5601e-07 1.5244e+06 358.70 377.09 4.5029 0.73792 0.92648 151.95 4.2941 2.6555 0.0022912
-174.62 2.3705e-06 1.4037e-09 -171.66 -171.66 -1.1240 719.66 0.0013895 -171.66 -171.66 -1.1240 1.3423 1.9286 2047.9 -0.0076838 4220.2 0.20375 8.7976e-07 1.1367e+06 359.44 378.02 4.4551 0.74181 0.93036 152.64 4.1784 2.6830 0.0023418
-173.62 3.1903e-06 1.8679e-09 -169.73 -169.73 -1.1045 718.64 0.0013915 -169.73 -169.73 -1.1045 1.3417 1.9298 2041.0 -0.0076769 3969.3 0.20338 1.1721e-06 8.5314e+05 360.19 378.95 4.4085 0.74568 0.93423 153.33 4.0671 2.7105 0.0023928
-172.62 4.2661e-06 2.4698e-09 -167.80 -167.80 -1.0852 717.61 0.0013935 -167.80 -167.80 -1.0852 1.3411 1.9310 2034.2 -0.0076698 3739.3 0.20300 1.5518e-06 6.4441e+05 360.93 379.89 4.3631 0.74953 0.93809 154.02 3.9599 2.7379 0.0024440
-171.62 5.6692e-06 3.2457e-09 -165.87 -165.87 -1.0661 716.58 0.0013955 -165.87 -165.87 -1.0661 1.3405 1.9322 2027.3 -0.0076625 3528.0 0.20261 2.0419e-06 4.8974e+05 361.69 380.83 4.3188 0.75337 0.94193 154.71 3.8566 2.7654 0.0024955
-170.62 7.4884e-06 4.2401e-09 -163.94 -163.94 -1.0472 715.56 0.0013975 -163.94 -163.94 -1.0472 1.3400 1.9334 2020.5 -0.0076552 3333.8 0.20222 2.6708e-06 3.7442e+05 362.44 381.77 4.2755 0.75720 0.94575 155.39 3.7570 2.7929 0.0025473
-169.62 9.8334e-06 5.5071e-09 -162.00 -162.00 -1.0284 714.54 0.0013995 -162.00 -162.00 -1.0284 1.3395 1.9347 2013.6 -0.0076477 3154.9 0.20182 3.4733e-06 2.8791e+05 363.20 382.72 4.2334 0.76100 0.94956 156.07 3.6609 2.8204 0.0025994
-168.62 1.2839e-05 7.1128e-09 -160.07 -160.07 -1.0098 713.52 0.0014015 -160.07 -160.07 -1.0098 1.3390 1.9359 2006.8 -0.0076401 2989.9 0.20141 4.4917e-06 2.2263e+05 363.96 383.67 4.1922 0.76479 0.95335 156.74 3.5683 2.8479 0.0026518
-167.62 1.6672e-05 9.1369e-09 -158.13 -158.13 -0.99134 712.49 0.0014035 -158.13 -158.13 -0.99134 1.3386 1.9372 2000.0 -0.0076323 2837.5 0.20100 5.7771e-06 1.7310e+05 364.73 384.63 4.1521 0.76856 0.95712 157.41 3.4790 2.8754 0.0027045
-166.62 2.1533e-05 1.1675e-08 -156.19 -156.19 -0.97306 711.47 0.0014055 -156.19 -156.19 -0.97306 1.3382 1.9385 1993.1 -0.0076245 2696.5 0.20058 7.3914e-06 1.3529e+05 365.50 385.59 4.1129 0.77232 0.96087 158.08 3.3927 2.9029 0.0027575
-165.62 2.7666e-05 1.4842e-08 -154.25 -154.25 -0.95494 710.45 0.0014075 -154.25 -154.25 -0.95494 1.3378 1.9398 1986.3 -0.0076165 2566.0 0.20016 9.4084e-06 1.0629e+05 366.27 386.55 4.0746 0.77605 0.96460 158.75 3.3095 2.9304 0.0028108
-164.62 3.5367e-05 1.8774e-08 -152.31 -152.31 -0.93698 709.44 0.0014096 -152.31 -152.31 -0.93698 1.3375 1.9411 1979.4 -0.0076084 2444.9 0.19973 1.1916e-05 83918. 367.05 387.52 4.0372 0.77976 0.96832 159.41 3.2291 2.9579 0.0028643
-163.62 4.4989e-05 2.3634e-08 -150.37 -150.37 -0.91917 708.42 0.0014116 -150.37 -150.37 -0.91917 1.3371 1.9424 1972.6 -0.0076002 2332.3 0.19930 1.5020e-05 66577. 367.83 388.49 4.0008 0.78346 0.97201 160.07 3.1514 2.9854 0.0029182
-162.62 5.6956e-05 2.9612e-08 -148.43 -148.43 -0.90151 707.40 0.0014136 -148.43 -148.43 -0.90151 1.3368 1.9437 1965.8 -0.0075919 2227.7 0.19886 1.8844e-05 53068. 368.62 389.46 3.9651 0.78713 0.97569 160.72 3.0764 3.0129 0.0029723
-161.62 7.1773e-05 3.6932e-08 -146.48 -146.48 -0.88400 706.38 0.0014157 -146.48 -146.48 -0.88400 1.3365 1.9451 1959.0 -0.0075834 2130.2 0.19841 2.3533e-05 42494. 369.41 390.44 3.9304 0.79079 0.97935 161.38 3.0038 3.0404 0.0030268
-160.62 9.0036e-05 4.5859e-08 -144.54 -144.54 -0.86663 705.37 0.0014177 -144.54 -144.54 -0.86663 1.3363 1.9465 1952.1 -0.0075748 2039.2 0.19796 2.9258e-05 34178. 370.20 391.42 3.8964 0.79443 0.98298 162.03 2.9337 3.0679 0.0030815
-159.62 0.00011245 5.6697e-08 -142.59 -142.59 -0.84940 704.35 0.0014197 -142.59 -142.59 -0.84940 1.3360 1.9478 1945.3 -0.0075661 1954.2 0.19751 3.6221e-05 27609. 371.00 392.40 3.8632 0.79805 0.98660 162.68 2.8658 3.0955 0.0031365
-158.62 0.00013985 6.9804e-08 -140.64 -140.64 -0.83231 703.34 0.0014218 -140.64 -140.64 -0.83231 1.3358 1.9492 1938.5 -0.0075573 1874.8 0.19705 4.4652e-05 22395. 371.80 393.39 3.8307 0.80164 0.99020 163.32 2.8002 3.1230 0.0031918
-157.62 0.00017320 8.5589e-08 -138.69 -138.69 -0.81536 702.32 0.0014238 -138.69 -138.69 -0.81536 1.3356 1.9506 1931.7 -0.0075484 1800.3 0.19658 5.4822e-05 18241. 372.60 394.38 3.7990 0.80522 0.99378 163.96 2.7367 3.1505 0.0032474
-156.62 0.00021364 1.0453e-07 -136.74 -136.74 -0.79854 701.31 0.0014259 -136.74 -136.74 -0.79854 1.3354 1.9520 1924.9 -0.0075393 1730.5 0.19611 6.7040e-05 14916. 373.41 395.38 3.7680 0.80878 0.99734 164.60 2.6752 3.1780 0.0033033
-155.62 0.00026248 1.2716e-07 -134.79 -134.79 -0.78185 700.30 0.0014280 -134.79 -134.79 -0.78185 1.3352 1.9534 1918.1 -0.0075302 1664.9 0.19564 8.1666e-05 12245. 374.22 396.38 3.7377 0.81232 1.0009 165.24 2.6157 3.2055 0.0033595
-154.62 0.00032125 1.5412e-07 -132.83 -132.83 -0.76530 699.29 0.0014300 -132.83 -132.83 -0.76530 1.3350 1.9548 1911.3 -0.0075209 1603.3 0.19516 9.9109e-05 10090. 375.03 397.38 3.7081 0.81585 1.0044 165.87 2.5580 3.2330 0.0034160
-153.62 0.00039171 1.8610e-07 -130.88 -130.88 -0.74887 698.27 0.0014321 -130.88 -130.88 -0.74887 1.3349 1.9563 1904.5 -0.0075114 1545.3 0.19468 0.00011984 8344.6 375.85 398.39 3.6792 0.81935 1.0079 166.50 2.5022 3.2606 0.0034727
-152.62 0.00047590 2.2393e-07 -128.92 -128.92 -0.73256 697.26 0.0014342 -128.92 -128.92 -0.73256 1.3348 1.9577 1897.8 -0.0075019 1490.6 0.19419 0.00014439 6925.9 376.67 399.40 3.6509 0.82284 1.0114 167.13 2.4481 3.2881 0.0035298
-151.62 0.00057613 2.6850e-07 -126.96 -126.96 -0.71638 696.25 0.0014363 -126.96 -126.96 -0.71638 1.3346 1.9592 1891.0 -0.0074922 1438.9 0.19370 0.00017336 5768.4 377.49 400.41 3.6232 0.82631 1.0149 167.76 2.3957 3.3156 0.0035872
-150.62 0.00069507 3.2085e-07 -125.00 -125.00 -0.70032 695.24 0.0014384 -125.00 -125.00 -0.70032 1.3345 1.9606 1884.2 -0.0074824 1390.2 0.19320 0.00020744 4820.7 378.32 401.42 3.5962 0.82976 1.0183 168.38 2.3448 3.3431 0.0036448
-149.62 0.00083574 3.8214e-07 -123.04 -123.04 -0.68437 694.23 0.0014404 -123.04 -123.04 -0.68438 1.3345 1.9621 1877.4 -0.0074724 1344.0 0.19270 0.00024740 4042.0 379.15 402.44 3.5697 0.83319 1.0218 169.00 2.2956 3.3706 0.0037027
-148.62 0.0010016 4.5368e-07 -121.08 -121.08 -0.66855 693.22 0.0014425 -121.08 -121.08 -0.66855 1.3344 1.9636 1870.7 -0.0074623 1300.3 0.19220 0.00029412 3400.0 379.99 403.47 3.5438 0.83661 1.0252 169.62 2.2478 3.3982 0.0037610
-147.62 0.0011965 5.3692e-07 -119.11 -119.11 -0.65284 692.21 0.0014447 -119.11 -119.11 -0.65284 1.3343 1.9651 1863.9 -0.0074521 1258.9 0.19169 0.00034856 2869.0 380.83 404.49 3.5185 0.84001 1.0286 170.24 2.2014 3.4257 0.0038195
-146.62 0.0014249 6.3349e-07 -117.15 -117.15 -0.63724 691.20 0.0014468 -117.15 -117.15 -0.63724 1.3343 1.9666 1857.2 -0.0074417 1219.6 0.19117 0.00041181 2428.3 381.67 405.52 3.4938 0.84340 1.0320 170.85 2.1565 3.4532 0.0038783
-145.62 0.0016917 7.4520e-07 -115.18 -115.18 -0.62175 690.19 0.0014489 -115.18 -115.18 -0.62175 1.3343 1.9682 1850.4 -0.0074312 1182.3 0.19066 0.00048510 2061.4 382.51 406.56 3.4695 0.84677 1.0353 171.46 2.1128 3.4807 0.0039374
-144.62 0.0020026 8.7406e-07 -113.21 -113.21 -0.60637 689.18 0.0014510 -113.21 -113.21 -0.60637 1.3343 1.9697 1843.7 -0.0074206 1146.8 0.19014 0.00056976 1755.1 383.36 407.59 3.4458 0.85012 1.0387 172.07 2.0705 3.5082 0.0039967
-143.62 0.0023637 1.0223e-06 -111.24 -111.24 -0.59109 688.17 0.0014531 -111.24 -111.24 -0.59110 1.3343 1.9713 1836.9 -0.0074098 1113.0 0.18962 0.00066731 1498.6 384.21 408.63 3.4226 0.85346 1.0420 172.68 2.0294 3.5358 0.0040564
-142.62 0.0027820 1.1923e-06 -109.27 -109.27 -0.57593 687.16 0.0014553 -109.27 -109.27 -0.57593 1.3343 1.9728 1830.2 -0.0073988 1080.8 0.18909 0.00077939 1283.1 385.07 409.68 3.3999 0.85679 1.0454 173.28 1.9896 3.5633 0.0041164
-141.62 0.0032653 1.3869e-06 -107.30 -107.30 -0.56086 686.15 0.0014574 -107.30 -107.30 -0.56087 1.3343 1.9744 1823.5 -0.0073878 1050.1 0.18856 0.00090784 1101.5 385.93 410.72 3.3777 0.86011 1.0487 173.88 1.9508 3.5908 0.0041766
-140.62 0.0038222 1.6089e-06 -105.32 -105.32 -0.54590 685.14 0.0014596 -105.32 -105.32 -0.54591 1.3344 1.9760 1816.7 -0.0073765 1020.7 0.18803 0.0010547 948.16 386.79 411.77 3.3560 0.86341 1.0520 174.48 1.9133 3.6183 0.0042372
-139.62 0.0044623 1.8617e-06 -103.34 -103.34 -0.53104 684.13 0.0014617 -103.34 -103.34 -0.53105 1.3344 1.9776 1810.0 -0.0073651 992.74 0.18749 0.0012221 818.26 387.65 412.83 3.3347 0.86670 1.0553 175.08 1.8768 3.6459 0.0042980
-138.62 0.0051963 2.1488e-06 -101.37 -101.36 -0.51628 683.12 0.0014639 -101.37 -101.37 -0.51629 1.3345 1.9792 1803.3 -0.0073536 965.97 0.18695 0.0014125 707.94 388.52 413.88 3.3139 0.86998 1.0586 175.67 1.8413 3.6734 0.0043592
-137.62 0.0060358 2.4740e-06 -99.385 -99.385 -0.50161 682.11 0.0014660 -99.386 -99.386 -0.50162 1.3346 1.9808 1796.6 -0.0073419 940.35 0.18641 0.0016287 614.00 389.39 414.94 3.2935 0.87325 1.0619 176.26 1.8069 3.7009 0.0044206
-136.62 0.0069938 2.8416e-06 -97.403 -97.403 -0.48704 681.10 0.0014682 -97.404 -97.404 -0.48705 1.3347 1.9825 1789.9 -0.0073301 915.81 0.18586 0.0018733 533.80 390.26 416.00 3.2735 0.87650 1.0651 176.85 1.7734 3.7284 0.0044823
-135.62 0.0080843 3.2562e-06 -95.420 -95.419 -0.47257 680.09 0.0014704 -95.421 -95.421 -0.47258 1.3348 1.9841 1783.2 -0.0073180 892.30 0.18531 0.0021497 465.17 391.14 417.07 3.2540 0.87975 1.0684 177.44 1.7409 3.7559 0.0045443
-134.62 0.0093230 3.7226e-06 -93.434 -93.434 -0.45818 679.08 0.0014726 -93.436 -93.436 -0.45820 1.3350 1.9858 1776.5 -0.0073059 869.75 0.18476 0.0024613 406.30 392.02 418.14 3.2348 0.88299 1.0716 178.02 1.7093 3.7834 0.0046066
-133.62 0.010727 4.2464e-06 -91.447 -91.447 -0.44389 678.07 0.0014748 -91.450 -91.449 -0.44391 1.3351 1.9875 1769.8 -0.0072935 848.11 0.18421 0.0028116 355.67 392.91 419.21 3.2161 0.88622 1.0749 178.61 1.6786 3.8109 0.0046691
-132.62 0.012315 4.8332e-06 -89.459 -89.459 -0.42969 677.06 0.0014770 -89.461 -89.461 -0.42971 1.3353 1.9892 1763.1 -0.0072810 827.32 0.18365 0.0032049 312.03 393.79 420.29 3.1977 0.88944 1.0781 179.19 1.6488 3.8385 0.0047320
-131.62 0.014106 5.4894e-06 -87.469 -87.468 -0.41558 676.04 0.0014792 -87.471 -87.471 -0.41560 1.3354 1.9909 1756.4 -0.0072684 807.34 0.18309 0.0036453 274.33 394.68 421.36 3.1798 0.89266 1.0813 179.76 1.6197 3.8660 0.0047951
-130.62 0.016124 6.2215e-06 -85.476 -85.476 -0.40155 675.03 0.0014814 -85.479 -85.479 -0.40157 1.3356 1.9926 1749.7 -0.0072555 788.12 0.18253 0.0041375 241.69 395.58 422.44 3.1622 0.89586 1.0846 180.34 1.5915 3.8935 0.0048586
-129.62 0.018392 7.0368e-06 -83.483 -83.482 -0.38761 674.02 0.0014836 -83.486 -83.486 -0.38763 1.3358 1.9944 1743.0 -0.0072425 769.63 0.18196 0.0046867 213.37 396.47 423.53 3.1450 0.89906 1.0878 180.91 1.5641 3.9210 0.0049223
-128.62 0.020935 7.9430e-06 -81.487 -81.486 -0.37375 673.01 0.0014859 -81.491 -81.490 -0.37378 1.3360 1.9961 1736.3 -0.0072294 751.83 0.18140 0.0052981 188.75 397.37 424.62 3.1281 0.90226 1.0910 181.48 1.5374 3.9485 0.0049863
-127.62 0.023783 8.9484e-06 -79.489 -79.489 -0.35998 672.00 0.0014881 -79.494 -79.493 -0.36001 1.3363 1.9979 1729.6 -0.0072160 734.67 0.18083 0.0059776 167.29 398.27 425.71 3.1116 0.90545 1.0942 182.05 1.5114 3.9760 0.0050506
-126.62 0.026966 1.0062e-05 -77.490 -77.489 -0.34629 670.98 0.0014904 -77.495 -77.495 -0.34632 1.3365 1.9997 1722.9 -0.0072025 718.14 0.18025 0.0067313 148.56 399.18 426.80 3.0954 0.90863 1.0974 182.62 1.4861 4.0035 0.0051152
-125.62 0.030515 1.1292e-05 -75.489 -75.488 -0.33268 669.97 0.0014926 -75.494 -75.494 -0.33272 1.3368 2.0015 1716.2 -0.0071888 702.18 0.17968 0.0075660 132.17 400.09 427.89 3.0795 0.91181 1.1006 183.18 1.4615 4.0310 0.0051800
-124.62 0.034467 1.2650e-05 -73.486 -73.485 -0.31915 668.95 0.0014949 -73.492 -73.492 -0.31919 1.3371 2.0033 1709.5 -0.0071749 686.79 0.17910 0.0084885 117.81 401.00 428.99 3.0640 0.91499 1.1038 183.74 1.4375 4.0584 0.0052452
-123.62 0.038859 1.4145e-05 -71.481 -71.480 -0.30569 667.94 0.0014971 -71.488 -71.487 -0.30574 1.3374 2.0051 1702.8 -0.0071609 671.93 0.17852 0.0095065 105.19 401.91 430.10 3.0488 0.91816 1.1070 184.30 1.4141 4.0859 0.0053106
-122.62 0.043731 1.5790e-05 -69.474 -69.473 -0.29232 666.92 0.0014994 -69.482 -69.481 -0.29237 1.3377 2.0070 1696.2 -0.0071466 657.57 0.17794 0.010628 94.092 402.83 431.20 3.0339 0.92134 1.1102 184.86 1.3913 4.1134 0.0053764
-121.62 0.049128 1.7595e-05 -67.465 -67.464 -0.27901 665.91 0.0015017 -67.474 -67.473 -0.27907 1.3380 2.0089 1689.5 -0.0071322 643.70 0.17736 0.011861 84.309 403.75 432.31 3.0193 0.92451 1.1134 185.41 1.3691 4.1409 0.0054424
-120.62 0.055096 1.9573e-05 -65.455 -65.454 -0.26579 664.89 0.0015040 -65.464 -65.463 -0.26585 1.3384 2.0107 1682.8 -0.0071176 630.28 0.17678 0.013215 75.669 404.67 433.42 3.0050 0.92767 1.1166 185.96 1.3475 4.1683 0.0055087
-119.62 0.061684 2.1738e-05 -63.442 -63.441 -0.25264 663.87 0.0015063 -63.452 -63.452 -0.25271 1.3387 2.0126 1676.1 -0.0071028 617.30 0.17619 0.014700 68.027 405.60 434.53 2.9909 0.93084 1.1198 186.51 1.3264 4.1958 0.0055752
-118.62 0.068946 2.4104e-05 -61.427 -61.426 -0.23956 662.86 0.0015086 -61.439 -61.438 -0.23963 1.3391 2.0146 1669.4 -0.0070878 604.74 0.17560 0.016325 61.255 406.53 435.64 2.9772 0.93401 1.1231 187.06 1.3058 4.2233 0.0056421
-117.62 0.076937 2.6684e-05 -59.411 -59.409 -0.22655 661.84 0.0015109 -59.423 -59.422 -0.22663 1.3395 2.0165 1662.8 -0.0070726 592.58 0.17501 0.018101 55.245 407.46 436.76 2.9638 0.93718 1.1263 187.60 1.2857 4.2507 0.0057092
-116.62 0.085718 2.9495e-05 -57.392 -57.390 -0.21361 660.82 0.0015133 -57.406 -57.405 -0.21370 1.3400 2.0184 1656.1 -0.0070573 580.80 0.17442 0.020040 49.901 408.39 437.88 2.9506 0.94035 1.1295 188.14 1.2660 4.2782 0.0057767
-115.62 0.095353 3.2553e-05 -55.371 -55.369 -0.20074 659.80 0.0015156 -55.386 -55.385 -0.20084 1.3404 2.0204 1649.4 -0.0070417 569.38 0.17383 0.022152 45.142 409.33 439.01 2.9377 0.94352 1.1327 188.68 1.2468 4.3056 0.0058444
-114.62 0.10591 3.5874e-05 -53.348 -53.346 -0.18794 658.78 0.0015180 -53.365 -53.364 -0.18805 1.3409 2.0224 1642.7 -0.0070260 558.32 0.17323 0.024451 40.898 410.27 440.13 2.9250 0.94669 1.1360 189.22 1.2281 4.3330 0.0059123
-113.62 0.11746 3.9476e-05 -51.323 -51.321 -0.17520 657.76 0.0015203 -51.342 -51.340 -0.17533 1.3413 2.0244 1636.0 -0.0070100 547.59 0.17264 0.026949 37.107 411.21 441.26 2.9126 0.94987 1.1392 189.75 1.2097 4.3604 0.0059806
-112.62 0.13008 4.3378e-05 -49.296 -49.293 -0.16254 656.73 0.0015227 -49.316 -49.315 -0.16267 1.3418 2.0264 1629.3 -0.0069938 537.18 0.17204 0.029661 33.715 412.16 442.39 2.9005 0.95305 1.1424 190.28 1.1918 4.3879 0.0060491
-111.62 0.14384 4.7598e-05 -47.267 -47.264 -0.14993 655.71 0.0015251 -47.289 -47.287 -0.15008 1.3424 2.0285 1622.7 -0.0069774 527.08 0.17144 0.032600 30.675 413.10 443.53 2.8885 0.95623 1.1457 190.81 1.1742 4.4153 0.0061180
-110.62 0.15884 5.2158e-05 -45.235 -45.232 -0.13740 654.69 0.0015274 -45.259 -45.258 -0.13755 1.3429 2.0305 1616.0 -0.0069609 517.28 0.17084 0.035781 27.948 414.06 444.66 2.8769 0.95942 1.1490 191.34 1.1570 4.4427 0.0061871
-109.62 0.17516 5.7077e-05 -43.202 -43.198 -0.12492 653.66 0.0015298 -43.228 -43.226 -0.12509 1.3435 2.0326 1609.3 -0.0069441 507.76 0.17024 0.039220 25.497 415.01 445.80 2.8654 0.96261 1.1522 191.86 1.1402 4.4701 0.0062564
-108.62 0.19290 6.2378e-05 -41.166 -41.162 -0.11251 652.64 0.0015322 -41.194 -41.192 -0.11269 1.3441 2.0347 1602.6 -0.0069271 498.51 0.16964 0.042933 23.292 415.96 446.94 2.8542 0.96581 1.1555 192.38 1.1236 4.4974 0.0063261
-107.62 0.21215 6.8083e-05 -39.127 -39.123 -0.10016 651.61 0.0015347 -39.158 -39.156 -0.10036 1.3447 2.0369 1595.9 -0.0069098 489.52 0.16903 0.046937 21.305 416.92 448.09 2.8433 0.96901 1.1588 192.90 1.1075 4.5248 0.0063960
-106.62 0.23301 7.4216e-05 -37.087 -37.082 -0.087866 650.58 0.0015371 -37.120 -37.118 -0.088082 1.3453 2.0390 1589.2 -0.0068924 480.79 0.16843 0.051250 19.512 417.88 449.23 2.8325 0.97222 1.1621 193.41 1.0916 4.5522 0.0064662
-105.62 0.25561 8.0800e-05 -35.044 -35.039 -0.075634 649.55 0.0015395 -35.080 -35.078 -0.075868 1.3460 2.0412 1582.6 -0.0068747 472.30 0.16782 0.055891 17.892 418.85 450.38 2.8220 0.97544 1.1655 193.93 1.0760 4.5795 0.0065367
-104.62 0.28004 8.7861e-05 -32.998 -32.993 -0.063462 648.52 0.0015420 -33.038 -33.035 -0.063714 1.3467 2.0434 1575.9 -0.0068569 464.04 0.16721 0.060878 16.426 419.81 451.53 2.8116 0.97867 1.1688 194.44 1.0608 4.6069 0.0066074
-103.62 0.30643 9.5426e-05 -30.951 -30.944 -0.051347 647.49 0.0015444 -30.994 -30.991 -0.051619 1.3474 2.0456 1569.2 -0.0068387 456.00 0.16660 0.066231 15.099 420.78 452.68 2.8015 0.98191 1.1722 194.94 1.0458 4.6342 0.0066785
-102.62 0.33490 0.00010352 -28.901 -28.894 -0.039289 646.46 0.0015469 -28.947 -28.944 -0.039582 1.3481 2.0478 1562.5 -0.0068204 448.18 0.16600 0.071971 13.894 421.75 453.84 2.7916 0.98516 1.1755 195.44 1.0310 4.6615 0.0067498
-101.62 0.36558 0.00011217 -26.848 -26.840 -0.027287 645.43 0.0015494 -26.898 -26.894 -0.027602 1.3489 2.0501 1555.8 -0.0068018 440.57 0.16539 0.078120 12.801 422.73 454.99 2.7818 0.98841 1.1789 195.95 1.0166 4.6888 0.0068213
-100.62 0.39862 0.00012141 -24.793 -24.785 -0.015340 644.39 0.0015519 -24.847 -24.843 -0.015678 1.3497 2.0524 1549.1 -0.0067830 433.16 0.16478 0.084699 11.807 423.70 456.15 2.7723 0.99168 1.1823 196.44 1.0024 4.7161 0.0068932
-99.625 0.43414 0.00013126 -22.735 -22.726 -0.0034471 643.36 0.0015544 -22.794 -22.789 -0.0038103 1.3505 2.0547 1542.4 -0.0067639 425.95 0.16416 0.091731 10.901 424.68 457.31 2.7630 0.99496 1.1858 196.94 0.98838 4.7434 0.0069653
-98.625 0.47230 0.00014176 -20.675 -20.665 0.0083920 642.32 0.0015569 -20.738 -20.733 0.0080027 1.3514 2.0570 1535.7 -0.0067447 418.92 0.16355 0.099240 10.077 425.66 458.48 2.7538 0.99825 1.1892 197.43 0.97464 4.7707 0.0070377
-97.625 0.51325 0.00015293 -18.612 -18.601 0.020178 641.28 0.0015594 -18.680 -18.674 0.019762 1.3522 2.0594 1529.0 -0.0067251 412.07 0.16294 0.10725 9.3239 426.65 459.64 2.7448 1.0016 1.1927 197.92 0.96112 4.7979 0.0071103
-96.625 0.55714 0.00016482 -16.546 -16.535 0.031913 640.24 0.0015619 -16.620 -16.614 0.031467 1.3531 2.0618 1522.3 -0.0067053 405.39 0.16233 0.11579 8.6365 427.63 460.81 2.7360 1.0049 1.1962 198.40 0.94783 4.8251 0.0071832
-95.625 0.60416 0.00017744 -14.478 -14.466 0.043596 639.20 0.0015645 -14.557 -14.550 0.043120 1.3540 2.0642 1515.7 -0.0066853 398.88 0.16171 0.12488 8.0078 428.62 461.98 2.7274 1.0082 1.1997 198.88 0.93475 4.8524 0.0072564
-94.625 0.65446 0.00019084 -12.407 -12.394 0.055230 638.16 0.0015670 -12.491 -12.484 0.054721 1.3550 2.0667 1509.0 -0.0066650 392.53 0.16110 0.13455 7.4323 429.61 463.15 2.7189 1.0116 1.2032 199.36 0.92188 4.8796 0.0073299
-93.625 0.70822 0.00020504 -10.333 -10.319 0.066813 637.12 0.0015696 -10.424 -10.416 0.066271 1.3560 2.0691 1502.3 -0.0066444 386.34 0.16048 0.14482 6.9050 430.60 464.32 2.7107 1.0149 1.2068 199.83 0.90921 4.9068 0.0074036
-92.625 0.76564 0.00022009 -8.2567 -8.2409 0.078348 636.07 0.0015722 -8.3535 -8.3452 0.077771 1.3570 2.0716 1495.6 -0.0066236 380.31 0.15987 0.15573 6.4212 431.60 465.49 2.7025 1.0183 1.2104 200.30 0.89673 4.9340 0.0074776
-91.625 0.82689 0.00023603 -6.1773 -6.1602 0.089835 635.02 0.0015747 -6.2808 -6.2719 0.089220 1.3580 2.0742 1488.9 -0.0066025 374.41 0.15925 0.16731 5.9769 432.59 466.67 2.6946 1.0217 1.2140 200.77 0.88445 4.9611 0.0075518
-90.625 0.89218 0.00025287 -4.0949 -4.0766 0.10128 633.98 0.0015773 -4.2056 -4.1959 0.10062 1.3591 2.0767 1482.2 -0.0065811 368.66 0.15864 0.17958 5.5685 433.59 467.84 2.6868 1.0251 1.2177 201.24 0.87236 4.9883 0.0076263
-89.625 0.96172 0.00027067 -2.0097 -1.9899 0.11267 632.93 0.0015800 -2.1279 -2.1174 0.11197 1.3602 2.0793 1475.5 -0.0065595 363.05 0.15802 0.19258 5.1928 434.59 469.02 2.6791 1.0285 1.2213 201.70 0.86045 5.0154 0.0077011
-88.625 1.0357 0.00028947 0.078588 0.099904 0.12402 631.88 0.0015826 -0.047516 -0.036215 0.12328 1.3613 2.0819 1468.8 -0.0065375 357.56 0.15740 0.20633 4.8466 435.59 470.20 2.6717 1.0320 1.2250 202.15 0.84873 5.0425 0.0077761
-87.625 1.1144 0.00030929 2.1699 2.1928 0.13532 630.83 0.0015852 2.0355 2.0476 0.13454 1.3625 2.0846 1462.1 -0.0065153 352.21 0.15679 0.22087 4.5276 436.60 471.39 2.6643 1.0354 1.2288 202.61 0.83718 5.0696 0.0078514
-86.625 1.1979 0.00033019 4.2642 4.2889 0.14658 629.77 0.0015879 4.1211 4.1342 0.14575 1.3637 2.0873 1455.4 -0.0064928 346.98 0.15617 0.23623 4.2331 437.61 472.57 2.6571 1.0389 1.2325 203.06 0.82580 5.0967 0.0079270
-85.625 1.2866 0.00035219 6.3616 6.3881 0.15779 628.72 0.0015905 6.2094 6.2235 0.15691 1.3649 2.0900 1448.8 -0.0064701 341.87 0.15555 0.25245 3.9612 438.61 473.75 2.6501 1.0424 1.2363 203.50 0.81460 5.1237 0.0080028
-84.625 1.3806 0.00037535 8.4623 8.4907 0.16896 627.66 0.0015932 8.3004 8.3155 0.16803 1.3661 2.0927 1442.1 -0.0064470 336.87 0.15494 0.26956 3.7097 439.63 474.94 2.6432 1.0460 1.2402 203.95 0.80356 5.1508 0.0080789
-83.625 1.4803 0.00039970 10.566 10.597 0.18009 626.60 0.0015959 10.394 10.410 0.17911 1.3674 2.0955 1435.4 -0.0064236 331.99 0.15432 0.28760 3.4771 440.64 476.13 2.6364 1.0495 1.2440 204.38 0.79269 5.1778 0.0081553
-82.625 1.5858 0.00042529 12.673 12.706 0.19118 625.54 0.0015986 12.491 12.508 0.19014 1.3687 2.0983 1428.7 -0.0063999 327.22 0.15370 0.30659 3.2616 441.65 477.31 2.6298 1.0531 1.2479 204.82 0.78199 5.2048 0.0082319
-81.625 1.6975 0.00045216 14.783 14.818 0.20223 624.48 0.0016013 14.590 14.609 0.20113 1.3700 2.1012 1422.0 -0.0063759 322.55 0.15309 0.32659 3.0619 442.67 478.50 2.6233 1.0567 1.2519 205.25 0.77144 5.2318 0.0083088
-80.625 1.8155 0.00048035 16.897 16.935 0.21324 623.42 0.0016041 16.692 16.712 0.21208 1.3714 2.1041 1415.4 -0.0063516 317.99 0.15247 0.34763 2.8766 443.69 479.70 2.6169 1.0603 1.2558 205.67 0.76106 5.2587 0.0083860
-79.625 1.9402 0.00050990 19.014 19.054 0.22420 622.36 0.0016068 18.797 18.819 0.22299 1.3728 2.1070 1408.7 -0.0063270 313.52 0.15186 0.36974 2.7046 444.71 480.89 2.6106 1.0639 1.2598 206.10 0.75083 5.2857 0.0084634
-78.625 2.0718 0.00054087 21.135 21.177 0.23513 621.29 0.0016096 20.905 20.928 0.23385 1.3742 2.1099 1402.0 -0.0063021 309.15 0.15124 0.39296 2.5448 445.73 482.08 2.6045 1.0676 1.2639 206.51 0.74076 5.3126 0.0085411
-77.625 2.2107 0.00057330 23.259 23.304 0.24603 620.22 0.0016123 23.016 23.040 0.24468 1.3757 2.1129 1395.3 -0.0062768 304.88 0.15062 0.41735 2.3961 446.75 483.27 2.5985 1.0712 1.2680 206.93 0.73084 5.3395 0.0086190
-76.625 2.3571 0.00060722 25.386 25.435 0.25688 619.15 0.0016151 25.130 25.156 0.25546 1.3772 2.1159 1388.7 -0.0062512 300.69 0.15001 0.44292 2.2577 447.78 484.47 2.5926 1.0749 1.2721 207.34 0.72107 5.3664 0.0086972
-75.625 2.5113 0.00064270 27.517 27.569 0.26770 618.08 0.0016179 27.247 27.275 0.26620 1.3787 2.1190 1382.0 -0.0062253 296.59 0.14939 0.46974 2.1288 448.81 485.67 2.5869 1.0787 1.2762 207.74 0.71146 5.3933 0.0087757
-74.625 2.6736 0.00067977 29.652 29.707 0.27848 617.01 0.0016207 29.366 29.396 0.27691 1.3802 2.1221 1375.4 -0.0061990 292.58 0.14878 0.49783 2.0087 449.83 486.86 2.5812 1.0824 1.2804 208.14 0.70200 5.4201 0.0088544
-73.625 2.8444 0.00071848 31.791 31.849 0.28922 615.93 0.0016236 31.489 31.521 0.28758 1.3818 2.1252 1368.7 -0.0061724 288.65 0.14816 0.52725 1.8966 450.86 488.06 2.5757 1.0862 1.2847 208.54 0.69268 5.4469 0.0089334
-72.625 3.0240 0.00075889 33.933 33.995 0.29993 614.85 0.0016264 33.615 33.649 0.29821 1.3834 2.1284 1362.0 -0.0061454 284.81 0.14755 0.55804 1.7920 451.90 489.26 2.5703 1.0900 1.2889 208.93 0.68351 5.4737 0.0090126
-71.625 3.2127 0.00080103 36.079 36.145 0.31060 613.78 0.0016293 35.745 35.781 0.30880 1.3851 2.1316 1355.4 -0.0061181 281.03 0.14694 0.59024 1.6942 452.93 490.46 2.5650 1.0938 1.2932 209.32 0.67448 5.5005 0.0090922
-70.625 3.4108 0.00084496 38.229 38.299 0.32125 612.69 0.0016321 37.877 37.915 0.31935 1.3867 2.1349 1348.7 -0.0060904 277.34 0.14632 0.62390 1.6028 453.96 491.66 2.5598 1.0976 1.2976 209.70 0.66560 5.5273 0.0091720
-69.625 3.6187 0.00089072 40.382 40.457 0.33185 611.61 0.0016350 40.013 40.053 0.32987 1.3884 2.1382 1342.1 -0.0060624 273.72 0.14571 0.65906 1.5173 455.00 492.86 2.5547 1.1015 1.3020 210.08 0.65687 5.5540 0.0092520
-68.625 3.8367 0.00093838 42.540 42.619 0.34243 610.53 0.0016379 42.152 42.195 0.34036 1.3902 2.1415 1335.5 -0.0060339 270.17 0.14510 0.69577 1.4372 456.04 494.06 2.5497 1.1054 1.3064 210.45 0.64827 5.5807 0.0093324
-67.625 4.0652 0.00098796 44.702 44.785 0.35297 609.44 0.0016409 44.294 44.340 0.35080 1.3919 2.1449 1328.8 -0.0060051 266.69 0.14449 0.73408 1.3622 457.08 495.26 2.5448 1.1093 1.3109 210.82 0.63981 5.6074 0.0094130
-66.625 4.3046 0.0010395 46.867 46.956 0.36348 608.35 0.0016438 46.439 46.488 0.36122 1.3937 2.1483 1322.2 -0.0059760 263.28 0.14388 0.77404 1.2919 458.12 496.46 2.5400 1.1133 1.3154 211.18 0.63150 5.6341 0.0094939
-65.625 4.5551 0.0010931 49.037 49.131 0.37396 607.26 0.0016467 48.588 48.640 0.37160 1.3955 2.1518 1315.6 -0.0059464 259.93 0.14327 0.81570 1.2259 459.16 497.67 2.5353 1.1172 1.3200 211.54 0.62332 5.6608 0.0095750
-64.625 4.8173 0.0011488 51.211 51.310 0.38441 606.16 0.0016497 50.740 50.795 0.38195 1.3974 2.1553 1308.9 -0.0059164 256.65 0.14266 0.85910 1.1640 460.21 498.87 2.5307 1.1212 1.3246 211.89 0.61527 5.6874 0.0096564
-63.625 5.0915 0.0012067 53.389 53.494 0.39484 605.07 0.0016527 52.896 52.954 0.39226 1.3993 2.1588 1302.3 -0.0058861 253.42 0.14205 0.90429 1.1058 461.25 500.07 2.5262 1.1252 1.3293 212.24 0.60736 5.7140 0.0097382
-62.625 5.3781 0.0012667 55.571 55.682 0.40523 603.97 0.0016557 55.055 55.117 0.40254 1.4012 2.1624 1295.7 -0.0058553 250.26 0.14144 0.95134 1.0511 462.30 501.28 2.5218 1.1293 1.3340 212.58 0.59958 5.7406 0.0098201
-61.625 5.6774 0.0013289 57.758 57.875 0.41559 602.87 0.0016587 57.218 57.283 0.41279 1.4031 2.1660 1289.1 -0.0058241 247.16 0.14084 1.0003 0.99972 463.35 502.48 2.5175 1.1333 1.3387 212.92 0.59194 5.7672 0.0099024
-60.625 5.9899 0.0013935 59.949 60.072 0.42592 601.77 0.0016618 59.385 59.453 0.42301 1.4051 2.1697 1282.5 -0.0057925 244.12 0.14023 1.0512 0.95131 464.40 503.68 2.5133 1.1374 1.3435 213.26 0.58442 5.7938 0.0099850
-59.625 6.3160 0.0014604 62.144 62.274 0.43623 600.66 0.0016648 61.554 61.627 0.43320 1.4071 2.1734 1275.9 -0.0057605 241.13 0.13962 1.1041 0.90573 465.45 504.89 2.5091 1.1415 1.3483 213.58 0.57704 5.8203 0.010068
-58.625 6.6561 0.0015296 64.344 64.481 0.44651 599.55 0.0016679 63.728 63.805 0.44335 1.4091 2.1772 1269.3 -0.0057280 238.19 0.13902 1.1591 0.86277 466.50 506.09 2.5051 1.1457 1.3532 213.90 0.56978 5.8468 0.010151
-57.625 7.0107 0.0016013 66.549 66.693 0.45676 598.44 0.0016710 65.905 65.986 0.45348 1.4111 2.1810 1262.7 -0.0056951 235.31 0.13842 1.2161 0.82228 467.55 507.30 2.5011 1.1498 1.3581 214.22 0.56265 5.8733 0.010234
-56.625 7.3801 0.0016756 68.758 68.909 0.46698 597.33 0.0016741 68.086 68.172 0.46358 1.4132 2.1848 1256.1 -0.0056617 232.48 0.13781 1.2754 0.78408 468.60 508.50 2.4972 1.1540 1.3631 214.53 0.55564 5.8998 0.010318
-55.625 7.7648 0.0017523 70.971 71.131 0.47718 596.22 0.0016772 70.271 70.361 0.47364 1.4153 2.1887 1249.5 -0.0056279 229.69 0.13721 1.3369 0.74802 469.66 509.71 2.4934 1.1582 1.3681 214.84 0.54875 5.9263 0.010402
-54.625 8.1652 0.0018317 73.189 73.357 0.48736 595.10 0.0016804 72.460 72.554 0.48368 1.4174 2.1927 1242.9 -0.0055937 226.96 0.13661 1.4006 0.71396 470.72 510.91 2.4897 1.1624 1.3731 215.14 0.54199 5.9527 0.010486
-53.625 8.5819 0.0019137 75.412 75.589 0.49751 593.98 0.0016836 74.652 74.752 0.49369 1.4196 2.1967 1236.3 -0.0055589 224.27 0.13601 1.4667 0.68178 471.77 512.11 2.4860 1.1667 1.3782 215.43 0.53535 5.9792 0.010571
-52.625 9.0151 0.0019984 77.640 77.826 0.50763 592.86 0.0016867 76.849 76.954 0.50368 1.4218 2.2007 1229.8 -0.0055237 221.63 0.13541 1.5353 0.65136 472.83 513.32 2.4824 1.1710 1.3834 215.72 0.52882 6.0056 0.010656
-51.625 9.4655 0.0020859 79.873 80.067 0.51773 591.73 0.0016900 79.049 79.159 0.51363 1.4240 2.2048 1223.2 -0.0054880 219.04 0.13482 1.6062 0.62258 473.89 514.52 2.4789 1.1752 1.3886 216.00 0.52241 6.0320 0.010741
-50.625 9.9335 0.0021762 82.110 82.315 0.52781 590.60 0.0016932 81.253 81.369 0.52356 1.4262 2.2089 1216.6 -0.0054519 216.48 0.13422 1.6797 0.59534 474.95 515.73 2.4755 1.1796 1.3938 216.28 0.51612 6.0584 0.010827
-49.625 10.419 0.0022693 84.353 84.567 0.53786 589.47 0.0016964 83.462 83.584 0.53347 1.4285 2.2131 1210.1 -0.0054152 213.98 0.13363 1.7558 0.56954 476.01 516.93 2.4722 1.1839 1.3991 216.55 0.50994 6.0848 0.010913
-48.625 10.924 0.0023654 86.600 86.825 0.54790 588.34 0.0016997 85.674 85.802 0.54334 1.4308 2.2173 1203.5 -0.0053780 211.51 0.13303 1.8345 0.54510 477.07 518.13 2.4689 1.1883 1.4044 216.82 0.50387 6.1112 0.010999
-47.625 11.448 0.0024644 88.852 89.088 0.55791 587.20 0.0017030 87.891 88.025 0.55319 1.4331 2.2216 1196.9 -0.0053403 209.08 0.13244 1.9159 0.52194 478.14 519.33 2.4657 1.1927 1.4098 217.08 0.49792 6.1375 0.011085
-46.625 11.991 0.0025665 91.110 91.357 0.56789 586.06 0.0017063 90.111 90.252 0.56302 1.4354 2.2259 1190.4 -0.0053020 206.69 0.13185 2.0001 0.49997 479.20 520.53 2.4625 1.1971 1.4153 217.33 0.49207 6.1639 0.011172
-45.625 12.554 0.0026716 93.373 93.631 0.57786 584.92 0.0017096 92.336 92.484 0.57282 1.4378 2.2303 1183.8 -0.0052633 204.34 0.13126 2.0872 0.47912 480.27 521.74 2.4594 1.2015 1.4207 217.58 0.48633 6.1902 0.011259
-44.625 13.137 0.0027798 95.640 95.911 0.58781 583.77 0.0017130 94.565 94.720 0.58260 1.4402 2.2347 1177.3 -0.0052240 202.03 0.13067 2.1771 0.45933 481.33 522.94 2.4564 1.2060 1.4263 217.82 0.48069 6.2165 0.011347
-43.625 13.741 0.0028912 97.913 98.196 0.59773 582.62 0.0017164 96.799 96.961 0.59235 1.4426 2.2392 1170.7 -0.0051841 199.75 0.13008 2.2700 0.44053 482.40 524.14 2.4535 1.2104 1.4319 218.05 0.47516 6.2429 0.011435
-42.625 14.367 0.0030058 100.19 100.49 0.60764 581.47 0.0017198 99.036 99.207 0.60208 1.4450 2.2437 1164.2 -0.0051437 197.51 0.12949 2.3659 0.42267 483.46 525.33 2.4506 1.2149 1.4375 218.28 0.46973 6.2692 0.011523
-41.625 15.015 0.0031237 102.48 102.78 0.61752 580.32 0.0017232 101.28 101.46 0.61179 1.4475 2.2483 1157.7 -0.0051027 195.30 0.12891 2.4649 0.40569 484.53 526.53 2.4478 1.2195 1.4432 218.50 0.46440 6.2955 0.011612
-40.625 15.686 0.0032449 104.76 105.09 0.62739 579.16 0.0017266 103.52 103.71 0.62147 1.4500 2.2529 1151.1 -0.0050611 193.13 0.12832 2.5671 0.38954 485.60 527.73 2.4450 1.2240 1.4489 218.72 0.45917 6.3218 0.011701
-39.625 16.380 0.0033695 107.06 107.40 0.63724 578.00 0.0017301 105.78 105.97 0.63113 1.4525 2.2576 1144.6 -0.0050189 190.99 0.12774 2.6725 0.37418 486.67 528.93 2.4423 1.2286 1.4547 218.93 0.45403 6.3481 0.011790
-38.625 17.097 0.0034975 109.36 109.71 0.64706 576.83 0.0017336 108.03 108.24 0.64077 1.4550 2.2623 1138.0 -0.0049761 188.88 0.12716 2.7813 0.35955 487.74 530.12 2.4397 1.2332 1.4606 219.13 0.44900 6.3744 0.011880
-37.625 17.838 0.0036290 111.67 112.03 0.65687 575.66 0.0017371 110.29 110.51 0.65039 1.4576 2.2671 1131.5 -0.0049327 186.81 0.12658 2.8934 0.34562 488.81 531.32 2.4371 1.2378 1.4665 219.33 0.44405 6.4007 0.011970
-36.625 18.604 0.0037640 113.98 114.36 0.66667 574.49 0.0017407 112.56 112.78 0.65999 1.4602 2.2719 1125.0 -0.0048887 184.76 0.12600 3.0089 0.33235 489.88 532.51 2.4346 1.2424 1.4724 219.52 0.43920 6.4270 0.012060
-35.625 19.395 0.0039026 116.29 116.69 0.67644 573.32 0.0017442 114.83 115.06 0.66956 1.4628 2.2768 1118.5 -0.0048440 182.75 0.12542 3.1280 0.31969 490.95 533.70 2.4321 1.2471 1.4784 219.70 0.43444 6.4533 0.012151
-34.625 20.212 0.0040448 118.62 119.03 0.68620 572.14 0.0017478 117.10 117.34 0.67912 1.4654 2.2818 1111.9 -0.0047987 180.76 0.12485 3.2506 0.30763 492.02 534.89 2.4297 1.2517 1.4845 219.88 0.42977 6.4797 0.012243
-33.625 21.056 0.0041907 120.94 121.38 0.69594 570.96 0.0017514 119.38 119.63 0.68865 1.4681 2.2868 1105.4 -0.0047527 178.80 0.12427 3.3770 0.29612 493.09 536.08 2.4273 1.2564 1.4906 220.05 0.42519 6.5060 0.012334
-32.625 21.926 0.0043403 123.28 123.73 0.70566 569.77 0.0017551 121.66 121.93 0.69817 1.4708 2.2918 1098.9 -0.0047061 176.87 0.12370 3.5071 0.28514 494.17 537.27 2.4250 1.2611 1.4968 220.21 0.42070 6.5323 0.012426
-31.625 22.823 0.0044937 125.62 126.09 0.71537 568.58 0.0017588 123.95 124.23 0.70767 1.4735 2.2970 1092.3 -0.0046587 174.97 0.12313 3.6410 0.27465 495.24 538.46 2.4227 1.2659 1.5031 220.36 0.41629 6.5587 0.012519
-30.625 23.749 0.0046509 127.96 128.45 0.72507 567.39 0.0017625 126.24 126.53 0.71714 1.4762 2.3021 1085.8 -0.0046107 173.09 0.12256 3.7787 0.26464 496.31 539.64 2.4205 1.2706 1.5094 220.51 0.41196 6.5850 0.012612
-29.625 24.703 0.0048120 130.32 130.82 0.73474 566.19 0.0017662 128.54 128.84 0.72660 1.4790 2.3074 1079.3 -0.0045619 171.24 0.12200 3.9205 0.25507 497.38 540.83 2.4184 1.2754 1.5157 220.65 0.40772 6.6114 0.012706
-28.625 25.687 0.0049769 132.67 133.20 0.74440 564.99 0.0017699 130.84 131.16 0.73604 1.4818 2.3126 1072.8 -0.0045124 169.42 0.12143 4.0663 0.24592 498.46 542.01 2.4162 1.2802 1.5222 220.79 0.40356 6.6378 0.012800
-27.625 26.700 0.0051459 135.04 135.59 0.75405 563.78 0.0017737 133.15 133.48 0.74547 1.4846 2.3180 1066.2 -0.0044621 167.62 0.12087 4.2163 0.23717 499.53 543.19 2.4142 1.2850 1.5286 220.91 0.39947 6.6642 0.012894
-26.625 27.743 0.0053188 137.41 137.98 0.76369 562.57 0.0017775 135.47 135.81 0.75487 1.4874 2.3234 1059.7 -0.0044111 165.84 0.12031 4.3705 0.22881 500.60 544.37 2.4122 1.2899 1.5352 221.03 0.39547 6.6906 0.012989
-25.625 28.817 0.0054958 139.78 140.38 0.77330 561.36 0.0017814 137.78 138.14 0.76426 1.4902 2.3289 1053.2 -0.0043593 164.09 0.11975 4.5290 0.22080 501.68 545.55 2.4102 1.2947 1.5418 221.14 0.39154 6.7171 0.013084
-24.625 29.923 0.0056768 142.17 142.78 0.78291 560.14 0.0017853 140.11 140.48 0.77363 1.4931 2.3344 1046.7 -0.0043067 162.36 0.11919 4.6918 0.21314 502.75 546.72 2.4083 1.2996 1.5485 221.25 0.38768 6.7436 0.013180
-23.625 31.061 0.0058621 144.55 145.19 0.79250 558.92 0.0017892 142.44 142.82 0.78298 1.4960 2.3400 1040.1 -0.0042533 160.65 0.11863 4.8592 0.20580 503.82 547.90 2.4064 1.3045 1.5552 221.35 0.38391 6.7701 0.013277
-22.625 32.232 0.0060515 146.95 147.61 0.80208 557.69 0.0017931 144.77 145.17 0.79232 1.4990 2.3457 1033.6 -0.0041990 158.97 0.11807 5.0311 0.19877 504.90 549.07 2.4045 1.3095 1.5621 221.44 0.38020 6.7967 0.013374
-21.625 33.435 0.0062451 149.35 150.04 0.81164 556.46 0.0017971 147.11 147.52 0.80164 1.5019 2.3514 1027.1 -0.0041439 157.30 0.11752 5.2076 0.19203 505.97 550.24 2.4027 1.3144 1.5690 221.52 0.37656 6.8232 0.013471
-20.625 34.673 0.0064430 151.76 152.47 0.82120 555.23 0.0018011 149.45 149.88 0.81095 1.5049 2.3572 1020.6 -0.0040879 155.66 0.11697 5.3889 0.18557 507.04 551.40 2.4010 1.3194 1.5759 221.59 0.37300 6.8499 0.013569
-19.625 35.946 0.0066452 154.17 154.91 0.83074 553.99 0.0018051 151.80 152.25 0.82024 1.5079 2.3630 1014.0 -0.0040311 154.04 0.11642 5.5750 0.17937 508.11 552.57 2.3992 1.3244 1.5829 221.66 0.36950 6.8765 0.013668
-18.625 37.253 0.0068518 156.59 157.36 0.84026 552.74 0.0018092 154.16 154.62 0.82952 1.5109 2.3689 1007.5 -0.0039733 152.44 0.11587 5.7660 0.17343 509.19 553.73 2.3976 1.3294 1.5901 221.72 0.36608 6.9032 0.013767
-17.625 38.596 0.0070627 159.02 159.81 0.84978 551.49 0.0018133 156.52 157.00 0.83878 1.5140 2.3749 1001.0 -0.0039145 150.86 0.11532 5.9621 0.16773 510.26 554.89 2.3959 1.3345 1.5972 221.77 0.36272 6.9300 0.013867
-16.625 39.976 0.0072781 161.45 162.27 0.85928 550.24 0.0018174 158.89 159.39 0.84803 1.5171 2.3810 994.44 -0.0038549 149.29 0.11478 6.1632 0.16225 511.33 556.05 2.3943 1.3395 1.6045 221.81 0.35942 6.9568 0.013968
-15.625 41.392 0.0074980 163.89 164.74 0.86878 548.98 0.0018216 161.26 161.78 0.85726 1.5202 2.3871 987.91 -0.0037942 147.75 0.11423 6.3696 0.15700 512.40 557.20 2.3927 1.3446 1.6119 221.85 0.35619 6.9836 0.014069
-14.625 42.846 0.0077224 166.34 167.22 0.87826 547.71 0.0018258 163.64 164.18 0.86649 1.5233 2.3933 981.37 -0.0037325 146.22 0.11369 6.5812 0.15195 513.47 558.36 2.3912 1.3497 1.6193 221.87 0.35302 7.0105 0.014170
-13.625 44.338 0.0079513 168.79 169.70 0.88773 546.44 0.0018300 166.02 166.58 0.87569 1.5264 2.3996 974.83 -0.0036698 144.72 0.11315 6.7983 0.14710 514.54 559.51 2.3897 1.3549 1.6268 221.89 0.34992 7.0375 0.014273
-12.625 45.870 0.0081849 171.25 172.20 0.89719 545.17 0.0018343 168.41 168.99 0.88489 1.5296 2.4059 968.29 -0.0036061 143.23 0.11261 7.0208 0.14243 515.61 560.65 2.3883 1.3600 1.6344 221.90 0.34688 7.0646 0.014376
-11.625 47.440 0.0084230 173.72 174.70 0.90664 543.89 0.0018386 170.81 171.41 0.89407 1.5328 2.4124 961.75 -0.0035413 141.76 0.11208 7.2490 0.13795 516.68 561.80 2.3868 1.3652 1.6421 221.91 0.34389 7.0917 0.014479
-10.625 49.051 0.0086658 176.19 177.20 0.91608 542.60 0.0018430 173.21 173.83 0.90324 1.5360 2.4189 955.20 -0.0034753 140.30 0.11154 7.4829 0.13364 517.75 562.94 2.3854 1.3704 1.6498 221.90 0.34097 7.1188 0.014584
-9.6250 50.703 0.0089134 178.67 179.72 0.92552 541.31 0.0018474 175.61 176.26 0.91240 1.5393 2.4255 948.65 -0.0034082 138.86 0.11101 7.7226 0.12949 518.81 564.08 2.3841 1.3757 1.6577 221.88 0.33810 7.1461 0.014689
-8.6250 52.396 0.0091656 181.16 182.24 0.93494 540.02 0.0018518 178.03 178.70 0.92154 1.5426 2.4321 942.10 -0.0033400 137.44 0.11048 7.9683 0.12550 519.88 565.21 2.3827 1.3809 1.6657 221.86 0.33529 7.1734 0.014795
-7.6250 54.131 0.0094226 183.66 184.77 0.94435 538.72 0.0018563 180.45 181.14 0.93068 1.5459 2.4389 935.55 -0.0032705 136.03 0.10995 8.2200 0.12165 520.94 566.35 2.3814 1.3862 1.6737 221.83 0.33254 7.2008 0.014902
-6.6250 55.909 0.0096844 186.16 187.31 0.95375 537.41 0.0018608 182.87 183.59 0.93980 1.5492 2.4457 928.99 -0.0031998 134.64 0.10942 8.4779 0.11795 522.01 567.48 2.3801 1.3915 1.6819 221.79 0.32984 7.2284 0.015009
-5.6250 57.730 0.0099510 188.67 189.85 0.96315 536.10 0.0018653 185.30 186.05 0.94892 1.5525 2.4526 922.43 -0.0031279 133.27 0.10889 8.7420 0.11439 523.07 568.60 2.3789 1.3969 1.6902 221.74 0.32720 7.2560 0.015117
-4.6250 59.595 0.010222 191.18 192.41 0.97253 534.78 0.0018699 187.74 188.51 0.95802 1.5559 2.4596 915.87 -0.0030546 131.91 0.10837 9.0126 0.11096 524.13 569.72 2.3777 1.4022 1.6985 221.68 0.32461 7.2837 0.015226
-3.6250 61.505 0.010499 193.70 194.97 0.98191 533.45 0.0018746 190.19 190.98 0.96711 1.5593 2.4667 909.30 -0.0029800 130.56 0.10785 9.2896 0.10765 525.19 570.84 2.3765 1.4076 1.7070 221.62 0.32207 7.3115 0.015336
-2.6250 63.461 0.010780 196.23 197.54 0.99128 532.12 0.0018793 192.64 193.46 0.97620 1.5627 2.4739 902.73 -0.0029041 129.23 0.10733 9.5733 0.10446 526.25 571.96 2.3753 1.4131 1.7156 221.54 0.31958 7.3394 0.015447
-1.6250 65.462 0.011066 198.77 200.12 1.0006 530.78 0.0018840 195.10 195.95 0.98527 1.5662 2.4811 896.16 -0.0028267 127.91 0.10681 9.8638 0.10138 527.31 573.07 2.3742 1.4185 1.7243 221.45 0.31715 7.3674 0.015559
-0.62500 67.510 0.011357 201.32 202.71 1.0100 529.44 0.0018888 197.56 198.44 0.99434 1.5696 2.4885 889.58 -0.0027478 126.61 0.10629 10.161 0.098414 528.37 574.18 2.3731 1.4240 1.7331 221.36 0.31476 7.3956 0.015671
0.37500 69.606 0.011653 203.87 205.30 1.0193 528.09 0.0018936 200.03 200.94 1.0034 1.5731 2.4960 883.00 -0.0026675 125.32 0.10578 10.466 0.095552 529.42 575.28 2.3720 1.4295 1.7421 221.26 0.31242 7.4239 0.015785
1.3750 71.749 0.011955 206.43 207.90 1.0287 526.73 0.0018985 202.51 203.45 1.0124 1.5767 2.5035 876.42 -0.0025856 124.04 0.10527 10.777 0.092790 530.48 576.38 2.3709 1.4350 1.7512 221.14 0.31013 7.4523 0.015899
2.3750 73.941 0.012261 208.99 210.52 1.0380 525.37 0.0019034 204.99 205.96 1.0215 1.5802 2.5112 869.83 -0.0025022 122.78 0.10476 11.096 0.090123 531.53 577.47 2.3699 1.4406 1.7604 221.02 0.30789 7.4808 0.016015
3.3750 76.183 0.012572 211.57 213.14 1.0473 523.99 0.0019084 207.48 208.48 1.0305 1.5838 2.5190 863.24 -0.0024171 121.53 0.10425 11.422 0.087549 532.58 578.56 2.3688 1.4462 1.7697 220.89 0.30569 7.5095 0.016131
4.3750 78.475 0.012888 214.15 215.77 1.0567 522.62 0.0019134 209.98 211.01 1.0395 1.5874 2.5268 856.64 -0.0023303 120.29 0.10374 11.756 0.085062 533.63 579.65 2.3678 1.4518 1.7792 220.75 0.30354 7.5384 0.016249
5.3750 80.817 0.013209 216.74 218.40 1.0660 521.23 0.0019185 212.48 213.55 1.0486 1.5910 2.5348 850.04 -0.0022417 119.06 0.10324 12.098 0.082660 534.67 580.73 2.3669 1.4575 1.7888 220.60 0.30144 7.5674 0.016368
6.3750 83.211 0.013536 219.34 221.05 1.0753 519.84 0.0019237 215.00 216.10 1.0576 1.5946 2.5429 843.43 -0.0021514 117.85 0.10273 12.447 0.080340 535.72 581.81 2.3659 1.4632 1.7986 220.44 0.29938 7.5966 0.016487
7.3750 85.657 0.013867 221.94 223.70 1.0846 518.44 0.0019289 217.51 218.65 1.0666 1.5983 2.5511 836.82 -0.0020593 116.65 0.10223 12.805 0.078096 536.76 582.88 2.3650 1.4689 1.8085 220.27 0.29736 7.6259 0.016608
8.3750 88.156 0.014203 224.55 226.37 1.0939 517.03 0.0019341 220.04 221.22 1.0756 1.6020 2.5595 830.20 -0.0019652 115.46 0.10173 13.170 0.075928 537.80 583.95 2.3640 1.4746 1.8186 220.08 0.29538 7.6555 0.016730
9.3750 90.708 0.014545 227.17 229.04 1.1032 515.62 0.0019394 222.57 223.79 1.0846 1.6057 2.5679 823.58 -0.0018691 114.28 0.10124 13.545 0.073830 538.84 585.01 2.3631 1.4804 1.8288 219.89 0.29345 7.6852 0.016853
10.375 93.315 0.014891 229.80 231.72 1.1125 514.19 0.0019448 225.11 226.37 1.0936 1.6095 2.5765 816.96 -0.0017710 113.11 0.10074 13.927 0.071802 539.87 586.07 2.3622 1.4863 1.8392 219.69 0.29156 7.7151 0.016978
11.375 95.977 0.015243 232.44 234.41 1.1217 512.76 0.0019502 227.66 228.95 1.1025 1.6132 2.5852 810.32 -0.0016708 111.95 0.10025 14.319 0.069840 540.90 587.12 2.3614 1.4921 1.8498 219.48 0.28971 7.7452 0.017103
12.375 98.694 0.015600 235.08 237.11 1.1310 511.32 0.0019557 230.22 231.55 1.1115 1.6170 2.5940 803.68 -0.0015685 110.80 0.099756 14.719 0.067941 541.93 588.17 2.3605 1.4980 1.8605 219.26 0.28790 7.7756 0.017230
13.375 101.47 0.015962 237.73 239.82 1.1403 509.87 0.0019613 232.78 234.15 1.1205 1.6208 2.6030 797.04 -0.0014639 109.67 0.099267 15.128 0.066103 542.96 589.21 2.3597 1.5040 1.8715 219.03 0.28612 7.8061 0.017359
14.375 104.30 0.016329 240.39 242.54 1.1495 508.42 0.0019669 235.35 236.77 1.1295 1.6247 2.6121 790.39 -0.0013569 108.54 0.098779 15.547 0.064323 543.99 590.24 2.3588 1.5099 1.8826 218.79 0.28439 7.8369 0.017488
15.375 107.19 0.016700 243.06 245.27 1.1588 506.95 0.0019726 237.93 239.39 1.1384 1.6286 2.6214 783.73 -0.0012476 107.43 0.098294 15.974 0.062600 545.01 591.27 2.3580 1.5159 1.8940 218.53 0.28270 7.8680 0.017619
16.375 110.13 0.017077 245.74 248.00 1.1681 505.48 0.0019783 240.52 242.02 1.1474 1.6324 2.6308 777.07 -0.0011357 106.32 0.097810 16.412 0.060931 546.03 592.29 2.3572 1.5220 1.9055 218.27 0.28104 7.8993 0.017752
17.375 113.14 0.017459 248.42 250.75 1.1773 504.00 0.0019841 243.11 244.66 1.1564 1.6364 2.6403 770.40 -0.0010213 105.22 0.097328 16.859 0.059314 547.04 593.31 2.3564 1.5281 1.9172 217.99 0.27942 7.9308 0.017886
18.375 116.21 0.017846 251.11 253.50 1.1866 502.50 0.0019900 245.72 247.31 1.1653 1.6403 2.6501 763.72 -0.00090422 104.14 0.096848 17.317 0.057747 548.05 594.32 2.3557 1.5342 1.9292 217.71 0.27783 7.9626 0.018021
19.375 119.33 0.018238 253.81 256.27 1.1958 501.00 0.0019960 248.33 249.97 1.1743 1.6443 2.6599 757.04 -0.00078435 103.06 0.096371 17.785 0.056228 549.06 595.33 2.3549 1.5404 1.9414 217.41 0.27628 7.9947 0.018159
20.375 122.52 0.018634 256.52 259.04 1.2051 499.49 0.0020020 250.95 252.64 1.1832 1.6483 2.6700 750.35 -0.00066161 101.99 0.095895 18.263 0.054756 550.07 596.32 2.3541 1.5466 1.9538 217.10 0.27477 8.0272 0.018297
21.375 125.77 0.019036 259.24 261.83 1.2143 497.97 0.0020082 253.57 255.32 1.1922 1.6523 2.6802 743.64 -0.00053589 100.93 0.095420 18.752 0.053328 551.07 597.31 2.3534 1.5528 1.9665 216.78 0.27329 8.0599 0.018438
22.375 129.08 0.019442 261.96 264.62 1.2235 496.43 0.0020144 256.21 258.00 1.2012 1.6563 2.6906 736.94 -0.00040708 99.877 0.094948 19.252 0.051943 552.07 598.30 2.3526 1.5591 1.9795 216.45 0.27184 8.0929 0.018580
23.375 132.46 0.019853 264.70 267.42 1.2328 494.89 0.0020206 258.86 260.70 1.2101 1.6604 2.7012 730.22 -0.00027505 98.834 0.094478 19.763 0.050600 553.06 599.27 2.3519 1.5655 1.9927 216.11 0.27043 8.1263 0.018724
24.375 135.90 0.020268 267.44 270.24 1.2420 493.34 0.0020270 261.51 263.41 1.2191 1.6645 2.7120 723.49 -0.00013968 97.800 0.094009 20.285 0.049297 554.05 600.24 2.3512 1.5718 2.0061 215.75 0.26906 8.1600 0.018870
25.375 139.41 0.020688 270.19 273.06 1.2512 491.77 0.0020335 264.17 266.13 1.2280 1.6686 2.7230 716.76 -8.3775e-07 96.773 0.093543 20.820 0.048032 555.03 601.20 2.3504 1.5783 2.0199 215.39 0.26771 8.1941 0.019017
26.375 142.98 0.021113 272.95 275.89 1.2605 490.20 0.0020400 266.84 268.85 1.2370 1.6728 2.7342 710.01 0.00014161 95.755 0.093078 21.366 0.046804 556.01 602.15 2.3497 1.5847 2.0340 215.01 0.26640 8.2286 0.019167
27.375 146.62 0.021542 275.72 278.73 1.2697 488.61 0.0020466 269.52 271.59 1.2459 1.6770 2.7456 703.26 0.00028782 94.745 0.092615 21.924 0.045612 556.99 603.10 2.3490 1.5913 2.0484 214.62 0.26512 8.2634 0.019319
28.375 150.33 0.021975 278.49 281.59 1.2789 487.01 0.0020533 272.21 274.34 1.2549 1.6812 2.7573 696.49 0.00043793 93.742 0.092154 22.495 0.044454 557.96 604.03 2.3483 1.5978 2.0631 214.21 0.26387 8.2987 0.019472
29.375 154.10 0.022412 281.28 284.45 1.2881 485.40 0.0020601 274.91 277.10 1.2638 1.6854 2.7691 689.72 0.00059212 92.747 0.091695 23.079 0.043329 558.92 604.96 2.3476 1.6044 2.0781 213.80 0.26265 8.3344 0.019628
30.375 157.94 0.022854 284.07 287.32 1.2974 483.78 0.0020671 277.62 279.87 1.2728 1.6897 2.7813 682.93 0.00075055 91.760 0.091238 23.676 0.042237 559.88 605.88 2.3469 1.6111 2.0935 213.37 0.26147 8.3705 0.019786
31.375 161.86 0.023299 286.88 290.21 1.3066 482.15 0.0020741 280.34 282.66 1.2818 1.6939 2.7936 676.13 0.00091340 90.779 0.090782 24.287 0.041175 560.84 606.79 2.3462 1.6178 2.1092 212.93 0.26031 8.4071 0.019947
32.375 165.84 0.023748 289.69 293.10 1.3158 480.50 0.0020812 283.07 285.45 1.2908 1.6983 2.8063 669.32 0.0010809 89.806 0.090328 24.911 0.040143 561.79 607.69 2.3455 1.6246 2.1254 212.48 0.25919 8.4442 0.020110
33.375 169.90 0.024201 292.51 296.01 1.3250 478.83 0.0020884 285.81 288.26 1.2997 1.7026 2.8192 662.50 0.0012532 88.840 0.089876 25.549 0.039140 562.73 608.58 2.3448 1.6314 2.1419 212.01 0.25809 8.4818 0.020275
34.375 174.02 0.024657 295.34 298.92 1.3342 477.16 0.0020957 288.56 291.07 1.3087 1.7070 2.8324 655.67 0.0014305 87.880 0.089426 26.202 0.038164 563.67 609.46 2.3440 1.6383 2.1589 211.53 0.25702 8.5199 0.020443
35.375 178.22 0.025116 298.18 301.85 1.3435 475.47 0.0021032 291.32 293.90 1.3177 1.7114 2.8459 648.82 0.0016131 86.927 0.088977 26.870 0.037216 564.60 610.33 2.3433 1.6452 2.1763 211.04 0.25599 8.5586 0.020613
36.375 182.50 0.025578 301.03 304.79 1.3527 473.77 0.0021107 294.09 296.74 1.3267 1.7158 2.8597 641.96 0.0018012 85.980 0.088531 27.553 0.036293 565.52 611.19 2.3426 1.6522 2.1942 210.53 0.25498 8.5978 0.020786
37.375 186.84 0.026043 303.89 307.73 1.3619 472.05 0.0021184 296.87 299.60 1.3357 1.7203 2.8739 635.08 0.0019950 85.040 0.088085 28.252 0.035395 566.44 612.04 2.3419 1.6592 2.2125 210.01 0.25400 8.6376 0.020962
38.375 191.27 0.026511 306.76 310.69 1.3711 470.31 0.0021262 299.66 302.46 1.3447 1.7248 2.8884 628.19 0.0021949 84.105 0.087642 28.967 0.034522 567.35 612.88 2.3411 1.6663 2.2314 209.47 0.25305 8.6780 0.021141
39.375 195.77 0.026981 309.63 313.66 1.3803 468.56 0.0021342 302.46 305.34 1.3537 1.7293 2.9033 621.29 0.0024011 83.177 0.087200 29.699 0.033671 568.26 613.70 2.3404 1.6734 2.2508 208.92 0.25213 8.7190 0.021323
40.375 200.34 0.027452 312.52 316.64 1.3896 466.80 0.0021423 305.27 308.23 1.3627 1.7339 2.9185 614.37 0.0026140 82.254 0.086760 30.447 0.032844 569.15 614.52 2.3396 1.6806 2.2708 208.36 0.25123 8.7608 0.021508
41.375 205.00 0.027925 315.41 319.63 1.3988 465.01 0.0021505 308.10 311.14 1.3718 1.7385 2.9342 607.43 0.0028338 81.338 0.086322 31.214 0.032037 570.04 615.32 2.3389 1.6879 2.2913 207.78 0.25037 8.8032 0.021696
42.375 209.73 0.028400 318.32 322.64 1.4080 463.21 0.0021588 310.94 314.06 1.3808 1.7432 2.9502 600.47 0.0030609 80.426 0.085885 31.998 0.031252 570.92 616.11 2.3381 1.6952 2.3125 207.19 0.24953 8.8463 0.021888
43.375 214.54 0.028875 321.24 325.65 1.4172 461.40 0.0021673 313.79 316.99 1.3899 1.7478 2.9667 593.50 0.0032957 79.520 0.085449 32.800 0.030488 571.79 616.88 2.3373 1.7027 2.3344 206.58 0.24871 8.8902 0.022084
44.375 219.43 0.029350 324.16 328.68 1.4265 459.56 0.0021760 316.65 319.94 1.3989 1.7525 2.9837 586.51 0.0035386 78.619 0.085015 33.622 0.029742 572.65 617.65 2.3365 1.7101 2.3569 205.96 0.24793 8.9349 0.022283
45.375 224.41 0.029826 327.10 331.72 1.4357 457.71 0.0021848 319.52 322.90 1.4080 1.7573 3.0012 579.50 0.0037900 77.723 0.084583 34.463 0.029016 573.50 618.40 2.3357 1.7177 2.3802 205.32 0.24717 8.9805 0.022485
46.375 229.46 0.030301 330.04 334.76 1.4449 455.83 0.0021938 322.41 325.88 1.4171 1.7621 3.0192 572.46 0.0040504 76.832 0.084152 35.325 0.028308 574.34 619.13 2.3349 1.7253 2.4042 204.67 0.24644 9.0269 0.022692
47.375 234.60 0.030774 333.00 337.83 1.4542 453.94 0.0022029 325.31 328.87 1.4262 1.7669 3.0377 565.41 0.0043202 75.946 0.083723 36.208 0.027618 575.17 619.85 2.3340 1.7329 2.4291 204.00 0.24573 9.0742 0.022903
48.375 239.83 0.031246 335.96 340.90 1.4634 452.03 0.0022123 328.22 331.88 1.4353 1.7718 3.0569 558.34 0.0046000 75.064 0.083295 37.112 0.026945 576.00 620.55 2.3332 1.7407 2.4548 203.31 0.24505 9.1224 0.023119
49.375 245.13 0.031715 338.94 343.98 1.4726 450.09 0.0022218 331.15 334.90 1.4445 1.7767 3.0766 551.24 0.0048904 74.186 0.082868 38.039 0.026289 576.81 621.24 2.3323 1.7485 2.4815 202.61 0.24440 9.1716 0.023339
50.375 250.53 0.032181 341.93 347.08 1.4819 448.13 0.0022315 334.09 337.94 1.4536 1.7817 3.0970 544.13 0.0051920 73.313 0.082442 38.989 0.025648 577.61 621.91 2.3314 1.7564 2.5092 201.89 0.24377 9.2219 0.023564
51.375 256.01 0.032643 344.92 350.19 1.4911 446.15 0.0022414 337.04 341.00 1.4628 1.7867 3.1181 536.98 0.0055054 72.443 0.082018 39.962 0.025024 578.39 622.56 2.3304 1.7644 2.5379 201.16 0.24317 9.2733 0.023794
52.375 261.57 0.033100 347.93 353.31 1.5004 444.15 0.0022515 340.01 344.07 1.4720 1.7918 3.1400 529.82 0.0058313 71.577 0.081595 40.961 0.024414 579.17 623.20 2.3295 1.7724 2.5677 200.41 0.24260 9.3258 0.024029
53.375 267.23 0.033551 350.95 356.45 1.5096 442.12 0.0022618 343.00 347.17 1.4812 1.7969 3.1627 522.62 0.0061705 70.715 0.081174 41.985 0.023818 579.93 623.81 2.3285 1.7805 2.5987 199.63 0.24205 9.3795 0.024270
54.375 272.97 0.033994 353.98 359.59 1.5189 440.06 0.0022724 346.00 350.28 1.4904 1.8021 3.1862 515.40 0.0065239 69.856 0.080753 43.036 0.023237 580.68 624.41 2.3274 1.7887 2.6310 198.85 0.24154 9.4344 0.024516
55.375 278.81 0.034430 357.02 362.76 1.5282 437.98 0.0022832 349.02 353.40 1.4997 1.8073 3.2106 508.15 0.0068923 69.001 0.080334 44.114 0.022669 581.41 624.99 2.3264 1.7969 2.6646 198.04 0.24105 9.4907 0.024769
56.375 284.74 0.034855 360.07 365.93 1.5374 435.87 0.0022943 352.05 356.55 1.5090 1.8126 3.2360 500.87 0.0072767 68.148 0.079915 45.221 0.022114 582.13 625.54 2.3253 1.8052 2.6998 197.22 0.24059 9.5484 0.025028
57.375 290.76 0.035270 363.13 369.11 1.5467 433.73 0.0023056 355.10 359.72 1.5183 1.8179 3.2624 493.56 0.0076782 67.299 0.079498 46.358 0.021571 582.83 626.07 2.3241 1.8136 2.7365 196.37 0.24016 9.6075 0.025294
58.375 296.87 0.035672 366.20 372.31 1.5560 431.56 0.0023172 358.17 362.91 1.5276 1.8233 3.2900 486.22 0.0080980 66.451 0.079082 47.525 0.021041 583.52 626.58 2.3230 1.8220 2.7749 195.51 0.23976 9.6682 0.025568
59.375 303.08 0.036059 369.29 375.53 1.5653 429.36 0.0023290 361.25 366.12 1.5370 1.8288 3.3188 478.84 0.0085373 65.606 0.078666 48.726 0.020523 584.18 627.07 2.3218 1.8305 2.8152 194.63 0.23939 9.7305 0.025849
60.375 309.38 0.036429 372.39 378.76 1.5746 427.13 0.0023412 364.36 369.35 1.5464 1.8343 3.3489 471.43 0.0089976 64.763 0.078251 49.960 0.020016 584.83 627.53 2.3205 1.8391 2.8576 193.73 0.23905 9.7945 0.026138
61.375 315.78 0.036780 375.50 382.00 1.5839 424.87 0.0023537 367.48 372.60 1.5558 1.8400 3.3805 463.99 0.0094803 63.922 0.077838 51.229 0.019520 585.46 627.96 2.3192 1.8479 2.9022 192.82 0.23873 9.8603 0.026436
62.375 322.28 0.037110 378.62 385.25 1.5932 422.56 0.0023665 370.62 375.88 1.5653 1.8457 3.4136 456.50 0.0099871 63.083 0.077425 52.535 0.019035 586.07 628.37 2.3178 1.8567 2.9492 191.88 0.23845 9.9281 0.026744
63.375 328.88 0.037416 381.75 388.52 1.6026 420.22 0.0023797 373.79 379.18 1.5748 1.8514 3.4483 448.97 0.010520 62.244 0.077012 53.879 0.018560 586.66 628.74 2.3164 1.8656 2.9989 190.92 0.23819 9.9979 0.027061
64.375 335.58 0.037693 384.90 391.80 1.6119 417.85 0.0023932 376.97 382.51 1.5844 1.8573 3.4850 441.40 0.011081 61.407 0.076600 55.265 0.018095 587.22 629.09 2.3149 1.8747 3.0517 189.95 0.23796 10.070 0.027389
65.375 342.38 0.037940 388.06 395.10 1.6212 415.42 0.0024072 380.18 385.86 1.5939 1.8633 3.5236 433.79 0.011672 60.570 0.076189 56.692 0.017639 587.76 629.40 2.3133 1.8839 3.1077 188.95 0.23775 10.144 0.027729
66.375 349.28 0.038151 391.23 398.42 1.6306 412.96 0.0024215 383.41 389.25 1.6036 1.8693 3.5645 426.12 0.012296 59.733 0.075779 58.165 0.017193 588.28 629.68 2.3117 1.8933 3.1674 187.93 0.23757 10.221 0.028080
67.375 356.28 0.038323 394.41 401.75 1.6400 410.45 0.0024363 386.67 392.65 1.6133 1.8755 3.6078 418.41 0.012956 58.897 0.075368 59.684 0.016755 588.76 629.92 2.3100 1.9030 3.2311 186.89 0.23740 10.300 0.028446
68.375 363.40 0.038449 397.61 405.09 1.6493 407.89 0.0024516 389.95 396.09 1.6230 1.8818 3.6537 410.64 0.013655 58.059 0.074959 61.253 0.016326 589.22 630.13 2.3082 1.9129 3.2994 185.83 0.23724 10.382 0.028825
69.375 370.61 0.038524 400.83 408.45 1.6587 405.28 0.0024674 393.26 399.57 1.6328 1.8882 3.7027 402.81 0.014396 57.221 0.074549 62.875 0.015905 589.65 630.29 2.3064 1.9231 3.3727 184.74 0.23710 10.467 0.029221
70.375 377.94 0.038540 404.05 411.83 1.6681 402.62 0.0024838 396.60 403.07 1.6426 1.8947 3.7550 394.92 0.015183 56.381 0.074141 64.552 0.015491 590.04 630.41 2.3044 1.9336 3.4518 183.63 0.23697 10.555 0.029633
71.375 385.37 0.038491 407.29 415.23 1.6776 399.89 0.0025007 399.96 406.61 1.6525 1.9014 3.8109 386.97 0.016021 55.540 0.073732 66.288 0.015086 590.40 630.49 2.3024 1.9444 3.5371 182.50 0.23684 10.647 0.030064
72.375 392.92 0.038366 410.55 418.64 1.6870 397.11 0.0025182 403.36 410.18 1.6625 1.9083 3.8711 378.95 0.016915 54.696 0.073324 68.087 0.014687 590.73 630.51 2.3002 1.9556 3.6297 181.34 0.23671 10.743 0.030515
73.375 400.57 0.038155 413.82 422.07 1.6965 394.26 0.0025364 406.79 413.80 1.6726 1.9153 3.9359 370.85 0.017871 53.848 0.072917 69.953 0.014295 591.01 630.49 2.2979 1.9673 3.7303 180.16 0.23658 10.842 0.030989
74.375 408.34 0.037846 417.11 425.51 1.7059 391.34 0.0025553 410.26 417.45 1.6827 1.9226 4.0060 362.67 0.018894 52.997 0.072510 71.890 0.013910 591.25 630.41 2.2955 1.9793 3.8401 178.95 0.23643 10.946 0.031488
75.375 416.23 0.037423 420.41 428.98 1.7154 388.34 0.0025751 413.76 421.15 1.6930 1.9301 4.0822 354.41 0.019993 52.142 0.072104 73.904 0.013531 591.44 630.27 2.2930 1.9919 3.9604 177.71 0.23627 11.054 0.032014
76.375 424.23 0.036869 423.73 432.46 1.7249 385.26 0.0025957 417.31 424.90 1.7033 1.9378 4.1654 346.06 0.021177 51.281 0.071699 76.001 0.013158 591.59 630.07 2.2903 2.0050 4.0927 176.44 0.23609 11.168 0.032570
77.375 432.35 0.036165 427.07 435.97 1.7345 382.09 0.0026172 420.89 428.70 1.7137 1.9459 4.2565 337.60 0.022455 50.414 0.071295 78.187 0.012790 591.68 629.80 2.2874 2.0186 4.2389 175.15 0.23588 11.287 0.033161
78.375 440.59 0.035284 430.42 439.49 1.7440 378.83 0.0026397 424.53 432.54 1.7243 1.9543 4.3570 329.05 0.023838 49.539 0.070893 80.469 0.012427 591.71 629.46 2.2844 2.0328 4.4012 173.82 0.23563 11.412 0.033789
79.375 448.95 0.034197 433.80 443.04 1.7536 375.46 0.0026634 428.21 436.45 1.7349 1.9631 4.4684 320.38 0.025341 48.657 0.070494 82.856 0.012069 591.68 629.04 2.2812 2.0475 4.5824 172.46 0.23535 11.544 0.034461
80.375 457.44 0.032868 437.19 446.61 1.7632 371.97 0.0026884 431.94 440.42 1.7457 1.9723 4.5928 311.58 0.026980 47.764 0.070099 85.359 0.011715 591.58 628.53 2.2778 2.0630 4.7859 171.07 0.23501 11.684 0.035181
81.375 466.05 0.031251 440.60 450.20 1.7729 368.36 0.0027147 435.74 444.46 1.7567 1.9820 4.7327 302.66 0.028773 46.860 0.069708 87.988 0.011365 591.40 627.92 2.2742 2.0791 5.0161 169.64 0.23461 11.832 0.035957
82.375 474.79 0.029290 444.04 453.81 1.7825 364.61 0.0027427 439.60 448.58 1.7678 1.9924 4.8914 293.60 0.030744 45.942 0.069323 90.757 0.011018 591.14 627.21 2.2703 2.0959 5.2786 168.17 0.23413 11.989 0.036797
83.375 483.66 0.026915 447.50 457.45 1.7922 360.70 0.0027724 443.53 452.78 1.7791 2.0034 5.0731 284.38 0.032920 45.010 0.068948 93.681 0.010674 590.79 626.38 2.2661 2.1136 5.5807 166.67 0.23357 12.157 0.037711
84.375 492.67 0.024033 450.98 461.12 1.8020 356.61 0.0028041 447.54 457.07 1.7907 2.0153 5.2834 275.00 0.035335 44.059 0.068586 96.781 0.010333 590.33 625.42 2.2616 2.1321 5.9321 165.13 0.23290 12.338 0.038713
85.375 501.81 0.020525 454.48 464.81 1.8118 352.33 0.0028382 451.65 461.47 1.8025 2.0281 5.5302 265.44 0.038030 43.088 0.068241 100.08 0.0099920 589.74 624.31 2.2567 2.1517 6.3459 163.54 0.23209 12.532 0.039819
86.375 511.09 0.016232 458.01 468.53 1.8216 347.82 0.0028751 455.85 465.98 1.8145 2.0420 5.8240 255.69 0.041058 42.092 0.067923 103.61 0.0096520 589.03 623.04 2.2514 2.1723 6.8405 161.91 0.23112 12.743 0.041051
87.375 520.51 0.010937 461.58 472.29 1.8315 343.04 0.0029151 460.18 470.64 1.8269 2.0574 6.1803 245.72 0.044485 41.066 0.067640 107.40 0.0093114 588.15 621.56 2.2456 2.1943 7.4422 160.23 0.22995 12.973 0.042436
88.375 530.07 0.0043316 465.17 476.08 1.8415 337.95 0.0029590 464.64 475.45 1.8397 2.0745 6.6221 235.52 0.048397 40.005 0.067412 111.50 0.0089689 587.08 619.86 2.2392 2.2178 8.1900 158.49 0.22854 13.226 0.044014
89.375 545.51 undefined 468.10 479.32 1.8495 335.00 0.0029851 468.10 479.32 1.8495 2.0824 6.7617 232.06 0.049933 39.418 0.067236 335.00 0.0029851 468.10 479.32 1.8495 2.0824 6.7617 232.06 0.049933 39.418 0.067236
90.375 568.09 undefined 470.18 481.87 1.8553 335.00 0.0029851 470.18 481.87 1.8553 2.0778 6.4678 236.83 0.048177 39.446 0.067084 335.00 0.0029851 470.18 481.87 1.8553 2.0778 6.4678 236.83 0.048177 39.446 0.067084
91.375 590.84 undefined 472.25 484.41 1.8610 335.00 0.0029851 472.25 484.41 1.8610 2.0737 6.2184 241.36 0.046581 39.474 0.066967 335.00 0.0029851 472.25 484.41 1.8610 2.0737 6.2184 241.36 0.046581 39.474 0.066967
92.375 613.75 undefined 474.32 486.96 1.8667 335.00 0.0029851 474.32 486.96 1.8667 2.0702 6.0030 245.66 0.045118 39.502 0.066878 335.00 0.0029851 474.32 486.96 1.8667 2.0702 6.0030 245.66 0.045118 39.502 0.066878
93.375 636.82 undefined 476.39 489.50 1.8723 335.00 0.0029851 476.39 489.50 1.8723 2.0673 5.8146 249.76 0.043767 39.531 0.066811 335.00 0.0029851 476.39 489.50 1.8723 2.0673 5.8146 249.76 0.043767 39.531 0.066811
94.375 660.02 undefined 478.46 492.04 1.8779 335.00 0.0029851 478.46 492.04 1.8779 2.0649 5.6480 253.68 0.042513 39.561 0.066762 335.00 0.0029851 478.46 492.04 1.8779 2.0649 5.6480 253.68 0.042513 39.561 0.066762
95.375 683.36 undefined 480.52 494.59 1.8835 335.00 0.0029851 480.52 494.59 1.8835 2.0630 5.4991 257.44 0.041341 39.593 0.066728 335.00 0.0029851 480.52 494.59 1.8835 2.0630 5.4991 257.44 0.041341 39.593 0.066728
96.375 706.81 undefined 482.58 497.13 1.8891 335.00 0.0029851 482.58 497.13 1.8891 2.0615 5.3651 261.06 0.040241 39.629 0.066706 335.00 0.0029851 482.58 497.13 1.8891 2.0615 5.3651 261.06 0.040241 39.629 0.066706
97.375 730.37 undefined 484.65 499.68 1.8947 335.00 0.0029851 484.65 499.68 1.8947 2.0605 5.2436 264.54 0.039204 39.654 0.066697 335.00 0.0029851 484.65 499.68 1.8947 2.0605 5.2436 264.54 0.039204 39.654 0.066697
98.375 754.04 undefined 486.71 502.22 1.9003 335.00 0.0029851 486.71 502.22 1.9003 2.0598 5.1330 267.92 0.038222 39.674 0.066697 335.00 0.0029851 486.71 502.22 1.9003 2.0598 5.1330 267.92 0.038222 39.674 0.066697
99.375 777.80 undefined 488.76 504.77 1.9058 335.00 0.0029851 488.76 504.77 1.9058 2.0595 5.0316 271.18 0.037291 39.698 0.066705 335.00 0.0029851 488.76 504.77 1.9058 2.0595 5.0316 271.18 0.037291 39.698 0.066705
100.38 801.66 undefined 490.82 507.32 1.9113 335.00 0.0029851 490.82 507.32 1.9113 2.0595 4.9383 274.36 0.036405 39.723 0.066720 335.00 0.0029851 490.82 507.32 1.9113 2.0595 4.9383 274.36 0.036405 39.723 0.066720
101.38 825.60 undefined 492.88 509.88 1.9168 335.00 0.0029851 492.88 509.88 1.9168 2.0597 4.8522 277.45 0.035559 39.750 0.066742 335.00 0.0029851 492.88 509.88 1.9168 2.0597 4.8522 277.45 0.035559 39.750 0.066742
102.38 849.62 undefined 494.94 512.43 1.9223 335.00 0.0029851 494.94 512.43 1.9223 2.0602 4.7724 280.47 0.034751 39.777 0.066769 335.00 0.0029851 494.94 512.43 1.9223 2.0602 4.7724 280.47 0.034751 39.777 0.066769
103.38 873.72 undefined 497.00 514.99 1.9278 335.00 0.0029851 497.00 514.99 1.9278 2.0609 4.6983 283.41 0.033976 39.804 0.066801 335.00 0.0029851 497.00 514.99 1.9278 2.0609 4.6983 283.41 0.033976 39.804 0.066801
104.38 897.90 undefined 499.07 517.55 1.9333 335.00 0.0029851 499.07 517.55 1.9333 2.0618 4.6292 286.29 0.033234 39.832 0.066838 335.00 0.0029851 499.07 517.55 1.9333 2.0618 4.6292 286.29 0.033234 39.832 0.066838
105.38 922.14 undefined 501.13 520.11 1.9387 335.00 0.0029851 501.13 520.11 1.9387 2.0629 4.5647 289.11 0.032520 39.859 0.066879 335.00 0.0029851 501.13 520.11 1.9387 2.0629 4.5647 289.11 0.032520 39.859 0.066879
106.38 946.45 undefined 503.19 522.67 1.9442 335.00 0.0029851 503.19 522.67 1.9442 2.0642 4.5042 291.87 0.031833 39.886 0.066924 335.00 0.0029851 503.19 522.67 1.9442 2.0642 4.5042 291.87 0.031833 39.886 0.066924
107.38 970.82 undefined 505.26 525.24 1.9496 335.00 0.0029851 505.26 525.24 1.9496 2.0655 4.4475 294.59 0.031172 39.914 0.066972 335.00 0.0029851 505.26 525.24 1.9496 2.0655 4.4475 294.59 0.031172 39.914 0.066972
108.38 995.26 undefined 507.32 527.81 1.9550 335.00 0.0029851 507.32 527.81 1.9550 2.0671 4.3942 297.25 0.030535 39.941 0.067024 335.00 0.0029851 507.32 527.81 1.9550 2.0671 4.3942 297.25 0.030535 39.941 0.067024
109.38 1019.8 undefined 509.39 530.38 1.9604 335.00 0.0029851 509.39 530.38 1.9604 2.0687 4.3439 299.87 0.029919 39.968 0.067078 335.00 0.0029851 509.39 530.38 1.9604 2.0687 4.3439 299.87 0.029919 39.968 0.067078
110.38 1044.3 undefined 511.46 532.95 1.9658 335.00 0.0029851 511.46 532.95 1.9658 2.0705 4.2965 302.44 0.029325 39.996 0.067135 335.00 0.0029851 511.46 532.95 1.9658 2.0705 4.2965 302.44 0.029325 39.996 0.067135
111.38 1068.9 undefined 513.53 535.53 1.9712 335.00 0.0029851 513.53 535.53 1.9712 2.0723 4.2517 304.97 0.028750 40.023 0.067195 335.00 0.0029851 513.53 535.53 1.9712 2.0723 4.2517 304.97 0.028750 40.023 0.067195
112.38 1093.6 undefined 515.61 538.11 1.9766 335.00 0.0029851 515.61 538.11 1.9766 2.0743 4.2094 307.47 0.028193 40.050 0.067257 335.00 0.0029851 515.61 538.11 1.9766 2.0743 4.2094 307.47 0.028193 40.050 0.067257
113.38 1118.3 undefined 517.68 540.70 1.9820 335.00 0.0029851 517.68 540.70 1.9820 2.0764 4.1692 309.92 0.027654 40.078 0.067322 335.00 0.0029851 517.68 540.70 1.9820 2.0764 4.1692 309.92 0.027654 40.078 0.067322
114.38 1143.0 undefined 519.76 543.28 1.9874 335.00 0.0029851 519.76 543.28 1.9874 2.0785 4.1311 312.35 0.027132 40.105 0.067388 335.00 0.0029851 519.76 543.28 1.9874 2.0785 4.1311 312.35 0.027132 40.105 0.067388
115.38 1167.8 undefined 521.84 545.87 1.9927 335.00 0.0029851 521.84 545.87 1.9927 2.0807 4.0949 314.74 0.026625 40.132 0.067457 335.00 0.0029851 521.84 545.87 1.9927 2.0807 4.0949 314.74 0.026625 40.132 0.067457
116.38 1192.6 undefined 523.92 548.47 1.9981 335.00 0.0029851 523.92 548.47 1.9981 2.0830 4.0604 317.09 0.026133 40.159 0.067527 335.00 0.0029851 523.92 548.47 1.9981 2.0830 4.0604 317.09 0.026133 40.159 0.067527
117.38 1217.5 undefined 526.00 551.06 2.0034 335.00 0.0029851 526.00 551.06 2.0034 2.0854 4.0277 319.42 0.025656 40.186 0.067599 335.00 0.0029851 526.00 551.06 2.0034 2.0854 4.0277 319.42 0.025656 40.186 0.067599
118.38 1242.5 undefined 528.09 553.66 2.0087 335.00 0.0029851 528.09 553.66 2.0087 2.0878 3.9964 321.72 0.025192 40.214 0.067673 335.00 0.0029851 528.09 553.66 2.0087 2.0878 3.9964 321.72 0.025192 40.214 0.067673
119.38 1267.4 undefined 530.18 556.26 2.0141 335.00 0.0029851 530.18 556.26 2.0141 2.0903 3.9666 323.98 0.024740 40.241 0.067748 335.00 0.0029851 530.18 556.26 2.0141 2.0903 3.9666 323.98 0.024740 40.241 0.067748
120.38 1292.4 undefined 532.27 558.87 2.0194 335.00 0.0029851 532.27 558.87 2.0194 2.0928 3.9382 326.23 0.024301 40.268 0.067825 335.00 0.0029851 532.27 558.87 2.0194 2.0928 3.9382 326.23 0.024301 40.268 0.067825
121.38 1317.5 undefined 534.36 561.48 2.0247 335.00 0.0029851 534.36 561.48 2.0247 2.0955 3.9110 328.44 0.023874 40.295 0.067903 335.00 0.0029851 534.36 561.48 2.0247 2.0955 3.9110 328.44 0.023874 40.295 0.067903
122.38 1342.5 undefined 536.46 564.09 2.0300 335.00 0.0029851 536.46 564.09 2.0300 2.0981 3.8850 330.63 0.023458 40.322 0.067983 335.00 0.0029851 536.46 564.09 2.0300 2.0981 3.8850 330.63 0.023458 40.322 0.067983
123.38 1367.7 undefined 538.56 566.71 2.0353 335.00 0.0029851 538.56 566.71 2.0353 2.1008 3.8601 332.80 0.023052 40.349 0.068063 335.00 0.0029851 538.56 566.71 2.0353 2.1008 3.8601 332.80 0.023052 40.349 0.068063
124.38 1392.8 undefined 540.66 569.33 2.0406 335.00 0.0029851 540.66 569.33 2.0406 2.1036 3.8363 334.94 0.022657 40.376 0.068145 335.00 0.0029851 540.66 569.33 2.0406 2.1036 3.8363 334.94 0.022657 40.376 0.068145
125.38 1418.0 undefined 542.77 571.95 2.0459 335.00 0.0029851 542.77 571.95 2.0459 2.1064 3.8135 337.06 0.022272 40.403 0.068229 335.00 0.0029851 542.77 571.95 2.0459 2.1064 3.8135 337.06 0.022272 40.403 0.068229
126.38 1443.2 undefined 544.88 574.58 2.0512 335.00 0.0029851 544.88 574.58 2.0512 2.1092 3.7916 339.16 0.021896 40.430 0.068313 335.00 0.0029851 544.88 574.58 2.0512 2.1092 3.7916 339.16 0.021896 40.430 0.068313
127.38 1468.4 undefined 546.99 577.21 2.0565 335.00 0.0029851 546.99 577.21 2.0565 2.1121 3.7706 341.24 0.021530 40.458 0.068398 335.00 0.0029851 546.99 577.21 2.0565 2.1121 3.7706 341.24 0.021530 40.458 0.068398
128.38 1493.7 undefined 549.10 579.84 2.0617 335.00 0.0029851 549.10 579.84 2.0617 2.1150 3.7505 343.30 0.021172 40.485 0.068484 335.00 0.0029851 549.10 579.84 2.0617 2.1150 3.7505 343.30 0.021172 40.485 0.068484
129.38 1519.0 undefined 551.22 582.48 2.0670 335.00 0.0029851 551.22 582.48 2.0670 2.1180 3.7312 345.34 0.020822 40.511 0.068572 335.00 0.0029851 551.22 582.48 2.0670 2.1180 3.7312 345.34 0.020822 40.511 0.068572
130.38 1544.3 undefined 553.34 585.12 2.0723 335.00 0.0029851 553.34 585.12 2.0723 2.1209 3.7126 347.36 0.020481 40.538 0.068660 335.00 0.0029851 553.34 585.12 2.0723 2.1209 3.7126 347.36 0.020481 40.538 0.068660
131.38 1569.6 undefined 555.46 587.76 2.0775 335.00 0.0029851 555.46 587.76 2.0775 2.1240 3.6947 349.36 0.020147 40.565 0.068749 335.00 0.0029851 555.46 587.76 2.0775 2.1240 3.6947 349.36 0.020147 40.565 0.068749
132.38 1595.0 undefined 557.58 590.41 2.0828 335.00 0.0029851 557.58 590.41 2.0828 2.1270 3.6775 351.34 0.019821 40.592 0.068840 335.00 0.0029851 557.58 590.41 2.0828 2.1270 3.6775 351.34 0.019821 40.592 0.068840
133.38 1620.4 undefined 559.71 593.06 2.0880 335.00 0.0029851 559.71 593.06 2.0880 2.1301 3.6610 353.31 0.019502 40.619 0.068931 335.00 0.0029851 559.71 593.06 2.0880 2.1301 3.6610 353.31 0.019502 40.619 0.068931
134.38 1645.8 undefined 561.84 595.72 2.0932 335.00 0.0029851 561.84 595.72 2.0932 2.1332 3.6451 355.26 0.019191 40.646 0.069022 335.00 0.0029851 561.84 595.72 2.0932 2.1332 3.6451 355.26 0.019191 40.646 0.069022
135.38 1671.3 undefined 563.98 598.38 2.0985 335.00 0.0029851 563.98 598.38 2.0985 2.1363 3.6297 357.20 0.018886 40.673 0.069115 335.00 0.0029851 563.98 598.38 2.0985 2.1363 3.6297 357.20 0.018886 40.673 0.069115
136.38 1696.8 undefined 566.12 601.04 2.1037 335.00 0.0029851 566.12 601.04 2.1037 2.1394 3.6150 359.11 0.018587 40.700 0.069208 335.00 0.0029851 566.12 601.04 2.1037 2.1394 3.6150 359.11 0.018587 40.700 0.069208
137.38 1722.2 undefined 568.26 603.70 2.1089 335.00 0.0029851 568.26 603.70 2.1089 2.1426 3.6008 361.02 0.018295 40.727 0.069303 335.00 0.0029851 568.26 603.70 2.1089 2.1426 3.6008 361.02 0.018295 40.727 0.069303
138.38 1747.8 undefined 570.40 606.37 2.1141 335.00 0.0029851 570.40 606.37 2.1141 2.1458 3.5871 362.91 0.018009 40.753 0.069398 335.00 0.0029851 570.40 606.37 2.1141 2.1458 3.5871 362.91 0.018009 40.753 0.069398
139.38 1773.3 undefined 572.55 609.05 2.1193 335.00 0.0029851 572.55 609.05 2.1193 2.1490 3.5738 364.78 0.017729 40.780 0.069493 335.00 0.0029851 572.55 609.05 2.1193 2.1490 3.5738 364.78 0.017729 40.780 0.069493
140.38 1798.8 undefined 574.70 611.72 2.1246 335.00 0.0029851 574.70 611.72 2.1246 2.1523 3.5611 366.64 0.017455 40.807 0.069590 335.00 0.0029851 574.70 611.72 2.1246 2.1523 3.5611 366.64 0.017455 40.807 0.069590
141.38 1824.4 undefined 576.85 614.40 2.1298 335.00 0.0029851 576.85 614.40 2.1298 2.1555 3.5488 368.49 0.017186 40.834 0.069687 335.00 0.0029851 576.85 614.40 2.1298 2.1555 3.5488 368.49 0.017186 40.834 0.069687
142.38 1850.0 undefined 579.01 617.09 2.1350 335.00 0.0029851 579.01 617.09 2.1350 2.1588 3.5369 370.32 0.016923 40.861 0.069784 335.00 0.0029851 579.01 617.09 2.1350 2.1588 3.5369 370.32 0.016923 40.861 0.069784
143.38 1875.6 undefined 581.17 619.77 2.1401 335.00 0.0029851 581.17 619.77 2.1401 2.1621 3.5255 372.14 0.016665 40.887 0.069883 335.00 0.0029851 581.17 619.77 2.1401 2.1621 3.5255 372.14 0.016665 40.887 0.069883
144.38 1901.2 undefined 583.34 622.47 2.1453 335.00 0.0029851 583.34 622.47 2.1453 2.1654 3.5144 373.95 0.016412 40.914 0.069982 335.00 0.0029851 583.34 622.47 2.1453 2.1654 3.5144 373.95 0.016412 40.914 0.069982
145.38 1926.9 undefined 585.50 625.16 2.1505 335.00 0.0029851 585.50 625.16 2.1505 2.1687 3.5038 375.74 0.016164 40.941 0.070081 335.00 0.0029851 585.50 625.16 2.1505 2.1687 3.5038 375.74 0.016164 40.941 0.070081
146.38 1952.5 undefined 587.67 627.86 2.1557 335.00 0.0029851 587.67 627.86 2.1557 2.1720 3.4934 377.52 0.015920 40.967 0.070182 335.00 0.0029851 587.67 627.86 2.1557 2.1720 3.4934 377.52 0.015920 40.967 0.070182
147.38 1978.2 undefined 589.85 630.56 2.1609 335.00 0.0029851 589.85 630.56 2.1609 2.1753 3.4835 379.29 0.015682 40.994 0.070283 335.00 0.0029851 589.85 630.56 2.1609 2.1753 3.4835 379.29 0.015682 40.994 0.070283
148.38 2003.9 undefined 592.02 633.27 2.1660 335.00 0.0029851 592.02 633.27 2.1660 2.1787 3.4739 381.05 0.015447 41.021 0.070384 335.00 0.0029851 592.02 633.27 2.1660 2.1787 3.4739 381.05 0.015447 41.021 0.070384
149.38 2029.6 undefined 594.20 635.98 2.1712 335.00 0.0029851 594.20 635.98 2.1712 2.1821 3.4646 382.80 0.015218 41.047 0.070486 335.00 0.0029851 594.20 635.98 2.1712 2.1821 3.4646 382.80 0.015218 41.047 0.070486
150.38 2055.3 undefined 596.39 638.69 2.1764 335.00 0.0029851 596.39 638.69 2.1764 2.1854 3.4556 384.54 0.014992 41.074 0.070589 335.00 0.0029851 596.39 638.69 2.1764 2.1854 3.4556 384.54 0.014992 41.074 0.070589
151.38 2081.1 undefined 598.57 641.41 2.1815 335.00 0.0029851 598.57 641.41 2.1815 2.1888 3.4469 386.26 0.014771 41.100 0.070692 335.00 0.0029851 598.57 641.41 2.1815 2.1888 3.4469 386.26 0.014771 41.100 0.070692
152.38 2106.8 undefined 600.76 644.13 2.1867 335.00 0.0029851 600.76 644.13 2.1867 2.1922 3.4385 387.98 0.014554 41.127 0.070795 335.00 0.0029851 600.76 644.13 2.1867 2.1922 3.4385 387.98 0.014554 41.127 0.070795
153.38 2132.6 undefined 602.96 646.85 2.1918 335.00 0.0029851 602.96 646.85 2.1918 2.1956 3.4304 389.68 0.014340 41.153 0.070900 335.00 0.0029851 602.96 646.85 2.1918 2.1956 3.4304 389.68 0.014340 41.153 0.070900
154.38 2158.4 undefined 605.16 649.58 2.1970 335.00 0.0029851 605.16 649.58 2.1970 2.1990 3.4226 391.38 0.014131 41.180 0.071004 335.00 0.0029851 605.16 649.58 2.1970 2.1990 3.4226 391.38 0.014131 41.180 0.071004
155.38 2184.2 undefined 607.36 652.31 2.2021 335.00 0.0029851 607.36 652.31 2.2021 2.2024 3.4150 393.06 0.013925 41.206 0.071110 335.00 0.0029851 607.36 652.31 2.2021 2.2024 3.4150 393.06 0.013925 41.206 0.071110
156.38 2210.0 undefined 609.56 655.05 2.2073 335.00 0.0029851 609.56 655.05 2.2073 2.2059 3.4077 394.73 0.013723 41.233 0.071215 335.00 0.0029851 609.56 655.05 2.2073 2.2059 3.4077 394.73 0.013723 41.233 0.071215
157.38 2235.8 undefined 611.77 657.78 2.2124 335.00 0.0029851 611.77 657.78 2.2124 2.2093 3.4006 396.40 0.013524 41.259 0.071322 335.00 0.0029851 611.77 657.78 2.2124 2.2093 3.4006 396.40 0.013524 41.259 0.071322
158.38 2261.6 undefined 613.98 660.53 2.2175 335.00 0.0029851 613.98 660.53 2.2175 2.2128 3.3937 398.05 0.013329 41.286 0.071428 335.00 0.0029851 613.98 660.53 2.2175 2.2128 3.3937 398.05 0.013329 41.286 0.071428
159.38 2287.5 undefined 616.19 663.27 2.2226 335.00 0.0029851 616.19 663.27 2.2226 2.2162 3.3871 399.70 0.013137 41.312 0.071536 335.00 0.0029851 616.19 663.27 2.2226 2.2162 3.3871 399.70 0.013137 41.312 0.071536
160.38 2313.3 undefined 618.41 666.02 2.2278 335.00 0.0029851 618.41 666.02 2.2278 2.2197 3.3807 401.33 0.012948 41.339 0.071643 335.00 0.0029851 618.41 666.02 2.2278 2.2197 3.3807 401.33 0.012948 41.339 0.071643
161.38 2339.2 undefined 620.63 668.78 2.2329 335.00 0.0029851 620.63 668.78 2.2329 2.2231 3.3745 402.96 0.012763 41.365 0.071752 335.00 0.0029851 620.63 668.78 2.2329 2.2231 3.3745 402.96 0.012763 41.365 0.071752
162.38 2365.1 undefined 622.86 671.53 2.2380 335.00 0.0029851 622.86 671.53 2.2380 2.2266 3.3685 404.58 0.012581 41.391 0.071860 335.00 0.0029851 622.86 671.53 2.2380 2.2266 3.3685 404.58 0.012581 41.391 0.071860
163.38 2390.9 undefined 625.09 674.30 2.2431 335.00 0.0029851 625.09 674.30 2.2431 2.2301 3.3627 406.19 0.012401 41.418 0.071969 335.00 0.0029851 625.09 674.30 2.2431 2.2301 3.3627 406.19 0.012401 41.418 0.071969
164.38 2416.8 undefined 627.32 677.06 2.2482 335.00 0.0029851 627.32 677.06 2.2482 2.2336 3.3571 407.79 0.012225 41.444 0.072079 335.00 0.0029851 627.32 677.06 2.2482 2.2336 3.3571 407.79 0.012225 41.444 0.072079
165.38 2442.7 undefined 629.55 679.83 2.2533 335.00 0.0029851 629.55 679.83 2.2533 2.2371 3.3516 409.38 0.012052 41.470 0.072189 335.00 0.0029851 629.55 679.83 2.2533 2.2371 3.3516 409.38 0.012052 41.470 0.072189
166.38 2468.6 undefined 631.79 682.60 2.2584 335.00 0.0029851 631.79 682.60 2.2584 2.2405 3.3464 410.97 0.011881 41.497 0.072299 335.00 0.0029851 631.79 682.60 2.2584 2.2405 3.3464 410.97 0.011881 41.497 0.072299
167.38 2494.6 undefined 634.03 685.38 2.2635 335.00 0.0029851 634.03 685.38 2.2635 2.2440 3.3413 412.54 0.011713 41.523 0.072410 335.00 0.0029851 634.03 685.38 2.2635 2.2440 3.3413 412.54 0.011713 41.523 0.072410
168.38 2520.5 undefined 636.28 688.16 2.2686 335.00 0.0029851 636.28 688.16 2.2686 2.2475 3.3364 414.11 0.011548 41.549 0.072522 335.00 0.0029851 636.28 688.16 2.2686 2.2475 3.3364 414.11 0.011548 41.549 0.072522
169.38 2546.4 undefined 638.53 690.94 2.2737 335.00 0.0029851 638.53 690.94 2.2737 2.2510 3.3317 415.67 0.011386 41.575 0.072633 335.00 0.0029851 638.53 690.94 2.2737 2.2510 3.3317 415.67 0.011386 41.575 0.072633
170.38 2572.4 undefined 640.78 693.73 2.2788 335.00 0.0029851 640.78 693.73 2.2788 2.2546 3.3271 417.22 0.011226 41.601 0.072746 335.00 0.0029851 640.78 693.73 2.2788 2.2546 3.3271 417.22 0.011226 41.601 0.072746
171.38 2598.3 undefined 643.04 696.52 2.2839 335.00 0.0029851 643.04 696.52 2.2839 2.2581 3.3227 418.77 0.011069 41.628 0.072858 335.00 0.0029851 643.04 696.52 2.2839 2.2581 3.3227 418.77 0.011069 41.628 0.072858
172.38 2624.3 undefined 645.30 699.31 2.2889 335.00 0.0029851 645.30 699.31 2.2889 2.2616 3.3184 420.30 0.010914 41.654 0.072971 335.00 0.0029851 645.30 699.31 2.2889 2.2616 3.3184 420.30 0.010914 41.654 0.072971
173.38 2650.3 undefined 647.56 702.11 2.2940 335.00 0.0029851 647.56 702.11 2.2940 2.2651 3.3143 421.83 0.010761 41.680 0.073085 335.00 0.0029851 647.56 702.11 2.2940 2.2651 3.3143 421.83 0.010761 41.680 0.073085
174.38 2676.2 undefined 649.83 704.91 2.2991 335.00 0.0029851 649.83 704.91 2.2991 2.2686 3.3103 423.35 0.010611 41.706 0.073198 335.00 0.0029851 649.83 704.91 2.2991 2.2686 3.3103 423.35 0.010611 41.706 0.073198
175.38 2702.2 undefined 652.10 707.72 2.3042 335.00 0.0029851 652.10 707.72 2.3042 2.2721 3.3064 424.87 0.010463 41.732 0.073313 335.00 0.0029851 652.10 707.72 2.3042 2.2721 3.3064 424.87 0.010463 41.732 0.073313
176.38 2728.2 undefined 654.37 710.52 2.3092 335.00 0.0029851 654.37 710.52 2.3092 2.2757 3.3027 426.38 0.010317 41.758 0.073427 335.00 0.0029851 654.37 710.52 2.3092 2.2757 3.3027 426.38 0.010317 41.758 0.073427
177.38 2754.2 undefined 656.65 713.34 2.3143 335.00 0.0029851 656.65 713.34 2.3143 2.2792 3.2991 427.88 0.010174 41.784 0.073542 335.00 0.0029851 656.65 713.34 2.3143 2.2792 3.2991 427.88 0.010174 41.784 0.073542
178.38 2780.2 undefined 658.93 716.15 2.3193 335.00 0.0029851 658.93 716.15 2.3193 2.2827 3.2956 429.37 0.010033 41.810 0.073658 335.00 0.0029851 658.93 716.15 2.3193 2.2827 3.2956 429.37 0.010033 41.810 0.073658
179.38 2806.2 undefined 661.22 718.97 2.3244 335.00 0.0029851 661.22 718.97 2.3244 2.2863 3.2923 430.86 0.0098935 41.836 0.073773 335.00 0.0029851 661.22 718.97 2.3244 2.2863 3.2923 430.86 0.0098935 41.836 0.073773
180.38 2832.2 undefined 663.50 721.80 2.3294 335.00 0.0029851 663.50 721.80 2.3294 2.2898 3.2891 432.34 0.0097564 41.862 0.073890 335.00 0.0029851 663.50 721.80 2.3294 2.2898 3.2891 432.34 0.0097564 41.862 0.073890
181.38 2858.3 undefined 665.80 724.62 2.3345 335.00 0.0029851 665.80 724.62 2.3345 2.2933 3.2859 433.81 0.0096213 41.888 0.074006 335.00 0.0029851 665.80 724.62 2.3345 2.2933 3.2859 433.81 0.0096213 41.888 0.074006
182.38 2884.3 undefined 668.09 727.45 2.3395 335.00 0.0029851 668.09 727.45 2.3395 2.2969 3.2829 435.28 0.0094881 41.914 0.074123 335.00 0.0029851 668.09 727.45 2.3395 2.2969 3.2829 435.28 0.0094881 41.914 0.074123
183.38 2910.3 undefined 670.39 730.29 2.3446 335.00 0.0029851 670.39 730.29 2.3446 2.3004 3.2801 436.74 0.0093569 41.940 0.074240 335.00 0.0029851 670.39 730.29 2.3446 2.3004 3.2801 436.74 0.0093569 41.940 0.074240
184.38 2936.3 undefined 672.69 733.13 2.3496 335.00 0.0029851 672.69 733.13 2.3496 2.3040 3.2773 438.19 0.0092276 41.966 0.074358 335.00 0.0029851 672.69 733.13 2.3496 2.3040 3.2773 438.19 0.0092276 41.966 0.074358
185.38 2962.4 undefined 675.00 735.97 2.3546 335.00 0.0029851 675.00 735.97 2.3546 2.3075 3.2746 439.64 0.0091002 41.992 0.074476 335.00 0.0029851 675.00 735.97 2.3546 2.3075 3.2746 439.64 0.0091002 41.992 0.074476
186.38 2988.4 undefined 677.31 738.81 2.3597 335.00 0.0029851 677.31 738.81 2.3597 2.3110 3.2720 441.08 0.0089746 42.018 0.074595 335.00 0.0029851 677.31 738.81 2.3597 2.3110 3.2720 441.08 0.0089746 42.018 0.074595
187.38 3014.5 undefined 679.62 741.66 2.3647 335.00 0.0029851 679.62 741.66 2.3647 2.3146 3.2695 442.51 0.0088507 42.044 0.074713 335.00 0.0029851 679.62 741.66 2.3647 2.3146 3.2695 442.51 0.0088507 42.044 0.074713
188.38 3040.5 undefined 681.94 744.51 2.3697 335.00 0.0029851 681.94 744.51 2.3697 2.3181 3.2671 443.94 0.0087287 42.070 0.074833 335.00 0.0029851 681.94 744.51 2.3697 2.3181 3.2671 443.94 0.0087287 42.070 0.074833
189.38 3066.6 undefined 684.26 747.37 2.3747 335.00 0.0029851 684.26 747.37 2.3747 2.3217 3.2648 445.36 0.0086083 42.095 0.074952 335.00 0.0029851 684.26 747.37 2.3747 2.3217 3.2648 445.36 0.0086083 42.095 0.074952
190.38 3092.6 undefined 686.58 750.23 2.3798 335.00 0.0029851 686.58 750.23 2.3798 2.3252 3.2626 446.78 0.0084896 42.121 0.075072 335.00 0.0029851 686.58 750.23 2.3798 2.3252 3.2626 446.78 0.0084896 42.121 0.075072
191.38 3118.7 undefined 688.91 753.09 2.3848 335.00 0.0029851 688.91 753.09 2.3848 2.3288 3.2605 448.19 0.0083725 42.147 0.075192 335.00 0.0029851 688.91 753.09 2.3848 2.3288 3.2605 448.19 0.0083725 42.147 0.075192
192.38 3144.8 undefined 691.24 755.96 2.3898 335.00 0.0029851 691.24 755.96 2.3898 2.3323 3.2585 449.59 0.0082571 42.173 0.075313 335.00 0.0029851 691.24 755.96 2.3898 2.3323 3.2585 449.59 0.0082571 42.173 0.075313
193.38 3170.8 undefined 693.57 758.83 2.3948 335.00 0.0029851 693.57 758.83 2.3948 2.3359 3.2566 450.99 0.0081432 42.198 0.075434 335.00 0.0029851 693.57 758.83 2.3948 2.3359 3.2566 450.99 0.0081432 42.198 0.075434
194.38 3196.9 undefined 695.91 761.71 2.3998 335.00 0.0029851 695.91 761.71 2.3998 2.3394 3.2547 452.39 0.0080309 42.224 0.075555 335.00 0.0029851 695.91 761.71 2.3998 2.3394 3.2547 452.39 0.0080309 42.224 0.075555
195.38 3223.0 undefined 698.25 764.58 2.4048 335.00 0.0029851 698.25 764.58 2.4048 2.3430 3.2529 453.77 0.0079201 42.250 0.075676 335.00 0.0029851 698.25 764.58 2.4048 2.3430 3.2529 453.77 0.0079201 42.250 0.075676
196.38 3249.1 undefined 700.59 767.46 2.4098 335.00 0.0029851 700.59 767.46 2.4098 2.3465 3.2512 455.16 0.0078108 42.276 0.075798 335.00 0.0029851 700.59 767.46 2.4098 2.3465 3.2512 455.16 0.0078108 42.276 0.075798
197.38 3275.1 undefined 702.94 770.35 2.4148 335.00 0.0029851 702.94 770.35 2.4148 2.3501 3.2496 456.53 0.0077030 42.301 0.075921 335.00 0.0029851 702.94 770.35 2.4148 2.3501 3.2496 456.53 0.0077030 42.301 0.075921
198.38 3301.2 undefined 705.29 773.24 2.4198 335.00 0.0029851 705.29 773.24 2.4198 2.3536 3.2480 457.90 0.0075966 42.327 0.076043 335.00 0.0029851 705.29 773.24 2.4198 2.3536 3.2480 457.90 0.0075966 42.327 0.076043
199.38 3327.3 undefined 707.65 776.13 2.4248 335.00 0.0029851 707.65 776.13 2.4248 2.3572 3.2466 459.27 0.0074916 42.352 0.076166 335.00 0.0029851 707.65 776.13 2.4248 2.3572 3.2466 459.27 0.0074916 42.352 0.076166
200.38 3353.4 undefined 710.01 779.03 2.4298 335.00 0.0029851 710.01 779.03 2.4298 2.3608 3.2452 460.63 0.0073880 42.378 0.076289 335.00 0.0029851 710.01 779.03 2.4298 2.3608 3.2452 460.63 0.0073880 42.378 0.076289
201.38 3379.5 undefined 712.37 781.93 2.4348 335.00 0.0029851 712.37 781.93 2.4348 2.3643 3.2438 461.98 0.0072858 42.404 0.076413 335.00 0.0029851 712.37 781.93 2.4348 2.3643 3.2438 461.98 0.0072858 42.404 0.076413
202.38 3405.6 undefined 714.74 784.83 2.4397 335.00 0.0029851 714.74 784.83 2.4397 2.3679 3.2426 463.33 0.0071849 42.429 0.076537 335.00 0.0029851 714.74 784.83 2.4397 2.3679 3.2426 463.33 0.0071849 42.429 0.076537
203.38 3431.7 undefined 717.11 787.74 2.4447 335.00 0.0029851 717.11 787.74 2.4447 2.3714 3.2414 464.68 0.0070853 42.455 0.076661 335.00 0.0029851 717.11 787.74 2.4447 2.3714 3.2414 464.68 0.0070853 42.455 0.076661
204.38 3457.8 undefined 719.48 790.65 2.4497 335.00 0.0029851 719.48 790.65 2.4497 2.3750 3.2402 466.02 0.0069870 42.480 0.076786 335.00 0.0029851 719.48 790.65 2.4497 2.3750 3.2402 466.02 0.0069870 42.480 0.076786
205.38 3483.9 undefined 721.86 793.56 2.4547 335.00 0.0029851 721.86 793.56 2.4547 2.3785 3.2391 467.35 0.0068900 42.506 0.076911 335.00 0.0029851 721.86 793.56 2.4547 2.3785 3.2391 467.35 0.0068900 42.506 0.076911
206.38 3510.0 undefined 724.24 796.48 2.4596 335.00 0.0029851 724.24 796.48 2.4596 2.3821 3.2381 468.68 0.0067942 42.531 0.077036 335.00 0.0029851 724.24 796.48 2.4596 2.3821 3.2381 468.68 0.0067942 42.531 0.077036
207.38 3536.1 undefined 726.62 799.40 2.4646 335.00 0.0029851 726.62 799.40 2.4646 2.3856 3.2372 470.00 0.0066997 42.557 0.077161 335.00 0.0029851 726.62 799.40 2.4646 2.3856 3.2372 470.00 0.0066997 42.557 0.077161
208.38 3562.2 undefined 729.01 802.32 2.4696 335.00 0.0029851 729.01 802.32 2.4696 2.3892 3.2363 471.32 0.0066063 42.582 0.077287 335.00 0.0029851 729.01 802.32 2.4696 2.3892 3.2363 471.32 0.0066063 42.582 0.077287
209.38 3588.3 undefined 731.40 805.25 2.4745 335.00 0.0029851 731.40 805.25 2.4745 2.3927 3.2355 472.64 0.0065141 42.608 0.077413 335.00 0.0029851 731.40 805.25 2.4745 2.3927 3.2355 472.64 0.0065141 42.608 0.077413
210.38 3614.3 undefined 733.79 808.18 2.4795 335.00 0.0029851 733.79 808.18 2.4795 2.3963 3.2347 473.95 0.0064231 42.633 0.077540 335.00 0.0029851 733.79 808.18 2.4795 2.3963 3.2347 473.95 0.0064231 42.633 0.077540
211.38 3640.4 undefined 736.19 811.12 2.4844 335.00 0.0029851 736.19 811.12 2.4844 2.3998 3.2340 475.25 0.0063332 42.658 0.077667 335.00 0.0029851 736.19 811.12 2.4844 2.3998 3.2340 475.25 0.0063332 42.658 0.077667
212.38 3666.5 undefined 738.59 814.06 2.4894 335.00 0.0029851 738.59 814.06 2.4894 2.4034 3.2333 476.55 0.0062444 42.684 0.077794 335.00 0.0029851 738.59 814.06 2.4894 2.4034 3.2333 476.55 0.0062444 42.684 0.077794
213.38 3692.6 undefined 741.00 817.00 2.4943 335.00 0.0029851 741.00 817.00 2.4943 2.4069 3.2327 477.85 0.0061567 42.709 0.077921 335.00 0.0029851 741.00 817.00 2.4943 2.4069 3.2327 477.85 0.0061567 42.709 0.077921
214.38 3718.7 undefined 743.41 819.94 2.4993 335.00 0.0029851 743.41 819.94 2.4993 2.4105 3.2321 479.14 0.0060701 42.734 0.078049 335.00 0.0029851 743.41 819.94 2.4993 2.4105 3.2321 479.14 0.0060701 42.734 0.078049
215.38 3744.8 undefined 745.82 822.89 2.5042 335.00 0.0029851 745.82 822.89 2.5042 2.4140 3.2316 480.43 0.0059846 42.760 0.078177 335.00 0.0029851 745.82 822.89 2.5042 2.4140 3.2316 480.43 0.0059846 42.760 0.078177
216.38 3770.9 undefined 748.24 825.85 2.5092 335.00 0.0029851 748.24 825.85 2.5092 2.4176 3.2312 481.71 0.0059001 42.785 0.078305 335.00 0.0029851 748.24 825.85 2.5092 2.4176 3.2312 481.71 0.0059001 42.785 0.078305
217.38 3797.0 undefined 750.66 828.80 2.5141 335.00 0.0029851 750.66 828.80 2.5141 2.4211 3.2307 482.99 0.0058166 42.810 0.078434 335.00 0.0029851 750.66 828.80 2.5141 2.4211 3.2307 482.99 0.0058166 42.810 0.078434
218.38 3823.1 undefined 753.08 831.76 2.5190 335.00 0.0029851 753.08 831.76 2.5190 2.4246 3.2304 484.26 0.0057342 42.835 0.078563 335.00 0.0029851 753.08 831.76 2.5190 2.4246 3.2304 484.26 0.0057342 42.835 0.078563
219.38 3849.2 undefined 755.50 834.73 2.5240 335.00 0.0029851 755.50 834.73 2.5240 2.4282 3.2301 485.53 0.0056527 42.861 0.078692 335.00 0.0029851 755.50 834.73 2.5240 2.4282 3.2301 485.53 0.0056527 42.861 0.078692
220.38 3875.3 undefined 757.93 837.69 2.5289 335.00 0.0029851 757.93 837.69 2.5289 2.4317 3.2298 486.79 0.0055723 42.886 0.078821 335.00 0.0029851 757.93 837.69 2.5289 2.4317 3.2298 486.79 0.0055723 42.886 0.078821
221.38 3901.4 undefined 760.37 840.67 2.5338 335.00 0.0029851 760.37 840.67 2.5338 2.4353 3.2296 488.05 0.0054927 42.911 0.078951 335.00 0.0029851 760.37 840.67 2.5338 2.4353 3.2296 488.05 0.0054927 42.911 0.078951
222.38 3927.5 undefined 762.81 843.64 2.5387 335.00 0.0029851 762.81 843.64 2.5387 2.4388 3.2294 489.31 0.0054142 42.936 0.079081 335.00 0.0029851 762.81 843.64 2.5387 2.4388 3.2294 489.31 0.0054142 42.936 0.079081
223.38 3953.6 undefined 765.25 846.62 2.5437 335.00 0.0029851 765.25 846.62 2.5437 2.4423 3.2293 490.56 0.0053365 42.961 0.079212 335.00 0.0029851 765.25 846.62 2.5437 2.4423 3.2293 490.56 0.0053365 42.961 0.079212
224.38 3979.7 undefined 767.69 849.60 2.5486 335.00 0.0029851 767.69 849.60 2.5486 2.4459 3.2292 491.81 0.0052598 42.986 0.079342 335.00 0.0029851 767.69 849.60 2.5486 2.4459 3.2292 491.81 0.0052598 42.986 0.079342
225.38 4005.8 undefined 770.14 852.58 2.5535 335.00 0.0029851 770.14 852.58 2.5535 2.4494 3.2291 493.05 0.0051840 43.011 0.079473 335.00 0.0029851 770.14 852.58 2.5535 2.4494 3.2291 493.05 0.0051840 43.011 0.079473
226.38 4031.9 undefined 772.59 855.57 2.5584 335.00 0.0029851 772.59 855.57 2.5584 2.4530 3.2291 494.29 0.0051091 43.037 0.079604 335.00 0.0029851 772.59 855.57 2.5584 2.4530 3.2291 494.29 0.0051091 43.037 0.079604
227.38 4058.0 undefined 775.04 858.56 2.5633 335.00 0.0029851 775.04 858.56 2.5633 2.4565 3.2291 495.52 0.0050350 43.062 0.079736 335.00 0.0029851 775.04 858.56 2.5633 2.4565 3.2291 495.52 0.0050350 43.062 0.079736
228.38 4084.1 undefined 777.50 861.56 2.5682 335.00 0.0029851 777.50 861.56 2.5682 2.4600 3.2292 496.75 0.0049618 43.087 0.079867 335.00 0.0029851 777.50 861.56 2.5682 2.4600 3.2292 496.75 0.0049618 43.087 0.079867
229.38 4110.2 undefined 779.96 864.56 2.5731 335.00 0.0029851 779.96 864.56 2.5731 2.4635 3.2293 497.98 0.0048895 43.112 0.080000 335.00 0.0029851 779.96 864.56 2.5731 2.4635 3.2293 497.98 0.0048895 43.112 0.080000
230.38 4136.3 undefined 782.43 867.56 2.5780 335.00 0.0029851 782.43 867.56 2.5780 2.4671 3.2294 499.20 0.0048179 43.137 0.080132 335.00 0.0029851 782.43 867.56 2.5780 2.4671 3.2294 499.20 0.0048179 43.137 0.080132
231.38 4162.4 undefined 784.90 870.56 2.5829 335.00 0.0029851 784.90 870.56 2.5829 2.4706 3.2296 500.42 0.0047472 43.162 0.080264 335.00 0.0029851 784.90 870.56 2.5829 2.4706 3.2296 500.42 0.0047472 43.162 0.080264
232.38 4188.4 undefined 787.37 873.57 2.5878 335.00 0.0029851 787.37 873.57 2.5878 2.4741 3.2298 501.64 0.0046773 43.187 0.080397 335.00 0.0029851 787.37 873.57 2.5878 2.4741 3.2298 501.64 0.0046773 43.187 0.080397
233.38 4214.5 undefined 789.85 876.59 2.5927 335.00 0.0029851 789.85 876.59 2.5927 2.4776 3.2301 502.85 0.0046082 43.211 0.080530 335.00 0.0029851 789.85 876.59 2.5927 2.4776 3.2301 502.85 0.0046082 43.211 0.080530
234.38 4240.6 undefined 792.33 879.60 2.5976 335.00 0.0029851 792.33 879.60 2.5976 2.4812 3.2304 504.06 0.0045399 43.236 0.080664 335.00 0.0029851 792.33 879.60 2.5976 2.4812 3.2304 504.06 0.0045399 43.236 0.080664
235.38 4266.7 undefined 794.81 882.62 2.6025 335.00 0.0029851 794.81 882.62 2.6025 2.4847 3.2307 505.26 0.0044724 43.261 0.080797 335.00 0.0029851 794.81 882.62 2.6025 2.4847 3.2307 505.26 0.0044724 43.261 0.080797
236.38 4292.8 undefined 797.29 885.65 2.6074 335.00 0.0029851 797.29 885.65 2.6074 2.4882 3.2310 506.46 0.0044056 43.286 0.080931 335.00 0.0029851 797.29 885.65 2.6074 2.4882 3.2310 506.46 0.0044056 43.286 0.080931
237.38 4318.8 undefined 799.78 888.67 2.6123 335.00 0.0029851 799.78 888.67 2.6123 2.4917 3.2314 507.66 0.0043396 43.311 0.081065 335.00 0.0029851 799.78 888.67 2.6123 2.4917 3.2314 507.66 0.0043396 43.311 0.081065
238.38 4344.9 undefined 802.28 891.70 2.6171 335.00 0.0029851 802.28 891.70 2.6171 2.4952 3.2318 508.85 0.0042743 43.336 0.081199 335.00 0.0029851 802.28 891.70 2.6171 2.4952 3.2318 508.85 0.0042743 43.336 0.081199
239.38 4371.0 undefined 804.77 894.74 2.6220 335.00 0.0029851 804.77 894.74 2.6220 2.4987 3.2323 510.04 0.0042097 43.361 0.081334 335.00 0.0029851 804.77 894.74 2.6220 2.4987 3.2323 510.04 0.0042097 43.361 0.081334
240.38 4397.0 undefined 807.28 897.77 2.6269 335.00 0.0029851 807.28 897.77 2.6269 2.5023 3.2328 511.22 0.0041459 43.385 0.081469 335.00 0.0029851 807.28 897.77 2.6269 2.5023 3.2328 511.22 0.0041459 43.385 0.081469
241.38 4423.1 undefined 809.78 900.81 2.6318 335.00 0.0029851 809.78 900.81 2.6318 2.5058 3.2333 512.41 0.0040827 43.410 0.081604 335.00 0.0029851 809.78 900.81 2.6318 2.5058 3.2333 512.41 0.0040827 43.410 0.081604
242.38 4449.2 undefined 812.29 903.86 2.6366 335.00 0.0029851 812.29 903.86 2.6366 2.5093 3.2338 513.58 0.0040203 43.435 0.081739 335.00 0.0029851 812.29 903.86 2.6366 2.5093 3.2338 513.58 0.0040203 43.435 0.081739
243.38 4475.2 undefined 814.80 906.90 2.6415 335.00 0.0029851 814.80 906.90 2.6415 2.5128 3.2344 514.76 0.0039585 43.460 0.081875 335.00 0.0029851 814.80 906.90 2.6415 2.5128 3.2344 514.76 0.0039585 43.460 0.081875
244.38 4501.3 undefined 817.31 909.95 2.6464 335.00 0.0029851 817.31 909.95 2.6464 2.5163 3.2350 515.93 0.0038974 43.484 0.082010 335.00 0.0029851 817.31 909.95 2.6464 2.5163 3.2350 515.93 0.0038974 43.484 0.082010
245.38 4527.3 undefined 819.83 913.01 2.6512 335.00 0.0029851 819.83 913.01 2.6512 2.5198 3.2356 517.10 0.0038370 43.509 0.082146 335.00 0.0029851 819.83 913.01 2.6512 2.5198 3.2356 517.10 0.0038370 43.509 0.082146
246.38 4553.4 undefined 822.35 916.07 2.6561 335.00 0.0029851 822.35 916.07 2.6561 2.5233 3.2363 518.26 0.0037772 43.534 0.082283 335.00 0.0029851 822.35 916.07 2.6561 2.5233 3.2363 518.26 0.0037772 43.534 0.082283
247.38 4579.4 undefined 824.88 919.13 2.6609 335.00 0.0029851 824.88 919.13 2.6609 2.5268 3.2369 519.42 0.0037181 43.558 0.082419 335.00 0.0029851 824.88 919.13 2.6609 2.5268 3.2369 519.42 0.0037181 43.558 0.082419
248.38 4605.5 undefined 827.41 922.19 2.6658 335.00 0.0029851 827.41 922.19 2.6658 2.5303 3.2377 520.58 0.0036596 43.583 0.082556 335.00 0.0029851 827.41 922.19 2.6658 2.5303 3.2377 520.58 0.0036596 43.583 0.082556
249.38 4631.5 undefined 829.94 925.26 2.6706 335.00 0.0029851 829.94 925.26 2.6706 2.5337 3.2384 521.73 0.0036017 43.607 0.082692 335.00 0.0029851 829.94 925.26 2.6706 2.5337 3.2384 521.73 0.0036017 43.607 0.082692
250.38 4657.5 undefined 832.47 928.33 2.6755 335.00 0.0029851 832.47 928.33 2.6755 2.5372 3.2392 522.88 0.0035445 43.632 0.082829 335.00 0.0029851 832.47 928.33 2.6755 2.5372 3.2392 522.88 0.0035445 43.632 0.082829
251.38 4683.6 undefined 835.01 931.41 2.6803 335.00 0.0029851 835.01 931.41 2.6803 2.5407 3.2399 524.03 0.0034879 43.657 0.082966 335.00 0.0029851 835.01 931.41 2.6803 2.5407 3.2399 524.03 0.0034879 43.657 0.082966
252.38 4709.6 undefined 837.55 934.48 2.6852 335.00 0.0029851 837.55 934.48 2.6852 2.5442 3.2407 525.17 0.0034318 43.681 0.083104 335.00 0.0029851 837.55 934.48 2.6852 2.5442 3.2407 525.17 0.0034318 43.681 0.083104
253.38 4735.6 undefined 840.10 937.57 2.6900 335.00 0.0029851 840.10 937.57 2.6900 2.5477 3.2416 526.32 0.0033764 43.706 0.083241 335.00 0.0029851 840.10 937.57 2.6900 2.5477 3.2416 526.32 0.0033764 43.706 0.083241
254.38 4761.7 undefined 842.65 940.65 2.6949 335.00 0.0029851 842.65 940.65 2.6949 2.5512 3.2424 527.45 0.0033215 43.730 0.083379 335.00 0.0029851 842.65 940.65 2.6949 2.5512 3.2424 527.45 0.0033215 43.730 0.083379
255.38 4787.7 undefined 845.20 943.74 2.6997 335.00 0.0029851 845.20 943.74 2.6997 2.5546 3.2433 528.59 0.0032673 43.755 0.083517 335.00 0.0029851 845.20 943.74 2.6997 2.5546 3.2433 528.59 0.0032673 43.755 0.083517
256.38 4813.7 undefined 847.76 946.83 2.7045 335.00 0.0029851 847.76 946.83 2.7045 2.5581 3.2442 529.72 0.0032136 43.779 0.083655 335.00 0.0029851 847.76 946.83 2.7045 2.5581 3.2442 529.72 0.0032136 43.779 0.083655
257.38 4839.7 undefined 850.32 949.93 2.7093 335.00 0.0029851 850.32 949.93 2.7093 2.5616 3.2452 530.85 0.0031604 43.803 0.083802 335.00 0.0029851 850.32 949.93 2.7093 2.5616 3.2452 530.85 0.0031604 43.803 0.083802
258.38 4865.7 undefined 852.88 953.03 2.7142 335.00 0.0029851 852.88 953.03 2.7142 2.5651 3.2461 531.97 0.0031078 43.828 0.083952 335.00 0.0029851 852.88 953.03 2.7142 2.5651 3.2461 531.97 0.0031078 43.828 0.083952
259.38 4891.7 undefined 855.45 956.13 2.7190 335.00 0.0029851 855.45 956.13 2.7190 2.5685 3.2471 533.09 0.0030558 43.852 0.084102 335.00 0.0029851 855.45 956.13 2.7190 2.5685 3.2471 533.09 0.0030558 43.852 0.084102
260.38 4917.7 undefined 858.02 959.23 2.7238 335.00 0.0029851 858.02 959.23 2.7238 2.5720 3.2481 534.21 0.0030043 43.877 0.084253 335.00 0.0029851 858.02 959.23 2.7238 2.5720 3.2481 534.21 0.0030043 43.877 0.084253
261.38 4943.7 undefined 860.59 962.34 2.7286 335.00 0.0029851 860.59 962.34 2.7286 2.5755 3.2491 535.33 0.0029533 43.901 0.084404 335.00 0.0029851 860.59 962.34 2.7286 2.5755 3.2491 535.33 0.0029533 43.901 0.084404
262.38 4969.7 undefined 863.17 965.45 2.7335 335.00 0.0029851 863.17 965.45 2.7335 2.5789 3.2501 536.44 0.0029029 43.925 0.084555 335.00 0.0029851 863.17 965.45 2.7335 2.5789 3.2501 536.44 0.0029029 43.925 0.084555
263.38 4995.7 undefined 865.75 968.57 2.7383 335.00 0.0029851 865.75 968.57 2.7383 2.5824 3.2512 537.55 0.0028530 43.950 0.084706 335.00 0.0029851 865.75 968.57 2.7383 2.5824 3.2512 537.55 0.0028530 43.950 0.084706
264.38 5021.7 undefined 868.34 971.69 2.7431 335.00 0.0029851 868.34 971.69 2.7431 2.5858 3.2523 538.66 0.0028035 43.974 0.084858 335.00 0.0029851 868.34 971.69 2.7431 2.5858 3.2523 538.66 0.0028035 43.974 0.084858
265.38 5047.7 undefined 870.92 974.81 2.7479 335.00 0.0029851 870.92 974.81 2.7479 2.5893 3.2534 539.76 0.0027546 43.998 0.085010 335.00 0.0029851 870.92 974.81 2.7479 2.5893 3.2534 539.76 0.0027546 43.998 0.085010
266.38 5073.7 undefined 873.51 977.94 2.7527 335.00 0.0029851 873.51 977.94 2.7527 2.5927 3.2545 540.86 0.0027062 44.022 0.085162 335.00 0.0029851 873.51 977.94 2.7527 2.5927 3.2545 540.86 0.0027062 44.022 0.085162
267.38 5099.6 undefined 876.11 981.07 2.7575 335.00 0.0029851 876.11 981.07 2.7575 2.5962 3.2556 541.96 0.0026583 44.047 0.085314 335.00 0.0029851 876.11 981.07 2.7575 2.5962 3.2556 541.96 0.0026583 44.047 0.085314
268.38 5125.6 undefined 878.71 984.20 2.7623 335.00 0.0029851 878.71 984.20 2.7623 2.5996 3.2568 543.05 0.0026108 44.071 0.085467 335.00 0.0029851 878.71 984.20 2.7623 2.5996 3.2568 543.05 0.0026108 44.071 0.085467
269.38 5151.6 undefined 881.31 987.33 2.7671 335.00 0.0029851 881.31 987.33 2.7671 2.6031 3.2579 544.15 0.0025639 44.095 0.085620 335.00 0.0029851 881.31 987.33 2.7671 2.6031 3.2579 544.15 0.0025639 44.095 0.085620
270.38 5177.5 undefined 883.91 990.47 2.7719 335.00 0.0029851 883.91 990.47 2.7719 2.6065 3.2591 545.23 0.0025174 44.119 0.085774 335.00 0.0029851 883.91 990.47 2.7719 2.6065 3.2591 545.23 0.0025174 44.119 0.085774
271.38 5203.5 undefined 886.52 993.62 2.7767 335.00 0.0029851 886.52 993.62 2.7767 2.6099 3.2603 546.32 0.0024714 44.143 0.085927 335.00 0.0029851 886.52 993.62 2.7767 2.6099 3.2603 546.32 0.0024714 44.143 0.085927
272.38 5229.4 undefined 889.13 996.76 2.7815 335.00 0.0029851 889.13 996.76 2.7815 2.6134 3.2616 547.40 0.0024258 44.167 0.086081 335.00 0.0029851 889.13 996.76 2.7815 2.6134 3.2616 547.40 0.0024258 44.167 0.086081
273.38 5255.4 undefined 891.75 999.91 2.7863 335.00 0.0029851 891.75 999.91 2.7863 2.6168 3.2628 548.49 0.0023807 44.191 0.086236 335.00 0.0029851 891.75 999.91 2.7863 2.6168 3.2628 548.49 0.0023807 44.191 0.086236
274.38 5281.3 undefined 894.37 1003.1 2.7911 335.00 0.0029851 894.37 1003.1 2.7911 2.6202 3.2641 549.56 0.0023360 44.216 0.086390 335.00 0.0029851 894.37 1003.1 2.7911 2.6202 3.2641 549.56 0.0023360 44.216 0.086390
275.38 5307.3 undefined 896.99 1006.2 2.7958 335.00 0.0029851 896.99 1006.2 2.7958 2.6236 3.2653 550.64 0.0022918 44.240 0.086545 335.00 0.0029851 896.99 1006.2 2.7958 2.6236 3.2653 550.64 0.0022918 44.240 0.086545
276.38 5333.2 undefined 899.61 1009.4 2.8006 335.00 0.0029851 899.61 1009.4 2.8006 2.6271 3.2666 551.71 0.0022480 44.264 0.086700 335.00 0.0029851 899.61 1009.4 2.8006 2.6271 3.2666 551.71 0.0022480 44.264 0.086700
277.38 5359.1 undefined 902.24 1012.5 2.8054 335.00 0.0029851 902.24 1012.5 2.8054 2.6305 3.2679 552.78 0.0022047 44.288 0.086856 335.00 0.0029851 902.24 1012.5 2.8054 2.6305 3.2679 552.78 0.0022047 44.288 0.086856
278.38 5385.1 undefined 904.87 1015.7 2.8102 335.00 0.0029851 904.87 1015.7 2.8102 2.6339 3.2693 553.85 0.0021618 44.312 0.087011 335.00 0.0029851 904.87 1015.7 2.8102 2.6339 3.2693 553.85 0.0021618 44.312 0.087011
279.38 5411.0 undefined 907.51 1018.9 2.8150 335.00 0.0029851 907.51 1018.9 2.8150 2.6373 3.2706 554.91 0.0021192 44.336 0.087167 335.00 0.0029851 907.51 1018.9 2.8150 2.6373 3.2706 554.91 0.0021192 44.336 0.087167
280.38 5436.9 undefined 910.15 1022.0 2.8197 335.00 0.0029851 910.15 1022.0 2.8197 2.6407 3.2720 555.97 0.0020772 44.359 0.087324 335.00 0.0029851 910.15 1022.0 2.8197 2.6407 3.2720 555.97 0.0020772 44.359 0.087324
281.38 5462.8 undefined 912.79 1025.2 2.8245 335.00 0.0029851 912.79 1025.2 2.8245 2.6441 3.2733 557.03 0.0020355 44.383 0.087480 335.00 0.0029851 912.79 1025.2 2.8245 2.6441 3.2733 557.03 0.0020355 44.383 0.087480
282.38 5488.7 undefined 915.44 1028.4 2.8293 335.00 0.0029851 915.44 1028.4 2.8293 2.6475 3.2747 558.09 0.0019942 44.407 0.087115 335.00 0.0029851 915.44 1028.4 2.8293 2.6475 3.2747 558.09 0.0019942 44.407 0.087115
283.38 5514.6 undefined 918.09 1031.6 2.8340 335.00 0.0029851 918.09 1031.6 2.8340 2.6509 3.2761 559.14 0.0019533 44.431 0.087272 335.00 0.0029851 918.09 1031.6 2.8340 2.6509 3.2761 559.14 0.0019533 44.431 0.087272
284.38 5540.5 undefined 920.74 1034.8 2.8388 335.00 0.0029851 920.74 1034.8 2.8388 2.6543 3.2775 560.20 0.0019128 44.455 0.087428 335.00 0.0029851 920.74 1034.8 2.8388 2.6543 3.2775 560.20 0.0019128 44.455 0.087428
285.38 5566.4 undefined 923.39 1038.0 2.8436 335.00 0.0029851 923.39 1038.0 2.8436 2.6577 3.2789 561.24 0.0018728 44.479 0.087585 335.00 0.0029851 923.39 1038.0 2.8436 2.6577 3.2789 561.24 0.0018728 44.479 0.087585
286.38 5592.3 undefined 926.05 1041.2 2.8483 335.00 0.0029851 926.05 1041.2 2.8483 2.6611 3.2804 562.29 0.0018330 44.503 0.087743 335.00 0.0029851 926.05 1041.2 2.8483 2.6611 3.2804 562.29 0.0018330 44.503 0.087743
287.38 5618.2 undefined 928.72 1044.3 2.8531 335.00 0.0029851 928.72 1044.3 2.8531 2.6645 3.2818 563.33 0.0017937 44.526 0.087900 335.00 0.0029851 928.72 1044.3 2.8531 2.6645 3.2818 563.33 0.0017937 44.526 0.087900
288.38 5644.1 undefined 931.38 1047.5 2.8578 335.00 0.0029851 931.38 1047.5 2.8578 2.6679 3.2833 564.38 0.0017548 44.550 0.088058 335.00 0.0029851 931.38 1047.5 2.8578 2.6679 3.2833 564.38 0.0017548 44.550 0.088058
289.38 5670.0 undefined 934.05 1050.7 2.8626 335.00 0.0029851 934.05 1050.7 2.8626 2.6713 3.2848 565.41 0.0017162 44.574 0.088216 335.00 0.0029851 934.05 1050.7 2.8626 2.6713 3.2848 565.41 0.0017162 44.574 0.088216
290.38 5695.8 undefined 936.73 1054.0 2.8673 335.00 0.0029851 936.73 1054.0 2.8673 2.6746 3.2863 566.45 0.0016780 44.598 0.088375 335.00 0.0029851 936.73 1054.0 2.8673 2.6746 3.2863 566.45 0.0016780 44.598 0.088375
291.38 5721.7 undefined 939.40 1057.2 2.8721 335.00 0.0029851 939.40 1057.2 2.8721 2.6780 3.2878 567.48 0.0016401 44.621 0.088533 335.00 0.0029851 939.40 1057.2 2.8721 2.6780 3.2878 567.48 0.0016401 44.621 0.088533
292.38 5747.6 undefined 942.08 1060.4 2.8768 335.00 0.0029851 942.08 1060.4 2.8768 2.6814 3.2893 568.52 0.0016027 44.645 0.088692 335.00 0.0029851 942.08 1060.4 2.8768 2.6814 3.2893 568.52 0.0016027 44.645 0.088692
293.38 5773.4 undefined 944.76 1063.6 2.8815 335.00 0.0029851 944.76 1063.6 2.8815 2.6848 3.2908 569.54 0.0015655 44.669 0.088851 335.00 0.0029851 944.76 1063.6 2.8815 2.6848 3.2908 569.54 0.0015655 44.669 0.088851
294.38 5799.3 undefined 947.45 1066.8 2.8863 335.00 0.0029851 947.45 1066.8 2.8863 2.6881 3.2924 570.57 0.0015287 44.692 0.089011 335.00 0.0029851 947.45 1066.8 2.8863 2.6881 3.2924 570.57 0.0015287 44.692 0.089011
295.38 5825.1 undefined 950.14 1070.0 2.8910 335.00 0.0029851 950.14 1070.0 2.8910 2.6915 3.2939 571.60 0.0014923 44.716 0.089171 335.00 0.0029851 950.14 1070.0 2.8910 2.6915 3.2939 571.60 0.0014923 44.716 0.089171
296.38 5851.0 undefined 952.83 1073.3 2.8958 335.00 0.0029851 952.83 1073.3 2.8958 2.6948 3.2955 572.62 0.0014562 44.740 0.089331 335.00 0.0029851 952.83 1073.3 2.8958 2.6948 3.2955 572.62 0.0014562 44.740 0.089331
297.38 5876.8 undefined 955.53 1076.5 2.9005 335.00 0.0029851 955.53 1076.5 2.9005 2.6982 3.2971 573.64 0.0014204 44.763 0.089492 335.00 0.0029851 955.53 1076.5 2.9005 2.6982 3.2971 573.64 0.0014204 44.763 0.089492
298.38 5902.6 undefined 958.23 1079.7 2.9052 335.00 0.0029851 958.23 1079.7 2.9052 2.7016 3.2987 574.65 0.0013850 44.787 0.089652 335.00 0.0029851 958.23 1079.7 2.9052 2.7016 3.2987 574.65 0.0013850 44.787 0.089652
299.38 5928.4 undefined 960.93 1082.9 2.9099 335.00 0.0029851 960.93 1082.9 2.9099 2.7049 3.3003 575.67 0.0013499 44.810 0.089813 335.00 0.0029851 960.93 1082.9 2.9099 2.7049 3.3003 575.67 0.0013499 44.810 0.089813
300.38 5954.3 undefined 963.64 1086.2 2.9147 335.00 0.0029851 963.64 1086.2 2.9147 2.7083 3.3019 576.68 0.0013151 44.834 0.089975 335.00 0.0029851 963.64 1086.2 2.9147 2.7083 3.3019 576.68 0.0013151 44.834 0.089975