Temperature (C) Pressure (psia) Quality (l+v) Internal Energy (l+v, kJ/kg) Enthalpy (l+v, kJ/kg) Entropy (l+v, J/g*K) Density (l, kg/m3) Volume (l, m3/kg) Internal Energy (l, kJ/kg) Enthalpy (l, kJ/kg) Entropy (l, J/g*K) Cv (l, J/g*K) Cp (l, J/g*K) Sound Spd. (l, m/s) Joule-Thomson (l, F/psia) Viscosity (l, uPa*s) Therm. Cond. (l, W/m*K) Density (v, kg/m3) Volume (v, m3/kg) Internal Energy (v, kJ/kg) Enthalpy (v, kJ/kg) Entropy (v, J/g*K) Cv (v, J/g*K) Cp (v, J/g*K) Sound Spd. (v, m/s) Joule-Thomson (v, F/psia) Viscosity (v, uPa*s) Therm. Cond. (v, W/m*K)
-187.62 2.4953e-08 2.9027e-10 -196.64 -196.64 -1.3959 733.13 0.0013640 -196.64 -196.64 -1.3959 1.3553 1.9158 2136.4 -0.0077592 10960. 0.20792 1.0669e-08 9.3732e+07 350.13 366.26 5.1858 0.69067 0.87923 143.28 6.1051 2.3259 0.0017061
-186.62 3.7339e-08 4.2930e-10 -194.73 -194.73 -1.3736 732.08 0.0013660 -194.73 -194.73 -1.3736 1.3539 1.9166 2129.6 -0.0077546 10073. 0.20765 1.5780e-08 6.3371e+07 350.82 367.14 5.1200 0.69462 0.88317 144.03 5.9178 2.3534 0.0017533
-185.62 5.5322e-08 6.2874e-10 -192.81 -192.81 -1.3516 731.04 0.0013679 -192.81 -192.81 -1.3516 1.3525 1.9174 2122.9 -0.0077498 9276.1 0.20737 2.3112e-08 4.3267e+07 351.52 368.02 5.0561 0.69857 0.88713 144.77 5.7383 2.3808 0.0018007
-184.62 8.1182e-08 9.1216e-10 -190.89 -190.89 -1.3298 730.00 0.0013699 -190.89 -190.89 -1.3298 1.3513 1.9182 2116.1 -0.0077448 8557.8 0.20708 3.3533e-08 2.9821e+07 352.22 368.91 4.9939 0.70253 0.89108 145.51 5.5662 2.4083 0.0018485
-183.62 1.1803e-07 1.3113e-09 -188.97 -188.97 -1.3083 728.96 0.0013718 -188.97 -188.97 -1.3083 1.3501 1.9191 2109.3 -0.0077395 7909.8 0.20678 4.8211e-08 2.0742e+07 352.92 369.81 4.9333 0.70648 0.89504 146.24 5.4011 2.4357 0.0018965
-182.62 1.7009e-07 1.8686e-09 -187.05 -187.05 -1.2869 727.92 0.0013738 -187.05 -187.05 -1.2869 1.3490 1.9201 2102.5 -0.0077340 7324.3 0.20647 6.8704e-08 1.4555e+07 353.63 370.70 4.8744 0.71043 0.89899 146.97 5.2426 2.4632 0.0019448
-181.62 2.4299e-07 2.6401e-09 -185.13 -185.13 -1.2658 726.88 0.0013757 -185.13 -185.13 -1.2658 1.3480 1.9210 2095.7 -0.0077283 6794.5 0.20616 9.7079e-08 1.0301e+07 354.35 371.60 4.8170 0.71438 0.90294 147.69 5.0904 2.4906 0.0019934
-180.62 3.4425e-07 3.6996e-09 -183.21 -183.21 -1.2450 725.85 0.0013777 -183.21 -183.21 -1.2450 1.3470 1.9220 2088.9 -0.0077225 6314.4 0.20584 1.3605e-07 7.3504e+06 355.06 372.51 4.7612 0.71833 0.90688 148.41 4.9442 2.5181 0.0020423
-179.62 4.8378e-07 5.1433e-09 -181.29 -181.29 -1.2243 724.81 0.0013797 -181.29 -181.29 -1.2243 1.3461 1.9231 2082.0 -0.0077164 5878.8 0.20551 1.8915e-07 5.2868e+06 355.78 373.42 4.7068 0.72227 0.91082 149.13 4.8038 2.5456 0.0020915
-178.62 6.7459e-07 7.0955e-09 -179.37 -179.37 -1.2038 723.78 0.0013816 -179.37 -179.37 -1.2038 1.3453 1.9241 2075.2 -0.0077102 5482.9 0.20517 2.6096e-07 3.8320e+06 356.51 374.33 4.6538 0.72620 0.91475 149.84 4.6688 2.5731 0.0021410
-177.62 9.3358e-07 9.7161e-09 -177.44 -177.44 -1.1836 722.75 0.0013836 -177.44 -177.44 -1.1836 1.3445 1.9252 2068.4 -0.0077039 5122.6 0.20483 3.5737e-07 2.7982e+06 357.23 375.25 4.6022 0.73012 0.91867 150.54 4.5390 2.6005 0.0021907
-176.62 1.2826e-06 1.3209e-08 -175.52 -175.52 -1.1635 721.72 0.0013856 -175.52 -175.52 -1.1635 1.3437 1.9263 2061.5 -0.0076973 4794.1 0.20447 4.8588e-07 2.0581e+06 357.97 376.17 4.5519 0.73403 0.92258 151.25 4.4142 2.6280 0.0022408
-175.62 1.7496e-06 1.7833e-08 -173.59 -173.59 -1.1437 720.69 0.0013876 -173.59 -173.59 -1.1437 1.3430 1.9274 2054.7 -0.0076907 4494.3 0.20411 6.5601e-07 1.5244e+06 358.70 377.09 4.5029 0.73792 0.92648 151.95 4.2941 2.6555 0.0022912
-174.62 2.3705e-06 2.3914e-08 -171.66 -171.66 -1.1240 719.66 0.0013895 -171.66 -171.66 -1.1240 1.3423 1.9286 2047.9 -0.0076838 4220.2 0.20375 8.7976e-07 1.1367e+06 359.44 378.02 4.4551 0.74181 0.93036 152.64 4.1784 2.6830 0.0023418
-173.62 3.1903e-06 3.1859e-08 -169.73 -169.73 -1.1045 718.64 0.0013915 -169.73 -169.73 -1.1045 1.3417 1.9298 2041.0 -0.0076769 3969.3 0.20338 1.1721e-06 8.5314e+05 360.19 378.95 4.4085 0.74568 0.93423 153.33 4.0671 2.7105 0.0023928
-172.62 4.2661e-06 4.2175e-08 -167.80 -167.80 -1.0852 717.61 0.0013935 -167.80 -167.80 -1.0852 1.3411 1.9310 2034.2 -0.0076698 3739.3 0.20300 1.5518e-06 6.4441e+05 360.93 379.89 4.3631 0.74953 0.93809 154.02 3.9599 2.7379 0.0024440
-171.62 5.6692e-06 5.5490e-08 -165.87 -165.87 -1.0661 716.58 0.0013955 -165.87 -165.87 -1.0661 1.3405 1.9322 2027.3 -0.0076625 3528.0 0.20261 2.0419e-06 4.8974e+05 361.69 380.83 4.3188 0.75337 0.94193 154.71 3.8566 2.7654 0.0024955
-170.62 7.4884e-06 7.2576e-08 -163.94 -163.94 -1.0472 715.56 0.0013975 -163.94 -163.94 -1.0472 1.3400 1.9334 2020.5 -0.0076552 3333.8 0.20222 2.6708e-06 3.7442e+05 362.44 381.77 4.2755 0.75720 0.94575 155.39 3.7570 2.7929 0.0025473
-169.62 9.8334e-06 9.4376e-08 -162.00 -162.00 -1.0284 714.54 0.0013995 -162.00 -162.00 -1.0284 1.3395 1.9347 2013.6 -0.0076477 3154.9 0.20182 3.4733e-06 2.8791e+05 363.20 382.72 4.2334 0.76100 0.94956 156.07 3.6609 2.8204 0.0025994
-168.62 1.2839e-05 1.2204e-07 -160.07 -160.07 -1.0098 713.52 0.0014015 -160.07 -160.07 -1.0098 1.3390 1.9359 2006.8 -0.0076401 2989.9 0.20141 4.4917e-06 2.2263e+05 363.96 383.67 4.1922 0.76479 0.95335 156.74 3.5683 2.8479 0.0026518
-167.62 1.6672e-05 1.5695e-07 -158.13 -158.13 -0.99134 712.49 0.0014035 -158.13 -158.13 -0.99134 1.3386 1.9372 2000.0 -0.0076323 2837.5 0.20100 5.7771e-06 1.7310e+05 364.73 384.63 4.1521 0.76856 0.95712 157.41 3.4790 2.8754 0.0027045
-166.62 2.1533e-05 2.0079e-07 -156.19 -156.19 -0.97306 711.47 0.0014055 -156.19 -156.19 -0.97306 1.3382 1.9385 1993.1 -0.0076245 2696.5 0.20058 7.3914e-06 1.3529e+05 365.50 385.59 4.1129 0.77232 0.96087 158.08 3.3927 2.9029 0.0027575
-165.62 2.7666e-05 2.5557e-07 -154.25 -154.25 -0.95494 710.45 0.0014075 -154.25 -154.25 -0.95494 1.3378 1.9398 1986.3 -0.0076165 2566.0 0.20016 9.4084e-06 1.0629e+05 366.27 386.55 4.0746 0.77605 0.96460 158.75 3.3095 2.9304 0.0028108
-164.62 3.5367e-05 3.2367e-07 -152.31 -152.31 -0.93698 709.44 0.0014096 -152.31 -152.31 -0.93698 1.3375 1.9411 1979.4 -0.0076084 2444.9 0.19973 1.1916e-05 83918. 367.05 387.52 4.0372 0.77976 0.96832 159.41 3.2291 2.9579 0.0028643
-163.62 4.4989e-05 4.0794e-07 -150.37 -150.37 -0.91917 708.42 0.0014116 -150.37 -150.37 -0.91917 1.3371 1.9424 1972.6 -0.0076002 2332.3 0.19930 1.5020e-05 66577. 367.83 388.49 4.0008 0.78346 0.97201 160.07 3.1514 2.9854 0.0029182
-162.62 5.6956e-05 5.1175e-07 -148.43 -148.43 -0.90151 707.40 0.0014136 -148.43 -148.43 -0.90151 1.3368 1.9437 1965.8 -0.0075919 2227.7 0.19886 1.8844e-05 53068. 368.62 389.46 3.9651 0.78713 0.97569 160.72 3.0764 3.0129 0.0029723
-161.62 7.1773e-05 6.3905e-07 -146.48 -146.48 -0.88399 706.38 0.0014157 -146.48 -146.48 -0.88400 1.3365 1.9451 1959.0 -0.0075834 2130.2 0.19841 2.3533e-05 42494. 369.41 390.44 3.9304 0.79079 0.97935 161.38 3.0038 3.0404 0.0030268
-160.62 9.0036e-05 7.9448e-07 -144.54 -144.54 -0.86662 705.37 0.0014177 -144.54 -144.54 -0.86663 1.3363 1.9465 1952.1 -0.0075748 2039.2 0.19796 2.9258e-05 34178. 370.20 391.42 3.8964 0.79443 0.98298 162.03 2.9337 3.0679 0.0030815
-159.62 0.00011245 9.8345e-07 -142.59 -142.59 -0.84940 704.35 0.0014197 -142.59 -142.59 -0.84940 1.3360 1.9478 1945.3 -0.0075661 1954.2 0.19751 3.6221e-05 27609. 371.00 392.40 3.8632 0.79805 0.98660 162.68 2.8658 3.0955 0.0031365
-158.62 0.00013985 1.2123e-06 -140.64 -140.64 -0.83231 703.34 0.0014218 -140.64 -140.64 -0.83231 1.3358 1.9492 1938.5 -0.0075573 1874.8 0.19705 4.4652e-05 22395. 371.80 393.39 3.8307 0.80164 0.99020 163.32 2.8002 3.1230 0.0031918
-157.62 0.00017320 1.4883e-06 -138.69 -138.69 -0.81535 702.32 0.0014238 -138.69 -138.69 -0.81536 1.3356 1.9506 1931.7 -0.0075484 1800.3 0.19658 5.4822e-05 18241. 372.60 394.38 3.7990 0.80522 0.99378 163.96 2.7367 3.1505 0.0032474
-156.62 0.00021364 1.8198e-06 -136.74 -136.74 -0.79853 701.31 0.0014259 -136.74 -136.74 -0.79854 1.3354 1.9520 1924.9 -0.0075393 1730.5 0.19611 6.7040e-05 14916. 373.41 395.38 3.7680 0.80878 0.99734 164.60 2.6752 3.1780 0.0033033
-155.62 0.00026248 2.2167e-06 -134.79 -134.79 -0.78184 700.30 0.0014280 -134.79 -134.79 -0.78185 1.3352 1.9534 1918.1 -0.0075302 1664.9 0.19564 8.1666e-05 12245. 374.22 396.38 3.7377 0.81232 1.0009 165.24 2.6157 3.2055 0.0033595
-154.62 0.00032125 2.6900e-06 -132.83 -132.83 -0.76529 699.29 0.0014300 -132.83 -132.83 -0.76530 1.3350 1.9548 1911.3 -0.0075209 1603.3 0.19516 9.9109e-05 10090. 375.03 397.38 3.7081 0.81585 1.0044 165.87 2.5580 3.2330 0.0034160
-153.62 0.00039171 3.2523e-06 -130.88 -130.88 -0.74885 698.27 0.0014321 -130.88 -130.88 -0.74887 1.3349 1.9563 1904.5 -0.0075114 1545.3 0.19468 0.00011984 8344.6 375.85 398.39 3.6792 0.81935 1.0079 166.50 2.5022 3.2606 0.0034727
-152.62 0.00047590 3.9182e-06 -128.92 -128.92 -0.73255 697.26 0.0014342 -128.92 -128.92 -0.73256 1.3348 1.9577 1897.8 -0.0075019 1490.6 0.19419 0.00014439 6925.9 376.67 399.40 3.6509 0.82284 1.0114 167.13 2.4481 3.2881 0.0035298
-151.62 0.00057613 4.7041e-06 -126.96 -126.96 -0.71636 696.25 0.0014363 -126.96 -126.96 -0.71638 1.3346 1.9592 1891.0 -0.0074922 1438.9 0.19370 0.00017336 5768.4 377.49 400.41 3.6232 0.82631 1.0149 167.76 2.3957 3.3156 0.0035872
-150.62 0.00069507 5.6285e-06 -125.00 -125.00 -0.70029 695.24 0.0014384 -125.00 -125.00 -0.70032 1.3345 1.9606 1884.2 -0.0074824 1390.2 0.19320 0.00020744 4820.7 378.32 401.42 3.5962 0.82976 1.0183 168.38 2.3448 3.3431 0.0036448
-149.62 0.00083574 6.7123e-06 -123.04 -123.04 -0.68435 694.23 0.0014404 -123.04 -123.04 -0.68438 1.3345 1.9621 1877.4 -0.0074724 1344.0 0.19270 0.00024740 4042.0 379.15 402.44 3.5697 0.83319 1.0218 169.00 2.2956 3.3706 0.0037027
-148.62 0.0010016 7.9791e-06 -121.08 -121.08 -0.66852 693.22 0.0014425 -121.08 -121.08 -0.66855 1.3344 1.9636 1870.7 -0.0074623 1300.3 0.19220 0.00029412 3400.0 379.99 403.47 3.5438 0.83661 1.0252 169.62 2.2478 3.3982 0.0037610
-147.62 0.0011965 9.4552e-06 -119.11 -119.11 -0.65280 692.21 0.0014447 -119.11 -119.11 -0.65284 1.3343 1.9651 1863.9 -0.0074521 1258.9 0.19169 0.00034856 2869.0 380.83 404.49 3.5185 0.84001 1.0286 170.24 2.2014 3.4257 0.0038195
-146.62 0.0014249 1.1170e-05 -117.14 -117.14 -0.63719 691.20 0.0014468 -117.15 -117.15 -0.63724 1.3343 1.9666 1857.2 -0.0074417 1219.6 0.19117 0.00041181 2428.3 381.67 405.52 3.4938 0.84340 1.0320 170.85 2.1565 3.4532 0.0038783
-145.62 0.0016917 1.3157e-05 -115.18 -115.17 -0.62170 690.19 0.0014489 -115.18 -115.18 -0.62175 1.3343 1.9682 1850.4 -0.0074312 1182.3 0.19066 0.00048510 2061.4 382.51 406.56 3.4695 0.84677 1.0353 171.46 2.1128 3.4807 0.0039374
-144.62 0.0020026 1.5452e-05 -113.20 -113.20 -0.60631 689.18 0.0014510 -113.21 -113.21 -0.60637 1.3343 1.9697 1843.7 -0.0074206 1146.8 0.19014 0.00056976 1755.1 383.36 407.59 3.4458 0.85012 1.0387 172.07 2.0705 3.5082 0.0039967
-143.62 0.0023637 1.8096e-05 -111.23 -111.23 -0.59103 688.17 0.0014531 -111.24 -111.24 -0.59110 1.3343 1.9713 1836.9 -0.0074098 1113.0 0.18962 0.00066731 1498.6 384.21 408.63 3.4226 0.85346 1.0420 172.68 2.0294 3.5358 0.0040564
-142.62 0.0027820 2.1134e-05 -109.26 -109.26 -0.57585 687.16 0.0014553 -109.27 -109.27 -0.57593 1.3343 1.9728 1830.2 -0.0073988 1080.8 0.18909 0.00077939 1283.1 385.07 409.68 3.3999 0.85679 1.0454 173.28 1.9896 3.5633 0.0041164
-141.62 0.0032653 2.4615e-05 -107.28 -107.28 -0.56077 686.15 0.0014574 -107.30 -107.30 -0.56087 1.3343 1.9744 1823.5 -0.0073878 1050.1 0.18856 0.00090784 1101.5 385.93 410.72 3.3777 0.86011 1.0487 173.88 1.9508 3.5908 0.0041766
-140.62 0.0038222 2.8594e-05 -105.31 -105.31 -0.54580 685.14 0.0014596 -105.32 -105.32 -0.54591 1.3344 1.9760 1816.7 -0.0073765 1020.7 0.18803 0.0010547 948.16 386.79 411.77 3.3560 0.86341 1.0520 174.48 1.9133 3.6183 0.0042372
-139.62 0.0044623 3.3131e-05 -103.33 -103.33 -0.53092 684.13 0.0014617 -103.34 -103.34 -0.53105 1.3344 1.9776 1810.0 -0.0073651 992.74 0.18749 0.0012221 818.26 387.65 412.83 3.3347 0.86670 1.0553 175.08 1.8768 3.6459 0.0042980
-138.62 0.0051963 3.8291e-05 -101.35 -101.35 -0.51614 683.12 0.0014639 -101.37 -101.37 -0.51629 1.3345 1.9792 1803.3 -0.0073536 965.97 0.18695 0.0014125 707.94 388.52 413.88 3.3139 0.86998 1.0586 175.67 1.8413 3.6734 0.0043592
-137.62 0.0060358 4.4146e-05 -99.365 -99.363 -0.50145 682.11 0.0014660 -99.386 -99.386 -0.50162 1.3346 1.9808 1796.6 -0.0073419 940.35 0.18641 0.0016287 614.00 389.39 414.94 3.2935 0.87325 1.0619 176.26 1.8069 3.7009 0.0044206
-136.62 0.0069938 5.0774e-05 -97.380 -97.378 -0.48686 681.10 0.0014682 -97.404 -97.404 -0.48705 1.3347 1.9825 1789.9 -0.0073301 915.81 0.18586 0.0018733 533.80 390.26 416.00 3.2735 0.87650 1.0651 176.85 1.7734 3.7284 0.0044823
-135.62 0.0080843 5.8260e-05 -95.393 -95.391 -0.47236 680.09 0.0014704 -95.421 -95.421 -0.47258 1.3348 1.9841 1783.2 -0.0073180 892.30 0.18531 0.0021497 465.17 391.14 417.07 3.2540 0.87975 1.0684 177.44 1.7409 3.7559 0.0045443
-134.62 0.0093230 6.6698e-05 -93.404 -93.402 -0.45795 679.08 0.0014726 -93.436 -93.436 -0.45820 1.3350 1.9858 1776.5 -0.0073059 869.75 0.18476 0.0024613 406.30 392.02 418.14 3.2348 0.88299 1.0716 178.02 1.7093 3.7834 0.0046066
-133.62 0.010727 7.6186e-05 -91.413 -91.411 -0.44363 678.07 0.0014748 -91.450 -91.449 -0.44391 1.3351 1.9875 1769.8 -0.0072935 848.11 0.18421 0.0028116 355.67 392.91 419.21 3.2161 0.88622 1.0749 178.61 1.6786 3.8109 0.0046691
-132.62 0.012315 8.6834e-05 -89.419 -89.417 -0.42939 677.06 0.0014770 -89.461 -89.461 -0.42971 1.3353 1.9892 1763.1 -0.0072810 827.32 0.18365 0.0032049 312.03 393.79 420.29 3.1977 0.88944 1.0781 179.19 1.6488 3.8385 0.0047320
-131.62 0.014106 9.8759e-05 -87.424 -87.421 -0.41524 676.04 0.0014792 -87.471 -87.471 -0.41560 1.3354 1.9909 1756.4 -0.0072684 807.34 0.18309 0.0036453 274.33 394.68 421.36 3.1798 0.89266 1.0813 179.76 1.6197 3.8660 0.0047951
-130.62 0.016124 0.00011209 -85.425 -85.422 -0.40117 675.03 0.0014814 -85.479 -85.479 -0.40157 1.3356 1.9926 1749.7 -0.0072555 788.12 0.18253 0.0041375 241.69 395.58 422.44 3.1622 0.89586 1.0846 180.34 1.5915 3.8935 0.0048586
-129.62 0.018392 0.00012695 -83.425 -83.421 -0.38719 674.02 0.0014836 -83.486 -83.486 -0.38763 1.3358 1.9944 1743.0 -0.0072425 769.63 0.18196 0.0046867 213.37 396.47 423.53 3.1450 0.89906 1.0878 180.91 1.5641 3.9210 0.0049223
-128.62 0.020935 0.00014350 -81.422 -81.418 -0.37328 673.01 0.0014859 -81.491 -81.490 -0.37378 1.3360 1.9961 1736.3 -0.0072294 751.83 0.18140 0.0052981 188.75 397.37 424.62 3.1281 0.90226 1.0910 181.48 1.5374 3.9485 0.0049863
-127.62 0.023783 0.00016189 -79.416 -79.412 -0.35945 672.00 0.0014881 -79.494 -79.493 -0.36001 1.3363 1.9979 1729.6 -0.0072160 734.67 0.18083 0.0059776 167.29 398.27 425.71 3.1116 0.90545 1.0942 182.05 1.5114 3.9760 0.0050506
-126.62 0.026966 0.00018229 -77.408 -77.403 -0.34570 670.98 0.0014904 -77.495 -77.495 -0.34632 1.3365 1.9997 1722.9 -0.0072025 718.14 0.18025 0.0067313 148.56 399.18 426.80 3.0954 0.90863 1.0974 182.62 1.4861 4.0035 0.0051152
-125.62 0.030515 0.00020488 -75.397 -75.391 -0.33202 669.97 0.0014926 -75.494 -75.494 -0.33272 1.3368 2.0015 1716.2 -0.0071888 702.18 0.17968 0.0075660 132.17 400.09 427.89 3.0795 0.91181 1.1006 183.18 1.4615 4.0310 0.0051800
-124.62 0.034467 0.00022984 -73.383 -73.376 -0.31841 668.95 0.0014949 -73.492 -73.492 -0.31919 1.3371 2.0033 1709.5 -0.0071749 686.79 0.17910 0.0084885 117.81 401.00 428.99 3.0640 0.91499 1.1038 183.74 1.4375 4.0584 0.0052452
-123.62 0.038859 0.00025738 -71.366 -71.358 -0.30488 667.94 0.0014971 -71.488 -71.487 -0.30574 1.3374 2.0051 1702.8 -0.0071609 671.93 0.17852 0.0095065 105.19 401.91 430.10 3.0488 0.91816 1.1070 184.30 1.4141 4.0859 0.0053106
-122.62 0.043731 0.00028772 -69.346 -69.337 -0.29141 666.92 0.0014994 -69.482 -69.481 -0.29237 1.3377 2.0070 1696.2 -0.0071466 657.57 0.17794 0.010628 94.092 402.83 431.20 3.0339 0.92134 1.1102 184.86 1.3913 4.1134 0.0053764
-121.62 0.049128 0.00032108 -67.322 -67.313 -0.27801 665.91 0.0015017 -67.474 -67.473 -0.27907 1.3380 2.0089 1689.5 -0.0071322 643.70 0.17736 0.011861 84.309 403.75 432.31 3.0193 0.92451 1.1134 185.41 1.3691 4.1409 0.0054424
-120.62 0.055096 0.00035771 -65.296 -65.285 -0.26468 664.89 0.0015040 -65.464 -65.463 -0.26585 1.3384 2.0107 1682.8 -0.0071176 630.28 0.17678 0.013215 75.669 404.67 433.42 3.0050 0.92767 1.1166 185.96 1.3475 4.1683 0.0055087
-119.62 0.061684 0.00039787 -63.266 -63.253 -0.25142 663.87 0.0015063 -63.452 -63.452 -0.25271 1.3387 2.0126 1676.1 -0.0071028 617.30 0.17619 0.014700 68.027 405.60 434.53 2.9909 0.93084 1.1198 186.51 1.3264 4.1958 0.0055752
-118.62 0.068946 0.00044181 -61.232 -61.218 -0.23821 662.86 0.0015086 -61.439 -61.438 -0.23963 1.3391 2.0146 1669.4 -0.0070878 604.74 0.17560 0.016325 61.255 406.53 435.64 2.9772 0.93401 1.1231 187.06 1.3058 4.2233 0.0056421
-117.62 0.076937 0.00048984 -59.194 -59.179 -0.22507 661.84 0.0015109 -59.423 -59.422 -0.22663 1.3395 2.0165 1662.8 -0.0070726 592.58 0.17501 0.018101 55.245 407.46 436.76 2.9638 0.93718 1.1263 187.60 1.2857 4.2507 0.0057092
-116.62 0.085718 0.00054225 -57.153 -57.136 -0.21199 660.82 0.0015133 -57.406 -57.405 -0.21370 1.3400 2.0184 1656.1 -0.0070573 580.80 0.17442 0.020040 49.901 408.39 437.88 2.9506 0.94035 1.1295 188.14 1.2660 4.2782 0.0057767
-115.62 0.095353 0.00059936 -55.108 -55.089 -0.19896 659.80 0.0015156 -55.386 -55.385 -0.20084 1.3404 2.0204 1649.4 -0.0070417 569.38 0.17383 0.022152 45.142 409.33 439.01 2.9377 0.94352 1.1327 188.68 1.2468 4.3056 0.0058444
-114.62 0.10591 0.00066151 -53.058 -53.037 -0.18599 658.78 0.0015180 -53.365 -53.364 -0.18805 1.3409 2.0224 1642.7 -0.0070260 558.32 0.17323 0.024451 40.898 410.27 440.13 2.9250 0.94669 1.1360 189.22 1.2281 4.3330 0.0059123
-113.62 0.11746 0.00072904 -51.004 -50.981 -0.17307 657.76 0.0015203 -51.342 -51.340 -0.17533 1.3413 2.0244 1636.0 -0.0070100 547.59 0.17264 0.026949 37.107 411.21 441.26 2.9126 0.94987 1.1392 189.75 1.2097 4.3604 0.0059806
-112.62 0.13008 0.00080232 -48.946 -48.920 -0.16021 656.73 0.0015227 -49.316 -49.315 -0.16267 1.3418 2.0264 1629.3 -0.0069938 537.18 0.17204 0.029661 33.715 412.16 442.39 2.9005 0.95305 1.1424 190.28 1.1918 4.3879 0.0060491
-111.62 0.14384 0.00088174 -46.883 -46.854 -0.14740 655.71 0.0015251 -47.289 -47.287 -0.15008 1.3424 2.0285 1622.7 -0.0069774 527.08 0.17144 0.032600 30.675 413.10 443.53 2.8885 0.95623 1.1457 190.81 1.1742 4.4153 0.0061180
-110.62 0.15884 0.00096770 -44.815 -44.784 -0.13464 654.69 0.0015274 -45.259 -45.258 -0.13755 1.3429 2.0305 1616.0 -0.0069609 517.28 0.17084 0.035781 27.948 414.06 444.66 2.8769 0.95942 1.1490 191.34 1.1570 4.4427 0.0061871
-109.62 0.17516 0.0010606 -42.742 -42.707 -0.12192 653.66 0.0015298 -43.228 -43.226 -0.12509 1.3435 2.0326 1609.3 -0.0069441 507.76 0.17024 0.039220 25.497 415.01 445.80 2.8654 0.96261 1.1522 191.86 1.1402 4.4701 0.0062564
-108.62 0.19290 0.0011609 -40.663 -40.625 -0.10925 652.64 0.0015322 -41.194 -41.192 -0.11269 1.3441 2.0347 1602.6 -0.0069271 498.51 0.16964 0.042933 23.292 415.96 446.94 2.8542 0.96581 1.1555 192.38 1.1236 4.4974 0.0063261
-107.62 0.21215 0.0012691 -38.580 -38.538 -0.096621 651.61 0.0015347 -39.158 -39.156 -0.10036 1.3447 2.0369 1595.9 -0.0069098 489.52 0.16903 0.046937 21.305 416.92 448.09 2.8433 0.96901 1.1588 192.90 1.1075 4.5248 0.0063960
-106.62 0.23301 0.0013856 -36.490 -36.444 -0.084036 650.58 0.0015371 -37.120 -37.118 -0.088082 1.3453 2.0390 1589.2 -0.0068924 480.79 0.16843 0.051250 19.512 417.88 449.23 2.8325 0.97222 1.1621 193.41 1.0916 4.5522 0.0064662
-105.62 0.25561 0.0015110 -34.395 -34.344 -0.071490 649.55 0.0015395 -35.080 -35.078 -0.075868 1.3460 2.0412 1582.6 -0.0068747 472.30 0.16782 0.055891 17.892 418.85 450.38 2.8220 0.97544 1.1655 193.93 1.0760 4.5795 0.0065367
-104.62 0.28004 0.0016456 -32.293 -32.238 -0.058982 648.52 0.0015420 -33.038 -33.035 -0.063714 1.3467 2.0434 1575.9 -0.0068569 464.04 0.16721 0.060878 16.426 419.81 451.53 2.8116 0.97867 1.1688 194.44 1.0608 4.6069 0.0066074
-103.62 0.30643 0.0017902 -30.185 -30.125 -0.046511 647.49 0.0015444 -30.994 -30.991 -0.051619 1.3474 2.0456 1569.2 -0.0068387 456.00 0.16660 0.066231 15.099 420.78 452.68 2.8015 0.98191 1.1722 194.94 1.0458 4.6342 0.0066785
-102.62 0.33490 0.0019452 -28.071 -28.005 -0.034075 646.46 0.0015469 -28.947 -28.944 -0.039582 1.3481 2.0478 1562.5 -0.0068204 448.18 0.16600 0.071971 13.894 421.75 453.84 2.7916 0.98516 1.1755 195.44 1.0310 4.6615 0.0067498
-101.62 0.36558 0.0021112 -25.949 -25.877 -0.021670 645.43 0.0015494 -26.898 -26.894 -0.027602 1.3489 2.0501 1555.8 -0.0068018 440.57 0.16539 0.078120 12.801 422.73 454.99 2.7818 0.98841 1.1789 195.95 1.0166 4.6888 0.0068213
-100.62 0.39862 0.0022888 -23.821 -23.742 -0.0092969 644.39 0.0015519 -24.847 -24.843 -0.015678 1.3497 2.0524 1549.1 -0.0067830 433.16 0.16478 0.084699 11.807 423.70 456.15 2.7723 0.99168 1.1823 196.44 1.0024 4.7161 0.0068932
-99.625 0.43414 0.0024787 -21.685 -21.599 0.0030476 643.36 0.0015544 -22.794 -22.789 -0.0038103 1.3505 2.0547 1542.4 -0.0067639 425.95 0.16416 0.091731 10.901 424.68 457.31 2.7630 0.99496 1.1858 196.94 0.98838 4.7434 0.0069653
-98.625 0.47230 0.0026813 -19.541 -19.448 0.015365 642.32 0.0015569 -20.738 -20.733 0.0080027 1.3514 2.0570 1535.7 -0.0067447 418.92 0.16355 0.099240 10.077 425.66 458.48 2.7538 0.99825 1.1892 197.43 0.97464 4.7707 0.0070377
-97.625 0.51325 0.0028976 -17.390 -17.289 0.027658 641.28 0.0015594 -18.680 -18.674 0.019762 1.3522 2.0594 1529.0 -0.0067251 412.07 0.16294 0.10725 9.3239 426.65 459.64 2.7448 1.0016 1.1927 197.92 0.96112 4.7979 0.0071103
-96.625 0.55714 0.0031279 -15.230 -15.120 0.039927 640.24 0.0015619 -16.620 -16.614 0.031467 1.3531 2.0618 1522.3 -0.0067053 405.39 0.16233 0.11579 8.6365 427.63 460.81 2.7360 1.0049 1.1962 198.40 0.94783 4.8251 0.0071832
-95.625 0.60416 0.0033732 -13.062 -12.943 0.052175 639.20 0.0015645 -14.557 -14.550 0.043120 1.3540 2.0642 1515.7 -0.0066853 398.88 0.16171 0.12488 8.0078 428.62 461.98 2.7274 1.0082 1.1997 198.88 0.93475 4.8524 0.0072564
-94.625 0.65446 0.0036341 -10.885 -10.756 0.064403 638.16 0.0015670 -12.491 -12.484 0.054721 1.3550 2.0667 1509.0 -0.0066650 392.53 0.16110 0.13455 7.4323 429.61 463.15 2.7189 1.0116 1.2032 199.36 0.92188 4.8796 0.0073299
-93.625 0.70822 0.0039114 -8.6987 -8.5592 0.076614 637.12 0.0015696 -10.424 -10.416 0.066271 1.3560 2.0691 1502.3 -0.0066444 386.34 0.16048 0.14482 6.9050 430.60 464.32 2.7107 1.0149 1.2068 199.83 0.90921 4.9068 0.0074036
-92.625 0.76564 0.0042058 -6.5032 -6.3524 0.088810 636.07 0.0015722 -8.3535 -8.3452 0.077771 1.3570 2.0716 1495.6 -0.0066236 380.31 0.15987 0.15573 6.4212 431.60 465.49 2.7025 1.0183 1.2104 200.30 0.89673 4.9340 0.0074776
-91.625 0.82689 0.0045180 -4.2980 -4.1351 0.10099 635.02 0.0015747 -6.2808 -6.2719 0.089220 1.3580 2.0742 1488.9 -0.0066025 374.41 0.15925 0.16731 5.9769 432.59 466.67 2.6946 1.0217 1.2140 200.77 0.88445 4.9611 0.0075518
-90.625 0.89218 0.0048490 -2.0828 -1.9070 0.11316 633.98 0.0015773 -4.2056 -4.1959 0.10062 1.3591 2.0767 1482.2 -0.0065811 368.66 0.15864 0.17958 5.5685 433.59 467.84 2.6868 1.0251 1.2177 201.24 0.87236 4.9883 0.0076263
-89.625 0.96172 0.0051995 0.14285 0.33230 0.12532 632.93 0.0015800 -2.1279 -2.1174 0.11197 1.3602 2.0793 1475.5 -0.0065595 363.05 0.15802 0.19258 5.1928 434.59 469.02 2.6791 1.0285 1.2213 201.70 0.86045 5.0154 0.0077011
-88.625 1.0357 0.0055704 2.3792 2.5832 0.13747 631.88 0.0015826 -0.047516 -0.036215 0.12328 1.3613 2.0819 1468.8 -0.0065375 357.56 0.15740 0.20633 4.8466 435.59 470.20 2.6717 1.0320 1.2250 202.15 0.84873 5.0425 0.0077761
-87.625 1.1144 0.0059625 4.6265 4.8461 0.14962 630.83 0.0015852 2.0355 2.0476 0.13454 1.3625 2.0846 1462.1 -0.0065153 352.21 0.15679 0.22087 4.5276 436.60 471.39 2.6643 1.0354 1.2288 202.61 0.83718 5.0696 0.0078514
-86.625 1.1979 0.0063768 6.8853 7.1213 0.16176 629.77 0.0015879 4.1211 4.1342 0.14575 1.3637 2.0873 1455.4 -0.0064928 346.98 0.15617 0.23623 4.2331 437.61 472.57 2.6571 1.0389 1.2325 203.06 0.82580 5.0967 0.0079270
-85.625 1.2866 0.0068141 9.1558 9.4093 0.17390 628.72 0.0015905 6.2094 6.2235 0.15691 1.3649 2.0900 1448.8 -0.0064701 341.87 0.15555 0.25245 3.9612 438.61 473.75 2.6501 1.0424 1.2363 203.50 0.81460 5.1237 0.0080028
-84.625 1.3806 0.0072754 11.438 11.710 0.18604 627.66 0.0015932 8.3004 8.3155 0.16803 1.3661 2.0927 1442.1 -0.0064470 336.87 0.15494 0.26956 3.7097 439.63 474.94 2.6432 1.0460 1.2402 203.95 0.80356 5.1508 0.0080789
-83.625 1.4803 0.0077616 13.733 14.025 0.19818 626.60 0.0015959 10.394 10.410 0.17911 1.3674 2.0955 1435.4 -0.0064236 331.99 0.15432 0.28760 3.4771 440.64 476.13 2.6364 1.0495 1.2440 204.38 0.79269 5.1778 0.0081553
-82.625 1.5858 0.0082738 16.041 16.354 0.21033 625.54 0.0015986 12.491 12.508 0.19014 1.3687 2.0983 1428.7 -0.0063999 327.22 0.15370 0.30659 3.2616 441.65 477.31 2.6298 1.0531 1.2479 204.82 0.78199 5.2048 0.0082319
-81.625 1.6975 0.0088128 18.363 18.697 0.22248 624.48 0.0016013 14.590 14.609 0.20113 1.3700 2.1012 1422.0 -0.0063759 322.55 0.15309 0.32659 3.0619 442.67 478.50 2.6233 1.0567 1.2519 205.25 0.77144 5.2318 0.0083088
-80.625 1.8155 0.0093798 20.697 21.055 0.23464 623.42 0.0016041 16.692 16.712 0.21208 1.3714 2.1041 1415.4 -0.0063516 317.99 0.15247 0.34763 2.8766 443.69 479.70 2.6169 1.0603 1.2558 205.67 0.76106 5.2587 0.0083860
-79.625 1.9402 0.0099758 23.046 23.428 0.24681 622.36 0.0016068 18.797 18.819 0.22299 1.3728 2.1070 1408.7 -0.0063270 313.52 0.15186 0.36974 2.7046 444.71 480.89 2.6106 1.0639 1.2598 206.10 0.75083 5.2857 0.0084634
-78.625 2.0718 0.010602 25.409 25.817 0.25899 621.29 0.0016096 20.905 20.928 0.23385 1.3742 2.1099 1402.0 -0.0063021 309.15 0.15124 0.39296 2.5448 445.73 482.08 2.6045 1.0676 1.2639 206.51 0.74076 5.3126 0.0085411
-77.625 2.2107 0.011259 27.787 28.222 0.27118 620.22 0.0016123 23.016 23.040 0.24468 1.3757 2.1129 1395.3 -0.0062768 304.88 0.15062 0.41735 2.3961 446.75 483.27 2.5985 1.0712 1.2680 206.93 0.73084 5.3395 0.0086190
-76.625 2.3571 0.011948 30.180 30.644 0.28338 619.15 0.0016151 25.130 25.156 0.25546 1.3772 2.1159 1388.7 -0.0062512 300.69 0.15001 0.44292 2.2577 447.78 484.47 2.5926 1.0749 1.2721 207.34 0.72107 5.3664 0.0086972
-75.625 2.5113 0.012671 32.588 33.083 0.29561 618.08 0.0016179 27.247 27.275 0.26620 1.3787 2.1190 1382.0 -0.0062253 296.59 0.14939 0.46974 2.1288 448.81 485.67 2.5869 1.0787 1.2762 207.74 0.71146 5.3933 0.0087757
-74.625 2.6736 0.013428 35.012 35.539 0.30785 617.01 0.0016207 29.366 29.396 0.27691 1.3802 2.1221 1375.4 -0.0061990 292.58 0.14878 0.49783 2.0087 449.83 486.86 2.5812 1.0824 1.2804 208.14 0.70200 5.4201 0.0088544
-73.625 2.8444 0.014221 37.453 38.013 0.32011 615.93 0.0016236 31.489 31.521 0.28758 1.3818 2.1252 1368.7 -0.0061724 288.65 0.14816 0.52725 1.8966 450.86 488.06 2.5757 1.0862 1.2847 208.54 0.69268 5.4469 0.0089334
-72.625 3.0240 0.015050 39.911 40.506 0.33240 614.85 0.0016264 33.615 33.649 0.29821 1.3834 2.1284 1362.0 -0.0061454 284.81 0.14755 0.55804 1.7920 451.90 489.26 2.5703 1.0900 1.2889 208.93 0.68351 5.4737 0.0090126
-71.625 3.2127 0.015918 42.385 43.018 0.34471 613.78 0.0016293 35.745 35.781 0.30880 1.3851 2.1316 1355.4 -0.0061181 281.03 0.14694 0.59024 1.6942 452.93 490.46 2.5650 1.0938 1.2932 209.32 0.67448 5.5005 0.0090922
-70.625 3.4108 0.016825 44.878 45.549 0.35705 612.69 0.0016321 37.877 37.915 0.31935 1.3867 2.1349 1348.7 -0.0060904 277.34 0.14632 0.62390 1.6028 453.96 491.66 2.5598 1.0976 1.2976 209.70 0.66560 5.5273 0.0091720
-69.625 3.6187 0.017772 47.388 48.101 0.36941 611.61 0.0016350 40.013 40.053 0.32987 1.3884 2.1382 1342.1 -0.0060624 273.72 0.14571 0.65906 1.5173 455.00 492.86 2.5547 1.1015 1.3020 210.08 0.65687 5.5540 0.0092520
-68.625 3.8367 0.018761 49.916 50.672 0.38181 610.53 0.0016379 42.152 42.195 0.34036 1.3902 2.1415 1335.5 -0.0060339 270.17 0.14510 0.69577 1.4372 456.04 494.06 2.5497 1.1054 1.3064 210.45 0.64827 5.5807 0.0093324
-67.625 4.0652 0.019793 52.464 53.265 0.39423 609.44 0.0016409 44.294 44.340 0.35080 1.3919 2.1449 1328.8 -0.0060051 266.69 0.14449 0.73408 1.3622 457.08 495.26 2.5448 1.1093 1.3109 210.82 0.63981 5.6074 0.0094130
-66.625 4.3046 0.020870 55.031 55.879 0.40669 608.35 0.0016438 46.439 46.488 0.36122 1.3937 2.1483 1322.2 -0.0059760 263.28 0.14388 0.77404 1.2919 458.12 496.46 2.5400 1.1133 1.3154 211.18 0.63150 5.6341 0.0094939
-65.625 4.5551 0.021992 57.617 58.515 0.41918 607.26 0.0016467 48.588 48.640 0.37160 1.3955 2.1518 1315.6 -0.0059464 259.93 0.14327 0.81570 1.2259 459.16 497.67 2.5353 1.1172 1.3200 211.54 0.62332 5.6608 0.0095750
-64.625 4.8173 0.023161 60.224 61.173 0.43171 606.16 0.0016497 50.740 50.795 0.38195 1.3974 2.1553 1308.9 -0.0059164 256.65 0.14266 0.85910 1.1640 460.21 498.87 2.5307 1.1212 1.3246 211.89 0.61527 5.6874 0.0096564
-63.625 5.0915 0.024379 62.851 63.854 0.44428 605.07 0.0016527 52.896 52.954 0.39226 1.3993 2.1588 1302.3 -0.0058861 253.42 0.14205 0.90429 1.1058 461.25 500.07 2.5262 1.1252 1.3293 212.24 0.60736 5.7140 0.0097382
-62.625 5.3781 0.025646 65.500 66.559 0.45689 603.97 0.0016557 55.055 55.117 0.40254 1.4012 2.1624 1295.7 -0.0058553 250.26 0.14144 0.95134 1.0511 462.30 501.28 2.5218 1.1293 1.3340 212.58 0.59958 5.7406 0.0098201
-61.625 5.6774 0.026965 68.169 69.288 0.46954 602.87 0.0016587 57.218 57.283 0.41279 1.4031 2.1660 1289.1 -0.0058241 247.16 0.14084 1.0003 0.99972 463.35 502.48 2.5175 1.1333 1.3387 212.92 0.59194 5.7672 0.0099024
-60.625 5.9899 0.028336 70.861 72.041 0.48224 601.77 0.0016618 59.385 59.453 0.42301 1.4051 2.1697 1282.5 -0.0057925 244.12 0.14023 1.0512 0.95131 464.40 503.68 2.5133 1.1374 1.3435 213.26 0.58442 5.7938 0.0099850
-59.625 6.3160 0.029762 73.575 74.819 0.49498 600.66 0.0016648 61.554 61.627 0.43320 1.4071 2.1734 1275.9 -0.0057605 241.13 0.13962 1.1041 0.90573 465.45 504.89 2.5091 1.1415 1.3483 213.58 0.57704 5.8203 0.010068
-58.625 6.6561 0.031243 76.312 77.623 0.50777 599.55 0.0016679 63.728 63.805 0.44335 1.4091 2.1772 1269.3 -0.0057280 238.19 0.13902 1.1591 0.86277 466.50 506.09 2.5051 1.1457 1.3532 213.90 0.56978 5.8468 0.010151
-57.625 7.0107 0.032781 79.072 80.453 0.52060 598.44 0.0016710 65.905 65.986 0.45348 1.4111 2.1810 1262.7 -0.0056951 235.31 0.13842 1.2161 0.82228 467.55 507.30 2.5011 1.1498 1.3581 214.22 0.56265 5.8733 0.010234
-56.625 7.3801 0.034378 81.855 83.309 0.53349 597.33 0.0016741 68.086 68.172 0.46358 1.4132 2.1848 1256.1 -0.0056617 232.48 0.13781 1.2754 0.78408 468.60 508.50 2.4972 1.1540 1.3631 214.53 0.55564 5.8998 0.010318
-55.625 7.7648 0.036035 84.663 86.193 0.54642 596.22 0.0016772 70.271 70.361 0.47364 1.4153 2.1887 1249.5 -0.0056279 229.69 0.13721 1.3369 0.74802 469.66 509.71 2.4934 1.1582 1.3681 214.84 0.54875 5.9263 0.010402
-54.625 8.1652 0.037753 87.495 89.104 0.55942 595.10 0.0016804 72.460 72.554 0.48368 1.4174 2.1927 1242.9 -0.0055937 226.96 0.13661 1.4006 0.71396 470.72 510.91 2.4897 1.1624 1.3731 215.14 0.54199 5.9527 0.010486
-53.625 8.5819 0.039535 90.353 92.043 0.57246 593.98 0.0016836 74.652 74.752 0.49369 1.4196 2.1967 1236.3 -0.0055589 224.27 0.13601 1.4667 0.68178 471.77 512.11 2.4860 1.1667 1.3782 215.43 0.53535 5.9792 0.010571
-52.625 9.0151 0.041382 93.235 95.011 0.58556 592.86 0.0016867 76.849 76.954 0.50368 1.4218 2.2007 1229.8 -0.0055237 221.63 0.13541 1.5353 0.65136 472.83 513.32 2.4824 1.1710 1.3834 215.72 0.52882 6.0056 0.010656
-51.625 9.4655 0.043295 96.144 98.008 0.59872 591.73 0.0016900 79.049 79.159 0.51363 1.4240 2.2048 1223.2 -0.0054880 219.04 0.13482 1.6062 0.62258 473.89 514.52 2.4789 1.1752 1.3886 216.00 0.52241 6.0320 0.010741
-50.625 9.9335 0.045277 99.079 101.04 0.61194 590.60 0.0016932 81.253 81.369 0.52356 1.4262 2.2089 1216.6 -0.0054519 216.48 0.13422 1.6797 0.59534 474.95 515.73 2.4755 1.1796 1.3938 216.28 0.51612 6.0584 0.010827
-49.625 10.419 0.047328 102.04 104.09 0.62522 589.47 0.0016964 83.462 83.584 0.53347 1.4285 2.2131 1210.1 -0.0054152 213.98 0.13363 1.7558 0.56954 476.01 516.93 2.4722 1.1839 1.3991 216.55 0.50994 6.0848 0.010913
-48.625 10.924 0.049451 105.03 107.18 0.63856 588.34 0.0016997 85.674 85.802 0.54334 1.4308 2.2173 1203.5 -0.0053780 211.51 0.13303 1.8345 0.54510 477.07 518.13 2.4689 1.1883 1.4044 216.82 0.50387 6.1112 0.010999
-47.625 11.448 0.051647 108.05 110.30 0.65197 587.20 0.0017030 87.891 88.025 0.55319 1.4331 2.2216 1196.9 -0.0053403 209.08 0.13244 1.9159 0.52194 478.14 519.33 2.4657 1.1927 1.4098 217.08 0.49792 6.1375 0.011085
-46.625 11.991 0.053918 111.09 113.45 0.66544 586.06 0.0017063 90.111 90.252 0.56302 1.4354 2.2259 1190.4 -0.0053020 206.69 0.13185 2.0001 0.49997 479.20 520.53 2.4625 1.1971 1.4153 217.33 0.49207 6.1639 0.011172
-45.625 12.554 0.056266 114.16 116.64 0.67897 584.92 0.0017096 92.336 92.484 0.57282 1.4378 2.2303 1183.8 -0.0052633 204.34 0.13126 2.0872 0.47912 480.27 521.74 2.4594 1.2015 1.4207 217.58 0.48633 6.1902 0.011259
-44.625 13.137 0.058692 117.27 119.85 0.69258 583.77 0.0017130 94.565 94.720 0.58260 1.4402 2.2347 1177.3 -0.0052240 202.03 0.13067 2.1771 0.45933 481.33 522.94 2.4564 1.2060 1.4263 217.82 0.48069 6.2165 0.011347
-43.625 13.741 0.061199 120.40 123.10 0.70625 582.62 0.0017164 96.799 96.961 0.59235 1.4426 2.2392 1170.7 -0.0051841 199.75 0.13008 2.2700 0.44053 482.40 524.14 2.4535 1.2104 1.4319 218.05 0.47516 6.2429 0.011435
-42.625 14.367 0.063788 123.56 126.39 0.71999 581.47 0.0017198 99.036 99.207 0.60208 1.4450 2.2437 1164.2 -0.0051437 197.51 0.12949 2.3659 0.42267 483.46 525.33 2.4506 1.2149 1.4375 218.28 0.46973 6.2692 0.011523
-41.625 15.015 0.066461 126.75 129.71 0.73381 580.32 0.0017232 101.28 101.46 0.61179 1.4475 2.2483 1157.7 -0.0051027 195.30 0.12891 2.4649 0.40569 484.53 526.53 2.4478 1.2195 1.4432 218.50 0.46440 6.2955 0.011612
-40.625 15.686 0.069220 129.97 133.06 0.74770 579.16 0.0017266 103.52 103.71 0.62147 1.4500 2.2529 1151.1 -0.0050611 193.13 0.12832 2.5671 0.38954 485.60 527.73 2.4450 1.2240 1.4489 218.72 0.45917 6.3218 0.011701
-39.625 16.380 0.072068 133.23 136.45 0.76166 578.00 0.0017301 105.78 105.97 0.63113 1.4525 2.2576 1144.6 -0.0050189 190.99 0.12774 2.6725 0.37418 486.67 528.93 2.4423 1.2286 1.4547 218.93 0.45403 6.3481 0.011790
-38.625 17.097 0.075005 136.51 139.88 0.77570 576.83 0.0017336 108.03 108.24 0.64077 1.4550 2.2623 1138.0 -0.0049761 188.88 0.12716 2.7813 0.35955 487.74 530.12 2.4397 1.2332 1.4606 219.13 0.44900 6.3744 0.011880
-37.625 17.838 0.078034 139.83 143.34 0.78981 575.66 0.0017371 110.29 110.51 0.65039 1.4576 2.2671 1131.5 -0.0049327 186.81 0.12658 2.8934 0.34562 488.81 531.32 2.4371 1.2378 1.4665 219.33 0.44405 6.4007 0.011970
-36.625 18.604 0.081157 143.18 146.84 0.80400 574.49 0.0017407 112.56 112.78 0.65999 1.4602 2.2719 1125.0 -0.0048887 184.76 0.12600 3.0089 0.33235 489.88 532.51 2.4346 1.2424 1.4724 219.52 0.43920 6.4270 0.012060
-35.625 19.395 0.084375 146.56 150.38 0.81828 573.32 0.0017442 114.83 115.06 0.66956 1.4628 2.2768 1118.5 -0.0048440 182.75 0.12542 3.1280 0.31969 490.95 533.70 2.4321 1.2471 1.4784 219.70 0.43444 6.4533 0.012151
-34.625 20.212 0.087692 149.98 153.96 0.83263 572.14 0.0017478 117.10 117.34 0.67912 1.4654 2.2818 1111.9 -0.0047987 180.76 0.12485 3.2506 0.30763 492.02 534.89 2.4297 1.2517 1.4845 219.88 0.42977 6.4797 0.012243
-33.625 21.056 0.091109 153.43 157.57 0.84706 570.96 0.0017514 119.38 119.63 0.68865 1.4681 2.2868 1105.4 -0.0047527 178.80 0.12427 3.3770 0.29612 493.09 536.08 2.4273 1.2564 1.4906 220.05 0.42519 6.5060 0.012334
-32.625 21.926 0.094629 156.91 161.23 0.86158 569.77 0.0017551 121.66 121.93 0.69817 1.4708 2.2918 1098.9 -0.0047061 176.87 0.12370 3.5071 0.28514 494.17 537.27 2.4250 1.2611 1.4968 220.21 0.42070 6.5323 0.012426
-31.625 22.823 0.098253 160.43 164.93 0.87618 568.58 0.0017588 123.95 124.23 0.70767 1.4735 2.2970 1092.3 -0.0046587 174.97 0.12313 3.6410 0.27465 495.24 538.46 2.4227 1.2659 1.5031 220.36 0.41629 6.5587 0.012519
-30.625 23.749 0.10198 163.98 168.66 0.89086 567.39 0.0017625 126.24 126.53 0.71714 1.4762 2.3021 1085.8 -0.0046107 173.09 0.12256 3.7787 0.26464 496.31 539.64 2.4205 1.2706 1.5094 220.51 0.41196 6.5850 0.012612
-29.625 24.703 0.10582 167.57 172.44 0.90563 566.19 0.0017662 128.54 128.84 0.72660 1.4790 2.3074 1079.3 -0.0045619 171.24 0.12200 3.9205 0.25507 497.38 540.83 2.4184 1.2754 1.5157 220.65 0.40772 6.6114 0.012706
-28.625 25.687 0.10977 171.20 176.26 0.92049 564.99 0.0017699 130.84 131.16 0.73604 1.4818 2.3126 1072.8 -0.0045124 169.42 0.12143 4.0663 0.24592 498.46 542.01 2.4162 1.2802 1.5222 220.79 0.40356 6.6378 0.012800
-27.625 26.700 0.11384 174.86 180.12 0.93543 563.78 0.0017737 133.15 133.48 0.74547 1.4846 2.3180 1066.2 -0.0044621 167.62 0.12087 4.2163 0.23717 499.53 543.19 2.4142 1.2850 1.5286 220.91 0.39947 6.6642 0.012894
-26.625 27.743 0.11802 178.56 184.02 0.95046 562.57 0.0017775 135.47 135.81 0.75487 1.4874 2.3234 1059.7 -0.0044111 165.84 0.12031 4.3705 0.22881 500.60 544.37 2.4122 1.2899 1.5352 221.03 0.39547 6.6906 0.012989
-25.625 28.817 0.12232 182.29 187.97 0.96558 561.36 0.0017814 137.78 138.14 0.76426 1.4902 2.3289 1053.2 -0.0043593 164.09 0.11975 4.5290 0.22080 501.68 545.55 2.4102 1.2947 1.5418 221.14 0.39154 6.7171 0.013084
-24.625 29.923 0.12674 186.07 191.96 0.98080 560.14 0.0017853 140.11 140.48 0.77363 1.4931 2.3344 1046.7 -0.0043067 162.36 0.11919 4.6918 0.21314 502.75 546.72 2.4083 1.2996 1.5485 221.25 0.38768 6.7436 0.013180
-23.625 31.061 0.13128 189.88 196.00 0.99610 558.92 0.0017892 142.44 142.82 0.78298 1.4960 2.3400 1040.1 -0.0042533 160.65 0.11863 4.8592 0.20580 503.82 547.90 2.4064 1.3045 1.5552 221.35 0.38391 6.7701 0.013277
-22.625 32.232 0.13595 193.73 200.08 1.0115 557.69 0.0017931 144.77 145.17 0.79232 1.4990 2.3457 1033.6 -0.0041990 158.97 0.11807 5.0311 0.19877 504.90 549.07 2.4045 1.3095 1.5621 221.44 0.38020 6.7967 0.013374
-21.625 33.435 0.14075 197.62 204.20 1.0270 556.46 0.0017971 147.11 147.52 0.80164 1.5019 2.3514 1027.1 -0.0041439 157.30 0.11752 5.2076 0.19203 505.97 550.24 2.4027 1.3144 1.5690 221.52 0.37656 6.8232 0.013471
-20.625 34.673 0.14568 201.55 208.38 1.0426 555.23 0.0018011 149.45 149.88 0.81095 1.5049 2.3572 1020.6 -0.0040879 155.66 0.11697 5.3889 0.18557 507.04 551.40 2.4010 1.3194 1.5759 221.59 0.37300 6.8499 0.013569
-19.625 35.946 0.15074 205.51 212.59 1.0583 553.99 0.0018051 151.80 152.25 0.82024 1.5079 2.3630 1014.0 -0.0040311 154.04 0.11642 5.5750 0.17937 508.11 552.57 2.3992 1.3244 1.5829 221.66 0.36950 6.8765 0.013668
-18.625 37.253 0.15594 209.52 216.86 1.0740 552.74 0.0018092 154.16 154.62 0.82952 1.5109 2.3689 1007.5 -0.0039733 152.44 0.11587 5.7660 0.17343 509.19 553.73 2.3976 1.3294 1.5901 221.72 0.36608 6.9032 0.013767
-17.625 38.596 0.16128 213.57 221.17 1.0899 551.49 0.0018133 156.52 157.00 0.83878 1.5140 2.3749 1001.0 -0.0039145 150.86 0.11532 5.9621 0.16773 510.26 554.89 2.3959 1.3345 1.5972 221.77 0.36272 6.9300 0.013867
-16.625 39.976 0.16676 217.66 225.53 1.1059 550.24 0.0018174 158.89 159.39 0.84803 1.5171 2.3810 994.44 -0.0038549 149.29 0.11478 6.1632 0.16225 511.33 556.05 2.3943 1.3395 1.6045 221.81 0.35942 6.9568 0.013968
-15.625 41.392 0.17238 221.79 229.94 1.1220 548.98 0.0018216 161.26 161.78 0.85726 1.5202 2.3871 987.91 -0.0037942 147.75 0.11423 6.3696 0.15700 512.40 557.20 2.3927 1.3446 1.6119 221.85 0.35619 6.9836 0.014069
-14.625 42.846 0.17816 225.96 234.40 1.1381 547.71 0.0018258 163.64 164.18 0.86649 1.5233 2.3933 981.37 -0.0037325 146.22 0.11369 6.5812 0.15195 513.47 558.36 2.3912 1.3497 1.6193 221.87 0.35302 7.0105 0.014170
-13.625 44.338 0.18409 230.18 238.91 1.1544 546.44 0.0018300 166.02 166.58 0.87569 1.5264 2.3996 974.83 -0.0036698 144.72 0.11315 6.7983 0.14710 514.54 559.51 2.3897 1.3549 1.6268 221.89 0.34992 7.0375 0.014273
-12.625 45.870 0.19017 234.44 243.47 1.1708 545.17 0.0018343 168.41 168.99 0.88489 1.5296 2.4059 968.29 -0.0036061 143.23 0.11261 7.0208 0.14243 515.61 560.65 2.3883 1.3600 1.6344 221.90 0.34688 7.0646 0.014376
-11.625 47.440 0.19640 238.74 248.08 1.1873 543.89 0.0018386 170.81 171.41 0.89407 1.5328 2.4124 961.75 -0.0035413 141.76 0.11208 7.2490 0.13795 516.68 561.80 2.3868 1.3652 1.6421 221.91 0.34389 7.0917 0.014479
-10.625 49.051 0.20280 243.08 252.74 1.2038 542.60 0.0018430 173.21 173.83 0.90324 1.5360 2.4189 955.20 -0.0034753 140.30 0.11154 7.4829 0.13364 517.75 562.94 2.3854 1.3704 1.6498 221.90 0.34097 7.1188 0.014584
-9.6250 50.703 0.20937 247.47 257.46 1.2205 541.31 0.0018474 175.61 176.26 0.91240 1.5393 2.4255 948.65 -0.0034082 138.86 0.11101 7.7226 0.12949 518.81 564.08 2.3841 1.3757 1.6577 221.88 0.33810 7.1461 0.014689
-8.6250 52.396 0.21610 251.90 262.22 1.2373 540.02 0.0018518 178.03 178.70 0.92154 1.5426 2.4321 942.10 -0.0033400 137.44 0.11048 7.9683 0.12550 519.88 565.21 2.3827 1.3809 1.6657 221.86 0.33529 7.1734 0.014795
-7.6250 54.131 0.22300 256.38 267.04 1.2542 538.72 0.0018563 180.45 181.14 0.93068 1.5459 2.4389 935.55 -0.0032705 136.03 0.10995 8.2200 0.12165 520.94 566.35 2.3814 1.3862 1.6737 221.83 0.33254 7.2008 0.014902
-6.6250 55.909 0.23008 260.90 271.91 1.2712 537.41 0.0018608 182.87 183.59 0.93980 1.5492 2.4457 928.99 -0.0031998 134.64 0.10942 8.4779 0.11795 522.01 567.48 2.3801 1.3915 1.6819 221.79 0.32984 7.2284 0.015009
-5.6250 57.730 0.23734 265.47 276.84 1.2883 536.10 0.0018653 185.30 186.05 0.94892 1.5525 2.4526 922.43 -0.0031279 133.27 0.10889 8.7420 0.11439 523.07 568.60 2.3789 1.3969 1.6902 221.74 0.32720 7.2560 0.015117
-4.6250 59.595 0.24477 270.08 281.82 1.3055 534.78 0.0018699 187.74 188.51 0.95802 1.5559 2.4596 915.87 -0.0030546 131.91 0.10837 9.0126 0.11096 524.13 569.72 2.3777 1.4022 1.6985 221.68 0.32461 7.2837 0.015226
-3.6250 61.505 0.25240 274.74 286.86 1.3228 533.45 0.0018746 190.19 190.98 0.96711 1.5593 2.4667 909.30 -0.0029800 130.56 0.10785 9.2896 0.10765 525.19 570.84 2.3765 1.4076 1.7070 221.62 0.32207 7.3115 0.015336
-2.6250 63.461 0.26021 279.45 291.95 1.3403 532.12 0.0018793 192.64 193.46 0.97620 1.5627 2.4739 902.73 -0.0029041 129.23 0.10733 9.5733 0.10446 526.25 571.96 2.3753 1.4131 1.7156 221.54 0.31958 7.3394 0.015447
-1.6250 65.462 0.26822 284.20 297.10 1.3578 530.78 0.0018840 195.10 195.95 0.98527 1.5662 2.4811 896.16 -0.0028267 127.91 0.10681 9.8638 0.10138 527.31 573.07 2.3742 1.4185 1.7243 221.45 0.31715 7.3674 0.015559
-0.62500 67.510 0.27643 289.00 302.30 1.3755 529.44 0.0018888 197.56 198.44 0.99434 1.5696 2.4885 889.58 -0.0027478 126.61 0.10629 10.161 0.098414 528.37 574.18 2.3731 1.4240 1.7331 221.36 0.31476 7.3956 0.015671
0.37500 69.606 0.28484 293.85 307.57 1.3932 528.09 0.0018936 200.03 200.94 1.0034 1.5731 2.4960 883.00 -0.0026675 125.32 0.10578 10.466 0.095552 529.42 575.28 2.3720 1.4295 1.7421 221.26 0.31242 7.4239 0.015785
1.3750 71.749 0.29346 298.75 312.89 1.4111 526.73 0.0018985 202.51 203.45 1.0124 1.5767 2.5035 876.42 -0.0025856 124.04 0.10527 10.777 0.092790 530.48 576.38 2.3709 1.4350 1.7512 221.14 0.31013 7.4523 0.015899
2.3750 73.941 0.30229 303.70 318.27 1.4291 525.37 0.0019034 204.99 205.96 1.0215 1.5802 2.5112 869.83 -0.0025022 122.78 0.10476 11.096 0.090123 531.53 577.47 2.3699 1.4406 1.7604 221.02 0.30789 7.4808 0.016015
3.3750 76.183 0.31134 308.70 323.70 1.4472 523.99 0.0019084 207.48 208.48 1.0305 1.5838 2.5190 863.24 -0.0024171 121.53 0.10425 11.422 0.087549 532.58 578.56 2.3688 1.4462 1.7697 220.89 0.30569 7.5095 0.016131
4.3750 78.475 0.32060 313.74 329.20 1.4654 522.62 0.0019134 209.98 211.01 1.0395 1.5874 2.5268 856.64 -0.0023303 120.29 0.10374 11.756 0.085062 533.63 579.65 2.3678 1.4518 1.7792 220.75 0.30354 7.5384 0.016249
5.3750 80.817 0.33010 318.84 334.76 1.4837 521.23 0.0019185 212.48 213.55 1.0486 1.5910 2.5348 850.04 -0.0022417 119.06 0.10324 12.098 0.082660 534.67 580.73 2.3669 1.4575 1.7888 220.60 0.30144 7.5674 0.016368
6.3750 83.211 0.33983 323.98 340.38 1.5022 519.84 0.0019237 215.00 216.10 1.0576 1.5946 2.5429 843.43 -0.0021514 117.85 0.10273 12.447 0.080340 535.72 581.81 2.3659 1.4632 1.7986 220.44 0.29938 7.5966 0.016487
7.3750 85.657 0.34979 329.18 346.06 1.5207 518.44 0.0019289 217.51 218.65 1.0666 1.5983 2.5511 836.82 -0.0020593 116.65 0.10223 12.805 0.078096 536.76 582.88 2.3650 1.4689 1.8085 220.27 0.29736 7.6259 0.016608
8.3750 88.156 0.36000 334.43 351.80 1.5394 517.03 0.0019341 220.04 221.22 1.0756 1.6020 2.5595 830.20 -0.0019652 115.46 0.10173 13.170 0.075928 537.80 583.95 2.3640 1.4746 1.8186 220.08 0.29538 7.6555 0.016730
9.3750 90.708 0.37045 339.73 357.60 1.5582 515.62 0.0019394 222.57 223.79 1.0846 1.6057 2.5679 823.58 -0.0018691 114.28 0.10124 13.545 0.073830 538.84 585.01 2.3631 1.4804 1.8288 219.89 0.29345 7.6852 0.016853
10.375 93.315 0.38116 345.09 363.47 1.5771 514.19 0.0019448 225.11 226.37 1.0936 1.6095 2.5765 816.96 -0.0017710 113.11 0.10074 13.927 0.071802 539.87 586.07 2.3622 1.4863 1.8392 219.69 0.29156 7.7151 0.016978
11.375 95.977 0.39213 350.49 369.40 1.5962 512.76 0.0019502 227.66 228.95 1.1025 1.6132 2.5852 810.32 -0.0016708 111.95 0.10025 14.319 0.069840 540.90 587.12 2.3614 1.4921 1.8498 219.48 0.28971 7.7452 0.017103
12.375 98.694 0.40336 355.95 375.39 1.6153 511.32 0.0019557 230.22 231.55 1.1115 1.6170 2.5940 803.68 -0.0015685 110.80 0.099756 14.719 0.067941 541.93 588.17 2.3605 1.4980 1.8605 219.26 0.28790 7.7756 0.017230
13.375 101.47 0.41487 361.47 381.45 1.6346 509.87 0.0019613 232.78 234.15 1.1205 1.6208 2.6030 797.04 -0.0014639 109.67 0.099267 15.128 0.066103 542.96 589.21 2.3597 1.5040 1.8715 219.03 0.28612 7.8061 0.017359
14.375 104.30 0.42665 367.03 387.58 1.6540 508.42 0.0019669 235.35 236.77 1.1295 1.6247 2.6121 790.39 -0.0013569 108.54 0.098779 15.547 0.064323 543.99 590.24 2.3588 1.5099 1.8826 218.79 0.28439 7.8369 0.017488
15.375 107.19 0.43873 372.65 393.77 1.6735 506.95 0.0019726 237.93 239.39 1.1384 1.6286 2.6214 783.73 -0.0012476 107.43 0.098294 15.974 0.062600 545.01 591.27 2.3580 1.5159 1.8940 218.53 0.28270 7.8680 0.017619
16.375 110.13 0.45109 378.33 400.03 1.6931 505.48 0.0019783 240.52 242.02 1.1474 1.6324 2.6308 777.07 -0.0011357 106.32 0.097810 16.412 0.060931 546.03 592.29 2.3572 1.5220 1.9055 218.27 0.28104 7.8993 0.017752
17.375 113.14 0.46376 384.06 406.35 1.7129 504.00 0.0019841 243.11 244.66 1.1564 1.6364 2.6403 770.40 -0.0010213 105.22 0.097328 16.859 0.059314 547.04 593.31 2.3564 1.5281 1.9172 217.99 0.27942 7.9308 0.017886
18.375 116.21 0.47674 389.85 412.74 1.7328 502.50 0.0019900 245.72 247.31 1.1653 1.6403 2.6501 763.72 -0.00090422 104.14 0.096848 17.317 0.057747 548.05 594.32 2.3557 1.5342 1.9292 217.71 0.27783 7.9626 0.018021
19.375 119.33 0.49003 395.70 419.20 1.7528 501.00 0.0019960 248.33 249.97 1.1743 1.6443 2.6599 757.04 -0.00078435 103.06 0.096371 17.785 0.056228 549.06 595.33 2.3549 1.5404 1.9414 217.41 0.27628 7.9947 0.018159
20.375 122.52 0.50365 401.60 425.73 1.7730 499.49 0.0020020 250.95 252.64 1.1832 1.6483 2.6700 750.35 -0.00066161 101.99 0.095895 18.263 0.054756 550.07 596.32 2.3541 1.5466 1.9538 217.10 0.27477 8.0272 0.018297
21.375 125.77 0.51760 407.56 432.33 1.7932 497.97 0.0020082 253.57 255.32 1.1922 1.6523 2.6802 743.64 -0.00053589 100.93 0.095420 18.752 0.053328 551.07 597.31 2.3534 1.5528 1.9665 216.78 0.27329 8.0599 0.018438
22.375 129.08 0.53190 413.57 439.00 1.8136 496.43 0.0020144 256.21 258.00 1.2012 1.6563 2.6906 736.94 -0.00040708 99.877 0.094948 19.252 0.051943 552.07 598.30 2.3526 1.5591 1.9795 216.45 0.27184 8.0929 0.018580
23.375 132.46 0.54654 419.65 445.74 1.8341 494.89 0.0020206 258.86 260.70 1.2101 1.6604 2.7012 730.22 -0.00027505 98.834 0.094478 19.763 0.050600 553.06 599.27 2.3519 1.5655 1.9927 216.11 0.27043 8.1263 0.018724
24.375 135.90 0.56155 425.79 452.56 1.8548 493.34 0.0020270 261.51 263.41 1.2191 1.6645 2.7120 723.49 -0.00013968 97.800 0.094009 20.285 0.049297 554.05 600.24 2.3512 1.5718 2.0061 215.75 0.26906 8.1600 0.018870
25.375 139.41 0.57693 431.98 459.44 1.8756 491.77 0.0020335 264.17 266.13 1.2280 1.6686 2.7230 716.76 -8.3775e-07 96.773 0.093543 20.820 0.048032 555.03 601.20 2.3504 1.5783 2.0199 215.39 0.26771 8.1941 0.019017
26.375 142.98 0.59270 438.23 466.40 1.8965 490.20 0.0020400 266.84 268.85 1.2370 1.6728 2.7342 710.01 0.00014161 95.755 0.093078 21.366 0.046804 556.01 602.15 2.3497 1.5847 2.0340 215.01 0.26640 8.2286 0.019167
27.375 146.62 0.60886 444.55 473.43 1.9175 488.61 0.0020466 269.52 271.59 1.2459 1.6770 2.7456 703.26 0.00028782 94.745 0.092615 21.924 0.045612 556.99 603.10 2.3490 1.5913 2.0484 214.62 0.26512 8.2634 0.019319
28.375 150.33 0.62542 450.92 480.54 1.9387 487.01 0.0020533 272.21 274.34 1.2549 1.6812 2.7573 696.49 0.00043793 93.742 0.092154 22.495 0.044454 557.96 604.03 2.3483 1.5978 2.0631 214.21 0.26387 8.2987 0.019472
29.375 154.10 0.64240 457.36 487.72 1.9600 485.40 0.0020601 274.91 277.10 1.2638 1.6854 2.7691 689.72 0.00059212 92.747 0.091695 23.079 0.043329 558.92 604.96 2.3476 1.6044 2.0781 213.80 0.26265 8.3344 0.019628
30.375 157.94 0.65981 463.86 494.98 1.9815 483.78 0.0020671 277.62 279.87 1.2728 1.6897 2.7813 682.93 0.00075055 91.760 0.091238 23.676 0.042237 559.88 605.88 2.3469 1.6111 2.0935 213.37 0.26147 8.3705 0.019786
31.375 161.86 0.67767 470.43 502.31 2.0031 482.15 0.0020741 280.34 282.66 1.2818 1.6939 2.7936 676.13 0.00091340 90.779 0.090782 24.287 0.041175 560.84 606.79 2.3462 1.6178 2.1092 212.93 0.26031 8.4071 0.019947
32.375 165.84 0.69598 477.05 509.72 2.0248 480.50 0.0020812 283.07 285.45 1.2908 1.6983 2.8063 669.32 0.0010809 89.806 0.090328 24.911 0.040143 561.79 607.69 2.3455 1.6246 2.1254 212.48 0.25919 8.4442 0.020110
33.375 169.90 0.71476 483.74 517.21 2.0467 478.83 0.0020884 285.81 288.26 1.2997 1.7026 2.8192 662.50 0.0012532 88.840 0.089876 25.549 0.039140 562.73 608.58 2.3448 1.6314 2.1419 212.01 0.25809 8.4818 0.020275
34.375 174.02 0.73404 490.50 524.78 2.0687 477.16 0.0020957 288.56 291.07 1.3087 1.7070 2.8324 655.67 0.0014305 87.880 0.089426 26.202 0.038164 563.67 609.46 2.3440 1.6383 2.1589 211.53 0.25702 8.5199 0.020443
35.375 178.22 0.75381 497.32 532.43 2.0908 475.47 0.0021032 291.32 293.90 1.3177 1.7114 2.8459 648.82 0.0016131 86.927 0.088977 26.870 0.037216 564.60 610.33 2.3433 1.6452 2.1763 211.04 0.25599 8.5586 0.020613
36.375 182.50 0.77410 504.21 540.16 2.1131 473.77 0.0021107 294.09 296.74 1.3267 1.7158 2.8597 641.96 0.0018012 85.980 0.088531 27.553 0.036293 565.52 611.19 2.3426 1.6522 2.1942 210.53 0.25498 8.5978 0.020786
37.375 186.84 0.79494 511.16 547.97 2.1355 472.05 0.0021184 296.87 299.60 1.3357 1.7203 2.8739 635.08 0.0019950 85.040 0.088085 28.252 0.035395 566.44 612.04 2.3419 1.6592 2.2125 210.01 0.25400 8.6376 0.020962
38.375 191.27 0.81632 518.18 555.86 2.1581 470.31 0.0021262 299.66 302.46 1.3447 1.7248 2.8884 628.19 0.0021949 84.105 0.087642 28.967 0.034522 567.35 612.88 2.3411 1.6663 2.2314 209.47 0.25305 8.6780 0.021141
39.375 195.77 0.83829 525.27 563.84 2.1808 468.56 0.0021342 302.46 305.34 1.3537 1.7293 2.9033 621.29 0.0024011 83.177 0.087200 29.699 0.033671 568.26 613.70 2.3404 1.6734 2.2508 208.92 0.25213 8.7190 0.021323
40.375 200.34 0.86085 532.43 571.90 2.2037 466.80 0.0021423 305.27 308.23 1.3627 1.7339 2.9185 614.37 0.0026140 82.254 0.086760 30.447 0.032844 569.15 614.52 2.3396 1.6806 2.2708 208.36 0.25123 8.7608 0.021508
41.375 205.00 0.88403 539.66 580.04 2.2267 465.01 0.0021505 308.10 311.14 1.3718 1.7385 2.9342 607.43 0.0028338 81.338 0.086322 31.214 0.032037 570.04 615.32 2.3389 1.6879 2.2913 207.78 0.25037 8.8032 0.021696
42.375 209.73 0.90785 546.96 588.28 2.2499 463.21 0.0021588 310.94 314.06 1.3808 1.7432 2.9502 600.47 0.0030609 80.426 0.085885 31.998 0.031252 570.92 616.11 2.3381 1.6952 2.3125 207.19 0.24953 8.8463 0.021888
43.375 214.54 0.93234 554.33 596.59 2.2732 461.40 0.0021673 313.79 316.99 1.3899 1.7478 2.9667 593.50 0.0032957 79.520 0.085449 32.800 0.030488 571.79 616.88 2.3373 1.7027 2.3344 206.58 0.24871 8.8902 0.022084
44.375 219.43 0.95752 561.77 605.00 2.2967 459.56 0.0021760 316.65 319.94 1.3989 1.7525 2.9837 586.51 0.0035386 78.619 0.085015 33.622 0.029742 572.65 617.65 2.3365 1.7101 2.3569 205.96 0.24793 8.9349 0.022283
45.375 224.41 0.98342 569.29 613.50 2.3203 457.71 0.0021848 319.52 322.90 1.4080 1.7573 3.0012 579.50 0.0037900 77.723 0.084583 34.463 0.029016 573.50 618.40 2.3357 1.7177 2.3802 205.32 0.24717 8.9805 0.022485
46.375 228.04 undefined 574.67 619.60 2.3372 35.000 0.028571 574.67 619.60 2.3372 1.7233 2.3927 205.18 0.24543 9.0209 0.022658 35.000 0.028571 574.67 619.60 2.3372 1.7233 2.3927 205.18 0.24543 9.0209 0.022658
47.375 229.32 undefined 576.40 621.57 2.3426 35.000 0.028571 576.40 621.57 2.3426 1.7256 2.3865 205.87 0.24206 9.0515 0.022776 35.000 0.028571 576.40 621.57 2.3426 1.7256 2.3865 205.87 0.24206 9.0515 0.022776
48.375 230.59 undefined 578.12 623.55 2.3480 35.000 0.028571 578.12 623.55 2.3480 1.7279 2.3806 206.56 0.23877 9.0822 0.022895 35.000 0.028571 578.12 623.55 2.3480 1.7279 2.3806 206.56 0.23877 9.0822 0.022895
49.375 231.86 undefined 579.85 625.53 2.3534 35.000 0.028571 579.85 625.53 2.3534 1.7303 2.3750 207.24 0.23556 9.1128 0.023014 35.000 0.028571 579.85 625.53 2.3534 1.7303 2.3750 207.24 0.23556 9.1128 0.023014
50.375 233.13 undefined 581.59 627.51 2.3587 35.000 0.028571 581.59 627.51 2.3587 1.7328 2.3698 207.93 0.23242 9.1434 0.023134 35.000 0.028571 581.59 627.51 2.3587 1.7328 2.3698 207.93 0.23242 9.1434 0.023134
51.375 234.40 undefined 583.32 629.49 2.3641 35.000 0.028571 583.32 629.49 2.3641 1.7353 2.3649 208.60 0.22934 9.1739 0.023255 35.000 0.028571 583.32 629.49 2.3641 1.7353 2.3649 208.60 0.22934 9.1739 0.023255
52.375 235.66 undefined 585.06 631.48 2.3694 35.000 0.028571 585.06 631.48 2.3694 1.7378 2.3602 209.27 0.22634 9.2044 0.023376 35.000 0.028571 585.06 631.48 2.3694 1.7378 2.3602 209.27 0.22634 9.2044 0.023376
53.375 236.92 undefined 586.80 633.47 2.3747 35.000 0.028571 586.80 633.47 2.3747 1.7404 2.3558 209.94 0.22340 9.2349 0.023497 35.000 0.028571 586.80 633.47 2.3747 1.7404 2.3558 209.94 0.22340 9.2349 0.023497
54.375 238.17 undefined 588.54 635.46 2.3801 35.000 0.028571 588.54 635.46 2.3801 1.7430 2.3517 210.61 0.22052 9.2654 0.023620 35.000 0.028571 588.54 635.46 2.3801 1.7430 2.3517 210.61 0.22052 9.2654 0.023620
55.375 239.43 undefined 590.28 637.45 2.3854 35.000 0.028571 590.28 637.45 2.3854 1.7457 2.3479 211.27 0.21771 9.2958 0.023742 35.000 0.028571 590.28 637.45 2.3854 1.7457 2.3479 211.27 0.21771 9.2958 0.023742
56.375 240.68 undefined 592.03 639.44 2.3907 35.000 0.028571 592.03 639.44 2.3907 1.7484 2.3443 211.93 0.21495 9.3262 0.023866 35.000 0.028571 592.03 639.44 2.3907 1.7484 2.3443 211.93 0.21495 9.3262 0.023866
57.375 241.93 undefined 593.78 641.44 2.3960 35.000 0.028571 593.78 641.44 2.3960 1.7511 2.3409 212.58 0.21225 9.3566 0.023989 35.000 0.028571 593.78 641.44 2.3960 1.7511 2.3409 212.58 0.21225 9.3566 0.023989
58.375 243.17 undefined 595.53 643.43 2.4013 35.000 0.028571 595.53 643.43 2.4013 1.7539 2.3377 213.24 0.20961 9.3869 0.024114 35.000 0.028571 595.53 643.43 2.4013 1.7539 2.3377 213.24 0.20961 9.3869 0.024114
59.375 244.41 undefined 597.29 645.43 2.4066 35.000 0.028571 597.29 645.43 2.4066 1.7567 2.3348 213.88 0.20702 9.4172 0.024238 35.000 0.028571 597.29 645.43 2.4066 1.7567 2.3348 213.88 0.20702 9.4172 0.024238
60.375 245.65 undefined 599.04 647.44 2.4119 35.000 0.028571 599.04 647.44 2.4119 1.7596 2.3321 214.53 0.20448 9.4475 0.024364 35.000 0.028571 599.04 647.44 2.4119 1.7596 2.3321 214.53 0.20448 9.4475 0.024364
61.375 246.89 undefined 600.81 649.44 2.4171 35.000 0.028571 600.81 649.44 2.4171 1.7625 2.3295 215.17 0.20199 9.4778 0.024489 35.000 0.028571 600.81 649.44 2.4171 1.7625 2.3295 215.17 0.20199 9.4778 0.024489
62.375 248.13 undefined 602.57 651.45 2.4224 35.000 0.028571 602.57 651.45 2.4224 1.7655 2.3272 215.81 0.19955 9.5080 0.024616 35.000 0.028571 602.57 651.45 2.4224 1.7655 2.3272 215.81 0.19955 9.5080 0.024616
63.375 249.36 undefined 604.34 653.46 2.4277 35.000 0.028571 604.34 653.46 2.4277 1.7685 2.3250 216.44 0.19715 9.5382 0.024742 35.000 0.028571 604.34 653.46 2.4277 1.7685 2.3250 216.44 0.19715 9.5382 0.024742
64.375 250.59 undefined 606.11 655.47 2.4329 35.000 0.028571 606.11 655.47 2.4329 1.7715 2.3231 217.07 0.19480 9.5683 0.024869 35.000 0.028571 606.11 655.47 2.4329 1.7715 2.3231 217.07 0.19480 9.5683 0.024869
65.375 251.82 undefined 607.88 657.49 2.4381 35.000 0.028571 607.88 657.49 2.4381 1.7745 2.3213 217.70 0.19250 9.5984 0.024997 35.000 0.028571 607.88 657.49 2.4381 1.7745 2.3213 217.70 0.19250 9.5984 0.024997
66.375 253.05 undefined 609.66 659.50 2.4434 35.000 0.028571 609.66 659.50 2.4434 1.7776 2.3196 218.33 0.19023 9.6285 0.025125 35.000 0.028571 609.66 659.50 2.4434 1.7776 2.3196 218.33 0.19023 9.6285 0.025125
67.375 254.27 undefined 611.43 661.52 2.4486 35.000 0.028571 611.43 661.52 2.4486 1.7808 2.3181 218.95 0.18801 9.6586 0.025253 35.000 0.028571 611.43 661.52 2.4486 1.7808 2.3181 218.95 0.18801 9.6586 0.025253
68.375 255.50 undefined 613.22 663.55 2.4538 35.000 0.028571 613.22 663.55 2.4538 1.7839 2.3168 219.57 0.18583 9.6886 0.025382 35.000 0.028571 613.22 663.55 2.4538 1.7839 2.3168 219.57 0.18583 9.6886 0.025382
69.375 256.72 undefined 615.00 665.57 2.4591 35.000 0.028571 615.00 665.57 2.4591 1.7871 2.3156 220.19 0.18369 9.7186 0.025512 35.000 0.028571 615.00 665.57 2.4591 1.7871 2.3156 220.19 0.18369 9.7186 0.025512
70.375 257.94 undefined 616.79 667.60 2.4643 35.000 0.028571 616.79 667.60 2.4643 1.7903 2.3146 220.80 0.18159 9.7486 0.025641 35.000 0.028571 616.79 667.60 2.4643 1.7903 2.3146 220.80 0.18159 9.7486 0.025641
71.375 259.15 undefined 618.58 669.63 2.4695 35.000 0.028571 618.58 669.63 2.4695 1.7936 2.3136 221.41 0.17952 9.7786 0.025772 35.000 0.028571 618.58 669.63 2.4695 1.7936 2.3136 221.41 0.17952 9.7786 0.025772
72.375 260.37 undefined 620.38 671.67 2.4747 35.000 0.028571 620.38 671.67 2.4747 1.7968 2.3128 222.02 0.17749 9.8085 0.025902 35.000 0.028571 620.38 671.67 2.4747 1.7968 2.3128 222.02 0.17749 9.8085 0.025902
73.375 261.58 undefined 622.18 673.71 2.4799 35.000 0.028571 622.18 673.71 2.4799 1.8001 2.3122 222.63 0.17550 9.8384 0.026033 35.000 0.028571 622.18 673.71 2.4799 1.8001 2.3122 222.63 0.17550 9.8384 0.026033
74.375 262.79 undefined 623.98 675.75 2.4851 35.000 0.028571 623.98 675.75 2.4851 1.8034 2.3116 223.23 0.17354 9.8683 0.026164 35.000 0.028571 623.98 675.75 2.4851 1.8034 2.3116 223.23 0.17354 9.8683 0.026164
75.375 264.00 undefined 625.78 677.79 2.4903 35.000 0.028571 625.78 677.79 2.4903 1.8068 2.3111 223.83 0.17161 9.8981 0.026296 35.000 0.028571 625.78 677.79 2.4903 1.8068 2.3111 223.83 0.17161 9.8981 0.026296
76.375 265.21 undefined 627.59 679.84 2.4955 35.000 0.028571 627.59 679.84 2.4955 1.8101 2.3108 224.43 0.16972 9.9279 0.026428 35.000 0.028571 627.59 679.84 2.4955 1.8101 2.3108 224.43 0.16972 9.9279 0.026428
77.375 266.41 undefined 629.40 681.89 2.5006 35.000 0.028571 629.40 681.89 2.5006 1.8135 2.3105 225.02 0.16786 9.9577 0.026561 35.000 0.028571 629.40 681.89 2.5006 1.8135 2.3105 225.02 0.16786 9.9577 0.026561
78.375 267.62 undefined 631.22 683.94 2.5058 35.000 0.028571 631.22 683.94 2.5058 1.8169 2.3104 225.62 0.16603 9.9874 0.026694 35.000 0.028571 631.22 683.94 2.5058 1.8169 2.3104 225.62 0.16603 9.9874 0.026694
79.375 268.82 undefined 633.04 685.99 2.5110 35.000 0.028571 633.04 685.99 2.5110 1.8203 2.3103 226.21 0.16424 10.017 0.026827 35.000 0.028571 633.04 685.99 2.5110 1.8203 2.3103 226.21 0.16424 10.017 0.026827
80.375 270.02 undefined 634.86 688.05 2.5161 35.000 0.028571 634.86 688.05 2.5161 1.8237 2.3104 226.80 0.16247 10.047 0.026961 35.000 0.028571 634.86 688.05 2.5161 1.8237 2.3104 226.80 0.16247 10.047 0.026961
81.375 271.22 undefined 636.68 690.11 2.5213 35.000 0.028571 636.68 690.11 2.5213 1.8271 2.3105 227.38 0.16073 10.076 0.027095 35.000 0.028571 636.68 690.11 2.5213 1.8271 2.3105 227.38 0.16073 10.076 0.027095
82.375 272.42 undefined 638.51 692.18 2.5264 35.000 0.028571 638.51 692.18 2.5264 1.8306 2.3107 227.97 0.15902 10.106 0.027230 35.000 0.028571 638.51 692.18 2.5264 1.8306 2.3107 227.97 0.15902 10.106 0.027230
83.375 273.62 undefined 640.35 694.25 2.5316 35.000 0.028571 640.35 694.25 2.5316 1.8340 2.3110 228.55 0.15734 10.136 0.027365 35.000 0.028571 640.35 694.25 2.5316 1.8340 2.3110 228.55 0.15734 10.136 0.027365
84.375 274.81 undefined 642.18 696.32 2.5367 35.000 0.028571 642.18 696.32 2.5367 1.8375 2.3114 229.13 0.15568 10.165 0.027500 35.000 0.028571 642.18 696.32 2.5367 1.8375 2.3114 229.13 0.15568 10.165 0.027500
85.375 276.00 undefined 644.02 698.39 2.5419 35.000 0.028571 644.02 698.39 2.5419 1.8410 2.3119 229.70 0.15406 10.195 0.027635 35.000 0.028571 644.02 698.39 2.5419 1.8410 2.3119 229.70 0.15406 10.195 0.027635
86.375 277.20 undefined 645.86 700.47 2.5470 35.000 0.028571 645.86 700.47 2.5470 1.8445 2.3124 230.28 0.15245 10.224 0.027771 35.000 0.028571 645.86 700.47 2.5470 1.8445 2.3124 230.28 0.15245 10.224 0.027771
87.375 278.39 undefined 647.71 702.55 2.5521 35.000 0.028571 647.71 702.55 2.5521 1.8481 2.3130 230.85 0.15088 10.254 0.027908 35.000 0.028571 647.71 702.55 2.5521 1.8481 2.3130 230.85 0.15088 10.254 0.027908
88.375 279.57 undefined 649.56 704.63 2.5572 35.000 0.028571 649.56 704.63 2.5572 1.8516 2.3137 231.42 0.14933 10.283 0.028044 35.000 0.028571 649.56 704.63 2.5572 1.8516 2.3137 231.42 0.14933 10.283 0.028044
89.375 280.76 undefined 651.41 706.72 2.5624 35.000 0.028571 651.41 706.72 2.5624 1.8551 2.3145 231.99 0.14780 10.313 0.028182 35.000 0.028571 651.41 706.72 2.5624 1.8551 2.3145 231.99 0.14780 10.313 0.028182
90.375 281.95 undefined 653.27 708.81 2.5675 35.000 0.028571 653.27 708.81 2.5675 1.8587 2.3153 232.56 0.14629 10.342 0.028319 35.000 0.028571 653.27 708.81 2.5675 1.8587 2.3153 232.56 0.14629 10.342 0.028319
91.375 283.13 undefined 655.13 710.91 2.5726 35.000 0.028571 655.13 710.91 2.5726 1.8623 2.3162 233.12 0.14481 10.372 0.028457 35.000 0.028571 655.13 710.91 2.5726 1.8623 2.3162 233.12 0.14481 10.372 0.028457
92.375 284.32 undefined 656.99 713.00 2.5777 35.000 0.028571 656.99 713.00 2.5777 1.8659 2.3172 233.68 0.14336 10.401 0.028595 35.000 0.028571 656.99 713.00 2.5777 1.8659 2.3172 233.68 0.14336 10.401 0.028595
93.375 285.50 undefined 658.86 715.10 2.5828 35.000 0.028571 658.86 715.10 2.5828 1.8695 2.3182 234.24 0.14192 10.430 0.028733 35.000 0.028571 658.86 715.10 2.5828 1.8695 2.3182 234.24 0.14192 10.430 0.028733
94.375 286.68 undefined 660.73 717.21 2.5879 35.000 0.028571 660.73 717.21 2.5879 1.8731 2.3193 234.80 0.14050 10.459 0.028872 35.000 0.028571 660.73 717.21 2.5879 1.8731 2.3193 234.80 0.14050 10.459 0.028872
95.375 287.86 undefined 662.61 719.31 2.5930 35.000 0.028571 662.61 719.31 2.5930 1.8767 2.3204 235.36 0.13911 10.489 0.029011 35.000 0.028571 662.61 719.31 2.5930 1.8767 2.3204 235.36 0.13911 10.489 0.029011
96.375 289.04 undefined 664.49 721.43 2.5981 35.000 0.028571 664.49 721.43 2.5981 1.8804 2.3216 235.91 0.13774 10.518 0.029151 35.000 0.028571 664.49 721.43 2.5981 1.8804 2.3216 235.91 0.13774 10.518 0.029151
97.375 290.21 undefined 666.37 723.54 2.6032 35.000 0.028571 666.37 723.54 2.6032 1.8840 2.3229 236.47 0.13639 10.547 0.029291 35.000 0.028571 666.37 723.54 2.6032 1.8840 2.3229 236.47 0.13639 10.547 0.029291
98.375 291.39 undefined 668.26 725.66 2.6083 35.000 0.028571 668.26 725.66 2.6083 1.8877 2.3242 237.02 0.13505 10.576 0.029431 35.000 0.028571 668.26 725.66 2.6083 1.8877 2.3242 237.02 0.13505 10.576 0.029431
99.375 292.57 undefined 670.14 727.78 2.6133 35.000 0.028571 670.14 727.78 2.6133 1.8914 2.3255 237.57 0.13374 10.605 0.029572 35.000 0.028571 670.14 727.78 2.6133 1.8914 2.3255 237.57 0.13374 10.605 0.029572
100.38 293.74 undefined 672.04 729.90 2.6184 35.000 0.028571 672.04 729.90 2.6184 1.8950 2.3269 238.11 0.13245 10.635 0.029713 35.000 0.028571 672.04 729.90 2.6184 1.8950 2.3269 238.11 0.13245 10.635 0.029713
101.38 294.91 undefined 673.93 732.03 2.6235 35.000 0.028571 673.93 732.03 2.6235 1.8987 2.3284 238.66 0.13117 10.664 0.029854 35.000 0.028571 673.93 732.03 2.6235 1.8987 2.3284 238.66 0.13117 10.664 0.029854
102.38 296.08 undefined 675.84 734.16 2.6285 35.000 0.028571 675.84 734.16 2.6285 1.9024 2.3299 239.20 0.12992 10.693 0.029995 35.000 0.028571 675.84 734.16 2.6285 1.9024 2.3299 239.20 0.12992 10.693 0.029995
103.38 297.25 undefined 677.74 736.30 2.6336 35.000 0.028571 677.74 736.30 2.6336 1.9061 2.3315 239.74 0.12868 10.722 0.030137 35.000 0.028571 677.74 736.30 2.6336 1.9061 2.3315 239.74 0.12868 10.722 0.030137
104.38 298.42 undefined 679.65 738.43 2.6387 35.000 0.028571 679.65 738.43 2.6387 1.9099 2.3331 240.28 0.12746 10.751 0.030280 35.000 0.028571 679.65 738.43 2.6387 1.9099 2.3331 240.28 0.12746 10.751 0.030280
105.38 299.59 undefined 681.56 740.58 2.6437 35.000 0.028571 681.56 740.58 2.6437 1.9136 2.3347 240.82 0.12625 10.780 0.030422 35.000 0.028571 681.56 740.58 2.6437 1.9136 2.3347 240.82 0.12625 10.780 0.030422
106.38 300.76 undefined 683.48 742.72 2.6488 35.000 0.028571 683.48 742.72 2.6488 1.9173 2.3364 241.36 0.12507 10.809 0.030565 35.000 0.028571 683.48 742.72 2.6488 1.9173 2.3364 241.36 0.12507 10.809 0.030565
107.38 301.92 undefined 685.39 744.87 2.6538 35.000 0.028571 685.39 744.87 2.6538 1.9210 2.3381 241.89 0.12390 10.838 0.030708 35.000 0.028571 685.39 744.87 2.6538 1.9210 2.3381 241.89 0.12390 10.838 0.030708
108.38 303.09 undefined 687.32 747.02 2.6589 35.000 0.028571 687.32 747.02 2.6589 1.9248 2.3399 242.43 0.12274 10.867 0.030852 35.000 0.028571 687.32 747.02 2.6589 1.9248 2.3399 242.43 0.12274 10.867 0.030852
109.38 304.25 undefined 689.24 749.18 2.6639 35.000 0.028571 689.24 749.18 2.6639 1.9285 2.3417 242.96 0.12160 10.895 0.030996 35.000 0.028571 689.24 749.18 2.6639 1.9285 2.3417 242.96 0.12160 10.895 0.030996
110.38 305.41 undefined 691.17 751.34 2.6690 35.000 0.028571 691.17 751.34 2.6690 1.9323 2.3435 243.49 0.12048 10.924 0.031140 35.000 0.028571 691.17 751.34 2.6690 1.9323 2.3435 243.49 0.12048 10.924 0.031140
111.38 306.57 undefined 693.11 753.50 2.6740 35.000 0.028571 693.11 753.50 2.6740 1.9361 2.3454 244.02 0.11938 10.953 0.031285 35.000 0.028571 693.11 753.50 2.6740 1.9361 2.3454 244.02 0.11938 10.953 0.031285
112.38 307.74 undefined 695.05 755.67 2.6790 35.000 0.028571 695.05 755.67 2.6790 1.9398 2.3474 244.54 0.11828 10.982 0.031430 35.000 0.028571 695.05 755.67 2.6790 1.9398 2.3474 244.54 0.11828 10.982 0.031430
113.38 308.90 undefined 696.99 757.84 2.6841 35.000 0.028571 696.99 757.84 2.6841 1.9436 2.3493 245.07 0.11721 11.011 0.031575 35.000 0.028571 696.99 757.84 2.6841 1.9436 2.3493 245.07 0.11721 11.011 0.031575
114.38 310.05 undefined 698.93 760.01 2.6891 35.000 0.028571 698.93 760.01 2.6891 1.9474 2.3513 245.59 0.11615 11.039 0.031720 35.000 0.028571 698.93 760.01 2.6891 1.9474 2.3513 245.59 0.11615 11.039 0.031720
115.38 311.21 undefined 700.88 762.19 2.6941 35.000 0.028571 700.88 762.19 2.6941 1.9512 2.3533 246.11 0.11510 11.068 0.031866 35.000 0.028571 700.88 762.19 2.6941 1.9512 2.3533 246.11 0.11510 11.068 0.031866
116.38 312.37 undefined 702.84 764.37 2.6991 35.000 0.028571 702.84 764.37 2.6991 1.9550 2.3554 246.63 0.11406 11.097 0.032012 35.000 0.028571 702.84 764.37 2.6991 1.9550 2.3554 246.63 0.11406 11.097 0.032012
117.38 313.52 undefined 704.79 766.55 2.7041 35.000 0.028571 704.79 766.55 2.7041 1.9587 2.3575 247.15 0.11304 11.126 0.032159 35.000 0.028571 704.79 766.55 2.7041 1.9587 2.3575 247.15 0.11304 11.126 0.032159
118.38 314.68 undefined 706.75 768.74 2.7092 35.000 0.028571 706.75 768.74 2.7092 1.9625 2.3596 247.67 0.11204 11.154 0.032306 35.000 0.028571 706.75 768.74 2.7092 1.9625 2.3596 247.67 0.11204 11.154 0.032306
119.38 315.83 undefined 708.72 770.93 2.7142 35.000 0.028571 708.72 770.93 2.7142 1.9664 2.3617 248.19 0.11104 11.183 0.032453 35.000 0.028571 708.72 770.93 2.7142 1.9664 2.3617 248.19 0.11104 11.183 0.032453
120.38 316.99 undefined 710.69 773.13 2.7192 35.000 0.028571 710.69 773.13 2.7192 1.9702 2.3639 248.70 0.11006 11.211 0.032600 35.000 0.028571 710.69 773.13 2.7192 1.9702 2.3639 248.70 0.11006 11.211 0.032600
121.38 318.14 undefined 712.66 775.33 2.7242 35.000 0.028571 712.66 775.33 2.7242 1.9740 2.3661 249.22 0.10910 11.240 0.032748 35.000 0.028571 712.66 775.33 2.7242 1.9740 2.3661 249.22 0.10910 11.240 0.032748
122.38 319.29 undefined 714.63 777.53 2.7292 35.000 0.028571 714.63 777.53 2.7292 1.9778 2.3684 249.73 0.10814 11.268 0.032896 35.000 0.028571 714.63 777.53 2.7292 1.9778 2.3684 249.73 0.10814 11.268 0.032896
123.38 320.44 undefined 716.61 779.74 2.7342 35.000 0.028571 716.61 779.74 2.7342 1.9816 2.3706 250.24 0.10720 11.297 0.033045 35.000 0.028571 716.61 779.74 2.7342 1.9816 2.3706 250.24 0.10720 11.297 0.033045
124.38 321.59 undefined 718.60 781.95 2.7392 35.000 0.028571 718.60 781.95 2.7392 1.9854 2.3729 250.75 0.10627 11.325 0.033194 35.000 0.028571 718.60 781.95 2.7392 1.9854 2.3729 250.75 0.10627 11.325 0.033194
125.38 322.74 undefined 720.58 784.16 2.7442 35.000 0.028571 720.58 784.16 2.7442 1.9893 2.3753 251.25 0.10535 11.354 0.033343 35.000 0.028571 720.58 784.16 2.7442 1.9893 2.3753 251.25 0.10535 11.354 0.033343
126.38 323.89 undefined 722.58 786.38 2.7492 35.000 0.028571 722.58 786.38 2.7492 1.9931 2.3776 251.76 0.10445 11.382 0.033492 35.000 0.028571 722.58 786.38 2.7492 1.9931 2.3776 251.76 0.10445 11.382 0.033492
127.38 325.04 undefined 724.57 788.60 2.7542 35.000 0.028571 724.57 788.60 2.7542 1.9969 2.3800 252.26 0.10355 11.411 0.033642 35.000 0.028571 724.57 788.60 2.7542 1.9969 2.3800 252.26 0.10355 11.411 0.033642
128.38 326.18 undefined 726.57 790.83 2.7591 35.000 0.028571 726.57 790.83 2.7591 2.0008 2.3824 252.77 0.10267 11.439 0.033792 35.000 0.028571 726.57 790.83 2.7591 2.0008 2.3824 252.77 0.10267 11.439 0.033792
129.38 327.33 undefined 728.57 793.05 2.7641 35.000 0.028571 728.57 793.05 2.7641 2.0046 2.3848 253.27 0.10180 11.467 0.033942 35.000 0.028571 728.57 793.05 2.7641 2.0046 2.3848 253.27 0.10180 11.467 0.033942
130.38 328.48 undefined 730.58 795.29 2.7691 35.000 0.028571 730.58 795.29 2.7691 2.0085 2.3872 253.77 0.10093 11.496 0.034093 35.000 0.028571 730.58 795.29 2.7691 2.0085 2.3872 253.77 0.10093 11.496 0.034093
131.38 329.62 undefined 732.59 797.52 2.7741 35.000 0.028571 732.59 797.52 2.7741 2.0123 2.3897 254.27 0.10008 11.524 0.034244 35.000 0.028571 732.59 797.52 2.7741 2.0123 2.3897 254.27 0.10008 11.524 0.034244
132.38 330.76 undefined 734.60 799.76 2.7790 35.000 0.028571 734.60 799.76 2.7790 2.0162 2.3922 254.77 0.099244 11.552 0.034395 35.000 0.028571 734.60 799.76 2.7790 2.0162 2.3922 254.77 0.099244 11.552 0.034395
133.38 331.91 undefined 736.62 802.00 2.7840 35.000 0.028571 736.62 802.00 2.7840 2.0200 2.3947 255.27 0.098415 11.580 0.034547 35.000 0.028571 736.62 802.00 2.7840 2.0200 2.3947 255.27 0.098415 11.580 0.034547
134.38 333.05 undefined 738.64 804.25 2.7890 35.000 0.028571 738.64 804.25 2.7890 2.0239 2.3972 255.76 0.097596 11.609 0.034699 35.000 0.028571 738.64 804.25 2.7890 2.0239 2.3972 255.76 0.097596 11.609 0.034699
135.38 334.19 undefined 740.67 806.50 2.7939 35.000 0.028571 740.67 806.50 2.7939 2.0278 2.3998 256.26 0.096787 11.637 0.034851 35.000 0.028571 740.67 806.50 2.7939 2.0278 2.3998 256.26 0.096787 11.637 0.034851
136.38 335.33 undefined 742.70 808.76 2.7989 35.000 0.028571 742.70 808.76 2.7989 2.0316 2.4024 256.75 0.095988 11.665 0.035003 35.000 0.028571 742.70 808.76 2.7989 2.0316 2.4024 256.75 0.095988 11.665 0.035003
137.38 336.47 undefined 744.73 811.02 2.8039 35.000 0.028571 744.73 811.02 2.8039 2.0355 2.4050 257.24 0.095199 11.693 0.035156 35.000 0.028571 744.73 811.02 2.8039 2.0355 2.4050 257.24 0.095199 11.693 0.035156
138.38 337.61 undefined 746.77 813.28 2.8088 35.000 0.028571 746.77 813.28 2.8088 2.0393 2.4076 257.73 0.094420 11.721 0.035309 35.000 0.028571 746.77 813.28 2.8088 2.0393 2.4076 257.73 0.094420 11.721 0.035309
139.38 338.75 undefined 748.81 815.54 2.8138 35.000 0.028571 748.81 815.54 2.8138 2.0432 2.4102 258.22 0.093650 11.749 0.035463 35.000 0.028571 748.81 815.54 2.8138 2.0432 2.4102 258.22 0.093650 11.749 0.035463
140.38 339.89 undefined 750.86 817.81 2.8187 35.000 0.028571 750.86 817.81 2.8187 2.0471 2.4129 258.71 0.092889 11.777 0.035617 35.000 0.028571 750.86 817.81 2.8187 2.0471 2.4129 258.71 0.092889 11.777 0.035617
141.38 341.02 undefined 752.91 820.08 2.8237 35.000 0.028571 752.91 820.08 2.8237 2.0510 2.4155 259.19 0.092137 11.805 0.035771 35.000 0.028571 752.91 820.08 2.8237 2.0510 2.4155 259.19 0.092137 11.805 0.035771
142.38 342.16 undefined 754.96 822.36 2.8286 35.000 0.028571 754.96 822.36 2.8286 2.0548 2.4182 259.68 0.091395 11.833 0.035925 35.000 0.028571 754.96 822.36 2.8286 2.0548 2.4182 259.68 0.091395 11.833 0.035925
143.38 343.30 undefined 757.02 824.64 2.8336 35.000 0.028571 757.02 824.64 2.8336 2.0587 2.4209 260.17 0.090661 11.861 0.036080 35.000 0.028571 757.02 824.64 2.8336 2.0587 2.4209 260.17 0.090661 11.861 0.036080
144.38 344.43 undefined 759.08 826.93 2.8385 35.000 0.028571 759.08 826.93 2.8385 2.0626 2.4236 260.65 0.089937 11.889 0.036235 35.000 0.028571 759.08 826.93 2.8385 2.0626 2.4236 260.65 0.089937 11.889 0.036235
145.38 345.57 undefined 761.14 829.21 2.8435 35.000 0.028571 761.14 829.21 2.8435 2.0665 2.4264 261.13 0.089220 11.917 0.036390 35.000 0.028571 761.14 829.21 2.8435 2.0665 2.4264 261.13 0.089220 11.917 0.036390
146.38 346.70 undefined 763.21 831.51 2.8484 35.000 0.028571 763.21 831.51 2.8484 2.0703 2.4291 261.61 0.088513 11.945 0.036546 35.000 0.028571 763.21 831.51 2.8484 2.0703 2.4291 261.61 0.088513 11.945 0.036546
147.38 347.83 undefined 765.28 833.80 2.8533 35.000 0.028571 765.28 833.80 2.8533 2.0742 2.4319 262.09 0.087813 11.973 0.036702 35.000 0.028571 765.28 833.80 2.8533 2.0742 2.4319 262.09 0.087813 11.973 0.036702
148.38 348.97 undefined 767.36 836.10 2.8583 35.000 0.028571 767.36 836.10 2.8583 2.0781 2.4347 262.57 0.087122 12.001 0.036858 35.000 0.028571 767.36 836.10 2.8583 2.0781 2.4347 262.57 0.087122 12.001 0.036858
149.38 350.10 undefined 769.44 838.40 2.8632 35.000 0.028571 769.44 838.40 2.8632 2.0820 2.4375 263.05 0.086439 12.029 0.037014 35.000 0.028571 769.44 838.40 2.8632 2.0820 2.4375 263.05 0.086439 12.029 0.037014
150.38 351.23 undefined 771.52 840.71 2.8681 35.000 0.028571 771.52 840.71 2.8681 2.0859 2.4403 263.53 0.085764 12.056 0.037171 35.000 0.028571 771.52 840.71 2.8681 2.0859 2.4403 263.53 0.085764 12.056 0.037171
151.38 352.36 undefined 773.61 843.02 2.8730 35.000 0.028571 773.61 843.02 2.8730 2.0898 2.4431 264.00 0.085096 12.084 0.037328 35.000 0.028571 773.61 843.02 2.8730 2.0898 2.4431 264.00 0.085096 12.084 0.037328
152.38 353.49 undefined 775.70 845.34 2.8780 35.000 0.028571 775.70 845.34 2.8780 2.0936 2.4460 264.48 0.084437 12.112 0.037486 35.000 0.028571 775.70 845.34 2.8780 2.0936 2.4460 264.48 0.084437 12.112 0.037486
153.38 354.62 undefined 777.80 847.65 2.8829 35.000 0.028571 777.80 847.65 2.8829 2.0975 2.4488 264.95 0.083784 12.140 0.037644 35.000 0.028571 777.80 847.65 2.8829 2.0975 2.4488 264.95 0.083784 12.140 0.037644
154.38 355.75 undefined 779.90 849.98 2.8878 35.000 0.028571 779.90 849.98 2.8878 2.1014 2.4517 265.42 0.083140 12.167 0.037802 35.000 0.028571 779.90 849.98 2.8878 2.1014 2.4517 265.42 0.083140 12.167 0.037802
155.38 356.88 undefined 782.00 852.30 2.8927 35.000 0.028571 782.00 852.30 2.8927 2.1053 2.4546 265.89 0.082503 12.195 0.037960 35.000 0.028571 782.00 852.30 2.8927 2.1053 2.4546 265.89 0.082503 12.195 0.037960
156.38 358.01 undefined 784.11 854.63 2.8976 35.000 0.028571 784.11 854.63 2.8976 2.1092 2.4575 266.36 0.081873 12.223 0.038119 35.000 0.028571 784.11 854.63 2.8976 2.1092 2.4575 266.36 0.081873 12.223 0.038119
157.38 359.14 undefined 786.22 856.96 2.9025 35.000 0.028571 786.22 856.96 2.9025 2.1131 2.4604 266.83 0.081250 12.250 0.038278 35.000 0.028571 786.22 856.96 2.9025 2.1131 2.4604 266.83 0.081250 12.250 0.038278
158.38 360.26 undefined 788.33 859.30 2.9074 35.000 0.028571 788.33 859.30 2.9074 2.1170 2.4633 267.30 0.080634 12.278 0.038437 35.000 0.028571 788.33 859.30 2.9074 2.1170 2.4633 267.30 0.080634 12.278 0.038437
159.38 361.39 undefined 790.45 861.64 2.9123 35.000 0.028571 790.45 861.64 2.9123 2.1208 2.4662 267.77 0.080025 12.305 0.038597 35.000 0.028571 790.45 861.64 2.9123 2.1208 2.4662 267.77 0.080025 12.305 0.038597
160.38 362.52 undefined 792.57 863.99 2.9172 35.000 0.028571 792.57 863.99 2.9172 2.1247 2.4692 268.23 0.079423 12.333 0.038757 35.000 0.028571 792.57 863.99 2.9172 2.1247 2.4692 268.23 0.079423 12.333 0.038757
161.38 363.64 undefined 794.70 866.34 2.9221 35.000 0.028571 794.70 866.34 2.9221 2.1286 2.4721 268.70 0.078828 12.360 0.038917 35.000 0.028571 794.70 866.34 2.9221 2.1286 2.4721 268.70 0.078828 12.360 0.038917
162.38 364.77 undefined 796.83 868.69 2.9270 35.000 0.028571 796.83 868.69 2.9270 2.1325 2.4751 269.16 0.078239 12.388 0.039077 35.000 0.028571 796.83 868.69 2.9270 2.1325 2.4751 269.16 0.078239 12.388 0.039077
163.38 365.89 undefined 798.97 871.04 2.9319 35.000 0.028571 798.97 871.04 2.9319 2.1364 2.4781 269.62 0.077657 12.415 0.039238 35.000 0.028571 798.97 871.04 2.9319 2.1364 2.4781 269.62 0.077657 12.415 0.039238
164.38 367.02 undefined 801.10 873.40 2.9368 35.000 0.028571 801.10 873.40 2.9368 2.1403 2.4811 270.09 0.077082 12.443 0.039399 35.000 0.028571 801.10 873.40 2.9368 2.1403 2.4811 270.09 0.077082 12.443 0.039399
165.38 368.14 undefined 803.25 875.77 2.9417 35.000 0.028571 803.25 875.77 2.9417 2.1442 2.4841 270.55 0.076512 12.470 0.039561 35.000 0.028571 803.25 875.77 2.9417 2.1442 2.4841 270.55 0.076512 12.470 0.039561
166.38 369.26 undefined 805.39 878.13 2.9466 35.000 0.028571 805.39 878.13 2.9466 2.1481 2.4871 271.01 0.075949 12.497 0.039722 35.000 0.028571 805.39 878.13 2.9466 2.1481 2.4871 271.01 0.075949 12.497 0.039722
167.38 370.39 undefined 807.54 880.51 2.9515 35.000 0.028571 807.54 880.51 2.9515 2.1519 2.4901 271.47 0.075392 12.525 0.039884 35.000 0.028571 807.54 880.51 2.9515 2.1519 2.4901 271.47 0.075392 12.525 0.039884
168.38 371.51 undefined 809.70 882.88 2.9564 35.000 0.028571 809.70 882.88 2.9564 2.1558 2.4931 271.92 0.074841 12.552 0.040047 35.000 0.028571 809.70 882.88 2.9564 2.1558 2.4931 271.92 0.074841 12.552 0.040047
169.38 372.63 undefined 811.85 885.26 2.9613 35.000 0.028571 811.85 885.26 2.9613 2.1597 2.4962 272.38 0.074296 12.579 0.040209 35.000 0.028571 811.85 885.26 2.9613 2.1597 2.4962 272.38 0.074296 12.579 0.040209
170.38 373.75 undefined 814.02 887.64 2.9661 35.000 0.028571 814.02 887.64 2.9661 2.1636 2.4992 272.84 0.073757 12.607 0.040372 35.000 0.028571 814.02 887.64 2.9661 2.1636 2.4992 272.84 0.073757 12.607 0.040372
171.38 374.87 undefined 816.18 890.03 2.9710 35.000 0.028571 816.18 890.03 2.9710 2.1675 2.5023 273.29 0.073224 12.634 0.040535 35.000 0.028571 816.18 890.03 2.9710 2.1675 2.5023 273.29 0.073224 12.634 0.040535
172.38 375.99 undefined 818.35 892.42 2.9759 35.000 0.028571 818.35 892.42 2.9759 2.1714 2.5053 273.75 0.072697 12.661 0.040699 35.000 0.028571 818.35 892.42 2.9759 2.1714 2.5053 273.75 0.072697 12.661 0.040699
173.38 377.11 undefined 820.52 894.81 2.9808 35.000 0.028571 820.52 894.81 2.9808 2.1752 2.5084 274.20 0.072175 12.688 0.040863 35.000 0.028571 820.52 894.81 2.9808 2.1752 2.5084 274.20 0.072175 12.688 0.040863
174.38 378.23 undefined 822.70 897.21 2.9856 35.000 0.028571 822.70 897.21 2.9856 2.1791 2.5115 274.65 0.071659 12.716 0.041027 35.000 0.028571 822.70 897.21 2.9856 2.1791 2.5115 274.65 0.071659 12.716 0.041027
175.38 379.35 undefined 824.88 899.61 2.9905 35.000 0.028571 824.88 899.61 2.9905 2.1830 2.5146 275.10 0.071148 12.743 0.041191 35.000 0.028571 824.88 899.61 2.9905 2.1830 2.5146 275.10 0.071148 12.743 0.041191
176.38 380.47 undefined 827.07 902.02 2.9954 35.000 0.028571 827.07 902.02 2.9954 2.1869 2.5177 275.56 0.070642 12.770 0.041356 35.000 0.028571 827.07 902.02 2.9954 2.1869 2.5177 275.56 0.070642 12.770 0.041356
177.38 381.59 undefined 829.26 904.43 3.0002 35.000 0.028571 829.26 904.43 3.0002 2.1907 2.5208 276.01 0.070142 12.797 0.041521 35.000 0.028571 829.26 904.43 3.0002 2.1907 2.5208 276.01 0.070142 12.797 0.041521
178.38 382.71 undefined 831.45 906.84 3.0051 35.000 0.028571 831.45 906.84 3.0051 2.1946 2.5239 276.45 0.069647 12.824 0.041686 35.000 0.028571 831.45 906.84 3.0051 2.1946 2.5239 276.45 0.069647 12.824 0.041686
179.38 383.82 undefined 833.65 909.26 3.0099 35.000 0.028571 833.65 909.26 3.0099 2.1985 2.5270 276.90 0.069158 12.851 0.041852 35.000 0.028571 833.65 909.26 3.0099 2.1985 2.5270 276.90 0.069158 12.851 0.041852
180.38 384.94 undefined 835.85 911.68 3.0148 35.000 0.028571 835.85 911.68 3.0148 2.2024 2.5302 277.35 0.068673 12.878 0.042018 35.000 0.028571 835.85 911.68 3.0148 2.2024 2.5302 277.35 0.068673 12.878 0.042018
181.38 386.06 undefined 838.05 914.10 3.0197 35.000 0.028571 838.05 914.10 3.0197 2.2062 2.5333 277.80 0.068194 12.905 0.042184 35.000 0.028571 838.05 914.10 3.0197 2.2062 2.5333 277.80 0.068194 12.905 0.042184
182.38 387.17 undefined 840.26 916.53 3.0245 35.000 0.028571 840.26 916.53 3.0245 2.2101 2.5364 278.24 0.067719 12.932 0.042350 35.000 0.028571 840.26 916.53 3.0245 2.2101 2.5364 278.24 0.067719 12.932 0.042350
183.38 388.29 undefined 842.47 918.96 3.0294 35.000 0.028571 842.47 918.96 3.0294 2.2140 2.5396 278.69 0.067250 12.959 0.042517 35.000 0.028571 842.47 918.96 3.0294 2.2140 2.5396 278.69 0.067250 12.959 0.042517
184.38 389.40 undefined 844.69 921.40 3.0342 35.000 0.028571 844.69 921.40 3.0342 2.2178 2.5427 279.13 0.066785 12.986 0.042684 35.000 0.028571 844.69 921.40 3.0342 2.2178 2.5427 279.13 0.066785 12.986 0.042684
185.38 390.52 undefined 846.91 923.84 3.0391 35.000 0.028571 846.91 923.84 3.0391 2.2217 2.5459 279.57 0.066325 13.013 0.042852 35.000 0.028571 846.91 923.84 3.0391 2.2217 2.5459 279.57 0.066325 13.013 0.042852
186.38 391.63 undefined 849.13 926.28 3.0439 35.000 0.028571 849.13 926.28 3.0439 2.2256 2.5490 280.01 0.065869 13.040 0.043019 35.000 0.028571 849.13 926.28 3.0439 2.2256 2.5490 280.01 0.065869 13.040 0.043019
187.38 392.75 undefined 851.36 928.73 3.0487 35.000 0.028571 851.36 928.73 3.0487 2.2294 2.5522 280.46 0.065419 13.066 0.043187 35.000 0.028571 851.36 928.73 3.0487 2.2294 2.5522 280.46 0.065419 13.066 0.043187
188.38 393.86 undefined 853.59 931.18 3.0536 35.000 0.028571 853.59 931.18 3.0536 2.2333 2.5554 280.90 0.064973 13.093 0.043356 35.000 0.028571 853.59 931.18 3.0536 2.2333 2.5554 280.90 0.064973 13.093 0.043356
189.38 394.97 undefined 855.82 933.63 3.0584 35.000 0.028571 855.82 933.63 3.0584 2.2372 2.5586 281.33 0.064531 13.120 0.043524 35.000 0.028571 855.82 933.63 3.0584 2.2372 2.5586 281.33 0.064531 13.120 0.043524
190.38 396.09 undefined 858.06 936.09 3.0633 35.000 0.028571 858.06 936.09 3.0633 2.2410 2.5618 281.77 0.064094 13.147 0.043693 35.000 0.028571 858.06 936.09 3.0633 2.2410 2.5618 281.77 0.064094 13.147 0.043693
191.38 397.20 undefined 860.31 938.55 3.0681 35.000 0.028571 860.31 938.55 3.0681 2.2449 2.5649 282.21 0.063661 13.174 0.043862 35.000 0.028571 860.31 938.55 3.0681 2.2449 2.5649 282.21 0.063661 13.174 0.043862
192.38 398.31 undefined 862.55 941.02 3.0729 35.000 0.028571 862.55 941.02 3.0729 2.2487 2.5681 282.65 0.063232 13.200 0.044032 35.000 0.028571 862.55 941.02 3.0729 2.2487 2.5681 282.65 0.063232 13.200 0.044032
193.38 399.42 undefined 864.80 943.49 3.0778 35.000 0.028571 864.80 943.49 3.0778 2.2526 2.5713 283.08 0.062808 13.227 0.044202 35.000 0.028571 864.80 943.49 3.0778 2.2526 2.5713 283.08 0.062808 13.227 0.044202
194.38 400.54 undefined 867.06 945.96 3.0826 35.000 0.028571 867.06 945.96 3.0826 2.2564 2.5745 283.52 0.062388 13.254 0.044372 35.000 0.028571 867.06 945.96 3.0826 2.2564 2.5745 283.52 0.062388 13.254 0.044372
195.38 401.65 undefined 869.32 948.44 3.0874 35.000 0.028571 869.32 948.44 3.0874 2.2603 2.5778 283.95 0.061972 13.280 0.044542 35.000 0.028571 869.32 948.44 3.0874 2.2603 2.5778 283.95 0.061972 13.280 0.044542
196.38 402.76 undefined 871.58 950.92 3.0922 35.000 0.028571 871.58 950.92 3.0922 2.2641 2.5810 284.39 0.061561 13.307 0.044713 35.000 0.028571 871.58 950.92 3.0922 2.2641 2.5810 284.39 0.061561 13.307 0.044713
197.38 403.87 undefined 873.84 953.40 3.0971 35.000 0.028571 873.84 953.40 3.0971 2.2679 2.5842 284.82 0.061153 13.334 0.044884 35.000 0.028571 873.84 953.40 3.0971 2.2679 2.5842 284.82 0.061153 13.334 0.044884
198.38 404.98 undefined 876.11 955.89 3.1019 35.000 0.028571 876.11 955.89 3.1019 2.2718 2.5874 285.25 0.060749 13.360 0.045055 35.000 0.028571 876.11 955.89 3.1019 2.2718 2.5874 285.25 0.060749 13.360 0.045055
199.38 406.09 undefined 878.39 958.38 3.1067 35.000 0.028571 878.39 958.38 3.1067 2.2756 2.5906 285.69 0.060349 13.387 0.045226 35.000 0.028571 878.39 958.38 3.1067 2.2756 2.5906 285.69 0.060349 13.387 0.045226
200.38 407.20 undefined 880.67 960.88 3.1115 35.000 0.028571 880.67 960.88 3.1115 2.2795 2.5939 286.12 0.059954 13.413 0.045398 35.000 0.028571 880.67 960.88 3.1115 2.2795 2.5939 286.12 0.059954 13.413 0.045398
201.38 408.31 undefined 882.95 963.38 3.1163 35.000 0.028571 882.95 963.38 3.1163 2.2833 2.5971 286.55 0.059561 13.440 0.045570 35.000 0.028571 882.95 963.38 3.1163 2.2833 2.5971 286.55 0.059561 13.440 0.045570
202.38 409.42 undefined 885.23 965.88 3.1211 35.000 0.028571 885.23 965.88 3.1211 2.2871 2.6003 286.98 0.059173 13.466 0.045743 35.000 0.028571 885.23 965.88 3.1211 2.2871 2.6003 286.98 0.059173 13.466 0.045743
203.38 410.53 undefined 887.52 968.39 3.1259 35.000 0.028571 887.52 968.39 3.1259 2.2909 2.6036 287.40 0.058789 13.493 0.045915 35.000 0.028571 887.52 968.39 3.1259 2.2909 2.6036 287.40 0.058789 13.493 0.045915
204.38 411.63 undefined 889.81 970.90 3.1307 35.000 0.028571 889.81 970.90 3.1307 2.2948 2.6068 287.83 0.058408 13.519 0.046089 35.000 0.028571 889.81 970.90 3.1307 2.2948 2.6068 287.83 0.058408 13.519 0.046089
205.38 412.74 undefined 892.11 973.42 3.1355 35.000 0.028571 892.11 973.42 3.1355 2.2986 2.6101 288.26 0.058031 13.545 0.046262 35.000 0.028571 892.11 973.42 3.1355 2.2986 2.6101 288.26 0.058031 13.545 0.046262
206.38 413.85 undefined 894.41 975.94 3.1403 35.000 0.028571 894.41 975.94 3.1403 2.3024 2.6133 288.68 0.057657 13.572 0.046435 35.000 0.028571 894.41 975.94 3.1403 2.3024 2.6133 288.68 0.057657 13.572 0.046435
207.38 414.96 undefined 896.72 978.46 3.1451 35.000 0.028571 896.72 978.46 3.1451 2.3062 2.6166 289.11 0.057287 13.598 0.046609 35.000 0.028571 896.72 978.46 3.1451 2.3062 2.6166 289.11 0.057287 13.598 0.046609
208.38 416.06 undefined 899.02 980.99 3.1499 35.000 0.028571 899.02 980.99 3.1499 2.3100 2.6198 289.54 0.056920 13.624 0.046784 35.000 0.028571 899.02 980.99 3.1499 2.3100 2.6198 289.54 0.056920 13.624 0.046784
209.38 417.17 undefined 901.34 983.52 3.1547 35.000 0.028571 901.34 983.52 3.1547 2.3139 2.6231 289.96 0.056557 13.651 0.046958 35.000 0.028571 901.34 983.52 3.1547 2.3139 2.6231 289.96 0.056557 13.651 0.046958
210.38 418.28 undefined 903.65 986.05 3.1595 35.000 0.028571 903.65 986.05 3.1595 2.3177 2.6263 290.38 0.056198 13.677 0.047133 35.000 0.028571 903.65 986.05 3.1595 2.3177 2.6263 290.38 0.056198 13.677 0.047133
211.38 419.38 undefined 905.97 988.59 3.1643 35.000 0.028571 905.97 988.59 3.1643 2.3215 2.6296 290.81 0.055841 13.703 0.047308 35.000 0.028571 905.97 988.59 3.1643 2.3215 2.6296 290.81 0.055841 13.703 0.047308
212.38 420.49 undefined 908.29 991.13 3.1691 35.000 0.028571 908.29 991.13 3.1691 2.3253 2.6329 291.23 0.055488 13.729 0.047483 35.000 0.028571 908.29 991.13 3.1691 2.3253 2.6329 291.23 0.055488 13.729 0.047483
213.38 421.59 undefined 910.62 993.67 3.1739 35.000 0.028571 910.62 993.67 3.1739 2.3291 2.6361 291.65 0.055138 13.756 0.047659 35.000 0.028571 910.62 993.67 3.1739 2.3291 2.6361 291.65 0.055138 13.756 0.047659
214.38 422.70 undefined 912.95 996.22 3.1787 35.000 0.028571 912.95 996.22 3.1787 2.3329 2.6394 292.07 0.054792 13.782 0.047835 35.000 0.028571 912.95 996.22 3.1787 2.3329 2.6394 292.07 0.054792 13.782 0.047835
215.38 423.81 undefined 915.29 998.77 3.1835 35.000 0.028571 915.29 998.77 3.1835 2.3367 2.6427 292.49 0.054449 13.808 0.048011 35.000 0.028571 915.29 998.77 3.1835 2.3367 2.6427 292.49 0.054449 13.808 0.048011
216.38 424.91 undefined 917.63 1001.3 3.1883 35.000 0.028571 917.63 1001.3 3.1883 2.3404 2.6459 292.91 0.054109 13.834 0.048188 35.000 0.028571 917.63 1001.3 3.1883 2.3404 2.6459 292.91 0.054109 13.834 0.048188
217.38 426.01 undefined 919.97 1003.9 3.1930 35.000 0.028571 919.97 1003.9 3.1930 2.3442 2.6492 293.33 0.053772 13.860 0.048365 35.000 0.028571 919.97 1003.9 3.1930 2.3442 2.6492 293.33 0.053772 13.860 0.048365
218.38 427.12 undefined 922.31 1006.5 3.1978 35.000 0.028571 922.31 1006.5 3.1978 2.3480 2.6525 293.74 0.053438 13.886 0.048542 35.000 0.028571 922.31 1006.5 3.1978 2.3480 2.6525 293.74 0.053438 13.886 0.048542
219.38 428.22 undefined 924.66 1009.0 3.2026 35.000 0.028571 924.66 1009.0 3.2026 2.3518 2.6558 294.16 0.053107 13.912 0.048719 35.000 0.028571 924.66 1009.0 3.2026 2.3518 2.6558 294.16 0.053107 13.912 0.048719
220.38 429.33 undefined 927.02 1011.6 3.2074 35.000 0.028571 927.02 1011.6 3.2074 2.3556 2.6590 294.58 0.052779 13.938 0.048897 35.000 0.028571 927.02 1011.6 3.2074 2.3556 2.6590 294.58 0.052779 13.938 0.048897
221.38 430.43 undefined 929.38 1014.2 3.2121 35.000 0.028571 929.38 1014.2 3.2121 2.3594 2.6623 294.99 0.052454 13.964 0.049075 35.000 0.028571 929.38 1014.2 3.2121 2.3594 2.6623 294.99 0.052454 13.964 0.049075
222.38 431.53 undefined 931.74 1016.7 3.2169 35.000 0.028571 931.74 1016.7 3.2169 2.3631 2.6656 295.41 0.052132 13.990 0.049253 35.000 0.028571 931.74 1016.7 3.2169 2.3631 2.6656 295.41 0.052132 13.990 0.049253
223.38 432.64 undefined 934.10 1019.3 3.2217 35.000 0.028571 934.10 1019.3 3.2217 2.3669 2.6689 295.82 0.051813 14.016 0.049432 35.000 0.028571 934.10 1019.3 3.2217 2.3669 2.6689 295.82 0.051813 14.016 0.049432
224.38 433.74 undefined 936.47 1021.9 3.2264 35.000 0.028571 936.47 1021.9 3.2264 2.3707 2.6722 296.24 0.051497 14.042 0.049611 35.000 0.028571 936.47 1021.9 3.2264 2.3707 2.6722 296.24 0.051497 14.042 0.049611
225.38 434.84 undefined 938.84 1024.5 3.2312 35.000 0.028571 938.84 1024.5 3.2312 2.3744 2.6754 296.65 0.051183 14.068 0.049790 35.000 0.028571 938.84 1024.5 3.2312 2.3744 2.6754 296.65 0.051183 14.068 0.049790
226.38 435.94 undefined 941.22 1027.1 3.2360 35.000 0.028571 941.22 1027.1 3.2360 2.3782 2.6787 297.06 0.050873 14.094 0.049969 35.000 0.028571 941.22 1027.1 3.2360 2.3782 2.6787 297.06 0.050873 14.094 0.049969
227.38 437.05 undefined 943.60 1029.7 3.2407 35.000 0.028571 943.60 1029.7 3.2407 2.3819 2.6820 297.47 0.050565 14.120 0.050149 35.000 0.028571 943.60 1029.7 3.2407 2.3819 2.6820 297.47 0.050565 14.120 0.050149
228.38 438.15 undefined 945.98 1032.3 3.2455 35.000 0.028571 945.98 1032.3 3.2455 2.3857 2.6853 297.88 0.050260 14.146 0.050329 35.000 0.028571 945.98 1032.3 3.2455 2.3857 2.6853 297.88 0.050260 14.146 0.050329
229.38 439.25 undefined 948.37 1034.9 3.2502 35.000 0.028571 948.37 1034.9 3.2502 2.3894 2.6886 298.29 0.049957 14.171 0.050509 35.000 0.028571 948.37 1034.9 3.2502 2.3894 2.6886 298.29 0.049957 14.171 0.050509
230.38 440.35 undefined 950.76 1037.5 3.2550 35.000 0.028571 950.76 1037.5 3.2550 2.3932 2.6919 298.70 0.049658 14.197 0.050690 35.000 0.028571 950.76 1037.5 3.2550 2.3932 2.6919 298.70 0.049658 14.197 0.050690
231.38 441.45 undefined 953.16 1040.1 3.2597 35.000 0.028571 953.16 1040.1 3.2597 2.3969 2.6952 299.11 0.049360 14.223 0.050871 35.000 0.028571 953.16 1040.1 3.2597 2.3969 2.6952 299.11 0.049360 14.223 0.050871
232.38 442.55 undefined 955.56 1042.7 3.2645 35.000 0.028571 955.56 1042.7 3.2645 2.4007 2.6984 299.52 0.049066 14.249 0.051052 35.000 0.028571 955.56 1042.7 3.2645 2.4007 2.6984 299.52 0.049066 14.249 0.051052
233.38 443.65 undefined 957.96 1045.4 3.2692 35.000 0.028571 957.96 1045.4 3.2692 2.4044 2.7017 299.93 0.048774 14.274 0.051234 35.000 0.028571 957.96 1045.4 3.2692 2.4044 2.7017 299.93 0.048774 14.274 0.051234
234.38 444.75 undefined 960.36 1048.0 3.2740 35.000 0.028571 960.36 1048.0 3.2740 2.4081 2.7050 300.34 0.048484 14.300 0.051416 35.000 0.028571 960.36 1048.0 3.2740 2.4081 2.7050 300.34 0.048484 14.300 0.051416
235.38 445.85 undefined 962.77 1050.6 3.2787 35.000 0.028571 962.77 1050.6 3.2787 2.4118 2.7083 300.74 0.048197 14.326 0.051598 35.000 0.028571 962.77 1050.6 3.2787 2.4118 2.7083 300.74 0.048197 14.326 0.051598
236.38 446.95 undefined 965.19 1053.2 3.2835 35.000 0.028571 965.19 1053.2 3.2835 2.4156 2.7116 301.15 0.047913 14.351 0.051780 35.000 0.028571 965.19 1053.2 3.2835 2.4156 2.7116 301.15 0.047913 14.351 0.051780
237.38 448.05 undefined 967.61 1055.9 3.2882 35.000 0.028571 967.61 1055.9 3.2882 2.4193 2.7149 301.55 0.047631 14.377 0.051963 35.000 0.028571 967.61 1055.9 3.2882 2.4193 2.7149 301.55 0.047631 14.377 0.051963
238.38 449.15 undefined 970.03 1058.5 3.2930 35.000 0.028571 970.03 1058.5 3.2930 2.4230 2.7182 301.96 0.047351 14.403 0.052146 35.000 0.028571 970.03 1058.5 3.2930 2.4230 2.7182 301.96 0.047351 14.403 0.052146
239.38 450.25 undefined 972.45 1061.1 3.2977 35.000 0.028571 972.45 1061.1 3.2977 2.4267 2.7215 302.36 0.047074 14.428 0.052329 35.000 0.028571 972.45 1061.1 3.2977 2.4267 2.7215 302.36 0.047074 14.428 0.052329
240.38 451.35 undefined 974.88 1063.8 3.3024 35.000 0.028571 974.88 1063.8 3.3024 2.4304 2.7248 302.77 0.046799 14.454 0.052512 35.000 0.028571 974.88 1063.8 3.3024 2.4304 2.7248 302.77 0.046799 14.454 0.052512
241.38 452.45 undefined 977.31 1066.4 3.3072 35.000 0.028571 977.31 1066.4 3.3072 2.4341 2.7280 303.17 0.046527 14.479 0.052696 35.000 0.028571 977.31 1066.4 3.3072 2.4341 2.7280 303.17 0.046527 14.479 0.052696
242.38 453.55 undefined 979.75 1069.1 3.3119 35.000 0.028571 979.75 1069.1 3.3119 2.4378 2.7313 303.57 0.046256 14.505 0.052880 35.000 0.028571 979.75 1069.1 3.3119 2.4378 2.7313 303.57 0.046256 14.505 0.052880
243.38 454.65 undefined 982.19 1071.8 3.3166 35.000 0.028571 982.19 1071.8 3.3166 2.4415 2.7346 303.97 0.045988 14.530 0.053065 35.000 0.028571 982.19 1071.8 3.3166 2.4415 2.7346 303.97 0.045988 14.530 0.053065
244.38 455.75 undefined 984.63 1074.4 3.3213 35.000 0.028571 984.63 1074.4 3.3213 2.4452 2.7379 304.37 0.045723 14.556 0.053250 35.000 0.028571 984.63 1074.4 3.3213 2.4452 2.7379 304.37 0.045723 14.556 0.053250
245.38 456.84 undefined 987.08 1077.1 3.3261 35.000 0.028571 987.08 1077.1 3.3261 2.4489 2.7412 304.77 0.045459 14.581 0.053435 35.000 0.028571 987.08 1077.1 3.3261 2.4489 2.7412 304.77 0.045459 14.581 0.053435
246.38 457.94 undefined 989.53 1079.7 3.3308 35.000 0.028571 989.53 1079.7 3.3308 2.4526 2.7445 305.17 0.045198 14.606 0.053620 35.000 0.028571 989.53 1079.7 3.3308 2.4526 2.7445 305.17 0.045198 14.606 0.053620
247.38 459.04 undefined 991.98 1082.4 3.3355 35.000 0.028571 991.98 1082.4 3.3355 2.4563 2.7478 305.57 0.044939 14.632 0.053805 35.000 0.028571 991.98 1082.4 3.3355 2.4563 2.7478 305.57 0.044939 14.632 0.053805
248.38 460.14 undefined 994.44 1085.1 3.3402 35.000 0.028571 994.44 1085.1 3.3402 2.4599 2.7510 305.97 0.044682 14.657 0.053991 35.000 0.028571 994.44 1085.1 3.3402 2.4599 2.7510 305.97 0.044682 14.657 0.053991
249.38 461.23 undefined 996.90 1087.8 3.3449 35.000 0.028571 996.90 1087.8 3.3449 2.4636 2.7543 306.37 0.044427 14.682 0.054177 35.000 0.028571 996.90 1087.8 3.3449 2.4636 2.7543 306.37 0.044427 14.682 0.054177
250.38 462.33 undefined 999.37 1090.4 3.3497 35.000 0.028571 999.37 1090.4 3.3497 2.4673 2.7576 306.77 0.044174 14.708 0.054364 35.000 0.028571 999.37 1090.4 3.3497 2.4673 2.7576 306.77 0.044174 14.708 0.054364
251.38 463.43 undefined 1001.8 1093.1 3.3544 35.000 0.028571 1001.8 1093.1 3.3544 2.4710 2.7609 307.16 0.043923 14.733 0.054550 35.000 0.028571 1001.8 1093.1 3.3544 2.4710 2.7609 307.16 0.043923 14.733 0.054550
252.38 464.52 undefined 1004.3 1095.8 3.3591 35.000 0.028571 1004.3 1095.8 3.3591 2.4746 2.7642 307.56 0.043675 14.758 0.054737 35.000 0.028571 1004.3 1095.8 3.3591 2.4746 2.7642 307.56 0.043675 14.758 0.054737
253.38 465.62 undefined 1006.8 1098.5 3.3638 35.000 0.028571 1006.8 1098.5 3.3638 2.4783 2.7674 307.96 0.043428 14.783 0.054925 35.000 0.028571 1006.8 1098.5 3.3638 2.4783 2.7674 307.96 0.043428 14.783 0.054925
254.38 466.72 undefined 1009.3 1101.2 3.3685 35.000 0.028571 1009.3 1101.2 3.3685 2.4819 2.7707 308.35 0.043184 14.809 0.055112 35.000 0.028571 1009.3 1101.2 3.3685 2.4819 2.7707 308.35 0.043184 14.809 0.055112
255.38 467.81 undefined 1011.8 1103.9 3.3732 35.000 0.028571 1011.8 1103.9 3.3732 2.4856 2.7740 308.75 0.042941 14.834 0.055300 35.000 0.028571 1011.8 1103.9 3.3732 2.4856 2.7740 308.75 0.042941 14.834 0.055300
256.38 468.91 undefined 1014.2 1106.6 3.3779 35.000 0.028571 1014.2 1106.6 3.3779 2.4892 2.7773 309.14 0.042700 14.859 0.055488 35.000 0.028571 1014.2 1106.6 3.3779 2.4892 2.7773 309.14 0.042700 14.859 0.055488
257.38 470.00 undefined 1016.7 1109.3 3.3826 35.000 0.028571 1016.7 1109.3 3.3826 2.4929 2.7806 309.53 0.042462 14.884 0.055676 35.000 0.028571 1016.7 1109.3 3.3826 2.4929 2.7806 309.53 0.042462 14.884 0.055676
258.38 471.10 undefined 1019.2 1112.0 3.3873 35.000 0.028571 1019.2 1112.0 3.3873 2.4965 2.7838 309.93 0.042225 14.909 0.055865 35.000 0.028571 1019.2 1112.0 3.3873 2.4965 2.7838 309.93 0.042225 14.909 0.055865
259.38 472.19 undefined 1021.7 1114.7 3.3920 35.000 0.028571 1021.7 1114.7 3.3920 2.5001 2.7871 310.32 0.041990 14.934 0.056054 35.000 0.028571 1021.7 1114.7 3.3920 2.5001 2.7871 310.32 0.041990 14.934 0.056054
260.38 473.29 undefined 1024.2 1117.5 3.3967 35.000 0.028571 1024.2 1117.5 3.3967 2.5038 2.7904 310.71 0.041757 14.959 0.056243 35.000 0.028571 1024.2 1117.5 3.3967 2.5038 2.7904 310.71 0.041757 14.959 0.056243
261.38 474.38 undefined 1026.7 1120.2 3.4014 35.000 0.028571 1026.7 1120.2 3.4014 2.5074 2.7936 311.10 0.041526 14.984 0.056433 35.000 0.028571 1026.7 1120.2 3.4014 2.5074 2.7936 311.10 0.041526 14.984 0.056433
262.38 475.48 undefined 1029.2 1122.9 3.4061 35.000 0.028571 1029.2 1122.9 3.4061 2.5110 2.7969 311.49 0.041296 15.009 0.056623 35.000 0.028571 1029.2 1122.9 3.4061 2.5110 2.7969 311.49 0.041296 15.009 0.056623
263.38 476.57 undefined 1031.8 1125.6 3.4108 35.000 0.028571 1031.8 1125.6 3.4108 2.5146 2.8002 311.88 0.041069 15.034 0.056813 35.000 0.028571 1031.8 1125.6 3.4108 2.5146 2.8002 311.88 0.041069 15.034 0.056813
264.38 477.67 undefined 1034.3 1128.4 3.4154 35.000 0.028571 1034.3 1128.4 3.4154 2.5182 2.8034 312.27 0.040843 15.059 0.057003 35.000 0.028571 1034.3 1128.4 3.4154 2.5182 2.8034 312.27 0.040843 15.059 0.057003
265.38 478.76 undefined 1036.8 1131.1 3.4201 35.000 0.028571 1036.8 1131.1 3.4201 2.5219 2.8067 312.66 0.040619 15.084 0.057194 35.000 0.028571 1036.8 1131.1 3.4201 2.5219 2.8067 312.66 0.040619 15.084 0.057194
266.38 479.86 undefined 1039.3 1133.8 3.4248 35.000 0.028571 1039.3 1133.8 3.4248 2.5255 2.8100 313.05 0.040397 15.109 0.057384 35.000 0.028571 1039.3 1133.8 3.4248 2.5255 2.8100 313.05 0.040397 15.109 0.057384
267.38 480.95 undefined 1041.8 1136.6 3.4295 35.000 0.028571 1041.8 1136.6 3.4295 2.5291 2.8132 313.44 0.040177 15.134 0.057576 35.000 0.028571 1041.8 1136.6 3.4295 2.5291 2.8132 313.44 0.040177 15.134 0.057576
268.38 482.04 undefined 1044.4 1139.3 3.4342 35.000 0.028571 1044.4 1139.3 3.4342 2.5327 2.8165 313.83 0.039958 15.159 0.057767 35.000 0.028571 1044.4 1139.3 3.4342 2.5327 2.8165 313.83 0.039958 15.159 0.057767
269.38 483.14 undefined 1046.9 1142.1 3.4388 35.000 0.028571 1046.9 1142.1 3.4388 2.5362 2.8197 314.21 0.039741 15.184 0.057959 35.000 0.028571 1046.9 1142.1 3.4388 2.5362 2.8197 314.21 0.039741 15.184 0.057959
270.38 484.23 undefined 1049.4 1144.8 3.4435 35.000 0.028571 1049.4 1144.8 3.4435 2.5398 2.8230 314.60 0.039525 15.209 0.058150 35.000 0.028571 1049.4 1144.8 3.4435 2.5398 2.8230 314.60 0.039525 15.209 0.058150
271.38 485.33 undefined 1052.0 1147.6 3.4482 35.000 0.028571 1052.0 1147.6 3.4482 2.5434 2.8262 314.99 0.039312 15.233 0.058343 35.000 0.028571 1052.0 1147.6 3.4482 2.5434 2.8262 314.99 0.039312 15.233 0.058343
272.38 486.42 undefined 1054.5 1150.4 3.4529 35.000 0.028571 1054.5 1150.4 3.4529 2.5470 2.8295 315.37 0.039100 15.258 0.058535 35.000 0.028571 1054.5 1150.4 3.4529 2.5470 2.8295 315.37 0.039100 15.258 0.058535
273.38 487.51 undefined 1057.1 1153.1 3.4575 35.000 0.028571 1057.1 1153.1 3.4575 2.5506 2.8328 315.76 0.038889 15.283 0.058728 35.000 0.028571 1057.1 1153.1 3.4575 2.5506 2.8328 315.76 0.038889 15.283 0.058728
274.38 488.60 undefined 1059.6 1155.9 3.4622 35.000 0.028571 1059.6 1155.9 3.4622 2.5541 2.8360 316.14 0.038681 15.308 0.058920 35.000 0.028571 1059.6 1155.9 3.4622 2.5541 2.8360 316.14 0.038681 15.308 0.058920
275.38 489.70 undefined 1062.2 1158.7 3.4668 35.000 0.028571 1062.2 1158.7 3.4668 2.5577 2.8392 316.52 0.038473 15.332 0.059113 35.000 0.028571 1062.2 1158.7 3.4668 2.5577 2.8392 316.52 0.038473 15.332 0.059113
276.38 490.79 undefined 1064.7 1161.4 3.4715 35.000 0.028571 1064.7 1161.4 3.4715 2.5613 2.8425 316.91 0.038268 15.357 0.059307 35.000 0.028571 1064.7 1161.4 3.4715 2.5613 2.8425 316.91 0.038268 15.357 0.059307
277.38 491.88 undefined 1067.3 1164.2 3.4762 35.000 0.028571 1067.3 1164.2 3.4762 2.5648 2.8457 317.29 0.038064 15.382 0.059500 35.000 0.028571 1067.3 1164.2 3.4762 2.5648 2.8457 317.29 0.038064 15.382 0.059500
278.38 492.97 undefined 1069.9 1167.0 3.4808 35.000 0.028571 1069.9 1167.0 3.4808 2.5684 2.8490 317.67 0.037861 15.406 0.059693 35.000 0.028571 1069.9 1167.0 3.4808 2.5684 2.8490 317.67 0.037861 15.406 0.059693
279.38 494.07 undefined 1072.4 1169.8 3.4855 35.000 0.028571 1072.4 1169.8 3.4855 2.5719 2.8522 318.05 0.037660 15.431 0.059887 35.000 0.028571 1072.4 1169.8 3.4855 2.5719 2.8522 318.05 0.037660 15.431 0.059887
280.38 495.16 undefined 1075.0 1172.6 3.4901 35.000 0.028571 1075.0 1172.6 3.4901 2.5755 2.8554 318.44 0.037461 15.455 0.060080 35.000 0.028571 1075.0 1172.6 3.4901 2.5755 2.8554 318.44 0.037461 15.455 0.060080
281.38 496.25 undefined 1077.6 1175.4 3.4948 35.000 0.028571 1077.6 1175.4 3.4948 2.5790 2.8587 318.82 0.037263 15.480 0.060271 35.000 0.028571 1077.6 1175.4 3.4948 2.5790 2.8587 318.82 0.037263 15.480 0.060271
282.38 497.34 undefined 1080.2 1178.2 3.4994 35.000 0.028571 1080.2 1178.2 3.4994 2.5826 2.8619 319.20 0.037066 15.504 0.060465 35.000 0.028571 1080.2 1178.2 3.4994 2.5826 2.8619 319.20 0.037066 15.504 0.060465
283.38 498.43 undefined 1082.8 1180.9 3.5041 35.000 0.028571 1082.8 1180.9 3.5041 2.5861 2.8651 319.58 0.036871 15.529 0.060662 35.000 0.028571 1082.8 1180.9 3.5041 2.5861 2.8651 319.58 0.036871 15.529 0.060662
284.38 499.52 undefined 1085.3 1183.8 3.5087 35.000 0.028571 1085.3 1183.8 3.5087 2.5896 2.8684 319.96 0.036677 15.553 0.060859 35.000 0.028571 1085.3 1183.8 3.5087 2.5896 2.8684 319.96 0.036677 15.553 0.060859
285.38 500.61 undefined 1087.9 1186.6 3.5134 35.000 0.028571 1087.9 1186.6 3.5134 2.5931 2.8716 320.33 0.036485 15.578 0.061056 35.000 0.028571 1087.9 1186.6 3.5134 2.5931 2.8716 320.33 0.036485 15.578 0.061056
286.38 501.71 undefined 1090.5 1189.4 3.5180 35.000 0.028571 1090.5 1189.4 3.5180 2.5967 2.8748 320.71 0.036295 15.602 0.061254 35.000 0.028571 1090.5 1189.4 3.5180 2.5967 2.8748 320.71 0.036295 15.602 0.061254
287.38 502.80 undefined 1093.1 1192.2 3.5227 35.000 0.028571 1093.1 1192.2 3.5227 2.6002 2.8780 321.09 0.036105 15.627 0.061452 35.000 0.028571 1093.1 1192.2 3.5227 2.6002 2.8780 321.09 0.036105 15.627 0.061452
288.38 503.89 undefined 1095.7 1195.0 3.5273 35.000 0.028571 1095.7 1195.0 3.5273 2.6037 2.8812 321.47 0.035917 15.651 0.061650 35.000 0.028571 1095.7 1195.0 3.5273 2.6037 2.8812 321.47 0.035917 15.651 0.061650
289.38 504.98 undefined 1098.3 1197.8 3.5319 35.000 0.028571 1098.3 1197.8 3.5319 2.6072 2.8845 321.85 0.035731 15.675 0.061849 35.000 0.028571 1098.3 1197.8 3.5319 2.6072 2.8845 321.85 0.035731 15.675 0.061849
290.38 506.07 undefined 1101.0 1200.6 3.5366 35.000 0.028571 1101.0 1200.6 3.5366 2.6107 2.8877 322.22 0.035545 15.700 0.062048 35.000 0.028571 1101.0 1200.6 3.5366 2.6107 2.8877 322.22 0.035545 15.700 0.062048
291.38 507.16 undefined 1103.6 1203.5 3.5412 35.000 0.028571 1103.6 1203.5 3.5412 2.6142 2.8909 322.60 0.035362 15.724 0.062247 35.000 0.028571 1103.6 1203.5 3.5412 2.6142 2.8909 322.60 0.035362 15.724 0.062247
292.38 508.25 undefined 1106.2 1206.3 3.5458 35.000 0.028571 1106.2 1206.3 3.5458 2.6177 2.8941 322.97 0.035179 15.748 0.062446 35.000 0.028571 1106.2 1206.3 3.5458 2.6177 2.8941 322.97 0.035179 15.748 0.062446
293.38 509.34 undefined 1108.8 1209.1 3.5505 35.000 0.028571 1108.8 1209.1 3.5505 2.6212 2.8973 323.35 0.034998 15.773 0.062646 35.000 0.028571 1108.8 1209.1 3.5505 2.6212 2.8973 323.35 0.034998 15.773 0.062646
294.38 510.43 undefined 1111.4 1212.0 3.5551 35.000 0.028571 1111.4 1212.0 3.5551 2.6247 2.9005 323.72 0.034818 15.797 0.062846 35.000 0.028571 1111.4 1212.0 3.5551 2.6247 2.9005 323.72 0.034818 15.797 0.062846
295.38 511.52 undefined 1114.0 1214.8 3.5597 35.000 0.028571 1114.0 1214.8 3.5597 2.6282 2.9037 324.10 0.034639 15.821 0.063046 35.000 0.028571 1114.0 1214.8 3.5597 2.6282 2.9037 324.10 0.034639 15.821 0.063046
296.38 512.61 undefined 1116.7 1217.7 3.5643 35.000 0.028571 1116.7 1217.7 3.5643 2.6316 2.9069 324.47 0.034462 15.845 0.063247 35.000 0.028571 1116.7 1217.7 3.5643 2.6316 2.9069 324.47 0.034462 15.845 0.063247
297.38 513.70 undefined 1119.3 1220.5 3.5689 35.000 0.028571 1119.3 1220.5 3.5689 2.6351 2.9101 324.84 0.034286 15.869 0.063448 35.000 0.028571 1119.3 1220.5 3.5689 2.6351 2.9101 324.84 0.034286 15.869 0.063448
298.38 514.79 undefined 1121.9 1223.4 3.5736 35.000 0.028571 1121.9 1223.4 3.5736 2.6386 2.9133 325.22 0.034111 15.894 0.063649 35.000 0.028571 1121.9 1223.4 3.5736 2.6386 2.9133 325.22 0.034111 15.894 0.063649
299.38 515.88 undefined 1124.6 1226.2 3.5782 35.000 0.028571 1124.6 1226.2 3.5782 2.6420 2.9165 325.59 0.033938 15.918 0.063851 35.000 0.028571 1124.6 1226.2 3.5782 2.6420 2.9165 325.59 0.033938 15.918 0.063851
300.38 516.96 undefined 1127.2 1229.1 3.5828 35.000 0.028571 1127.2 1229.1 3.5828 2.6455 2.9197 325.96 0.033765 15.942 0.064052 35.000 0.028571 1127.2 1229.1 3.5828 2.6455 2.9197 325.96 0.033765 15.942 0.064052