Temperature (C) Pressure (psia) Quality (l+v) Internal Energy (l+v, kJ/kg) Enthalpy (l+v, kJ/kg) Entropy (l+v, J/g*K) Density (l, kg/m3) Volume (l, m3/kg) Internal Energy (l, kJ/kg) Enthalpy (l, kJ/kg) Entropy (l, J/g*K) Cv (l, J/g*K) Cp (l, J/g*K) Sound Spd. (l, m/s) Joule-Thomson (l, F/psia) Viscosity (l, uPa*s) Therm. Cond. (l, W/m*K) Density (v, kg/m3) Volume (v, m3/kg) Internal Energy (v, kJ/kg) Enthalpy (v, kJ/kg) Entropy (v, J/g*K) Cv (v, J/g*K) Cp (v, J/g*K) Sound Spd. (v, m/s) Joule-Thomson (v, F/psia) Viscosity (v, uPa*s) Therm. Cond. (v, W/m*K)
-187.62 2.4953e-08 1.2803e-11 -196.64 -196.64 -1.3959 733.13 0.0013640 -196.64 -196.64 -1.3959 1.3553 1.9158 2136.4 -0.0077592 10960. 0.20792 1.0669e-08 9.3732e+07 350.13 366.26 5.1858 0.69067 0.87923 143.28 6.1051 2.3259 0.0017061
-186.62 3.7339e-08 1.8907e-11 -194.73 -194.73 -1.3736 732.08 0.0013660 -194.73 -194.73 -1.3736 1.3539 1.9166 2129.6 -0.0077546 10073. 0.20765 1.5780e-08 6.3371e+07 350.82 367.14 5.1200 0.69462 0.88317 144.03 5.9178 2.3534 0.0017533
-185.62 5.5322e-08 2.7647e-11 -192.81 -192.81 -1.3516 731.04 0.0013679 -192.81 -192.81 -1.3516 1.3525 1.9174 2122.9 -0.0077498 9276.1 0.20737 2.3112e-08 4.3267e+07 351.52 368.02 5.0561 0.69857 0.88713 144.77 5.7383 2.3808 0.0018007
-184.62 8.1182e-08 4.0047e-11 -190.89 -190.89 -1.3298 730.00 0.0013699 -190.89 -190.89 -1.3298 1.3513 1.9182 2116.1 -0.0077448 8557.8 0.20708 3.3533e-08 2.9821e+07 352.22 368.91 4.9939 0.70253 0.89108 145.51 5.5662 2.4083 0.0018485
-183.62 1.1803e-07 5.7481e-11 -188.97 -188.97 -1.3083 728.96 0.0013718 -188.97 -188.97 -1.3083 1.3501 1.9191 2109.3 -0.0077395 7909.8 0.20678 4.8211e-08 2.0742e+07 352.92 369.81 4.9333 0.70648 0.89504 146.24 5.4011 2.4357 0.0018965
-182.62 1.7009e-07 8.1780e-11 -187.05 -187.05 -1.2869 727.92 0.0013738 -187.05 -187.05 -1.2869 1.3490 1.9201 2102.5 -0.0077340 7324.3 0.20647 6.8704e-08 1.4555e+07 353.63 370.70 4.8744 0.71043 0.89899 146.97 5.2426 2.4632 0.0019448
-181.62 2.4299e-07 1.1537e-10 -185.13 -185.13 -1.2658 726.88 0.0013757 -185.13 -185.13 -1.2658 1.3480 1.9210 2095.7 -0.0077283 6794.5 0.20616 9.7079e-08 1.0301e+07 354.35 371.60 4.8170 0.71438 0.90294 147.69 5.0904 2.4906 0.0019934
-180.62 3.4425e-07 1.6141e-10 -183.21 -183.21 -1.2450 725.85 0.0013777 -183.21 -183.21 -1.2450 1.3470 1.9220 2088.9 -0.0077225 6314.4 0.20584 1.3605e-07 7.3504e+06 355.06 372.51 4.7612 0.71833 0.90688 148.41 4.9442 2.5181 0.0020423
-179.62 4.8378e-07 2.2404e-10 -181.29 -181.29 -1.2243 724.81 0.0013797 -181.29 -181.29 -1.2243 1.3461 1.9231 2082.0 -0.0077164 5878.8 0.20551 1.8915e-07 5.2868e+06 355.78 373.42 4.7068 0.72227 0.91082 149.13 4.8038 2.5456 0.0020915
-178.62 6.7459e-07 3.0858e-10 -179.37 -179.37 -1.2038 723.78 0.0013816 -179.37 -179.37 -1.2038 1.3453 1.9241 2075.2 -0.0077102 5482.9 0.20517 2.6096e-07 3.8320e+06 356.51 374.33 4.6538 0.72620 0.91475 149.84 4.6688 2.5731 0.0021410
-177.62 9.3358e-07 4.2187e-10 -177.44 -177.44 -1.1836 722.75 0.0013836 -177.44 -177.44 -1.1836 1.3445 1.9252 2068.4 -0.0077039 5122.6 0.20483 3.5737e-07 2.7982e+06 357.23 375.25 4.6022 0.73012 0.91867 150.54 4.5390 2.6005 0.0021907
-176.62 1.2826e-06 5.7262e-10 -175.52 -175.52 -1.1635 721.72 0.0013856 -175.52 -175.52 -1.1635 1.3437 1.9263 2061.5 -0.0076973 4794.1 0.20447 4.8588e-07 2.0581e+06 357.97 376.17 4.5519 0.73403 0.92258 151.25 4.4142 2.6280 0.0022408
-175.62 1.7496e-06 7.7183e-10 -173.59 -173.59 -1.1437 720.69 0.0013876 -173.59 -173.59 -1.1437 1.3430 1.9274 2054.7 -0.0076907 4494.3 0.20411 6.5601e-07 1.5244e+06 358.70 377.09 4.5029 0.73792 0.92648 151.95 4.2941 2.6555 0.0022912
-174.62 2.3705e-06 1.0333e-09 -171.66 -171.66 -1.1240 719.66 0.0013895 -171.66 -171.66 -1.1240 1.3423 1.9286 2047.9 -0.0076838 4220.2 0.20375 8.7976e-07 1.1367e+06 359.44 378.02 4.4551 0.74181 0.93036 152.64 4.1784 2.6830 0.0023418
-173.62 3.1903e-06 1.3744e-09 -169.73 -169.73 -1.1045 718.64 0.0013915 -169.73 -169.73 -1.1045 1.3417 1.9298 2041.0 -0.0076769 3969.3 0.20338 1.1721e-06 8.5314e+05 360.19 378.95 4.4085 0.74568 0.93423 153.33 4.0671 2.7105 0.0023928
-172.62 4.2661e-06 1.8165e-09 -167.80 -167.80 -1.0852 717.61 0.0013935 -167.80 -167.80 -1.0852 1.3411 1.9310 2034.2 -0.0076698 3739.3 0.20300 1.5518e-06 6.4441e+05 360.93 379.89 4.3631 0.74953 0.93809 154.02 3.9599 2.7379 0.0024440
-171.62 5.6692e-06 2.3861e-09 -165.87 -165.87 -1.0661 716.58 0.0013955 -165.87 -165.87 -1.0661 1.3405 1.9322 2027.3 -0.0076625 3528.0 0.20261 2.0419e-06 4.8974e+05 361.69 380.83 4.3188 0.75337 0.94193 154.71 3.8566 2.7654 0.0024955
-170.62 7.4884e-06 3.1157e-09 -163.94 -163.94 -1.0472 715.56 0.0013975 -163.94 -163.94 -1.0472 1.3400 1.9334 2020.5 -0.0076552 3333.8 0.20222 2.6708e-06 3.7442e+05 362.44 381.77 4.2755 0.75720 0.94575 155.39 3.7570 2.7929 0.0025473
-169.62 9.8334e-06 4.0450e-09 -162.00 -162.00 -1.0284 714.54 0.0013995 -162.00 -162.00 -1.0284 1.3395 1.9347 2013.6 -0.0076477 3154.9 0.20182 3.4733e-06 2.8791e+05 363.20 382.72 4.2334 0.76100 0.94956 156.07 3.6609 2.8204 0.0025994
-168.62 1.2839e-05 5.2220e-09 -160.07 -160.07 -1.0098 713.52 0.0014015 -160.07 -160.07 -1.0098 1.3390 1.9359 2006.8 -0.0076401 2989.9 0.20141 4.4917e-06 2.2263e+05 363.96 383.67 4.1922 0.76479 0.95335 156.74 3.5683 2.8479 0.0026518
-167.62 1.6672e-05 6.7048e-09 -158.13 -158.13 -0.99134 712.49 0.0014035 -158.13 -158.13 -0.99134 1.3386 1.9372 2000.0 -0.0076323 2837.5 0.20100 5.7771e-06 1.7310e+05 364.73 384.63 4.1521 0.76856 0.95712 157.41 3.4790 2.8754 0.0027045
-166.62 2.1533e-05 8.5635e-09 -156.19 -156.19 -0.97306 711.47 0.0014055 -156.19 -156.19 -0.97306 1.3382 1.9385 1993.1 -0.0076245 2696.5 0.20058 7.3914e-06 1.3529e+05 365.50 385.59 4.1129 0.77232 0.96087 158.08 3.3927 2.9029 0.0027575
-165.62 2.7666e-05 1.0881e-08 -154.25 -154.25 -0.95494 710.45 0.0014075 -154.25 -154.25 -0.95494 1.3378 1.9398 1986.3 -0.0076165 2566.0 0.20016 9.4084e-06 1.0629e+05 366.27 386.55 4.0746 0.77605 0.96460 158.75 3.3095 2.9304 0.0028108
-164.62 3.5367e-05 1.3758e-08 -152.31 -152.31 -0.93698 709.44 0.0014096 -152.31 -152.31 -0.93698 1.3375 1.9411 1979.4 -0.0076084 2444.9 0.19973 1.1916e-05 83918. 367.05 387.52 4.0372 0.77976 0.96832 159.41 3.2291 2.9579 0.0028643
-163.62 4.4989e-05 1.7311e-08 -150.37 -150.37 -0.91917 708.42 0.0014116 -150.37 -150.37 -0.91917 1.3371 1.9424 1972.6 -0.0076002 2332.3 0.19930 1.5020e-05 66577. 367.83 388.49 4.0008 0.78346 0.97201 160.07 3.1514 2.9854 0.0029182
-162.62 5.6956e-05 2.1679e-08 -148.43 -148.43 -0.90151 707.40 0.0014136 -148.43 -148.43 -0.90151 1.3368 1.9437 1965.8 -0.0075919 2227.7 0.19886 1.8844e-05 53068. 368.62 389.46 3.9651 0.78713 0.97569 160.72 3.0764 3.0129 0.0029723
-161.62 7.1773e-05 2.7026e-08 -146.48 -146.48 -0.88400 706.38 0.0014157 -146.48 -146.48 -0.88400 1.3365 1.9451 1959.0 -0.0075834 2130.2 0.19841 2.3533e-05 42494. 369.41 390.44 3.9304 0.79079 0.97935 161.38 3.0038 3.0404 0.0030268
-160.62 9.0036e-05 3.3542e-08 -144.54 -144.54 -0.86663 705.37 0.0014177 -144.54 -144.54 -0.86663 1.3363 1.9465 1952.1 -0.0075748 2039.2 0.19796 2.9258e-05 34178. 370.20 391.42 3.8964 0.79443 0.98298 162.03 2.9337 3.0679 0.0030815
-159.62 0.00011245 4.1450e-08 -142.59 -142.59 -0.84940 704.35 0.0014197 -142.59 -142.59 -0.84940 1.3360 1.9478 1945.3 -0.0075661 1954.2 0.19751 3.6221e-05 27609. 371.00 392.40 3.8632 0.79805 0.98660 162.68 2.8658 3.0955 0.0031365
-158.62 0.00013985 5.1007e-08 -140.64 -140.64 -0.83231 703.34 0.0014218 -140.64 -140.64 -0.83231 1.3358 1.9492 1938.5 -0.0075573 1874.8 0.19705 4.4652e-05 22395. 371.80 393.39 3.8307 0.80164 0.99020 163.32 2.8002 3.1230 0.0031918
-157.62 0.00017320 6.2511e-08 -138.69 -138.69 -0.81536 702.32 0.0014238 -138.69 -138.69 -0.81536 1.3356 1.9506 1931.7 -0.0075484 1800.3 0.19658 5.4822e-05 18241. 372.60 394.38 3.7990 0.80522 0.99378 163.96 2.7367 3.1505 0.0032474
-156.62 0.00021364 7.6306e-08 -136.74 -136.74 -0.79854 701.31 0.0014259 -136.74 -136.74 -0.79854 1.3354 1.9520 1924.9 -0.0075393 1730.5 0.19611 6.7040e-05 14916. 373.41 395.38 3.7680 0.80878 0.99734 164.60 2.6752 3.1780 0.0033033
-155.62 0.00026248 9.2784e-08 -134.79 -134.79 -0.78185 700.30 0.0014280 -134.79 -134.79 -0.78185 1.3352 1.9534 1918.1 -0.0075302 1664.9 0.19564 8.1666e-05 12245. 374.22 396.38 3.7377 0.81232 1.0009 165.24 2.6157 3.2055 0.0033595
-154.62 0.00032125 1.1240e-07 -132.83 -132.83 -0.76530 699.29 0.0014300 -132.83 -132.83 -0.76530 1.3350 1.9548 1911.3 -0.0075209 1603.3 0.19516 9.9109e-05 10090. 375.03 397.38 3.7081 0.81585 1.0044 165.87 2.5580 3.2330 0.0034160
-153.62 0.00039171 1.3566e-07 -130.88 -130.88 -0.74887 698.27 0.0014321 -130.88 -130.88 -0.74887 1.3349 1.9563 1904.5 -0.0075114 1545.3 0.19468 0.00011984 8344.6 375.85 398.39 3.6792 0.81935 1.0079 166.50 2.5022 3.2606 0.0034727
-152.62 0.00047590 1.6314e-07 -128.92 -128.92 -0.73256 697.26 0.0014342 -128.92 -128.92 -0.73256 1.3348 1.9577 1897.8 -0.0075019 1490.6 0.19419 0.00014439 6925.9 376.67 399.40 3.6509 0.82284 1.0114 167.13 2.4481 3.2881 0.0035298
-151.62 0.00057613 1.9552e-07 -126.96 -126.96 -0.71638 696.25 0.0014363 -126.96 -126.96 -0.71638 1.3346 1.9592 1891.0 -0.0074922 1438.9 0.19370 0.00017336 5768.4 377.49 400.41 3.6232 0.82631 1.0149 167.76 2.3957 3.3156 0.0035872
-150.62 0.00069507 2.3352e-07 -125.00 -125.00 -0.70032 695.24 0.0014384 -125.00 -125.00 -0.70032 1.3345 1.9606 1884.2 -0.0074824 1390.2 0.19320 0.00020744 4820.7 378.32 401.42 3.5962 0.82976 1.0183 168.38 2.3448 3.3431 0.0036448
-149.62 0.00083574 2.7799e-07 -123.04 -123.04 -0.68437 694.23 0.0014404 -123.04 -123.04 -0.68438 1.3345 1.9621 1877.4 -0.0074724 1344.0 0.19270 0.00024740 4042.0 379.15 402.44 3.5697 0.83319 1.0218 169.00 2.2956 3.3706 0.0037027
-148.62 0.0010016 3.2987e-07 -121.08 -121.08 -0.66855 693.22 0.0014425 -121.08 -121.08 -0.66855 1.3344 1.9636 1870.7 -0.0074623 1300.3 0.19220 0.00029412 3400.0 379.99 403.47 3.5438 0.83661 1.0252 169.62 2.2478 3.3982 0.0037610
-147.62 0.0011965 3.9019e-07 -119.11 -119.11 -0.65284 692.21 0.0014447 -119.11 -119.11 -0.65284 1.3343 1.9651 1863.9 -0.0074521 1258.9 0.19169 0.00034856 2869.0 380.83 404.49 3.5185 0.84001 1.0286 170.24 2.2014 3.4257 0.0038195
-146.62 0.0014249 4.6013e-07 -117.15 -117.15 -0.63724 691.20 0.0014468 -117.15 -117.15 -0.63724 1.3343 1.9666 1857.2 -0.0074417 1219.6 0.19117 0.00041181 2428.3 381.67 405.52 3.4938 0.84340 1.0320 170.85 2.1565 3.4532 0.0038783
-145.62 0.0016917 5.4099e-07 -115.18 -115.18 -0.62175 690.19 0.0014489 -115.18 -115.18 -0.62175 1.3343 1.9682 1850.4 -0.0074312 1182.3 0.19066 0.00048510 2061.4 382.51 406.56 3.4695 0.84677 1.0353 171.46 2.1128 3.4807 0.0039374
-144.62 0.0020026 6.3420e-07 -113.21 -113.21 -0.60637 689.18 0.0014510 -113.21 -113.21 -0.60637 1.3343 1.9697 1843.7 -0.0074206 1146.8 0.19014 0.00056976 1755.1 383.36 407.59 3.4458 0.85012 1.0387 172.07 2.0705 3.5082 0.0039967
-143.62 0.0023637 7.4136e-07 -111.24 -111.24 -0.59110 688.17 0.0014531 -111.24 -111.24 -0.59110 1.3343 1.9713 1836.9 -0.0074098 1113.0 0.18962 0.00066731 1498.6 384.21 408.63 3.4226 0.85346 1.0420 172.68 2.0294 3.5358 0.0040564
-142.62 0.0027820 8.6421e-07 -109.27 -109.27 -0.57593 687.16 0.0014553 -109.27 -109.27 -0.57593 1.3343 1.9728 1830.2 -0.0073988 1080.8 0.18909 0.00077939 1283.1 385.07 409.68 3.3999 0.85679 1.0454 173.28 1.9896 3.5633 0.0041164
-141.62 0.0032653 1.0047e-06 -107.30 -107.30 -0.56086 686.15 0.0014574 -107.30 -107.30 -0.56087 1.3343 1.9744 1823.5 -0.0073878 1050.1 0.18856 0.00090784 1101.5 385.93 410.72 3.3777 0.86011 1.0487 173.88 1.9508 3.5908 0.0041766
-140.62 0.0038222 1.1649e-06 -105.32 -105.32 -0.54590 685.14 0.0014596 -105.32 -105.32 -0.54591 1.3344 1.9760 1816.7 -0.0073765 1020.7 0.18803 0.0010547 948.16 386.79 411.77 3.3560 0.86341 1.0520 174.48 1.9133 3.6183 0.0042372
-139.62 0.0044623 1.3472e-06 -103.34 -103.34 -0.53104 684.13 0.0014617 -103.34 -103.34 -0.53105 1.3344 1.9776 1810.0 -0.0073651 992.74 0.18749 0.0012221 818.26 387.65 412.83 3.3347 0.86670 1.0553 175.08 1.8768 3.6459 0.0042980
-138.62 0.0051963 1.5541e-06 -101.37 -101.37 -0.51628 683.12 0.0014639 -101.37 -101.37 -0.51629 1.3345 1.9792 1803.3 -0.0073536 965.97 0.18695 0.0014125 707.94 388.52 413.88 3.3139 0.86998 1.0586 175.67 1.8413 3.6734 0.0043592
-137.62 0.0060358 1.7884e-06 -99.385 -99.385 -0.50162 682.11 0.0014660 -99.386 -99.386 -0.50162 1.3346 1.9808 1796.6 -0.0073419 940.35 0.18641 0.0016287 614.00 389.39 414.94 3.2935 0.87325 1.0619 176.26 1.8069 3.7009 0.0044206
-136.62 0.0069938 2.0530e-06 -97.403 -97.403 -0.48705 681.10 0.0014682 -97.404 -97.404 -0.48705 1.3347 1.9825 1789.9 -0.0073301 915.81 0.18586 0.0018733 533.80 390.26 416.00 3.2735 0.87650 1.0651 176.85 1.7734 3.7284 0.0044823
-135.62 0.0080843 2.3512e-06 -95.420 -95.420 -0.47257 680.09 0.0014704 -95.421 -95.421 -0.47258 1.3348 1.9841 1783.2 -0.0073180 892.30 0.18531 0.0021497 465.17 391.14 417.07 3.2540 0.87975 1.0684 177.44 1.7409 3.7559 0.0045443
-134.62 0.0093230 2.6865e-06 -93.435 -93.435 -0.45819 679.08 0.0014726 -93.436 -93.436 -0.45820 1.3350 1.9858 1776.5 -0.0073059 869.75 0.18476 0.0024613 406.30 392.02 418.14 3.2348 0.88299 1.0716 178.02 1.7093 3.7834 0.0046066
-133.62 0.010727 3.0628e-06 -91.448 -91.448 -0.44390 678.07 0.0014748 -91.450 -91.449 -0.44391 1.3351 1.9875 1769.8 -0.0072935 848.11 0.18421 0.0028116 355.67 392.91 419.21 3.2161 0.88622 1.0749 178.61 1.6786 3.8109 0.0046691
-132.62 0.012315 3.4841e-06 -89.460 -89.459 -0.42970 677.06 0.0014770 -89.461 -89.461 -0.42971 1.3353 1.9892 1763.1 -0.0072810 827.32 0.18365 0.0032049 312.03 393.79 420.29 3.1977 0.88944 1.0781 179.19 1.6488 3.8385 0.0047320
-131.62 0.014106 3.9548e-06 -87.469 -87.469 -0.41558 676.04 0.0014792 -87.471 -87.471 -0.41560 1.3354 1.9909 1756.4 -0.0072684 807.34 0.18309 0.0036453 274.33 394.68 421.36 3.1798 0.89266 1.0813 179.76 1.6197 3.8660 0.0047951
-130.62 0.016124 4.4797e-06 -85.477 -85.477 -0.40156 675.03 0.0014814 -85.479 -85.479 -0.40157 1.3356 1.9926 1749.7 -0.0072555 788.12 0.18253 0.0041375 241.69 395.58 422.44 3.1622 0.89586 1.0846 180.34 1.5915 3.8935 0.0048586
-129.62 0.018392 5.0638e-06 -83.483 -83.483 -0.38762 674.02 0.0014836 -83.486 -83.486 -0.38763 1.3358 1.9944 1743.0 -0.0072425 769.63 0.18196 0.0046867 213.37 396.47 423.53 3.1450 0.89906 1.0878 180.91 1.5641 3.9210 0.0049223
-128.62 0.020935 5.7127e-06 -81.488 -81.488 -0.37376 673.01 0.0014859 -81.491 -81.490 -0.37378 1.3360 1.9961 1736.3 -0.0072294 751.83 0.18140 0.0052981 188.75 397.37 424.62 3.1281 0.90226 1.0910 181.48 1.5374 3.9485 0.0049863
-127.62 0.023783 6.4319e-06 -79.491 -79.490 -0.35999 672.00 0.0014881 -79.494 -79.493 -0.36001 1.3363 1.9979 1729.6 -0.0072160 734.67 0.18083 0.0059776 167.29 398.27 425.71 3.1116 0.90545 1.0942 182.05 1.5114 3.9760 0.0050506
-126.62 0.026966 7.2279e-06 -77.491 -77.491 -0.34630 670.98 0.0014904 -77.495 -77.495 -0.34632 1.3365 1.9997 1722.9 -0.0072025 718.14 0.18025 0.0067313 148.56 399.18 426.80 3.0954 0.90863 1.0974 182.62 1.4861 4.0035 0.0051152
-125.62 0.030515 8.1070e-06 -75.490 -75.490 -0.33269 669.97 0.0014926 -75.494 -75.494 -0.33272 1.3368 2.0015 1716.2 -0.0071888 702.18 0.17968 0.0075660 132.17 400.09 427.89 3.0795 0.91181 1.1006 183.18 1.4615 4.0310 0.0051800
-124.62 0.034467 9.0763e-06 -73.488 -73.487 -0.31916 668.95 0.0014949 -73.492 -73.492 -0.31919 1.3371 2.0033 1709.5 -0.0071749 686.79 0.17910 0.0084885 117.81 401.00 428.99 3.0640 0.91499 1.1038 183.74 1.4375 4.0584 0.0052452
-123.62 0.038859 1.0143e-05 -71.483 -71.482 -0.30571 667.94 0.0014971 -71.488 -71.487 -0.30574 1.3374 2.0051 1702.8 -0.0071609 671.93 0.17852 0.0095065 105.19 401.91 430.10 3.0488 0.91816 1.1070 184.30 1.4141 4.0859 0.0053106
-122.62 0.043731 1.1315e-05 -69.476 -69.475 -0.29233 666.92 0.0014994 -69.482 -69.481 -0.29237 1.3377 2.0070 1696.2 -0.0071466 657.57 0.17794 0.010628 94.092 402.83 431.20 3.0339 0.92134 1.1102 184.86 1.3913 4.1134 0.0053764
-121.62 0.049128 1.2601e-05 -67.468 -67.467 -0.27903 665.91 0.0015017 -67.474 -67.473 -0.27907 1.3380 2.0089 1689.5 -0.0071322 643.70 0.17736 0.011861 84.309 403.75 432.31 3.0193 0.92451 1.1134 185.41 1.3691 4.1409 0.0054424
-120.62 0.055096 1.4010e-05 -65.457 -65.456 -0.26581 664.89 0.0015040 -65.464 -65.463 -0.26585 1.3384 2.0107 1682.8 -0.0071176 630.28 0.17678 0.013215 75.669 404.67 433.42 3.0050 0.92767 1.1166 185.96 1.3475 4.1683 0.0055087
-119.62 0.061684 1.5550e-05 -63.445 -63.444 -0.25266 663.87 0.0015063 -63.452 -63.452 -0.25271 1.3387 2.0126 1676.1 -0.0071028 617.30 0.17619 0.014700 68.027 405.60 434.53 2.9909 0.93084 1.1198 186.51 1.3264 4.1958 0.0055752
-118.62 0.068946 1.7231e-05 -61.431 -61.429 -0.23958 662.86 0.0015086 -61.439 -61.438 -0.23963 1.3391 2.0146 1669.4 -0.0070878 604.74 0.17560 0.016325 61.255 406.53 435.64 2.9772 0.93401 1.1231 187.06 1.3058 4.2233 0.0056421
-117.62 0.076937 1.9064e-05 -59.414 -59.413 -0.22657 661.84 0.0015109 -59.423 -59.422 -0.22663 1.3395 2.0165 1662.8 -0.0070726 592.58 0.17501 0.018101 55.245 407.46 436.76 2.9638 0.93718 1.1263 187.60 1.2857 4.2507 0.0057092
-116.62 0.085718 2.1059e-05 -57.396 -57.394 -0.21364 660.82 0.0015133 -57.406 -57.405 -0.21370 1.3400 2.0184 1656.1 -0.0070573 580.80 0.17442 0.020040 49.901 408.39 437.88 2.9506 0.94035 1.1295 188.14 1.2660 4.2782 0.0057767
-115.62 0.095353 2.3227e-05 -55.376 -55.374 -0.20077 659.80 0.0015156 -55.386 -55.385 -0.20084 1.3404 2.0204 1649.4 -0.0070417 569.38 0.17383 0.022152 45.142 409.33 439.01 2.9377 0.94352 1.1327 188.68 1.2468 4.3056 0.0058444
-114.62 0.10591 2.5580e-05 -53.353 -53.351 -0.18797 658.78 0.0015180 -53.365 -53.364 -0.18805 1.3409 2.0224 1642.7 -0.0070260 558.32 0.17323 0.024451 40.898 410.27 440.13 2.9250 0.94669 1.1360 189.22 1.2281 4.3330 0.0059123
-113.62 0.11746 2.8130e-05 -51.329 -51.326 -0.17524 657.76 0.0015203 -51.342 -51.340 -0.17533 1.3413 2.0244 1636.0 -0.0070100 547.59 0.17264 0.026949 37.107 411.21 441.26 2.9126 0.94987 1.1392 189.75 1.2097 4.3604 0.0059806
-112.62 0.13008 3.0891e-05 -49.302 -49.300 -0.16257 656.73 0.0015227 -49.316 -49.315 -0.16267 1.3418 2.0264 1629.3 -0.0069938 537.18 0.17204 0.029661 33.715 412.16 442.39 2.9005 0.95305 1.1424 190.28 1.1918 4.3879 0.0060491
-111.62 0.14384 3.3874e-05 -47.273 -47.271 -0.14998 655.71 0.0015251 -47.289 -47.287 -0.15008 1.3424 2.0285 1622.7 -0.0069774 527.08 0.17144 0.032600 30.675 413.10 443.53 2.8885 0.95623 1.1457 190.81 1.1742 4.4153 0.0061180
-110.62 0.15884 3.7094e-05 -45.242 -45.239 -0.13744 654.69 0.0015274 -45.259 -45.258 -0.13755 1.3429 2.0305 1616.0 -0.0069609 517.28 0.17084 0.035781 27.948 414.06 444.66 2.8769 0.95942 1.1490 191.34 1.1570 4.4427 0.0061871
-109.62 0.17516 4.0566e-05 -43.209 -43.206 -0.12497 653.66 0.0015298 -43.228 -43.226 -0.12509 1.3435 2.0326 1609.3 -0.0069441 507.76 0.17024 0.039220 25.497 415.01 445.80 2.8654 0.96261 1.1522 191.86 1.1402 4.4701 0.0062564
-108.62 0.19290 4.4303e-05 -41.174 -41.170 -0.11256 652.64 0.0015322 -41.194 -41.192 -0.11269 1.3441 2.0347 1602.6 -0.0069271 498.51 0.16964 0.042933 23.292 415.96 446.94 2.8542 0.96581 1.1555 192.38 1.1236 4.4974 0.0063261
-107.62 0.21215 4.8322e-05 -39.136 -39.133 -0.10021 651.61 0.0015347 -39.158 -39.156 -0.10036 1.3447 2.0369 1595.9 -0.0069098 489.52 0.16903 0.046937 21.305 416.92 448.09 2.8433 0.96901 1.1588 192.90 1.1075 4.5248 0.0063960
-106.62 0.23301 5.2639e-05 -37.097 -37.092 -0.087929 650.58 0.0015371 -37.120 -37.118 -0.088082 1.3453 2.0390 1589.2 -0.0068924 480.79 0.16843 0.051250 19.512 417.88 449.23 2.8325 0.97222 1.1621 193.41 1.0916 4.5522 0.0064662
-105.62 0.25561 5.7270e-05 -35.054 -35.050 -0.075703 649.55 0.0015395 -35.080 -35.078 -0.075868 1.3460 2.0412 1582.6 -0.0068747 472.30 0.16782 0.055891 17.892 418.85 450.38 2.8220 0.97544 1.1655 193.93 1.0760 4.5795 0.0065367
-104.62 0.28004 6.2231e-05 -33.010 -33.005 -0.063535 648.52 0.0015420 -33.038 -33.035 -0.063714 1.3467 2.0434 1575.9 -0.0068569 464.04 0.16721 0.060878 16.426 419.81 451.53 2.8116 0.97867 1.1688 194.44 1.0608 4.6069 0.0066074
-103.62 0.30643 6.7541e-05 -30.963 -30.958 -0.051426 647.49 0.0015444 -30.994 -30.991 -0.051619 1.3474 2.0456 1569.2 -0.0068387 456.00 0.16660 0.066231 15.099 420.78 452.68 2.8015 0.98191 1.1722 194.94 1.0458 4.6342 0.0066785
-102.62 0.33490 7.3218e-05 -28.914 -28.908 -0.039374 646.46 0.0015469 -28.947 -28.944 -0.039582 1.3481 2.0478 1562.5 -0.0068204 448.18 0.16600 0.071971 13.894 421.75 453.84 2.7916 0.98516 1.1755 195.44 1.0310 4.6615 0.0067498
-101.62 0.36558 7.9281e-05 -26.863 -26.856 -0.027379 645.43 0.0015494 -26.898 -26.894 -0.027602 1.3489 2.0501 1555.8 -0.0068018 440.57 0.16539 0.078120 12.801 422.73 454.99 2.7818 0.98841 1.1789 195.95 1.0166 4.6888 0.0068213
-100.62 0.39862 8.5748e-05 -24.809 -24.802 -0.015439 644.39 0.0015519 -24.847 -24.843 -0.015678 1.3497 2.0524 1549.1 -0.0067830 433.16 0.16478 0.084699 11.807 423.70 456.15 2.7723 0.99168 1.1823 196.44 1.0024 4.7161 0.0068932
-99.625 0.43414 9.2639e-05 -22.752 -22.745 -0.0035539 643.36 0.0015544 -22.794 -22.789 -0.0038103 1.3505 2.0547 1542.4 -0.0067639 425.95 0.16416 0.091731 10.901 424.68 457.31 2.7630 0.99496 1.1858 196.94 0.98838 4.7434 0.0069653
-98.625 0.47230 9.9974e-05 -20.693 -20.685 0.0082772 642.32 0.0015569 -20.738 -20.733 0.0080027 1.3514 2.0570 1535.7 -0.0067447 418.92 0.16355 0.099240 10.077 425.66 458.48 2.7538 0.99825 1.1892 197.43 0.97464 4.7707 0.0070377
-97.625 0.51325 0.00010778 -18.632 -18.623 0.020055 641.28 0.0015594 -18.680 -18.674 0.019762 1.3522 2.0594 1529.0 -0.0067251 412.07 0.16294 0.10725 9.3239 426.65 459.64 2.7448 1.0016 1.1927 197.92 0.96112 4.7979 0.0071103
-96.625 0.55714 0.00011606 -16.568 -16.558 0.031781 640.24 0.0015619 -16.620 -16.614 0.031467 1.3531 2.0618 1522.3 -0.0067053 405.39 0.16233 0.11579 8.6365 427.63 460.81 2.7360 1.0049 1.1962 198.40 0.94783 4.8251 0.0071832
-95.625 0.60416 0.00012486 -14.501 -14.491 0.043455 639.20 0.0015645 -14.557 -14.550 0.043120 1.3540 2.0642 1515.7 -0.0066853 398.88 0.16171 0.12488 8.0078 428.62 461.98 2.7274 1.0082 1.1997 198.88 0.93475 4.8524 0.0072564
-94.625 0.65446 0.00013418 -12.432 -12.421 0.055079 638.16 0.0015670 -12.491 -12.484 0.054721 1.3550 2.0667 1509.0 -0.0066650 392.53 0.16110 0.13455 7.4323 429.61 463.15 2.7189 1.0116 1.2032 199.36 0.92188 4.8796 0.0073299
-93.625 0.70822 0.00014406 -10.360 -10.348 0.066652 637.12 0.0015696 -10.424 -10.416 0.066271 1.3560 2.0691 1502.3 -0.0066444 386.34 0.16048 0.14482 6.9050 430.60 464.32 2.7107 1.0149 1.2068 199.83 0.90921 4.9068 0.0074036
-92.625 0.76564 0.00015452 -8.2855 -8.2720 0.078176 636.07 0.0015722 -8.3535 -8.3452 0.077771 1.3570 2.0716 1495.6 -0.0066236 380.31 0.15987 0.15573 6.4212 431.60 465.49 2.7025 1.0183 1.2104 200.30 0.89673 4.9340 0.0074776
-91.625 0.82689 0.00016557 -6.2082 -6.1936 0.089652 635.02 0.0015747 -6.2808 -6.2719 0.089220 1.3580 2.0742 1488.9 -0.0066025 374.41 0.15925 0.16731 5.9769 432.59 466.67 2.6946 1.0217 1.2140 200.77 0.88445 4.9611 0.0075518
-90.625 0.89218 0.00017725 -4.1280 -4.1123 0.10108 633.98 0.0015773 -4.2056 -4.1959 0.10062 1.3591 2.0767 1482.2 -0.0065811 368.66 0.15864 0.17958 5.5685 433.59 467.84 2.6868 1.0251 1.2177 201.24 0.87236 4.9883 0.0076263
-89.625 0.96172 0.00018958 -2.0451 -2.0281 0.11246 632.93 0.0015800 -2.1279 -2.1174 0.11197 1.3602 2.0793 1475.5 -0.0065595 363.05 0.15802 0.19258 5.1928 434.59 469.02 2.6791 1.0285 1.2213 201.70 0.86045 5.0154 0.0077011
-88.625 1.0357 0.00020258 0.040736 0.059046 0.12379 631.88 0.0015826 -0.047516 -0.036215 0.12328 1.3613 2.0819 1468.8 -0.0065375 357.56 0.15740 0.20633 4.8466 435.59 470.20 2.6717 1.0320 1.2250 202.15 0.84873 5.0425 0.0077761
-87.625 1.1144 0.00021628 2.1294 2.1491 0.13508 630.83 0.0015852 2.0355 2.0476 0.13454 1.3625 2.0846 1462.1 -0.0065153 352.21 0.15679 0.22087 4.5276 436.60 471.39 2.6643 1.0354 1.2288 202.61 0.83718 5.0696 0.0078514
-86.625 1.1979 0.00023070 4.2211 4.2423 0.14633 629.77 0.0015879 4.1211 4.1342 0.14575 1.3637 2.0873 1455.4 -0.0064928 346.98 0.15617 0.23623 4.2331 437.61 472.57 2.6571 1.0389 1.2325 203.06 0.82580 5.0967 0.0079270
-85.625 1.2866 0.00024588 6.3157 6.3384 0.15753 628.72 0.0015905 6.2094 6.2235 0.15691 1.3649 2.0900 1448.8 -0.0064701 341.87 0.15555 0.25245 3.9612 438.61 473.75 2.6501 1.0424 1.2363 203.50 0.81460 5.1237 0.0080028
-84.625 1.3806 0.00026183 8.4133 8.4377 0.16868 627.66 0.0015932 8.3004 8.3155 0.16803 1.3661 2.0927 1442.1 -0.0064470 336.87 0.15494 0.26956 3.7097 439.63 474.94 2.6432 1.0460 1.2402 203.95 0.80356 5.1508 0.0080789
-83.625 1.4803 0.00027858 10.514 10.540 0.17980 626.60 0.0015959 10.394 10.410 0.17911 1.3674 2.0955 1435.4 -0.0064236 331.99 0.15432 0.28760 3.4771 440.64 476.13 2.6364 1.0495 1.2440 204.38 0.79269 5.1778 0.0081553
-82.625 1.5858 0.00029616 12.618 12.646 0.19087 625.54 0.0015986 12.491 12.508 0.19014 1.3687 2.0983 1428.7 -0.0063999 327.22 0.15370 0.30659 3.2616 441.65 477.31 2.6298 1.0531 1.2479 204.82 0.78199 5.2048 0.0082319
-81.625 1.6975 0.00031460 14.725 14.755 0.20190 624.48 0.0016013 14.590 14.609 0.20113 1.3700 2.1012 1422.0 -0.0063759 322.55 0.15309 0.32659 3.0619 442.67 478.50 2.6233 1.0567 1.2519 205.25 0.77144 5.2318 0.0083088
-80.625 1.8155 0.00033393 16.835 16.867 0.21288 623.42 0.0016041 16.692 16.712 0.21208 1.3714 2.1041 1415.4 -0.0063516 317.99 0.15247 0.34763 2.8766 443.69 479.70 2.6169 1.0603 1.2558 205.67 0.76106 5.2587 0.0083860
-79.625 1.9402 0.00035416 18.948 18.982 0.22383 622.36 0.0016068 18.797 18.819 0.22299 1.3728 2.1070 1408.7 -0.0063270 313.52 0.15186 0.36974 2.7046 444.71 480.89 2.6106 1.0639 1.2598 206.10 0.75083 5.2857 0.0084634
-78.625 2.0718 0.00037534 21.064 21.101 0.23474 621.29 0.0016096 20.905 20.928 0.23385 1.3742 2.1099 1402.0 -0.0063021 309.15 0.15124 0.39296 2.5448 445.73 482.08 2.6045 1.0676 1.2639 206.51 0.74076 5.3126 0.0085411
-77.625 2.2107 0.00039749 23.184 23.223 0.24561 620.22 0.0016123 23.016 23.040 0.24468 1.3757 2.1129 1395.3 -0.0062768 304.88 0.15062 0.41735 2.3961 446.75 483.27 2.5985 1.0712 1.2680 206.93 0.73084 5.3395 0.0086190
-76.625 2.3571 0.00042063 25.307 25.349 0.25644 619.15 0.0016151 25.130 25.156 0.25546 1.3772 2.1159 1388.7 -0.0062512 300.69 0.15001 0.44292 2.2577 447.78 484.47 2.5926 1.0749 1.2721 207.34 0.72107 5.3664 0.0086972
-75.625 2.5113 0.00044480 27.434 27.478 0.26724 618.08 0.0016179 27.247 27.275 0.26620 1.3787 2.1190 1382.0 -0.0062253 296.59 0.14939 0.46974 2.1288 448.81 485.67 2.5869 1.0787 1.2762 207.74 0.71146 5.3933 0.0087757
-74.625 2.6736 0.00047002 29.564 29.611 0.27799 617.01 0.0016207 29.366 29.396 0.27691 1.3802 2.1221 1375.4 -0.0061990 292.58 0.14878 0.49783 2.0087 449.83 486.86 2.5812 1.0824 1.2804 208.14 0.70200 5.4201 0.0088544
-73.625 2.8444 0.00049633 31.697 31.748 0.28871 615.93 0.0016236 31.489 31.521 0.28758 1.3818 2.1252 1368.7 -0.0061724 288.65 0.14816 0.52725 1.8966 450.86 488.06 2.5757 1.0862 1.2847 208.54 0.69268 5.4469 0.0089334
-72.625 3.0240 0.00052375 33.834 33.888 0.29940 614.85 0.0016264 33.615 33.649 0.29821 1.3834 2.1284 1362.0 -0.0061454 284.81 0.14755 0.55804 1.7920 451.90 489.26 2.5703 1.0900 1.2889 208.93 0.68351 5.4737 0.0090126
-71.625 3.2127 0.00055231 35.975 36.032 0.31004 613.78 0.0016293 35.745 35.781 0.30880 1.3851 2.1316 1355.4 -0.0061181 281.03 0.14694 0.59024 1.6942 452.93 490.46 2.5650 1.0938 1.2932 209.32 0.67448 5.5005 0.0090922
-70.625 3.4108 0.00058205 38.119 38.179 0.32066 612.69 0.0016321 37.877 37.915 0.31935 1.3867 2.1349 1348.7 -0.0060904 277.34 0.14632 0.62390 1.6028 453.96 491.66 2.5598 1.0976 1.2976 209.70 0.66560 5.5273 0.0091720
-69.625 3.6187 0.00061298 40.267 40.331 0.33124 611.61 0.0016350 40.013 40.053 0.32987 1.3884 2.1382 1342.1 -0.0060624 273.72 0.14571 0.65906 1.5173 455.00 492.86 2.5547 1.1015 1.3020 210.08 0.65687 5.5540 0.0092520
-68.625 3.8367 0.00064514 42.419 42.486 0.34178 610.53 0.0016379 42.152 42.195 0.34036 1.3902 2.1415 1335.5 -0.0060339 270.17 0.14510 0.69577 1.4372 456.04 494.06 2.5497 1.1054 1.3064 210.45 0.64827 5.5807 0.0093324
-67.625 4.0652 0.00067856 44.574 44.646 0.35229 609.44 0.0016409 44.294 44.340 0.35080 1.3919 2.1449 1328.8 -0.0060051 266.69 0.14449 0.73408 1.3622 457.08 495.26 2.5448 1.1093 1.3109 210.82 0.63981 5.6074 0.0094130
-66.625 4.3046 0.00071327 46.733 46.809 0.36277 608.35 0.0016438 46.439 46.488 0.36122 1.3937 2.1483 1322.2 -0.0059760 263.28 0.14388 0.77404 1.2919 458.12 496.46 2.5400 1.1133 1.3154 211.18 0.63150 5.6341 0.0094939
-65.625 4.5551 0.00074929 48.896 48.976 0.37322 607.26 0.0016467 48.588 48.640 0.37160 1.3955 2.1518 1315.6 -0.0059464 259.93 0.14327 0.81570 1.2259 459.16 497.67 2.5353 1.1172 1.3200 211.54 0.62332 5.6608 0.0095750
-64.625 4.8173 0.00078666 51.063 51.148 0.38364 606.16 0.0016497 50.740 50.795 0.38195 1.3974 2.1553 1308.9 -0.0059164 256.65 0.14266 0.85910 1.1640 460.21 498.87 2.5307 1.1212 1.3246 211.89 0.61527 5.6874 0.0096564
-63.625 5.0915 0.00082540 53.233 53.323 0.39402 605.07 0.0016527 52.896 52.954 0.39226 1.3993 2.1588 1302.3 -0.0058861 253.42 0.14205 0.90429 1.1058 461.25 500.07 2.5262 1.1252 1.3293 212.24 0.60736 5.7140 0.0097382
-62.625 5.3781 0.00086555 55.408 55.503 0.40438 603.97 0.0016557 55.055 55.117 0.40254 1.4012 2.1624 1295.7 -0.0058553 250.26 0.14144 0.95134 1.0511 462.30 501.28 2.5218 1.1293 1.3340 212.58 0.59958 5.7406 0.0098201
-61.625 5.6774 0.00090713 57.587 57.687 0.41470 602.87 0.0016587 57.218 57.283 0.41279 1.4031 2.1660 1289.1 -0.0058241 247.16 0.14084 1.0003 0.99972 463.35 502.48 2.5175 1.1333 1.3387 212.92 0.59194 5.7672 0.0099024
-60.625 5.9899 0.00095017 59.769 59.875 0.42500 601.77 0.0016618 59.385 59.453 0.42301 1.4051 2.1697 1282.5 -0.0057925 244.12 0.14023 1.0512 0.95131 464.40 503.68 2.5133 1.1374 1.3435 213.26 0.58442 5.7938 0.0099850
-59.625 6.3160 0.00099470 61.956 62.068 0.43526 600.66 0.0016648 61.554 61.627 0.43320 1.4071 2.1734 1275.9 -0.0057605 241.13 0.13962 1.1041 0.90573 465.45 504.89 2.5091 1.1415 1.3483 213.58 0.57704 5.8203 0.010068
-58.625 6.6561 0.0010408 64.147 64.265 0.44550 599.55 0.0016679 63.728 63.805 0.44335 1.4091 2.1772 1269.3 -0.0057280 238.19 0.13902 1.1591 0.86277 466.50 506.09 2.5051 1.1457 1.3532 213.90 0.56978 5.8468 0.010151
-57.625 7.0107 0.0010883 66.343 66.466 0.45571 598.44 0.0016710 65.905 65.986 0.45348 1.4111 2.1810 1262.7 -0.0056951 235.31 0.13842 1.2161 0.82228 467.55 507.30 2.5011 1.1498 1.3581 214.22 0.56265 5.8733 0.010234
-56.625 7.3801 0.0011375 68.542 68.673 0.46589 597.33 0.0016741 68.086 68.172 0.46358 1.4132 2.1848 1256.1 -0.0056617 232.48 0.13781 1.2754 0.78408 468.60 508.50 2.4972 1.1540 1.3631 214.53 0.55564 5.8998 0.010318
-55.625 7.7648 0.0011883 70.746 70.883 0.47604 596.22 0.0016772 70.271 70.361 0.47364 1.4153 2.1887 1249.5 -0.0056279 229.69 0.13721 1.3369 0.74802 469.66 509.71 2.4934 1.1582 1.3681 214.84 0.54875 5.9263 0.010402
-54.625 8.1652 0.0012407 72.954 73.098 0.48617 595.10 0.0016804 72.460 72.554 0.48368 1.4174 2.1927 1242.9 -0.0055937 226.96 0.13661 1.4006 0.71396 470.72 510.91 2.4897 1.1624 1.3731 215.14 0.54199 5.9527 0.010486
-53.625 8.5819 0.0012947 75.167 75.318 0.49627 593.98 0.0016836 74.652 74.752 0.49369 1.4196 2.1967 1236.3 -0.0055589 224.27 0.13601 1.4667 0.68178 471.77 512.11 2.4860 1.1667 1.3782 215.43 0.53535 5.9792 0.010571
-52.625 9.0151 0.0013505 77.384 77.543 0.50635 592.86 0.0016867 76.849 76.954 0.50368 1.4218 2.2007 1229.8 -0.0055237 221.63 0.13541 1.5353 0.65136 472.83 513.32 2.4824 1.1710 1.3834 215.72 0.52882 6.0056 0.010656
-51.625 9.4655 0.0014079 79.605 79.772 0.51640 591.73 0.0016900 79.049 79.159 0.51363 1.4240 2.2048 1223.2 -0.0054880 219.04 0.13482 1.6062 0.62258 473.89 514.52 2.4789 1.1752 1.3886 216.00 0.52241 6.0320 0.010741
-50.625 9.9335 0.0014671 81.831 82.007 0.52643 590.60 0.0016932 81.253 81.369 0.52356 1.4262 2.2089 1216.6 -0.0054519 216.48 0.13422 1.6797 0.59534 474.95 515.73 2.4755 1.1796 1.3938 216.28 0.51612 6.0584 0.010827
-49.625 10.419 0.0015280 84.062 84.246 0.53643 589.47 0.0016964 83.462 83.584 0.53347 1.4285 2.2131 1210.1 -0.0054152 213.98 0.13363 1.7558 0.56954 476.01 516.93 2.4722 1.1839 1.3991 216.55 0.50994 6.0848 0.010913
-48.625 10.924 0.0015907 86.297 86.490 0.54641 588.34 0.0016997 85.674 85.802 0.54334 1.4308 2.2173 1203.5 -0.0053780 211.51 0.13303 1.8345 0.54510 477.07 518.13 2.4689 1.1883 1.4044 216.82 0.50387 6.1112 0.010999
-47.625 11.448 0.0016552 88.537 88.739 0.55636 587.20 0.0017030 87.891 88.025 0.55319 1.4331 2.2216 1196.9 -0.0053403 209.08 0.13244 1.9159 0.52194 478.14 519.33 2.4657 1.1927 1.4098 217.08 0.49792 6.1375 0.011085
-46.625 11.991 0.0017216 90.781 90.993 0.56629 586.06 0.0017063 90.111 90.252 0.56302 1.4354 2.2259 1190.4 -0.0053020 206.69 0.13185 2.0001 0.49997 479.20 520.53 2.4625 1.1971 1.4153 217.33 0.49207 6.1639 0.011172
-45.625 12.554 0.0017898 93.030 93.252 0.57620 584.92 0.0017096 92.336 92.484 0.57282 1.4378 2.2303 1183.8 -0.0052633 204.34 0.13126 2.0872 0.47912 480.27 521.74 2.4594 1.2015 1.4207 217.58 0.48633 6.1902 0.011259
-44.625 13.137 0.0018599 95.285 95.517 0.58608 583.77 0.0017130 94.565 94.720 0.58260 1.4402 2.2347 1177.3 -0.0052240 202.03 0.13067 2.1771 0.45933 481.33 522.94 2.4564 1.2060 1.4263 217.82 0.48069 6.2165 0.011347
-43.625 13.741 0.0019319 97.544 97.787 0.59595 582.62 0.0017164 96.799 96.961 0.59235 1.4426 2.2392 1170.7 -0.0051841 199.75 0.13008 2.2700 0.44053 482.40 524.14 2.4535 1.2104 1.4319 218.05 0.47516 6.2429 0.011435
-42.625 14.367 0.0020058 99.807 100.06 0.60579 581.47 0.0017198 99.036 99.207 0.60208 1.4450 2.2437 1164.2 -0.0051437 197.51 0.12949 2.3659 0.42267 483.46 525.33 2.4506 1.2149 1.4375 218.28 0.46973 6.2692 0.011523
-41.625 15.015 0.0020816 102.08 102.34 0.61561 580.32 0.0017232 101.28 101.46 0.61179 1.4475 2.2483 1157.7 -0.0051027 195.30 0.12891 2.4649 0.40569 484.53 526.53 2.4478 1.2195 1.4432 218.50 0.46440 6.2955 0.011612
-40.625 15.686 0.0021594 104.35 104.63 0.62541 579.16 0.0017266 103.52 103.71 0.62147 1.4500 2.2529 1151.1 -0.0050611 193.13 0.12832 2.5671 0.38954 485.60 527.73 2.4450 1.2240 1.4489 218.72 0.45917 6.3218 0.011701
-39.625 16.380 0.0022392 106.63 106.92 0.63519 578.00 0.0017301 105.78 105.97 0.63113 1.4525 2.2576 1144.6 -0.0050189 190.99 0.12774 2.6725 0.37418 486.67 528.93 2.4423 1.2286 1.4547 218.93 0.45403 6.3481 0.011790
-38.625 17.097 0.0023210 108.91 109.22 0.64495 576.83 0.0017336 108.03 108.24 0.64077 1.4550 2.2623 1138.0 -0.0049761 188.88 0.12716 2.7813 0.35955 487.74 530.12 2.4397 1.2332 1.4606 219.13 0.44900 6.3744 0.011880
-37.625 17.838 0.0024048 111.20 111.52 0.65469 575.66 0.0017371 110.29 110.51 0.65039 1.4576 2.2671 1131.5 -0.0049327 186.81 0.12658 2.8934 0.34562 488.81 531.32 2.4371 1.2378 1.4665 219.33 0.44405 6.4007 0.011970
-36.625 18.604 0.0024907 113.50 113.82 0.66441 574.49 0.0017407 112.56 112.78 0.65999 1.4602 2.2719 1125.0 -0.0048887 184.76 0.12600 3.0089 0.33235 489.88 532.51 2.4346 1.2424 1.4724 219.52 0.43920 6.4270 0.012060
-35.625 19.395 0.0025786 115.80 116.14 0.67411 573.32 0.0017442 114.83 115.06 0.66956 1.4628 2.2768 1118.5 -0.0048440 182.75 0.12542 3.1280 0.31969 490.95 533.70 2.4321 1.2471 1.4784 219.70 0.43444 6.4533 0.012151
-34.625 20.212 0.0026686 118.10 118.46 0.68379 572.14 0.0017478 117.10 117.34 0.67912 1.4654 2.2818 1111.9 -0.0047987 180.76 0.12485 3.2506 0.30763 492.02 534.89 2.4297 1.2517 1.4845 219.88 0.42977 6.4797 0.012243
-33.625 21.056 0.0027607 120.41 120.78 0.69345 570.96 0.0017514 119.38 119.63 0.68865 1.4681 2.2868 1105.4 -0.0047527 178.80 0.12427 3.3770 0.29612 493.09 536.08 2.4273 1.2564 1.4906 220.05 0.42519 6.5060 0.012334
-32.625 21.926 0.0028548 122.72 123.11 0.70310 569.77 0.0017551 121.66 121.93 0.69817 1.4708 2.2918 1098.9 -0.0047061 176.87 0.12370 3.5071 0.28514 494.17 537.27 2.4250 1.2611 1.4968 220.21 0.42070 6.5323 0.012426
-31.625 22.823 0.0029511 125.05 125.45 0.71273 568.58 0.0017588 123.95 124.23 0.70767 1.4735 2.2970 1092.3 -0.0046587 174.97 0.12313 3.6410 0.27465 495.24 538.46 2.4227 1.2659 1.5031 220.36 0.41629 6.5587 0.012519
-30.625 23.749 0.0030495 127.37 127.79 0.72234 567.39 0.0017625 126.24 126.53 0.71714 1.4762 2.3021 1085.8 -0.0046107 173.09 0.12256 3.7787 0.26464 496.31 539.64 2.4205 1.2706 1.5094 220.51 0.41196 6.5850 0.012612
-29.625 24.703 0.0031500 129.70 130.14 0.73193 566.19 0.0017662 128.54 128.84 0.72660 1.4790 2.3074 1079.3 -0.0045619 171.24 0.12200 3.9205 0.25507 497.38 540.83 2.4184 1.2754 1.5157 220.65 0.40772 6.6114 0.012706
-28.625 25.687 0.0032527 132.04 132.49 0.74151 564.99 0.0017699 130.84 131.16 0.73604 1.4818 2.3126 1072.8 -0.0045124 169.42 0.12143 4.0663 0.24592 498.46 542.01 2.4162 1.2802 1.5222 220.79 0.40356 6.6378 0.012800
-27.625 26.700 0.0033575 134.38 134.85 0.75107 563.78 0.0017737 133.15 133.48 0.74547 1.4846 2.3180 1066.2 -0.0044621 167.62 0.12087 4.2163 0.23717 499.53 543.19 2.4142 1.2850 1.5286 220.91 0.39947 6.6642 0.012894
-26.625 27.743 0.0034645 136.73 137.22 0.76061 562.57 0.0017775 135.47 135.81 0.75487 1.4874 2.3234 1059.7 -0.0044111 165.84 0.12031 4.3705 0.22881 500.60 544.37 2.4122 1.2899 1.5352 221.03 0.39547 6.6906 0.012989
-25.625 28.817 0.0035737 139.08 139.59 0.77014 561.36 0.0017814 137.78 138.14 0.76426 1.4902 2.3289 1053.2 -0.0043593 164.09 0.11975 4.5290 0.22080 501.68 545.55 2.4102 1.2947 1.5418 221.14 0.39154 6.7171 0.013084
-24.625 29.923 0.0036850 141.44 141.97 0.77965 560.14 0.0017853 140.11 140.48 0.77363 1.4931 2.3344 1046.7 -0.0043067 162.36 0.11919 4.6918 0.21314 502.75 546.72 2.4083 1.2996 1.5485 221.25 0.38768 6.7436 0.013180
-23.625 31.061 0.0037986 143.81 144.36 0.78915 558.92 0.0017892 142.44 142.82 0.78298 1.4960 2.3400 1040.1 -0.0042533 160.65 0.11863 4.8592 0.20580 503.82 547.90 2.4064 1.3045 1.5552 221.35 0.38391 6.7701 0.013277
-22.625 32.232 0.0039142 146.18 146.75 0.79863 557.69 0.0017931 144.77 145.17 0.79232 1.4990 2.3457 1033.6 -0.0041990 158.97 0.11807 5.0311 0.19877 504.90 549.07 2.4045 1.3095 1.5621 221.44 0.38020 6.7967 0.013374
-21.625 33.435 0.0040321 148.56 149.15 0.80810 556.46 0.0017971 147.11 147.52 0.80164 1.5019 2.3514 1027.1 -0.0041439 157.30 0.11752 5.2076 0.19203 505.97 550.24 2.4027 1.3144 1.5690 221.52 0.37656 6.8232 0.013471
-20.625 34.673 0.0041522 150.94 151.55 0.81755 555.23 0.0018011 149.45 149.88 0.81095 1.5049 2.3572 1020.6 -0.0040879 155.66 0.11697 5.3889 0.18557 507.04 551.40 2.4010 1.3194 1.5759 221.59 0.37300 6.8499 0.013569
-19.625 35.946 0.0042744 153.33 153.96 0.82699 553.99 0.0018051 151.80 152.25 0.82024 1.5079 2.3630 1014.0 -0.0040311 154.04 0.11642 5.5750 0.17937 508.11 552.57 2.3992 1.3244 1.5829 221.66 0.36950 6.8765 0.013668
-18.625 37.253 0.0043989 155.72 156.38 0.83642 552.74 0.0018092 154.16 154.62 0.82952 1.5109 2.3689 1007.5 -0.0039733 152.44 0.11587 5.7660 0.17343 509.19 553.73 2.3976 1.3294 1.5901 221.72 0.36608 6.9032 0.013767
-17.625 38.596 0.0045254 158.12 158.80 0.84583 551.49 0.0018133 156.52 157.00 0.83878 1.5140 2.3749 1001.0 -0.0039145 150.86 0.11532 5.9621 0.16773 510.26 554.89 2.3959 1.3345 1.5972 221.77 0.36272 6.9300 0.013867
-16.625 39.976 0.0046542 160.53 161.23 0.85523 550.24 0.0018174 158.89 159.39 0.84803 1.5171 2.3810 994.44 -0.0038549 149.29 0.11478 6.1632 0.16225 511.33 556.05 2.3943 1.3395 1.6045 221.81 0.35942 6.9568 0.013968
-15.625 41.392 0.0047851 162.94 163.67 0.86461 548.98 0.0018216 161.26 161.78 0.85726 1.5202 2.3871 987.91 -0.0037942 147.75 0.11423 6.3696 0.15700 512.40 557.20 2.3927 1.3446 1.6119 221.85 0.35619 6.9836 0.014069
-14.625 42.846 0.0049182 165.36 166.12 0.87398 547.71 0.0018258 163.64 164.18 0.86649 1.5233 2.3933 981.37 -0.0037325 146.22 0.11369 6.5812 0.15195 513.47 558.36 2.3912 1.3497 1.6193 221.87 0.35302 7.0105 0.014170
-13.625 44.338 0.0050534 167.78 168.57 0.88334 546.44 0.0018300 166.02 166.58 0.87569 1.5264 2.3996 974.83 -0.0036698 144.72 0.11315 6.7983 0.14710 514.54 559.51 2.3897 1.3549 1.6268 221.89 0.34992 7.0375 0.014273
-12.625 45.870 0.0051907 170.21 171.02 0.89269 545.17 0.0018343 168.41 168.99 0.88489 1.5296 2.4059 968.29 -0.0036061 143.23 0.11261 7.0208 0.14243 515.61 560.65 2.3883 1.3600 1.6344 221.90 0.34688 7.0646 0.014376
-11.625 47.440 0.0053302 172.65 173.49 0.90203 543.89 0.0018386 170.81 171.41 0.89407 1.5328 2.4124 961.75 -0.0035413 141.76 0.11208 7.2490 0.13795 516.68 561.80 2.3868 1.3652 1.6421 221.91 0.34389 7.0917 0.014479
-10.625 49.051 0.0054717 175.09 175.96 0.91135 542.60 0.0018430 173.21 173.83 0.90324 1.5360 2.4189 955.20 -0.0034753 140.30 0.11154 7.4829 0.13364 517.75 562.94 2.3854 1.3704 1.6498 221.90 0.34097 7.1188 0.014584
-9.6250 50.703 0.0056153 177.54 178.44 0.92066 541.31 0.0018474 175.61 176.26 0.91240 1.5393 2.4255 948.65 -0.0034082 138.86 0.11101 7.7226 0.12949 518.81 564.08 2.3841 1.3757 1.6577 221.88 0.33810 7.1461 0.014689
-8.6250 52.396 0.0057609 180.00 180.92 0.92996 540.02 0.0018518 178.03 178.70 0.92154 1.5426 2.4321 942.10 -0.0033400 137.44 0.11048 7.9683 0.12550 519.88 565.21 2.3827 1.3809 1.6657 221.86 0.33529 7.1734 0.014795
-7.6250 54.131 0.0059086 182.46 183.42 0.93925 538.72 0.0018563 180.45 181.14 0.93068 1.5459 2.4389 935.55 -0.0032705 136.03 0.10995 8.2200 0.12165 520.94 566.35 2.3814 1.3862 1.6737 221.83 0.33254 7.2008 0.014902
-6.6250 55.909 0.0060582 184.93 185.92 0.94853 537.41 0.0018608 182.87 183.59 0.93980 1.5492 2.4457 928.99 -0.0031998 134.64 0.10942 8.4779 0.11795 522.01 567.48 2.3801 1.3915 1.6819 221.79 0.32984 7.2284 0.015009
-5.6250 57.730 0.0062099 187.40 188.42 0.95780 536.10 0.0018653 185.30 186.05 0.94892 1.5525 2.4526 922.43 -0.0031279 133.27 0.10889 8.7420 0.11439 523.07 568.60 2.3789 1.3969 1.6902 221.74 0.32720 7.2560 0.015117
-4.6250 59.595 0.0063634 189.88 190.94 0.96705 534.78 0.0018699 187.74 188.51 0.95802 1.5559 2.4596 915.87 -0.0030546 131.91 0.10837 9.0126 0.11096 524.13 569.72 2.3777 1.4022 1.6985 221.68 0.32461 7.2837 0.015226
-3.6250 61.505 0.0065188 192.37 193.46 0.97630 533.45 0.0018746 190.19 190.98 0.96711 1.5593 2.4667 909.30 -0.0029800 130.56 0.10785 9.2896 0.10765 525.19 570.84 2.3765 1.4076 1.7070 221.62 0.32207 7.3115 0.015336
-2.6250 63.461 0.0066761 194.87 195.99 0.98554 532.12 0.0018793 192.64 193.46 0.97620 1.5627 2.4739 902.73 -0.0029041 129.23 0.10733 9.5733 0.10446 526.25 571.96 2.3753 1.4131 1.7156 221.54 0.31958 7.3394 0.015447
-1.6250 65.462 0.0068352 197.37 198.52 0.99477 530.78 0.0018840 195.10 195.95 0.98527 1.5662 2.4811 896.16 -0.0028267 127.91 0.10681 9.8638 0.10138 527.31 573.07 2.3742 1.4185 1.7243 221.45 0.31715 7.3674 0.015559
-0.62500 67.510 0.0069961 199.87 201.07 1.0040 529.44 0.0018888 197.56 198.44 0.99434 1.5696 2.4885 889.58 -0.0027478 126.61 0.10629 10.161 0.098414 528.37 574.18 2.3731 1.4240 1.7331 221.36 0.31476 7.3956 0.015671
0.37500 69.606 0.0071587 202.39 203.62 1.0132 528.09 0.0018936 200.03 200.94 1.0034 1.5731 2.4960 883.00 -0.0026675 125.32 0.10578 10.466 0.095552 529.42 575.28 2.3720 1.4295 1.7421 221.26 0.31242 7.4239 0.015785
1.3750 71.749 0.0073230 204.91 206.18 1.0224 526.73 0.0018985 202.51 203.45 1.0124 1.5767 2.5035 876.42 -0.0025856 124.04 0.10527 10.777 0.092790 530.48 576.38 2.3709 1.4350 1.7512 221.14 0.31013 7.4523 0.015899
2.3750 73.941 0.0074888 207.44 208.74 1.0316 525.37 0.0019034 204.99 205.96 1.0215 1.5802 2.5112 869.83 -0.0025022 122.78 0.10476 11.096 0.090123 531.53 577.47 2.3699 1.4406 1.7604 221.02 0.30789 7.4808 0.016015
3.3750 76.183 0.0076562 209.97 211.32 1.0408 523.99 0.0019084 207.48 208.48 1.0305 1.5838 2.5190 863.24 -0.0024171 121.53 0.10425 11.422 0.087549 532.58 578.56 2.3688 1.4462 1.7697 220.89 0.30569 7.5095 0.016131
4.3750 78.475 0.0078251 212.51 213.90 1.0499 522.62 0.0019134 209.98 211.01 1.0395 1.5874 2.5268 856.64 -0.0023303 120.29 0.10374 11.756 0.085062 533.63 579.65 2.3678 1.4518 1.7792 220.75 0.30354 7.5384 0.016249
5.3750 80.817 0.0079954 215.06 216.49 1.0591 521.23 0.0019185 212.48 213.55 1.0486 1.5910 2.5348 850.04 -0.0022417 119.06 0.10324 12.098 0.082660 534.67 580.73 2.3669 1.4575 1.7888 220.60 0.30144 7.5674 0.016368
6.3750 83.211 0.0081671 217.61 219.09 1.0683 519.84 0.0019237 215.00 216.10 1.0576 1.5946 2.5429 843.43 -0.0021514 117.85 0.10273 12.447 0.080340 535.72 581.81 2.3659 1.4632 1.7986 220.44 0.29938 7.5966 0.016487
7.3750 85.657 0.0083400 220.18 221.69 1.0774 518.44 0.0019289 217.51 218.65 1.0666 1.5983 2.5511 836.82 -0.0020593 116.65 0.10223 12.805 0.078096 536.76 582.88 2.3650 1.4689 1.8085 220.27 0.29736 7.6259 0.016608
8.3750 88.156 0.0085140 222.75 224.30 1.0865 517.03 0.0019341 220.04 221.22 1.0756 1.6020 2.5595 830.20 -0.0019652 115.46 0.10173 13.170 0.075928 537.80 583.95 2.3640 1.4746 1.8186 220.08 0.29538 7.6555 0.016730
9.3750 90.708 0.0086892 225.32 226.93 1.0957 515.62 0.0019394 222.57 223.79 1.0846 1.6057 2.5679 823.58 -0.0018691 114.28 0.10124 13.545 0.073830 538.84 585.01 2.3631 1.4804 1.8288 219.89 0.29345 7.6852 0.016853
10.375 93.315 0.0088653 227.90 229.55 1.1048 514.19 0.0019448 225.11 226.37 1.0936 1.6095 2.5765 816.96 -0.0017710 113.11 0.10074 13.927 0.071802 539.87 586.07 2.3622 1.4863 1.8392 219.69 0.29156 7.7151 0.016978
11.375 95.977 0.0090423 230.49 232.19 1.1139 512.76 0.0019502 227.66 228.95 1.1025 1.6132 2.5852 810.32 -0.0016708 111.95 0.10025 14.319 0.069840 540.90 587.12 2.3614 1.4921 1.8498 219.48 0.28971 7.7452 0.017103
12.375 98.694 0.0092201 233.09 234.84 1.1230 511.32 0.0019557 230.22 231.55 1.1115 1.6170 2.5940 803.68 -0.0015685 110.80 0.099756 14.719 0.067941 541.93 588.17 2.3605 1.4980 1.8605 219.26 0.28790 7.7756 0.017230
13.375 101.47 0.0093985 235.70 237.49 1.1321 509.87 0.0019613 232.78 234.15 1.1205 1.6208 2.6030 797.04 -0.0014639 109.67 0.099267 15.128 0.066103 542.96 589.21 2.3597 1.5040 1.8715 219.03 0.28612 7.8061 0.017359
14.375 104.30 0.0095775 238.31 240.15 1.1412 508.42 0.0019669 235.35 236.77 1.1295 1.6247 2.6121 790.39 -0.0013569 108.54 0.098779 15.547 0.064323 543.99 590.24 2.3588 1.5099 1.8826 218.79 0.28439 7.8369 0.017488
15.375 107.19 0.0097569 240.93 242.82 1.1503 506.95 0.0019726 237.93 239.39 1.1384 1.6286 2.6214 783.73 -0.0012476 107.43 0.098294 15.974 0.062600 545.01 591.27 2.3580 1.5159 1.8940 218.53 0.28270 7.8680 0.017619
16.375 110.13 0.0099365 243.55 245.50 1.1594 505.48 0.0019783 240.52 242.02 1.1474 1.6324 2.6308 777.07 -0.0011357 106.32 0.097810 16.412 0.060931 546.03 592.29 2.3572 1.5220 1.9055 218.27 0.28104 7.8993 0.017752
17.375 113.14 0.010116 246.19 248.19 1.1685 504.00 0.0019841 243.11 244.66 1.1564 1.6364 2.6403 770.40 -0.0010213 105.22 0.097328 16.859 0.059314 547.04 593.31 2.3564 1.5281 1.9172 217.99 0.27942 7.9308 0.017886
18.375 116.21 0.010296 248.83 250.88 1.1776 502.50 0.0019900 245.72 247.31 1.1653 1.6403 2.6501 763.72 -0.00090422 104.14 0.096848 17.317 0.057747 548.05 594.32 2.3557 1.5342 1.9292 217.71 0.27783 7.9626 0.018021
19.375 119.33 0.010475 251.48 253.59 1.1867 501.00 0.0019960 248.33 249.97 1.1743 1.6443 2.6599 757.04 -0.00078435 103.06 0.096371 17.785 0.056228 549.06 595.33 2.3549 1.5404 1.9414 217.41 0.27628 7.9947 0.018159
20.375 122.52 0.010654 254.13 256.30 1.1957 499.49 0.0020020 250.95 252.64 1.1832 1.6483 2.6700 750.35 -0.00066161 101.99 0.095895 18.263 0.054756 550.07 596.32 2.3541 1.5466 1.9538 217.10 0.27477 8.0272 0.018297
21.375 125.77 0.010833 256.80 259.02 1.2048 497.97 0.0020082 253.57 255.32 1.1922 1.6523 2.6802 743.64 -0.00053589 100.93 0.095420 18.752 0.053328 551.07 597.31 2.3534 1.5528 1.9665 216.78 0.27329 8.0599 0.018438
22.375 129.08 0.011010 259.47 261.75 1.2138 496.43 0.0020144 256.21 258.00 1.2012 1.6563 2.6906 736.94 -0.00040708 99.877 0.094948 19.252 0.051943 552.07 598.30 2.3526 1.5591 1.9795 216.45 0.27184 8.0929 0.018580
23.375 132.46 0.011187 262.15 264.49 1.2229 494.89 0.0020206 258.86 260.70 1.2101 1.6604 2.7012 730.22 -0.00027505 98.834 0.094478 19.763 0.050600 553.06 599.27 2.3519 1.5655 1.9927 216.11 0.27043 8.1263 0.018724
24.375 135.90 0.011362 264.83 267.24 1.2319 493.34 0.0020270 261.51 263.41 1.2191 1.6645 2.7120 723.49 -0.00013968 97.800 0.094009 20.285 0.049297 554.05 600.24 2.3512 1.5718 2.0061 215.75 0.26906 8.1600 0.018870
25.375 139.41 0.011536 267.53 269.99 1.2410 491.77 0.0020335 264.17 266.13 1.2280 1.6686 2.7230 716.76 -8.3775e-07 96.773 0.093543 20.820 0.048032 555.03 601.20 2.3504 1.5783 2.0199 215.39 0.26771 8.1941 0.019017
26.375 142.98 0.011709 270.23 272.76 1.2500 490.20 0.0020400 266.84 268.85 1.2370 1.6728 2.7342 710.01 0.00014161 95.755 0.093078 21.366 0.046804 556.01 602.15 2.3497 1.5847 2.0340 215.01 0.26640 8.2286 0.019167
27.375 146.62 0.011879 272.94 275.53 1.2590 488.61 0.0020466 269.52 271.59 1.2459 1.6770 2.7456 703.26 0.00028782 94.745 0.092615 21.924 0.045612 556.99 603.10 2.3490 1.5913 2.0484 214.62 0.26512 8.2634 0.019319
28.375 150.33 0.012046 275.66 278.31 1.2681 487.01 0.0020533 272.21 274.34 1.2549 1.6812 2.7573 696.49 0.00043793 93.742 0.092154 22.495 0.044454 557.96 604.03 2.3483 1.5978 2.0631 214.21 0.26387 8.2987 0.019472
29.375 154.10 0.012212 278.38 281.11 1.2771 485.40 0.0020601 274.91 277.10 1.2638 1.6854 2.7691 689.72 0.00059212 92.747 0.091695 23.079 0.043329 558.92 604.96 2.3476 1.6044 2.0781 213.80 0.26265 8.3344 0.019628
30.375 157.94 0.012374 281.12 283.91 1.2861 483.78 0.0020671 277.62 279.87 1.2728 1.6897 2.7813 682.93 0.00075055 91.760 0.091238 23.676 0.042237 559.88 605.88 2.3469 1.6111 2.0935 213.37 0.26147 8.3705 0.019786
31.375 161.86 0.012533 283.86 286.72 1.2951 482.15 0.0020741 280.34 282.66 1.2818 1.6939 2.7936 676.13 0.00091340 90.779 0.090782 24.287 0.041175 560.84 606.79 2.3462 1.6178 2.1092 212.93 0.26031 8.4071 0.019947
32.375 165.84 0.012688 286.61 289.54 1.3041 480.50 0.0020812 283.07 285.45 1.2908 1.6983 2.8063 669.32 0.0010809 89.806 0.090328 24.911 0.040143 561.79 607.69 2.3455 1.6246 2.1254 212.48 0.25919 8.4442 0.020110
33.375 169.90 0.012839 289.36 292.37 1.3131 478.83 0.0020884 285.81 288.26 1.2997 1.7026 2.8192 662.50 0.0012532 88.840 0.089876 25.549 0.039140 562.73 608.58 2.3448 1.6314 2.1419 212.01 0.25809 8.4818 0.020275
34.375 174.02 0.012985 292.13 295.21 1.3222 477.16 0.0020957 288.56 291.07 1.3087 1.7070 2.8324 655.67 0.0014305 87.880 0.089426 26.202 0.038164 563.67 609.46 2.3440 1.6383 2.1589 211.53 0.25702 8.5199 0.020443
35.375 178.22 0.013127 294.90 298.06 1.3312 475.47 0.0021032 291.32 293.90 1.3177 1.7114 2.8459 648.82 0.0016131 86.927 0.088977 26.870 0.037216 564.60 610.33 2.3433 1.6452 2.1763 211.04 0.25599 8.5586 0.020613
36.375 182.50 0.013263 297.69 300.91 1.3402 473.77 0.0021107 294.09 296.74 1.3267 1.7158 2.8597 641.96 0.0018012 85.980 0.088531 27.553 0.036293 565.52 611.19 2.3426 1.6522 2.1942 210.53 0.25498 8.5978 0.020786
37.375 186.84 0.013393 300.48 303.78 1.3492 472.05 0.0021184 296.87 299.60 1.3357 1.7203 2.8739 635.08 0.0019950 85.040 0.088085 28.252 0.035395 566.44 612.04 2.3419 1.6592 2.2125 210.01 0.25400 8.6376 0.020962
38.375 191.27 0.013516 303.28 306.66 1.3582 470.31 0.0021262 299.66 302.46 1.3447 1.7248 2.8884 628.19 0.0021949 84.105 0.087642 28.967 0.034522 567.35 612.88 2.3411 1.6663 2.2314 209.47 0.25305 8.6780 0.021141
39.375 195.77 0.013632 306.08 309.55 1.3672 468.56 0.0021342 302.46 305.34 1.3537 1.7293 2.9033 621.29 0.0024011 83.177 0.087200 29.699 0.033671 568.26 613.70 2.3404 1.6734 2.2508 208.92 0.25213 8.7190 0.021323
40.375 200.34 0.013740 308.90 312.44 1.3762 466.80 0.0021423 305.27 308.23 1.3627 1.7339 2.9185 614.37 0.0026140 82.254 0.086760 30.447 0.032844 569.15 614.52 2.3396 1.6806 2.2708 208.36 0.25123 8.7608 0.021508
41.375 205.00 0.013840 311.73 315.35 1.3852 465.01 0.0021505 308.10 311.14 1.3718 1.7385 2.9342 607.43 0.0028338 81.338 0.086322 31.214 0.032037 570.04 615.32 2.3389 1.6879 2.2913 207.78 0.25037 8.8032 0.021696
42.375 209.73 0.013930 314.56 318.27 1.3942 463.21 0.0021588 310.94 314.06 1.3808 1.7432 2.9502 600.47 0.0030609 80.426 0.085885 31.998 0.031252 570.92 616.11 2.3381 1.6952 2.3125 207.19 0.24953 8.8463 0.021888
43.375 214.54 0.014010 317.40 321.19 1.4031 461.40 0.0021673 313.79 316.99 1.3899 1.7478 2.9667 593.50 0.0032957 79.520 0.085449 32.800 0.030488 571.79 616.88 2.3373 1.7027 2.3344 206.58 0.24871 8.8902 0.022084
44.375 219.43 0.014079 320.25 324.13 1.4121 459.56 0.0021760 316.65 319.94 1.3989 1.7525 2.9837 586.51 0.0035386 78.619 0.085015 33.622 0.029742 572.65 617.65 2.3365 1.7101 2.3569 205.96 0.24793 8.9349 0.022283
45.375 224.41 0.014136 323.11 327.08 1.4211 457.71 0.0021848 319.52 322.90 1.4080 1.7573 3.0012 579.50 0.0037900 77.723 0.084583 34.463 0.029016 573.50 618.40 2.3357 1.7177 2.3802 205.32 0.24717 8.9805 0.022485
46.375 229.46 0.014181 325.98 330.04 1.4301 455.83 0.0021938 322.41 325.88 1.4171 1.7621 3.0192 572.46 0.0040504 76.832 0.084152 35.325 0.028308 574.34 619.13 2.3349 1.7253 2.4042 204.67 0.24644 9.0269 0.022692
47.375 234.60 0.014211 328.86 333.01 1.4391 453.94 0.0022029 325.31 328.87 1.4262 1.7669 3.0377 565.41 0.0043202 75.946 0.083723 36.208 0.027618 575.17 619.85 2.3340 1.7329 2.4291 204.00 0.24573 9.0742 0.022903
48.375 239.83 0.014225 331.75 335.99 1.4481 452.03 0.0022123 328.22 331.88 1.4353 1.7718 3.0569 558.34 0.0046000 75.064 0.083295 37.112 0.026945 576.00 620.55 2.3332 1.7407 2.4548 203.31 0.24505 9.1224 0.023119
49.375 245.13 0.014224 334.64 338.98 1.4571 450.09 0.0022218 331.15 334.90 1.4445 1.7767 3.0766 551.24 0.0048904 74.186 0.082868 38.039 0.026289 576.81 621.24 2.3323 1.7485 2.4815 202.61 0.24440 9.1716 0.023339
50.375 250.53 0.014204 337.55 341.98 1.4661 448.13 0.0022315 334.09 337.94 1.4536 1.7817 3.0970 544.13 0.0051920 73.313 0.082442 38.989 0.025648 577.61 621.91 2.3314 1.7564 2.5092 201.89 0.24377 9.2219 0.023564
51.375 256.01 0.014165 340.46 344.99 1.4751 446.15 0.0022414 337.04 341.00 1.4628 1.7867 3.1181 536.98 0.0055054 72.443 0.082018 39.962 0.025024 578.39 622.56 2.3304 1.7644 2.5379 201.16 0.24317 9.2733 0.023794
52.375 261.57 0.014105 343.39 348.01 1.4841 444.15 0.0022515 340.01 344.07 1.4720 1.7918 3.1400 529.82 0.0058313 71.577 0.081595 40.961 0.024414 579.17 623.20 2.3295 1.7724 2.5677 200.41 0.24260 9.3258 0.024029
53.375 267.23 0.014022 346.32 351.04 1.4931 442.12 0.0022618 343.00 347.17 1.4812 1.7969 3.1627 522.62 0.0061705 70.715 0.081174 41.985 0.023818 579.93 623.81 2.3285 1.7805 2.5987 199.63 0.24205 9.3795 0.024270
54.375 272.97 0.013914 349.26 354.09 1.5021 440.06 0.0022724 346.00 350.28 1.4904 1.8021 3.1862 515.40 0.0065239 69.856 0.080753 43.036 0.023237 580.68 624.41 2.3274 1.7887 2.6310 198.85 0.24154 9.4344 0.024516
55.375 278.81 0.013779 352.22 357.15 1.5111 437.98 0.0022832 349.02 353.40 1.4997 1.8073 3.2106 508.15 0.0068923 69.001 0.080334 44.114 0.022669 581.41 624.99 2.3264 1.7969 2.6646 198.04 0.24105 9.4907 0.024769
56.375 284.74 0.013615 355.18 360.21 1.5201 435.87 0.0022943 352.05 356.55 1.5090 1.8126 3.2360 500.87 0.0072767 68.148 0.079915 45.221 0.022114 582.13 625.54 2.3253 1.8052 2.6998 197.22 0.24059 9.5484 0.025028
57.375 290.76 0.013419 358.15 363.29 1.5291 433.73 0.0023056 355.10 359.72 1.5183 1.8179 3.2624 493.56 0.0076782 67.299 0.079498 46.358 0.021571 582.83 626.07 2.3241 1.8136 2.7365 196.37 0.24016 9.6075 0.025294
58.375 296.87 0.013189 361.14 366.39 1.5381 431.56 0.0023172 358.17 362.91 1.5276 1.8233 3.2900 486.22 0.0080980 66.451 0.079082 47.525 0.021041 583.52 626.58 2.3230 1.8220 2.7749 195.51 0.23976 9.6682 0.025568
59.375 303.08 0.012921 364.13 369.49 1.5471 429.36 0.0023290 361.25 366.12 1.5370 1.8288 3.3188 478.84 0.0085373 65.606 0.078666 48.726 0.020523 584.18 627.07 2.3218 1.8305 2.8152 194.63 0.23939 9.7305 0.025849
60.375 309.38 0.012612 367.14 372.61 1.5562 427.13 0.0023412 364.36 369.35 1.5464 1.8343 3.3489 471.43 0.0089976 64.763 0.078251 49.960 0.020016 584.83 627.53 2.3205 1.8391 2.8576 193.73 0.23905 9.7945 0.026138
61.375 315.78 0.012258 370.15 375.73 1.5652 424.87 0.0023537 367.48 372.60 1.5558 1.8400 3.3805 463.99 0.0094803 63.922 0.077838 51.229 0.019520 585.46 627.96 2.3192 1.8479 2.9022 192.82 0.23873 9.8603 0.026436
62.375 322.28 0.011855 373.18 378.87 1.5742 422.56 0.0023665 370.62 375.88 1.5653 1.8457 3.4136 456.50 0.0099871 63.083 0.077425 52.535 0.019035 586.07 628.37 2.3178 1.8567 2.9492 191.88 0.23845 9.9281 0.026744
63.375 328.88 0.011398 376.21 382.03 1.5833 420.22 0.0023797 373.79 379.18 1.5748 1.8514 3.4483 448.97 0.010520 62.244 0.077012 53.879 0.018560 586.66 628.74 2.3164 1.8656 2.9989 190.92 0.23819 9.9979 0.027061
64.375 335.58 0.010882 379.26 385.19 1.5923 417.85 0.0023932 376.97 382.51 1.5844 1.8573 3.4850 441.40 0.011081 61.407 0.076600 55.265 0.018095 587.22 629.09 2.3149 1.8747 3.0517 189.95 0.23796 10.070 0.027389
65.375 342.38 0.010303 382.32 388.37 1.6013 415.42 0.0024072 380.18 385.86 1.5939 1.8633 3.5236 433.79 0.011672 60.570 0.076189 56.692 0.017639 587.76 629.40 2.3133 1.8839 3.1077 188.95 0.23775 10.144 0.027729
66.375 349.28 0.0096515 385.39 391.57 1.6104 412.96 0.0024215 383.41 389.25 1.6036 1.8693 3.5645 426.12 0.012296 59.733 0.075779 58.165 0.017193 588.28 629.68 2.3117 1.8933 3.1674 187.93 0.23757 10.221 0.028080
67.375 356.28 0.0089223 388.47 394.77 1.6195 410.45 0.0024363 386.67 392.65 1.6133 1.8755 3.6078 418.41 0.012956 58.897 0.075368 59.684 0.016755 588.76 629.92 2.3100 1.9030 3.2311 186.89 0.23740 10.300 0.028446
68.375 363.40 0.0081066 391.57 397.99 1.6285 407.89 0.0024516 389.95 396.09 1.6230 1.8818 3.6537 410.64 0.013655 58.059 0.074959 61.253 0.016326 589.22 630.13 2.3082 1.9129 3.2994 185.83 0.23724 10.382 0.028825
69.375 370.61 0.0071950 394.67 401.23 1.6376 405.28 0.0024674 393.26 399.57 1.6328 1.8882 3.7027 402.81 0.014396 57.221 0.074549 62.875 0.015905 589.65 630.29 2.3064 1.9231 3.3727 184.74 0.23710 10.467 0.029221
70.375 377.94 0.0061771 397.79 404.47 1.6467 402.62 0.0024838 396.60 403.07 1.6426 1.8947 3.7550 394.92 0.015183 56.381 0.074141 64.552 0.015491 590.04 630.41 2.3044 1.9336 3.4518 183.63 0.23697 10.555 0.029633
71.375 385.37 0.0050408 400.92 407.74 1.6558 399.89 0.0025007 399.96 406.61 1.6525 1.9014 3.8109 386.97 0.016021 55.540 0.073732 66.288 0.015086 590.40 630.49 2.3024 1.9444 3.5371 182.50 0.23684 10.647 0.030064
72.375 392.92 0.0037721 404.07 411.02 1.6649 397.11 0.0025182 403.36 410.18 1.6625 1.9083 3.8711 378.95 0.016915 54.696 0.073324 68.087 0.014687 590.73 630.51 2.3002 1.9556 3.6297 181.34 0.23671 10.743 0.030515
73.375 400.57 0.0023551 407.23 414.31 1.6741 394.26 0.0025364 406.79 413.80 1.6726 1.9153 3.9359 370.85 0.017871 53.848 0.072917 69.953 0.014295 591.01 630.49 2.2979 1.9673 3.7303 180.16 0.23658 10.842 0.030989
74.375 408.34 0.00077120 410.40 417.62 1.6832 391.34 0.0025553 410.26 417.45 1.6827 1.9226 4.0060 362.67 0.018894 52.997 0.072510 71.890 0.013910 591.25 630.41 2.2955 1.9793 3.8401 178.95 0.23643 10.946 0.031488
75.375 430.92 undefined 412.89 420.51 1.6904 390.00 0.0025641 412.89 420.51 1.6904 1.9267 4.0119 361.13 0.019088 52.627 0.072361 390.00 0.0025641 412.89 420.51 1.6904 1.9267 4.0119 361.13 0.019088 52.627 0.072361
76.375 465.61 undefined 414.82 423.05 1.6959 390.00 0.0025641 414.82 423.05 1.6959 1.9281 3.9647 364.96 0.018582 52.651 0.072425 390.00 0.0025641 414.82 423.05 1.6959 1.9281 3.9647 364.96 0.018582 52.651 0.072425
77.375 500.42 undefined 416.75 425.59 1.7014 390.00 0.0025641 416.75 425.59 1.7014 1.9296 3.9207 368.70 0.018098 52.675 0.072490 390.00 0.0025641 416.75 425.59 1.7014 1.9296 3.9207 368.70 0.018098 52.675 0.072490
78.375 535.35 undefined 418.68 428.14 1.7069 390.00 0.0025641 418.68 428.14 1.7069 1.9312 3.8797 372.36 0.017637 52.700 0.072558 390.00 0.0025641 418.68 428.14 1.7069 1.9312 3.8797 372.36 0.017637 52.700 0.072558
79.375 570.39 undefined 420.61 430.69 1.7124 390.00 0.0025641 420.61 430.69 1.7124 1.9330 3.8413 375.93 0.017195 52.724 0.072628 390.00 0.0025641 420.61 430.69 1.7124 1.9330 3.8413 375.93 0.017195 52.724 0.072628
80.375 605.54 undefined 422.54 433.25 1.7179 390.00 0.0025641 422.54 433.25 1.7179 1.9348 3.8052 379.42 0.016772 52.748 0.072699 390.00 0.0025641 422.54 433.25 1.7179 1.9348 3.8052 379.42 0.016772 52.748 0.072699
81.375 640.79 undefined 424.48 435.81 1.7233 390.00 0.0025641 424.48 435.81 1.7233 1.9368 3.7713 382.84 0.016366 52.772 0.072773 390.00 0.0025641 424.48 435.81 1.7233 1.9368 3.7713 382.84 0.016366 52.772 0.072773
82.375 676.14 undefined 426.42 438.37 1.7288 390.00 0.0025641 426.42 438.37 1.7288 1.9388 3.7394 386.18 0.015975 52.796 0.072848 390.00 0.0025641 426.42 438.37 1.7288 1.9388 3.7394 386.18 0.015975 52.796 0.072848
83.375 711.59 undefined 428.36 440.94 1.7342 390.00 0.0025641 428.36 440.94 1.7342 1.9409 3.7093 389.46 0.015600 52.820 0.072924 390.00 0.0025641 428.36 440.94 1.7342 1.9409 3.7093 389.46 0.015600 52.820 0.072924
84.375 747.12 undefined 430.30 443.51 1.7397 390.00 0.0025641 430.30 443.51 1.7397 1.9432 3.6808 392.67 0.015238 52.845 0.073002 390.00 0.0025641 430.30 443.51 1.7397 1.9432 3.6808 392.67 0.015238 52.845 0.073002
85.375 782.74 undefined 432.24 446.08 1.7451 390.00 0.0025641 432.24 446.08 1.7451 1.9455 3.6538 395.82 0.014890 52.869 0.073081 390.00 0.0025641 432.24 446.08 1.7451 1.9455 3.6538 395.82 0.014890 52.869 0.073081
86.375 818.45 undefined 434.19 448.66 1.7505 390.00 0.0025641 434.19 448.66 1.7505 1.9479 3.6282 398.91 0.014553 52.893 0.073162 390.00 0.0025641 434.19 448.66 1.7505 1.9479 3.6282 398.91 0.014553 52.893 0.073162
87.375 854.23 undefined 436.14 451.24 1.7559 390.00 0.0025641 436.14 451.24 1.7559 1.9503 3.6040 401.95 0.014227 52.917 0.073243 390.00 0.0025641 436.14 451.24 1.7559 1.9503 3.6040 401.95 0.014227 52.917 0.073243
88.375 890.09 undefined 438.09 453.83 1.7613 390.00 0.0025641 438.09 453.83 1.7613 1.9529 3.5809 404.93 0.013913 52.941 0.073326 390.00 0.0025641 438.09 453.83 1.7613 1.9529 3.5809 404.93 0.013913 52.941 0.073326
89.375 926.02 undefined 440.04 456.41 1.7667 390.00 0.0025641 440.04 456.41 1.7667 1.9555 3.5589 407.85 0.013608 52.965 0.073410 390.00 0.0025641 440.04 456.41 1.7667 1.9555 3.5589 407.85 0.013608 52.965 0.073410
90.375 962.01 undefined 442.00 459.01 1.7721 390.00 0.0025641 442.00 459.01 1.7721 1.9582 3.5380 410.73 0.013312 52.990 0.073494 390.00 0.0025641 442.00 459.01 1.7721 1.9582 3.5380 410.73 0.013312 52.990 0.073494
91.375 998.08 undefined 443.96 461.60 1.7775 390.00 0.0025641 443.96 461.60 1.7775 1.9609 3.5180 413.57 0.013026 53.014 0.073580 390.00 0.0025641 443.96 461.60 1.7775 1.9609 3.5180 413.57 0.013026 53.014 0.073580
92.375 1034.2 undefined 445.92 464.21 1.7829 390.00 0.0025641 445.92 464.21 1.7829 1.9637 3.4990 416.36 0.012748 53.038 0.073666 390.00 0.0025641 445.92 464.21 1.7829 1.9637 3.4990 416.36 0.012748 53.038 0.073666
93.375 1070.4 undefined 447.89 466.81 1.7883 390.00 0.0025641 447.89 466.81 1.7883 1.9666 3.4808 419.10 0.012478 53.062 0.073754 390.00 0.0025641 447.89 466.81 1.7883 1.9666 3.4808 419.10 0.012478 53.062 0.073754
94.375 1106.6 undefined 449.86 469.42 1.7936 390.00 0.0025641 449.86 469.42 1.7936 1.9695 3.4634 421.81 0.012215 53.086 0.073842 390.00 0.0025641 449.86 469.42 1.7936 1.9695 3.4634 421.81 0.012215 53.086 0.073842
95.375 1142.9 undefined 451.83 472.03 1.7990 390.00 0.0025641 451.83 472.03 1.7990 1.9725 3.4468 424.48 0.011960 53.110 0.073931 390.00 0.0025641 451.83 472.03 1.7990 1.9725 3.4468 424.48 0.011960 53.110 0.073931
96.375 1179.3 undefined 453.80 474.65 1.8043 390.00 0.0025641 453.80 474.65 1.8043 1.9755 3.4309 427.11 0.011712 53.134 0.074021 390.00 0.0025641 453.80 474.65 1.8043 1.9755 3.4309 427.11 0.011712 53.134 0.074021
97.375 1215.7 undefined 455.78 477.27 1.8097 390.00 0.0025641 455.78 477.27 1.8097 1.9786 3.4157 429.71 0.011470 53.159 0.074112 390.00 0.0025641 455.78 477.27 1.8097 1.9786 3.4157 429.71 0.011470 53.159 0.074112
98.375 1252.2 undefined 457.76 479.89 1.8150 390.00 0.0025641 457.76 479.89 1.8150 1.9817 3.4011 432.27 0.011235 53.183 0.074203 390.00 0.0025641 457.76 479.89 1.8150 1.9817 3.4011 432.27 0.011235 53.183 0.074203
99.375 1288.7 undefined 459.74 482.52 1.8203 390.00 0.0025641 459.74 482.52 1.8203 1.9849 3.3871 434.80 0.011005 53.207 0.074295 390.00 0.0025641 459.74 482.52 1.8203 1.9849 3.3871 434.80 0.011005 53.207 0.074295
100.38 1325.2 undefined 461.73 485.16 1.8257 390.00 0.0025641 461.73 485.16 1.8257 1.9881 3.3737 437.30 0.010782 53.231 0.074387 390.00 0.0025641 461.73 485.16 1.8257 1.9881 3.3737 437.30 0.010782 53.231 0.074387
101.38 1361.8 undefined 463.72 487.79 1.8310 390.00 0.0025641 463.72 487.79 1.8310 1.9914 3.3608 439.77 0.010564 53.255 0.074481 390.00 0.0025641 463.72 487.79 1.8310 1.9914 3.3608 439.77 0.010564 53.255 0.074481
102.38 1398.4 undefined 465.71 490.43 1.8363 390.00 0.0025641 465.71 490.43 1.8363 1.9946 3.3485 442.21 0.010351 53.279 0.074575 390.00 0.0025641 465.71 490.43 1.8363 1.9946 3.3485 442.21 0.010351 53.279 0.074575
103.38 1435.1 undefined 467.71 493.08 1.8416 390.00 0.0025641 467.71 493.08 1.8416 1.9980 3.3366 444.62 0.010143 53.303 0.074669 390.00 0.0025641 467.71 493.08 1.8416 1.9980 3.3366 444.62 0.010143 53.303 0.074669
104.38 1471.8 undefined 469.71 495.73 1.8469 390.00 0.0025641 469.71 495.73 1.8469 2.0013 3.3253 447.00 0.0099402 53.327 0.074764 390.00 0.0025641 469.71 495.73 1.8469 2.0013 3.3253 447.00 0.0099402 53.327 0.074764
105.38 1508.6 undefined 471.71 498.38 1.8522 390.00 0.0025641 471.71 498.38 1.8522 2.0047 3.3143 449.36 0.0097421 53.351 0.074860 390.00 0.0025641 471.71 498.38 1.8522 2.0047 3.3143 449.36 0.0097421 53.351 0.074860
106.38 1545.4 undefined 473.72 501.04 1.8575 390.00 0.0025641 473.72 501.04 1.8575 2.0081 3.3038 451.70 0.0095485 53.376 0.074956 390.00 0.0025641 473.72 501.04 1.8575 2.0081 3.3038 451.70 0.0095485 53.376 0.074956
107.38 1582.2 undefined 475.73 503.70 1.8628 390.00 0.0025641 475.73 503.70 1.8628 2.0115 3.2937 454.01 0.0093593 53.400 0.075053 390.00 0.0025641 475.73 503.70 1.8628 2.0115 3.2937 454.01 0.0093593 53.400 0.075053
108.38 1619.1 undefined 477.74 506.36 1.8681 390.00 0.0025641 477.74 506.36 1.8681 2.0150 3.2840 456.30 0.0091743 53.424 0.075151 390.00 0.0025641 477.74 506.36 1.8681 2.0150 3.2840 456.30 0.0091743 53.424 0.075151
109.38 1655.9 undefined 479.76 509.03 1.8734 390.00 0.0025641 479.76 509.03 1.8734 2.0185 3.2747 458.57 0.0089934 53.448 0.075249 390.00 0.0025641 479.76 509.03 1.8734 2.0185 3.2747 458.57 0.0089934 53.448 0.075249
110.38 1692.9 undefined 481.78 511.70 1.8786 390.00 0.0025641 481.78 511.70 1.8786 2.0220 3.2657 460.81 0.0088164 53.472 0.075347 390.00 0.0025641 481.78 511.70 1.8786 2.0220 3.2657 460.81 0.0088164 53.472 0.075347
111.38 1729.8 undefined 483.80 514.38 1.8839 390.00 0.0025641 483.80 514.38 1.8839 2.0255 3.2571 463.03 0.0086432 53.496 0.075446 390.00 0.0025641 483.80 514.38 1.8839 2.0255 3.2571 463.03 0.0086432 53.496 0.075446
112.38 1766.8 undefined 485.83 517.06 1.8892 390.00 0.0025641 485.83 517.06 1.8892 2.0290 3.2488 465.24 0.0084737 53.520 0.075546 390.00 0.0025641 485.83 517.06 1.8892 2.0290 3.2488 465.24 0.0084737 53.520 0.075546
113.38 1803.8 undefined 487.86 519.75 1.8944 390.00 0.0025641 487.86 519.75 1.8944 2.0326 3.2408 467.42 0.0083078 53.544 0.075646 390.00 0.0025641 487.86 519.75 1.8944 2.0326 3.2408 467.42 0.0083078 53.544 0.075646
114.38 1840.8 undefined 489.89 522.44 1.8997 390.00 0.0025641 489.89 522.44 1.8997 2.0362 3.2331 469.59 0.0081453 53.568 0.075746 390.00 0.0025641 489.89 522.44 1.8997 2.0362 3.2331 469.59 0.0081453 53.568 0.075746
115.38 1877.9 undefined 491.93 525.13 1.9049 390.00 0.0025641 491.93 525.13 1.9049 2.0398 3.2257 471.73 0.0079861 53.592 0.075847 390.00 0.0025641 491.93 525.13 1.9049 2.0398 3.2257 471.73 0.0079861 53.592 0.075847
116.38 1915.0 undefined 493.97 527.83 1.9102 390.00 0.0025641 493.97 527.83 1.9102 2.0434 3.2186 473.86 0.0078301 53.616 0.075949 390.00 0.0025641 493.97 527.83 1.9102 2.0434 3.2186 473.86 0.0078301 53.616 0.075949
117.38 1952.1 undefined 496.02 530.53 1.9154 390.00 0.0025641 496.02 530.53 1.9154 2.0471 3.2118 475.97 0.0076773 53.640 0.076051 390.00 0.0025641 496.02 530.53 1.9154 2.0471 3.2118 475.97 0.0076773 53.640 0.076051
118.38 1989.2 undefined 498.07 533.23 1.9207 390.00 0.0025641 498.07 533.23 1.9207 2.0507 3.2052 478.06 0.0075275 53.664 0.076153 390.00 0.0025641 498.07 533.23 1.9207 2.0507 3.2052 478.06 0.0075275 53.664 0.076153
119.38 2026.4 undefined 500.12 535.94 1.9259 390.00 0.0025641 500.12 535.94 1.9259 2.0544 3.1988 480.14 0.0073806 53.688 0.076256 390.00 0.0025641 500.12 535.94 1.9259 2.0544 3.1988 480.14 0.0073806 53.688 0.076256
120.38 2063.5 undefined 502.17 538.66 1.9311 390.00 0.0025641 502.17 538.66 1.9311 2.0580 3.1927 482.20 0.0072366 53.712 0.076359 390.00 0.0025641 502.17 538.66 1.9311 2.0580 3.1927 482.20 0.0072366 53.712 0.076359
121.38 2100.7 undefined 504.23 541.37 1.9364 390.00 0.0025641 504.23 541.37 1.9364 2.0617 3.1869 484.25 0.0070954 53.736 0.076463 390.00 0.0025641 504.23 541.37 1.9364 2.0617 3.1869 484.25 0.0070954 53.736 0.076463
122.38 2138.0 undefined 506.30 544.09 1.9416 390.00 0.0025641 506.30 544.09 1.9416 2.0654 3.1812 486.28 0.0069569 53.760 0.076567 390.00 0.0025641 506.30 544.09 1.9416 2.0654 3.1812 486.28 0.0069569 53.760 0.076567
123.38 2175.2 undefined 508.36 546.82 1.9468 390.00 0.0025641 508.36 546.82 1.9468 2.0691 3.1758 488.29 0.0068210 53.785 0.076672 390.00 0.0025641 508.36 546.82 1.9468 2.0691 3.1758 488.29 0.0068210 53.785 0.076672
124.38 2212.4 undefined 510.44 549.55 1.9520 390.00 0.0025641 510.44 549.55 1.9520 2.0728 3.1705 490.29 0.0066876 53.809 0.076777 390.00 0.0025641 510.44 549.55 1.9520 2.0728 3.1705 490.29 0.0066876 53.809 0.076777
125.38 2249.7 undefined 512.51 552.28 1.9572 390.00 0.0025641 512.51 552.28 1.9572 2.0766 3.1655 492.28 0.0065567 53.833 0.076882 390.00 0.0025641 512.51 552.28 1.9572 2.0766 3.1655 492.28 0.0065567 53.833 0.076882
126.38 2287.0 undefined 514.59 555.02 1.9624 390.00 0.0025641 514.59 555.02 1.9624 2.0803 3.1607 494.25 0.0064282 53.857 0.076988 390.00 0.0025641 514.59 555.02 1.9624 2.0803 3.1607 494.25 0.0064282 53.857 0.076988
127.38 2324.3 undefined 516.67 557.76 1.9676 390.00 0.0025641 516.67 557.76 1.9676 2.0840 3.1560 496.21 0.0063021 53.880 0.077094 390.00 0.0025641 516.67 557.76 1.9676 2.0840 3.1560 496.21 0.0063021 53.880 0.077094
128.38 2361.6 undefined 518.76 560.51 1.9729 390.00 0.0025641 518.76 560.51 1.9729 2.0878 3.1515 498.15 0.0061783 53.904 0.077201 390.00 0.0025641 518.76 560.51 1.9729 2.0878 3.1515 498.15 0.0061783 53.904 0.077201
129.38 2399.0 undefined 520.85 563.26 1.9780 390.00 0.0025641 520.85 563.26 1.9780 2.0915 3.1472 500.09 0.0060566 53.928 0.077308 390.00 0.0025641 520.85 563.26 1.9780 2.0915 3.1472 500.09 0.0060566 53.928 0.077308
130.38 2436.3 undefined 522.94 566.01 1.9832 390.00 0.0025641 522.94 566.01 1.9832 2.0953 3.1431 502.01 0.0059372 53.952 0.077416 390.00 0.0025641 522.94 566.01 1.9832 2.0953 3.1431 502.01 0.0059372 53.952 0.077416
131.38 2473.7 undefined 525.04 568.77 1.9884 390.00 0.0025641 525.04 568.77 1.9884 2.0991 3.1391 503.91 0.0058198 53.976 0.077523 390.00 0.0025641 525.04 568.77 1.9884 2.0991 3.1391 503.91 0.0058198 53.976 0.077523
132.38 2511.1 undefined 527.14 571.53 1.9936 390.00 0.0025641 527.14 571.53 1.9936 2.1028 3.1353 505.81 0.0057045 54.000 0.077632 390.00 0.0025641 527.14 571.53 1.9936 2.1028 3.1353 505.81 0.0057045 54.000 0.077632
133.38 2548.5 undefined 529.24 574.30 1.9988 390.00 0.0025641 529.24 574.30 1.9988 2.1066 3.1316 507.69 0.0055912 54.024 0.077740 390.00 0.0025641 529.24 574.30 1.9988 2.1066 3.1316 507.69 0.0055912 54.024 0.077740
134.38 2585.9 undefined 531.35 577.07 2.0040 390.00 0.0025641 531.35 577.07 2.0040 2.1104 3.1281 509.56 0.0054799 54.048 0.077849 390.00 0.0025641 531.35 577.07 2.0040 2.1104 3.1281 509.56 0.0054799 54.048 0.077849
135.38 2623.3 undefined 533.46 579.84 2.0092 390.00 0.0025641 533.46 579.84 2.0092 2.1142 3.1247 511.42 0.0053704 54.072 0.077959 390.00 0.0025641 533.46 579.84 2.0092 2.1142 3.1247 511.42 0.0053704 54.072 0.077959
136.38 2660.7 undefined 535.58 582.62 2.0143 390.00 0.0025641 535.58 582.62 2.0143 2.1180 3.1215 513.27 0.0052628 54.096 0.078068 390.00 0.0025641 535.58 582.62 2.0143 2.1180 3.1215 513.27 0.0052628 54.096 0.078068
137.38 2698.2 undefined 537.70 585.40 2.0195 390.00 0.0025641 537.70 585.40 2.0195 2.1218 3.1184 515.11 0.0051571 54.120 0.078179 390.00 0.0025641 537.70 585.40 2.0195 2.1218 3.1184 515.11 0.0051571 54.120 0.078179
138.38 2735.6 undefined 539.82 588.19 2.0247 390.00 0.0025641 539.82 588.19 2.0247 2.1256 3.1154 516.94 0.0050531 54.144 0.078289 390.00 0.0025641 539.82 588.19 2.0247 2.1256 3.1154 516.94 0.0050531 54.144 0.078289
139.38 2773.1 undefined 541.95 590.98 2.0298 390.00 0.0025641 541.95 590.98 2.0298 2.1294 3.1126 518.75 0.0049508 54.168 0.078400 390.00 0.0025641 541.95 590.98 2.0298 2.1294 3.1126 518.75 0.0049508 54.168 0.078400
140.38 2810.6 undefined 544.08 593.77 2.0350 390.00 0.0025641 544.08 593.77 2.0350 2.1332 3.1098 520.56 0.0048502 54.192 0.078511 390.00 0.0025641 544.08 593.77 2.0350 2.1332 3.1098 520.56 0.0048502 54.192 0.078511
141.38 2848.0 undefined 546.22 596.57 2.0402 390.00 0.0025641 546.22 596.57 2.0402 2.1370 3.1072 522.36 0.0047513 54.216 0.078623 390.00 0.0025641 546.22 596.57 2.0402 2.1370 3.1072 522.36 0.0047513 54.216 0.078623
142.38 2885.5 undefined 548.36 599.37 2.0453 390.00 0.0025641 548.36 599.37 2.0453 2.1408 3.1047 524.14 0.0046539 54.240 0.078735 390.00 0.0025641 548.36 599.37 2.0453 2.1408 3.1047 524.14 0.0046539 54.240 0.078735
143.38 2923.0 undefined 550.50 602.17 2.0505 390.00 0.0025641 550.50 602.17 2.0505 2.1447 3.1023 525.92 0.0045582 54.263 0.078847 390.00 0.0025641 550.50 602.17 2.0505 2.1447 3.1023 525.92 0.0045582 54.263 0.078847
144.38 2960.5 undefined 552.65 604.98 2.0556 390.00 0.0025641 552.65 604.98 2.0556 2.1485 3.1001 527.68 0.0044639 54.287 0.078960 390.00 0.0025641 552.65 604.98 2.0556 2.1485 3.1001 527.68 0.0044639 54.287 0.078960
145.38 2998.1 undefined 554.80 607.80 2.0607 390.00 0.0025641 554.80 607.80 2.0607 2.1523 3.0979 529.44 0.0043712 54.311 0.079073 390.00 0.0025641 554.80 607.80 2.0607 2.1523 3.0979 529.44 0.0043712 54.311 0.079073
146.38 3035.6 undefined 556.95 610.62 2.0659 390.00 0.0025641 556.95 610.62 2.0659 2.1561 3.0958 531.19 0.0042799 54.335 0.079186 390.00 0.0025641 556.95 610.62 2.0659 2.1561 3.0958 531.19 0.0042799 54.335 0.079186
147.38 3073.1 undefined 559.11 613.44 2.0710 390.00 0.0025641 559.11 613.44 2.0710 2.1599 3.0939 532.92 0.0041901 54.359 0.079300 390.00 0.0025641 559.11 613.44 2.0710 2.1599 3.0939 532.92 0.0041901 54.359 0.079300
148.38 3110.7 undefined 561.27 616.26 2.0762 390.00 0.0025641 561.27 616.26 2.0762 2.1638 3.0920 534.65 0.0041017 54.383 0.079414 390.00 0.0025641 561.27 616.26 2.0762 2.1638 3.0920 534.65 0.0041017 54.383 0.079414
149.38 3148.2 undefined 563.44 619.09 2.0813 390.00 0.0025641 563.44 619.09 2.0813 2.1676 3.0902 536.37 0.0040146 54.407 0.079529 390.00 0.0025641 563.44 619.09 2.0813 2.1676 3.0902 536.37 0.0040146 54.407 0.079529
150.38 3185.7 undefined 565.61 621.93 2.0864 390.00 0.0025641 565.61 621.93 2.0864 2.1714 3.0885 538.08 0.0039289 54.430 0.079643 390.00 0.0025641 565.61 621.93 2.0864 2.1714 3.0885 538.08 0.0039289 54.430 0.079643
151.38 3223.3 undefined 567.78 624.76 2.0915 390.00 0.0025641 567.78 624.76 2.0915 2.1753 3.0869 539.79 0.0038445 54.454 0.079759 390.00 0.0025641 567.78 624.76 2.0915 2.1753 3.0869 539.79 0.0038445 54.454 0.079759
152.38 3260.9 undefined 569.96 627.60 2.0967 390.00 0.0025641 569.96 627.60 2.0967 2.1791 3.0854 541.48 0.0037614 54.478 0.079874 390.00 0.0025641 569.96 627.60 2.0967 2.1791 3.0854 541.48 0.0037614 54.478 0.079874
153.38 3298.4 undefined 572.14 630.45 2.1018 390.00 0.0025641 572.14 630.45 2.1018 2.1829 3.0840 543.17 0.0036796 54.502 0.079990 390.00 0.0025641 572.14 630.45 2.1018 2.1829 3.0840 543.17 0.0036796 54.502 0.079990
154.38 3336.0 undefined 574.32 633.30 2.1069 390.00 0.0025641 574.32 633.30 2.1069 2.1867 3.0826 544.84 0.0035990 54.526 0.080106 390.00 0.0025641 574.32 633.30 2.1069 2.1867 3.0826 544.84 0.0035990 54.526 0.080106
155.38 3373.6 undefined 576.51 636.15 2.1120 390.00 0.0025641 576.51 636.15 2.1120 2.1906 3.0814 546.51 0.0035195 54.549 0.080223 390.00 0.0025641 576.51 636.15 2.1120 2.1906 3.0814 546.51 0.0035195 54.549 0.080223
156.38 3411.2 undefined 578.70 639.01 2.1171 390.00 0.0025641 578.70 639.01 2.1171 2.1944 3.0802 548.17 0.0034413 54.573 0.080339 390.00 0.0025641 578.70 639.01 2.1171 2.1944 3.0802 548.17 0.0034413 54.573 0.080339
157.38 3448.8 undefined 580.90 641.87 2.1222 390.00 0.0025641 580.90 641.87 2.1222 2.1982 3.0790 549.83 0.0033642 54.597 0.080457 390.00 0.0025641 580.90 641.87 2.1222 2.1982 3.0790 549.83 0.0033642 54.597 0.080457
158.38 3486.3 undefined 583.10 644.73 2.1273 390.00 0.0025641 583.10 644.73 2.1273 2.2021 3.0780 551.47 0.0032883 54.621 0.080574 390.00 0.0025641 583.10 644.73 2.1273 2.2021 3.0780 551.47 0.0032883 54.621 0.080574
159.38 3523.9 undefined 585.30 647.60 2.1324 390.00 0.0025641 585.30 647.60 2.1324 2.2059 3.0770 553.11 0.0032134 54.644 0.080692 390.00 0.0025641 585.30 647.60 2.1324 2.2059 3.0770 553.11 0.0032134 54.644 0.080692
160.38 3561.5 undefined 587.51 650.47 2.1375 390.00 0.0025641 587.51 650.47 2.1375 2.2097 3.0761 554.74 0.0031397 54.668 0.080810 390.00 0.0025641 587.51 650.47 2.1375 2.2097 3.0761 554.74 0.0031397 54.668 0.080810
161.38 3599.1 undefined 589.72 653.35 2.1426 390.00 0.0025641 589.72 653.35 2.1426 2.2136 3.0753 556.36 0.0030670 54.692 0.080929 390.00 0.0025641 589.72 653.35 2.1426 2.2136 3.0753 556.36 0.0030670 54.692 0.080929
162.38 3636.7 undefined 591.94 656.23 2.1477 390.00 0.0025641 591.94 656.23 2.1477 2.2174 3.0745 557.97 0.0029953 54.716 0.081047 390.00 0.0025641 591.94 656.23 2.1477 2.2174 3.0745 557.97 0.0029953 54.716 0.081047
163.38 3674.3 undefined 594.16 659.12 2.1528 390.00 0.0025641 594.16 659.12 2.1528 2.2212 3.0738 559.58 0.0029247 54.739 0.081167 390.00 0.0025641 594.16 659.12 2.1528 2.2212 3.0738 559.58 0.0029247 54.739 0.081167
164.38 3711.9 undefined 596.38 662.00 2.1579 390.00 0.0025641 596.38 662.00 2.1579 2.2250 3.0732 561.18 0.0028551 54.763 0.081286 390.00 0.0025641 596.38 662.00 2.1579 2.2250 3.0732 561.18 0.0028551 54.763 0.081286
165.38 3749.5 undefined 598.61 664.90 2.1630 390.00 0.0025641 598.61 664.90 2.1630 2.2289 3.0726 562.78 0.0027865 54.787 0.081406 390.00 0.0025641 598.61 664.90 2.1630 2.2289 3.0726 562.78 0.0027865 54.787 0.081406
166.38 3787.2 undefined 600.84 667.79 2.1681 390.00 0.0025641 600.84 667.79 2.1681 2.2327 3.0721 564.36 0.0027188 54.810 0.081526 390.00 0.0025641 600.84 667.79 2.1681 2.2327 3.0721 564.36 0.0027188 54.810 0.081526
167.38 3824.8 undefined 603.07 670.69 2.1732 390.00 0.0025641 603.07 670.69 2.1732 2.2365 3.0716 565.94 0.0026521 54.834 0.081646 390.00 0.0025641 603.07 670.69 2.1732 2.2365 3.0716 565.94 0.0026521 54.834 0.081646
168.38 3862.4 undefined 605.31 673.59 2.1782 390.00 0.0025641 605.31 673.59 2.1782 2.2404 3.0712 567.51 0.0025863 54.858 0.081767 390.00 0.0025641 605.31 673.59 2.1782 2.2404 3.0712 567.51 0.0025863 54.858 0.081767
169.38 3900.0 undefined 607.55 676.50 2.1833 390.00 0.0025641 607.55 676.50 2.1833 2.2442 3.0709 569.08 0.0025214 54.881 0.081888 390.00 0.0025641 607.55 676.50 2.1833 2.2442 3.0709 569.08 0.0025214 54.881 0.081888
170.38 3937.6 undefined 609.80 679.41 2.1884 390.00 0.0025641 609.80 679.41 2.1884 2.2480 3.0706 570.64 0.0024574 54.905 0.082010 390.00 0.0025641 609.80 679.41 2.1884 2.2480 3.0706 570.64 0.0024574 54.905 0.082010
171.38 3975.2 undefined 612.05 682.33 2.1934 390.00 0.0025641 612.05 682.33 2.1934 2.2518 3.0704 572.19 0.0023943 54.929 0.082131 390.00 0.0025641 612.05 682.33 2.1934 2.2518 3.0704 572.19 0.0023943 54.929 0.082131
172.38 4012.8 undefined 614.30 685.25 2.1985 390.00 0.0025641 614.30 685.25 2.1985 2.2556 3.0702 573.73 0.0023320 54.952 0.082253 390.00 0.0025641 614.30 685.25 2.1985 2.2556 3.0702 573.73 0.0023320 54.952 0.082253
173.38 4050.4 undefined 616.56 688.17 2.2036 390.00 0.0025641 616.56 688.17 2.2036 2.2595 3.0701 575.27 0.0022706 54.976 0.082376 390.00 0.0025641 616.56 688.17 2.2036 2.2595 3.0701 575.27 0.0022706 54.976 0.082376
174.38 4088.0 undefined 618.82 691.09 2.2086 390.00 0.0025641 618.82 691.09 2.2086 2.2633 3.0700 576.81 0.0022100 54.999 0.082498 390.00 0.0025641 618.82 691.09 2.2086 2.2633 3.0700 576.81 0.0022100 54.999 0.082498
175.38 4125.7 undefined 621.09 694.02 2.2137 390.00 0.0025641 621.09 694.02 2.2137 2.2671 3.0699 578.33 0.0021502 55.023 0.082621 390.00 0.0025641 621.09 694.02 2.2137 2.2671 3.0699 578.33 0.0021502 55.023 0.082621
176.38 4163.3 undefined 623.36 696.96 2.2187 390.00 0.0025641 623.36 696.96 2.2187 2.2709 3.0700 579.85 0.0020913 55.047 0.082745 390.00 0.0025641 623.36 696.96 2.2187 2.2709 3.0700 579.85 0.0020913 55.047 0.082745
177.38 4200.9 undefined 625.63 699.90 2.2238 390.00 0.0025641 625.63 699.90 2.2238 2.2747 3.0700 581.37 0.0020331 55.070 0.082868 390.00 0.0025641 625.63 699.90 2.2238 2.2747 3.0700 581.37 0.0020331 55.070 0.082868
178.38 4238.5 undefined 627.91 702.84 2.2288 390.00 0.0025641 627.91 702.84 2.2288 2.2785 3.0701 582.88 0.0019756 55.094 0.082992 390.00 0.0025641 627.91 702.84 2.2288 2.2785 3.0701 582.88 0.0019756 55.094 0.082992
179.38 4276.1 undefined 630.19 705.78 2.2339 390.00 0.0025641 630.19 705.78 2.2339 2.2823 3.0703 584.38 0.0019190 55.117 0.083116 390.00 0.0025641 630.19 705.78 2.2339 2.2823 3.0703 584.38 0.0019190 55.117 0.083116
180.38 4313.7 undefined 632.47 708.73 2.2389 390.00 0.0025641 632.47 708.73 2.2389 2.2861 3.0705 585.87 0.0018630 55.141 0.083241 390.00 0.0025641 632.47 708.73 2.2389 2.2861 3.0705 585.87 0.0018630 55.141 0.083241
181.38 4351.3 undefined 634.76 711.68 2.2440 390.00 0.0025641 634.76 711.68 2.2440 2.2899 3.0707 587.36 0.0018078 55.164 0.083366 390.00 0.0025641 634.76 711.68 2.2440 2.2899 3.0707 587.36 0.0018078 55.164 0.083366
182.38 4388.9 undefined 637.05 714.64 2.2490 390.00 0.0025641 637.05 714.64 2.2490 2.2937 3.0710 588.85 0.0017534 55.188 0.083491 390.00 0.0025641 637.05 714.64 2.2490 2.2937 3.0710 588.85 0.0017534 55.188 0.083491
183.38 4426.5 undefined 639.35 717.60 2.2540 390.00 0.0025641 639.35 717.60 2.2540 2.2975 3.0713 590.33 0.0016996 55.211 0.083616 390.00 0.0025641 639.35 717.60 2.2540 2.2975 3.0713 590.33 0.0016996 55.211 0.083616
184.38 4464.1 undefined 641.65 720.57 2.2591 390.00 0.0025641 641.65 720.57 2.2591 2.3013 3.0717 591.80 0.0016465 55.235 0.083742 390.00 0.0025641 641.65 720.57 2.2591 2.3013 3.0717 591.80 0.0016465 55.235 0.083742
185.38 4501.7 undefined 643.95 723.53 2.2641 390.00 0.0025641 643.95 723.53 2.2641 2.3051 3.0720 593.27 0.0015941 55.258 0.083868 390.00 0.0025641 643.95 723.53 2.2641 2.3051 3.0720 593.27 0.0015941 55.258 0.083868
186.38 4539.3 undefined 646.26 726.51 2.2691 390.00 0.0025641 646.26 726.51 2.2691 2.3089 3.0725 594.73 0.0015424 55.282 0.083994 390.00 0.0025641 646.26 726.51 2.2691 2.3089 3.0725 594.73 0.0015424 55.282 0.083994
187.38 4576.9 undefined 648.57 729.48 2.2741 390.00 0.0025641 648.57 729.48 2.2741 2.3127 3.0730 596.19 0.0014913 55.305 0.084121 390.00 0.0025641 648.57 729.48 2.2741 2.3127 3.0730 596.19 0.0014913 55.305 0.084121
188.38 4614.5 undefined 650.88 732.46 2.2792 390.00 0.0025641 650.88 732.46 2.2792 2.3165 3.0735 597.64 0.0014408 55.329 0.084248 390.00 0.0025641 650.88 732.46 2.2792 2.3165 3.0735 597.64 0.0014408 55.329 0.084248
189.38 4652.1 undefined 653.20 735.44 2.2842 390.00 0.0025641 653.20 735.44 2.2842 2.3203 3.0740 599.08 0.0013910 55.352 0.084375 390.00 0.0025641 653.20 735.44 2.2842 2.3203 3.0740 599.08 0.0013910 55.352 0.084375
190.38 4689.6 undefined 655.52 738.43 2.2892 390.00 0.0025641 655.52 738.43 2.2892 2.3241 3.0746 600.52 0.0013419 55.376 0.084503 390.00 0.0025641 655.52 738.43 2.2892 2.3241 3.0746 600.52 0.0013419 55.376 0.084503
191.38 4727.2 undefined 657.85 741.42 2.2942 390.00 0.0025641 657.85 741.42 2.2942 2.3279 3.0752 601.96 0.0012933 55.399 0.084631 390.00 0.0025641 657.85 741.42 2.2942 2.3279 3.0752 601.96 0.0012933 55.399 0.084631
192.38 4764.8 undefined 660.18 744.41 2.2992 390.00 0.0025641 660.18 744.41 2.2992 2.3317 3.0758 603.39 0.0012453 55.422 0.084759 390.00 0.0025641 660.18 744.41 2.2992 2.3317 3.0758 603.39 0.0012453 55.422 0.084759
193.38 4802.4 undefined 662.51 747.41 2.3042 390.00 0.0025641 662.51 747.41 2.3042 2.3354 3.0765 604.81 0.0011980 55.446 0.084887 390.00 0.0025641 662.51 747.41 2.3042 2.3354 3.0765 604.81 0.0011980 55.446 0.084887
194.38 4839.9 undefined 664.85 750.41 2.3092 390.00 0.0025641 664.85 750.41 2.3092 2.3392 3.0772 606.23 0.0011512 55.469 0.085016 390.00 0.0025641 664.85 750.41 2.3092 2.3392 3.0772 606.23 0.0011512 55.469 0.085016
195.38 4877.5 undefined 667.19 753.42 2.3142 390.00 0.0025641 667.19 753.42 2.3142 2.3430 3.0780 607.65 0.0011050 55.493 0.085145 390.00 0.0025641 667.19 753.42 2.3142 2.3430 3.0780 607.65 0.0011050 55.493 0.085145
196.38 4915.0 undefined 669.53 756.43 2.3192 390.00 0.0025641 669.53 756.43 2.3192 2.3468 3.0787 609.06 0.0010593 55.516 0.085275 390.00 0.0025641 669.53 756.43 2.3192 2.3468 3.0787 609.06 0.0010593 55.516 0.085275
197.38 4952.6 undefined 671.88 759.44 2.3242 390.00 0.0025641 671.88 759.44 2.3242 2.3505 3.0795 610.46 0.0010142 55.539 0.085404 390.00 0.0025641 671.88 759.44 2.3242 2.3505 3.0795 610.46 0.0010142 55.539 0.085404
198.38 4990.1 undefined 674.24 762.46 2.3292 390.00 0.0025641 674.24 762.46 2.3292 2.3543 3.0804 611.86 0.00096968 55.563 0.085534 390.00 0.0025641 674.24 762.46 2.3292 2.3543 3.0804 611.86 0.00096968 55.563 0.085534
199.38 5027.7 undefined 676.59 765.48 2.3342 390.00 0.0025641 676.59 765.48 2.3342 2.3581 3.0812 613.26 0.00092568 55.586 0.085664 390.00 0.0025641 676.59 765.48 2.3342 2.3581 3.0812 613.26 0.00092568 55.586 0.085664
200.38 5065.2 undefined 678.95 768.50 2.3392 390.00 0.0025641 678.95 768.50 2.3392 2.3618 3.0821 614.65 0.00088220 55.609 0.085795 390.00 0.0025641 678.95 768.50 2.3392 2.3618 3.0821 614.65 0.00088220 55.609 0.085795
201.38 5102.8 undefined 681.32 771.53 2.3442 390.00 0.0025641 681.32 771.53 2.3442 2.3656 3.0830 616.03 0.00083925 55.633 0.085926 390.00 0.0025641 681.32 771.53 2.3442 2.3656 3.0830 616.03 0.00083925 55.633 0.085926
202.38 5140.3 undefined 683.68 774.56 2.3492 390.00 0.0025641 683.68 774.56 2.3492 2.3693 3.0840 617.41 0.00079680 55.656 0.086057 390.00 0.0025641 683.68 774.56 2.3492 2.3693 3.0840 617.41 0.00079680 55.656 0.086057
203.38 5177.8 undefined 686.05 777.59 2.3541 390.00 0.0025641 686.05 777.59 2.3541 2.3731 3.0850 618.79 0.00075487 55.679 0.086188 390.00 0.0025641 686.05 777.59 2.3541 2.3731 3.0850 618.79 0.00075487 55.679 0.086188
204.38 5215.3 undefined 688.43 780.63 2.3591 390.00 0.0025641 688.43 780.63 2.3591 2.3768 3.0860 620.16 0.00071343 55.703 0.086320 390.00 0.0025641 688.43 780.63 2.3591 2.3768 3.0860 620.16 0.00071343 55.703 0.086320
205.38 5252.8 undefined 690.81 783.67 2.3641 390.00 0.0025641 690.81 783.67 2.3641 2.3806 3.0870 621.53 0.00067247 55.726 0.086452 390.00 0.0025641 690.81 783.67 2.3641 2.3806 3.0870 621.53 0.00067247 55.726 0.086452
206.38 5290.4 undefined 693.19 786.72 2.3691 390.00 0.0025641 693.19 786.72 2.3691 2.3843 3.0880 622.89 0.00063200 55.749 0.086584 390.00 0.0025641 693.19 786.72 2.3691 2.3843 3.0880 622.89 0.00063200 55.749 0.086584
207.38 5327.9 undefined 695.58 789.77 2.3740 390.00 0.0025641 695.58 789.77 2.3740 2.3881 3.0891 624.25 0.00059201 55.772 0.086717 390.00 0.0025641 695.58 789.77 2.3740 2.3881 3.0891 624.25 0.00059201 55.772 0.086717
208.38 5365.4 undefined 697.97 792.82 2.3790 390.00 0.0025641 697.97 792.82 2.3790 2.3918 3.0902 625.60 0.00055248 55.796 0.086850 390.00 0.0025641 697.97 792.82 2.3790 2.3918 3.0902 625.60 0.00055248 55.796 0.086850
209.38 5402.8 undefined 700.36 795.88 2.3840 390.00 0.0025641 700.36 795.88 2.3840 2.3955 3.0913 626.95 0.00051341 55.819 0.086983 390.00 0.0025641 700.36 795.88 2.3840 2.3955 3.0913 626.95 0.00051341 55.819 0.086983
210.38 5440.3 undefined 702.76 798.94 2.3889 390.00 0.0025641 702.76 798.94 2.3889 2.3993 3.0925 628.29 0.00047480 55.842 0.087116 390.00 0.0025641 702.76 798.94 2.3889 2.3993 3.0925 628.29 0.00047480 55.842 0.087116
211.38 5477.8 undefined 705.16 802.00 2.3939 390.00 0.0025641 705.16 802.00 2.3939 2.4030 3.0936 629.63 0.00043663 55.865 0.087250 390.00 0.0025641 705.16 802.00 2.3939 2.4030 3.0936 629.63 0.00043663 55.865 0.087250
212.38 5515.3 undefined 707.56 805.07 2.3989 390.00 0.0025641 707.56 805.07 2.3989 2.4067 3.0948 630.97 0.00039890 55.888 0.087384 390.00 0.0025641 707.56 805.07 2.3989 2.4067 3.0948 630.97 0.00039890 55.888 0.087384
213.38 5552.7 undefined 709.97 808.14 2.4038 390.00 0.0025641 709.97 808.14 2.4038 2.4105 3.0961 632.30 0.00036160 55.911 0.087518 390.00 0.0025641 709.97 808.14 2.4038 2.4105 3.0961 632.30 0.00036160 55.911 0.087518
214.38 5590.2 undefined 712.38 811.21 2.4088 390.00 0.0025641 712.38 811.21 2.4088 2.4142 3.0973 633.63 0.00032473 55.935 0.087653 390.00 0.0025641 712.38 811.21 2.4088 2.4142 3.0973 633.63 0.00032473 55.935 0.087653
215.38 5627.7 undefined 714.80 814.29 2.4137 390.00 0.0025641 714.80 814.29 2.4137 2.4179 3.0985 634.95 0.00028828 55.958 0.087788 390.00 0.0025641 714.80 814.29 2.4137 2.4179 3.0985 634.95 0.00028828 55.958 0.087788
216.38 5665.1 undefined 717.22 817.37 2.4187 390.00 0.0025641 717.22 817.37 2.4187 2.4216 3.0998 636.27 0.00025224 55.981 0.087923 390.00 0.0025641 717.22 817.37 2.4187 2.4216 3.0998 636.27 0.00025224 55.981 0.087923
217.38 5702.5 undefined 719.64 820.46 2.4236 390.00 0.0025641 719.64 820.46 2.4236 2.4253 3.1011 637.59 0.00021661 56.004 0.088058 390.00 0.0025641 719.64 820.46 2.4236 2.4253 3.1011 637.59 0.00021661 56.004 0.088058
218.38 5740.0 undefined 722.07 823.55 2.4286 390.00 0.0025641 722.07 823.55 2.4286 2.4290 3.1024 638.90 0.00018139 56.027 0.088194 390.00 0.0025641 722.07 823.55 2.4286 2.4290 3.1024 638.90 0.00018139 56.027 0.088194
219.38 5777.4 undefined 724.50 826.64 2.4335 390.00 0.0025641 724.50 826.64 2.4335 2.4327 3.1038 640.21 0.00014656 56.050 0.088330 390.00 0.0025641 724.50 826.64 2.4335 2.4327 3.1038 640.21 0.00014656 56.050 0.088330
220.38 5814.8 undefined 726.94 829.74 2.4384 390.00 0.0025641 726.94 829.74 2.4384 2.4364 3.1051 641.51 0.00011212 56.073 0.088466 390.00 0.0025641 726.94 829.74 2.4384 2.4364 3.1051 641.51 0.00011212 56.073 0.088466
221.38 5852.2 undefined 729.37 832.84 2.4434 390.00 0.0025641 729.37 832.84 2.4434 2.4401 3.1065 642.81 7.8065e-05 56.096 0.088603 390.00 0.0025641 729.37 832.84 2.4434 2.4401 3.1065 642.81 7.8065e-05 56.096 0.088603
222.38 5889.6 undefined 731.82 835.94 2.4483 390.00 0.0025641 731.82 835.94 2.4483 2.4438 3.1079 644.10 4.4390e-05 56.119 0.088739 390.00 0.0025641 731.82 835.94 2.4483 2.4438 3.1079 644.10 4.4390e-05 56.119 0.088739
223.38 5927.0 undefined 734.26 839.05 2.4532 390.00 0.0025641 734.26 839.05 2.4532 2.4475 3.1093 645.40 1.1089e-05 56.142 0.088877 390.00 0.0025641 734.26 839.05 2.4532 2.4475 3.1093 645.40 1.1089e-05 56.142 0.088877
224.38 5964.4 undefined 736.71 842.16 2.4582 390.00 0.0025641 736.71 842.16 2.4582 2.4512 3.1107 646.68 -2.1843e-05 56.165 0.089014 390.00 0.0025641 736.71 842.16 2.4582 2.4512 3.1107 646.68 -2.1843e-05 56.165 0.089014
225.38 6001.8 undefined 739.16 845.27 2.4631 390.00 0.0025641 739.16 845.27 2.4631 2.4549 3.1122 647.97 -5.4412e-05 56.188 0.089151 390.00 0.0025641 739.16 845.27 2.4631 2.4549 3.1122 647.97 -5.4412e-05 56.188 0.089151
226.38 6039.2 undefined 741.62 848.39 2.4680 390.00 0.0025641 741.62 848.39 2.4680 2.4586 3.1136 649.25 -8.6622e-05 56.211 0.089289 390.00 0.0025641 741.62 848.39 2.4680 2.4586 3.1136 649.25 -8.6622e-05 56.211 0.089289
227.38 6076.5 undefined 744.08 851.51 2.4729 390.00 0.0025641 744.08 851.51 2.4729 2.4623 3.1151 650.52 -0.00011848 56.234 0.089428 390.00 0.0025641 744.08 851.51 2.4729 2.4623 3.1151 650.52 -0.00011848 56.234 0.089428
228.38 6113.9 undefined 746.55 854.63 2.4779 390.00 0.0025641 746.55 854.63 2.4779 2.4659 3.1166 651.80 -0.00014999 56.257 0.089566 390.00 0.0025641 746.55 854.63 2.4779 2.4659 3.1166 651.80 -0.00014999 56.257 0.089566
229.38 6151.3 undefined 749.01 857.76 2.4828 390.00 0.0025641 749.01 857.76 2.4828 2.4696 3.1181 653.07 -0.00018115 56.280 0.089705 390.00 0.0025641 749.01 857.76 2.4828 2.4696 3.1181 653.07 -0.00018115 56.280 0.089705
230.38 6188.6 undefined 751.49 860.89 2.4877 390.00 0.0025641 751.49 860.89 2.4877 2.4733 3.1197 654.33 -0.00021198 56.303 0.089844 390.00 0.0025641 751.49 860.89 2.4877 2.4733 3.1197 654.33 -0.00021198 56.303 0.089844
231.38 6225.9 undefined 753.96 864.03 2.4926 390.00 0.0025641 753.96 864.03 2.4926 2.4769 3.1212 655.59 -0.00024247 56.326 0.089983 390.00 0.0025641 753.96 864.03 2.4926 2.4769 3.1212 655.59 -0.00024247 56.326 0.089983
232.38 6263.3 undefined 756.44 867.17 2.4975 390.00 0.0025641 756.44 867.17 2.4975 2.4806 3.1228 656.85 -0.00027263 56.349 0.090122 390.00 0.0025641 756.44 867.17 2.4975 2.4806 3.1228 656.85 -0.00027263 56.349 0.090122
233.38 6300.6 undefined 758.92 870.31 2.5024 390.00 0.0025641 758.92 870.31 2.5024 2.4843 3.1243 658.11 -0.00030247 56.372 0.090262 390.00 0.0025641 758.92 870.31 2.5024 2.4843 3.1243 658.11 -0.00030247 56.372 0.090262
234.38 6337.9 undefined 761.41 873.45 2.5073 390.00 0.0025641 761.41 873.45 2.5073 2.4879 3.1259 659.36 -0.00033199 56.395 0.090402 390.00 0.0025641 761.41 873.45 2.5073 2.4879 3.1259 659.36 -0.00033199 56.395 0.090402
235.38 6375.2 undefined 763.90 876.60 2.5122 390.00 0.0025641 763.90 876.60 2.5122 2.4916 3.1275 660.61 -0.00036119 56.418 0.090542 390.00 0.0025641 763.90 876.60 2.5122 2.4916 3.1275 660.61 -0.00036119 56.418 0.090542
236.38 6412.5 undefined 766.39 879.76 2.5171 390.00 0.0025641 766.39 879.76 2.5171 2.4952 3.1292 661.85 -0.00039008 56.441 0.090688 390.00 0.0025641 766.39 879.76 2.5171 2.4952 3.1292 661.85 -0.00039008 56.441 0.090688
237.38 6449.8 undefined 768.89 882.91 2.5220 390.00 0.0025641 768.89 882.91 2.5220 2.4988 3.1308 663.09 -0.00041866 56.463 0.090835 390.00 0.0025641 768.89 882.91 2.5220 2.4988 3.1308 663.09 -0.00041866 56.463 0.090835
238.38 6487.0 undefined 771.39 886.07 2.5269 390.00 0.0025641 771.39 886.07 2.5269 2.5025 3.1324 664.33 -0.00044693 56.486 0.090982 390.00 0.0025641 771.39 886.07 2.5269 2.5025 3.1324 664.33 -0.00044693 56.486 0.090982
239.38 6524.3 undefined 773.89 889.23 2.5318 390.00 0.0025641 773.89 889.23 2.5318 2.5061 3.1341 665.56 -0.00047491 56.509 0.091129 390.00 0.0025641 773.89 889.23 2.5318 2.5061 3.1341 665.56 -0.00047491 56.509 0.091129
240.38 6561.6 undefined 776.40 892.40 2.5367 390.00 0.0025641 776.40 892.40 2.5367 2.5098 3.1358 666.79 -0.00050259 56.532 0.091277 390.00 0.0025641 776.40 892.40 2.5367 2.5098 3.1358 666.79 -0.00050259 56.532 0.091277
241.38 6598.8 undefined 778.91 895.57 2.5416 390.00 0.0025641 778.91 895.57 2.5416 2.5134 3.1375 668.02 -0.00052998 56.555 0.091424 390.00 0.0025641 778.91 895.57 2.5416 2.5134 3.1375 668.02 -0.00052998 56.555 0.091424
242.38 6636.1 undefined 781.43 898.75 2.5464 390.00 0.0025641 781.43 898.75 2.5464 2.5170 3.1392 669.24 -0.00055708 56.578 0.091573 390.00 0.0025641 781.43 898.75 2.5464 2.5170 3.1392 669.24 -0.00055708 56.578 0.091573
243.38 6673.3 undefined 783.95 901.92 2.5513 390.00 0.0025641 783.95 901.92 2.5513 2.5206 3.1409 670.46 -0.00058389 56.600 0.091721 390.00 0.0025641 783.95 901.92 2.5513 2.5206 3.1409 670.46 -0.00058389 56.600 0.091721
244.38 6710.5 undefined 786.47 905.10 2.5562 390.00 0.0025641 786.47 905.10 2.5562 2.5243 3.1426 671.68 -0.00061043 56.623 0.091870 390.00 0.0025641 786.47 905.10 2.5562 2.5243 3.1426 671.68 -0.00061043 56.623 0.091870
245.38 6747.7 undefined 788.99 908.29 2.5611 390.00 0.0025641 788.99 908.29 2.5611 2.5279 3.1443 672.90 -0.00063669 56.646 0.092019 390.00 0.0025641 788.99 908.29 2.5611 2.5279 3.1443 672.90 -0.00063669 56.646 0.092019
246.38 6784.9 undefined 791.52 911.47 2.5660 390.00 0.0025641 791.52 911.47 2.5660 2.5315 3.1461 674.11 -0.00066268 56.668 0.092168 390.00 0.0025641 791.52 911.47 2.5660 2.5315 3.1461 674.11 -0.00066268 56.668 0.092168
247.38 6822.1 undefined 794.06 914.67 2.5708 390.00 0.0025641 794.06 914.67 2.5708 2.5351 3.1479 675.32 -0.00068839 56.691 0.092317 390.00 0.0025641 794.06 914.67 2.5708 2.5351 3.1479 675.32 -0.00068839 56.691 0.092317
248.38 6859.3 undefined 796.59 917.86 2.5757 390.00 0.0025641 796.59 917.86 2.5757 2.5387 3.1496 676.52 -0.00071384 56.714 0.092467 390.00 0.0025641 796.59 917.86 2.5757 2.5387 3.1496 676.52 -0.00071384 56.714 0.092467
249.38 6896.5 undefined 799.13 921.06 2.5806 390.00 0.0025641 799.13 921.06 2.5806 2.5423 3.1514 677.72 -0.00073903 56.737 0.092617 390.00 0.0025641 799.13 921.06 2.5806 2.5423 3.1514 677.72 -0.00073903 56.737 0.092617
250.38 6933.7 undefined 801.68 924.26 2.5854 390.00 0.0025641 801.68 924.26 2.5854 2.5459 3.1532 678.92 -0.00076396 56.759 0.092768 390.00 0.0025641 801.68 924.26 2.5854 2.5459 3.1532 678.92 -0.00076396 56.759 0.092768
251.38 6970.8 undefined 804.23 927.46 2.5903 390.00 0.0025641 804.23 927.46 2.5903 2.5495 3.1550 680.12 -0.00078863 56.782 0.092919 390.00 0.0025641 804.23 927.46 2.5903 2.5495 3.1550 680.12 -0.00078863 56.782 0.092919
252.38 7008.0 undefined 806.78 930.67 2.5952 390.00 0.0025641 806.78 930.67 2.5952 2.5531 3.1568 681.31 -0.00081305 56.805 0.093070 390.00 0.0025641 806.78 930.67 2.5952 2.5531 3.1568 681.31 -0.00081305 56.805 0.093070
253.38 7045.1 undefined 809.33 933.88 2.6000 390.00 0.0025641 809.33 933.88 2.6000 2.5567 3.1587 682.50 -0.00083721 56.827 0.093221 390.00 0.0025641 809.33 933.88 2.6000 2.5567 3.1587 682.50 -0.00083721 56.827 0.093221
254.38 7082.3 undefined 811.89 937.10 2.6049 390.00 0.0025641 811.89 937.10 2.6049 2.5602 3.1605 683.68 -0.00086114 56.850 0.093373 390.00 0.0025641 811.89 937.10 2.6049 2.5602 3.1605 683.68 -0.00086114 56.850 0.093373
255.38 7119.4 undefined 814.45 940.32 2.6097 390.00 0.0025641 814.45 940.32 2.6097 2.5638 3.1623 684.87 -0.00088481 56.872 0.093525 390.00 0.0025641 814.45 940.32 2.6097 2.5638 3.1623 684.87 -0.00088481 56.872 0.093525
256.38 7156.5 undefined 817.02 943.54 2.6146 390.00 0.0025641 817.02 943.54 2.6146 2.5674 3.1642 686.05 -0.00090825 56.895 0.093677 390.00 0.0025641 817.02 943.54 2.6146 2.5674 3.1642 686.05 -0.00090825 56.895 0.093677
257.38 7193.6 undefined 819.59 946.76 2.6194 390.00 0.0025641 819.59 946.76 2.6194 2.5710 3.1661 687.22 -0.00093145 56.917 0.093829 390.00 0.0025641 819.59 946.76 2.6194 2.5710 3.1661 687.22 -0.00093145 56.917 0.093829
258.38 7230.7 undefined 822.16 949.99 2.6243 390.00 0.0025641 822.16 949.99 2.6243 2.5745 3.1679 688.40 -0.00095442 56.940 0.093982 390.00 0.0025641 822.16 949.99 2.6243 2.5745 3.1679 688.40 -0.00095442 56.940 0.093982
259.38 7267.8 undefined 824.74 953.22 2.6291 390.00 0.0025641 824.74 953.22 2.6291 2.5781 3.1698 689.57 -0.00097715 56.963 0.094135 390.00 0.0025641 824.74 953.22 2.6291 2.5781 3.1698 689.57 -0.00097715 56.963 0.094135
260.38 7304.9 undefined 827.32 956.46 2.6339 390.00 0.0025641 827.32 956.46 2.6339 2.5817 3.1717 690.74 -0.00099966 56.985 0.094289 390.00 0.0025641 827.32 956.46 2.6339 2.5817 3.1717 690.74 -0.00099966 56.985 0.094289
261.38 7341.9 undefined 829.90 959.70 2.6388 390.00 0.0025641 829.90 959.70 2.6388 2.5852 3.1736 691.91 -0.0010219 57.008 0.094442 390.00 0.0025641 829.90 959.70 2.6388 2.5852 3.1736 691.91 -0.0010219 57.008 0.094442
262.38 7379.0 undefined 832.49 962.94 2.6436 390.00 0.0025641 832.49 962.94 2.6436 2.5888 3.1756 693.07 -0.0010440 57.030 0.094596 390.00 0.0025641 832.49 962.94 2.6436 2.5888 3.1756 693.07 -0.0010440 57.030 0.094596
263.38 7416.0 undefined 835.08 966.19 2.6484 390.00 0.0025641 835.08 966.19 2.6484 2.5923 3.1775 694.23 -0.0010658 57.053 0.094751 390.00 0.0025641 835.08 966.19 2.6484 2.5923 3.1775 694.23 -0.0010658 57.053 0.094751
264.38 7453.1 undefined 837.67 969.43 2.6533 390.00 0.0025641 837.67 969.43 2.6533 2.5958 3.1794 695.39 -0.0010874 57.075 0.094905 390.00 0.0025641 837.67 969.43 2.6533 2.5958 3.1794 695.39 -0.0010874 57.075 0.094905
265.38 7490.1 undefined 840.27 972.69 2.6581 390.00 0.0025641 840.27 972.69 2.6581 2.5994 3.1813 696.54 -0.0011089 57.097 0.095060 390.00 0.0025641 840.27 972.69 2.6581 2.5994 3.1813 696.54 -0.0011089 57.097 0.095060
266.38 7527.1 undefined 842.87 975.94 2.6629 390.00 0.0025641 842.87 975.94 2.6629 2.6029 3.1833 697.69 -0.0011300 57.120 0.095215 390.00 0.0025641 842.87 975.94 2.6629 2.6029 3.1833 697.69 -0.0011300 57.120 0.095215
267.38 7564.1 undefined 845.48 979.20 2.6678 390.00 0.0025641 845.48 979.20 2.6678 2.6065 3.1853 698.84 -0.0011510 57.142 0.095371 390.00 0.0025641 845.48 979.20 2.6678 2.6065 3.1853 698.84 -0.0011510 57.142 0.095371
268.38 7601.1 undefined 848.08 982.46 2.6726 390.00 0.0025641 848.08 982.46 2.6726 2.6100 3.1872 699.99 -0.0011718 57.165 0.095526 390.00 0.0025641 848.08 982.46 2.6726 2.6100 3.1872 699.99 -0.0011718 57.165 0.095526
269.38 7638.1 undefined 850.70 985.73 2.6774 390.00 0.0025641 850.70 985.73 2.6774 2.6135 3.1892 701.13 -0.0011924 57.187 0.095682 390.00 0.0025641 850.70 985.73 2.6774 2.6135 3.1892 701.13 -0.0011924 57.187 0.095682
270.38 7675.1 undefined 853.31 989.00 2.6822 390.00 0.0025641 853.31 989.00 2.6822 2.6170 3.1912 702.27 -0.0012127 57.209 0.095839 390.00 0.0025641 853.31 989.00 2.6822 2.6170 3.1912 702.27 -0.0012127 57.209 0.095839
271.38 7712.1 undefined 855.93 992.27 2.6870 390.00 0.0025641 855.93 992.27 2.6870 2.6205 3.1932 703.41 -0.0012329 57.232 0.095995 390.00 0.0025641 855.93 992.27 2.6870 2.6205 3.1932 703.41 -0.0012329 57.232 0.095995
272.38 7749.0 undefined 858.55 995.55 2.6918 390.00 0.0025641 858.55 995.55 2.6918 2.6241 3.1952 704.55 -0.0012529 57.254 0.096152 390.00 0.0025641 858.55 995.55 2.6918 2.6241 3.1952 704.55 -0.0012529 57.254 0.096152
273.38 7786.0 undefined 861.18 998.82 2.6966 390.00 0.0025641 861.18 998.82 2.6966 2.6276 3.1972 705.68 -0.0012726 57.277 0.096309 390.00 0.0025641 861.18 998.82 2.6966 2.6276 3.1972 705.68 -0.0012726 57.277 0.096309
274.38 7822.9 undefined 863.81 1002.1 2.7014 390.00 0.0025641 863.81 1002.1 2.7014 2.6311 3.1992 706.81 -0.0012922 57.299 0.096467 390.00 0.0025641 863.81 1002.1 2.7014 2.6311 3.1992 706.81 -0.0012922 57.299 0.096467
275.38 7859.8 undefined 866.44 1005.4 2.7063 390.00 0.0025641 866.44 1005.4 2.7063 2.6346 3.2012 707.94 -0.0013116 57.321 0.096625 390.00 0.0025641 866.44 1005.4 2.7063 2.6346 3.2012 707.94 -0.0013116 57.321 0.096625
276.38 7896.8 undefined 869.08 1008.7 2.7111 390.00 0.0025641 869.08 1008.7 2.7111 2.6381 3.2032 709.06 -0.0013308 57.343 0.096783 390.00 0.0025641 869.08 1008.7 2.7111 2.6381 3.2032 709.06 -0.0013308 57.343 0.096783
277.38 7933.7 undefined 871.72 1012.0 2.7159 390.00 0.0025641 871.72 1012.0 2.7159 2.6416 3.2052 710.18 -0.0013498 57.366 0.096941 390.00 0.0025641 871.72 1012.0 2.7159 2.6416 3.2052 710.18 -0.0013498 57.366 0.096941
278.38 7970.6 undefined 874.36 1015.3 2.7207 390.00 0.0025641 874.36 1015.3 2.7207 2.6450 3.2073 711.30 -0.0013687 57.388 0.097100 390.00 0.0025641 874.36 1015.3 2.7207 2.6450 3.2073 711.30 -0.0013687 57.388 0.097100
279.38 8007.4 undefined 877.01 1018.6 2.7254 390.00 0.0025641 877.01 1018.6 2.7254 2.6485 3.2093 712.42 -0.0013873 57.410 0.097259 390.00 0.0025641 877.01 1018.6 2.7254 2.6485 3.2093 712.42 -0.0013873 57.410 0.097259
280.38 8044.3 undefined 879.66 1021.9 2.7302 390.00 0.0025641 879.66 1021.9 2.7302 2.6520 3.2114 713.54 -0.0014058 57.432 0.097418 390.00 0.0025641 879.66 1021.9 2.7302 2.6520 3.2114 713.54 -0.0014058 57.432 0.097418
281.38 8081.2 undefined 882.31 1025.2 2.7350 390.00 0.0025641 882.31 1025.2 2.7350 2.6555 3.2134 714.65 -0.0014241 57.455 0.097578 390.00 0.0025641 882.31 1025.2 2.7350 2.6555 3.2134 714.65 -0.0014241 57.455 0.097578
282.38 8118.0 undefined 884.97 1028.5 2.7398 390.00 0.0025641 884.97 1028.5 2.7398 2.6590 3.2155 715.76 -0.0014422 57.477 0.097276 390.00 0.0025641 884.97 1028.5 2.7398 2.6590 3.2155 715.76 -0.0014422 57.477 0.097276
283.38 8154.9 undefined 887.63 1031.8 2.7446 390.00 0.0025641 887.63 1031.8 2.7446 2.6624 3.2176 716.87 -0.0014601 57.499 0.097435 390.00 0.0025641 887.63 1031.8 2.7446 2.6624 3.2176 716.87 -0.0014601 57.499 0.097435
284.38 8191.7 undefined 890.29 1035.1 2.7494 390.00 0.0025641 890.29 1035.1 2.7494 2.6659 3.2196 717.97 -0.0014779 57.521 0.097595 390.00 0.0025641 890.29 1035.1 2.7494 2.6659 3.2196 717.97 -0.0014779 57.521 0.097595
285.38 8228.5 undefined 892.96 1038.4 2.7542 390.00 0.0025641 892.96 1038.4 2.7542 2.6693 3.2217 719.07 -0.0014955 57.543 0.097755 390.00 0.0025641 892.96 1038.4 2.7542 2.6693 3.2217 719.07 -0.0014955 57.543 0.097755
286.38 8265.4 undefined 895.63 1041.8 2.7589 390.00 0.0025641 895.63 1041.8 2.7589 2.6728 3.2238 720.17 -0.0015129 57.565 0.097915 390.00 0.0025641 895.63 1041.8 2.7589 2.6728 3.2238 720.17 -0.0015129 57.565 0.097915
287.38 8302.2 undefined 898.31 1045.1 2.7637 390.00 0.0025641 898.31 1045.1 2.7637 2.6763 3.2259 721.27 -0.0015302 57.587 0.098075 390.00 0.0025641 898.31 1045.1 2.7637 2.6763 3.2259 721.27 -0.0015302 57.587 0.098075
288.38 8339.0 undefined 900.98 1048.4 2.7685 390.00 0.0025641 900.98 1048.4 2.7685 2.6797 3.2280 722.37 -0.0015473 57.610 0.098236 390.00 0.0025641 900.98 1048.4 2.7685 2.6797 3.2280 722.37 -0.0015473 57.610 0.098236
289.38 8375.7 undefined 903.66 1051.7 2.7733 390.00 0.0025641 903.66 1051.7 2.7733 2.6832 3.2301 723.46 -0.0015642 57.632 0.098397 390.00 0.0025641 903.66 1051.7 2.7733 2.6832 3.2301 723.46 -0.0015642 57.632 0.098397
290.38 8412.5 undefined 906.35 1055.1 2.7780 390.00 0.0025641 906.35 1055.1 2.7780 2.6866 3.2322 724.55 -0.0015810 57.654 0.098558 390.00 0.0025641 906.35 1055.1 2.7780 2.6866 3.2322 724.55 -0.0015810 57.654 0.098558
291.38 8449.3 undefined 909.04 1058.4 2.7828 390.00 0.0025641 909.04 1058.4 2.7828 2.6900 3.2343 725.64 -0.0015976 57.676 0.098719 390.00 0.0025641 909.04 1058.4 2.7828 2.6900 3.2343 725.64 -0.0015976 57.676 0.098719
292.38 8486.0 undefined 911.73 1061.8 2.7876 390.00 0.0025641 911.73 1061.8 2.7876 2.6935 3.2364 726.73 -0.0016141 57.698 0.098881 390.00 0.0025641 911.73 1061.8 2.7876 2.6935 3.2364 726.73 -0.0016141 57.698 0.098881
293.38 8522.8 undefined 914.42 1065.1 2.7923 390.00 0.0025641 914.42 1065.1 2.7923 2.6969 3.2386 727.81 -0.0016304 57.720 0.099043 390.00 0.0025641 914.42 1065.1 2.7923 2.6969 3.2386 727.81 -0.0016304 57.720 0.099043
294.38 8559.5 undefined 917.12 1068.4 2.7971 390.00 0.0025641 917.12 1068.4 2.7971 2.7003 3.2407 728.89 -0.0016465 57.742 0.099206 390.00 0.0025641 917.12 1068.4 2.7971 2.7003 3.2407 728.89 -0.0016465 57.742 0.099206
295.38 8596.2 undefined 919.83 1071.8 2.8018 390.00 0.0025641 919.83 1071.8 2.8018 2.7037 3.2428 729.97 -0.0016625 57.764 0.099368 390.00 0.0025641 919.83 1071.8 2.8018 2.7037 3.2428 729.97 -0.0016625 57.764 0.099368
296.38 8632.9 undefined 922.53 1075.2 2.8066 390.00 0.0025641 922.53 1075.2 2.8066 2.7071 3.2450 731.05 -0.0016784 57.786 0.099531 390.00 0.0025641 922.53 1075.2 2.8066 2.7071 3.2450 731.05 -0.0016784 57.786 0.099531
297.38 8669.6 undefined 925.24 1078.5 2.8113 390.00 0.0025641 925.24 1078.5 2.8113 2.7106 3.2471 732.12 -0.0016941 57.808 0.099695 390.00 0.0025641 925.24 1078.5 2.8113 2.7106 3.2471 732.12 -0.0016941 57.808 0.099695
298.38 8706.3 undefined 927.95 1081.9 2.8161 390.00 0.0025641 927.95 1081.9 2.8161 2.7140 3.2492 733.19 -0.0017097 57.830 0.099858 390.00 0.0025641 927.95 1081.9 2.8161 2.7140 3.2492 733.19 -0.0017097 57.830 0.099858
299.38 8743.0 undefined 930.67 1085.2 2.8208 390.00 0.0025641 930.67 1085.2 2.8208 2.7174 3.2514 734.26 -0.0017251 57.852 0.10002 390.00 0.0025641 930.67 1085.2 2.8208 2.7174 3.2514 734.26 -0.0017251 57.852 0.10002
300.38 8779.6 undefined 933.39 1088.6 2.8256 390.00 0.0025641 933.39 1088.6 2.8256 2.7208 3.2536 735.33 -0.0017403 57.873 0.10019 390.00 0.0025641 933.39 1088.6 2.8256 2.7208 3.2536 735.33 -0.0017403 57.873 0.10019