Temperature (C) Pressure (psia) Quality (l+v) Internal Energy (l+v, kJ/kg) Enthalpy (l+v, kJ/kg) Entropy (l+v, J/g*K) Density (l, kg/m3) Volume (l, m3/kg) Internal Energy (l, kJ/kg) Enthalpy (l, kJ/kg) Entropy (l, J/g*K) Cv (l, J/g*K) Cp (l, J/g*K) Sound Spd. (l, m/s) Joule-Thomson (l, F/psia) Viscosity (l, uPa*s) Therm. Cond. (l, W/m*K) Density (v, kg/m3) Volume (v, m3/kg) Internal Energy (v, kJ/kg) Enthalpy (v, kJ/kg) Entropy (v, J/g*K) Cv (v, J/g*K) Cp (v, J/g*K) Sound Spd. (v, m/s) Joule-Thomson (v, F/psia) Viscosity (v, uPa*s) Therm. Cond. (v, W/m*K)
-187.62 2.4953e-08 1.2457e-11 -196.64 -196.64 -1.3959 733.13 0.0013640 -196.64 -196.64 -1.3959 1.3553 1.9158 2136.4 -0.0077592 10960. 0.20792 1.0669e-08 9.3732e+07 350.13 366.26 5.1858 0.69067 0.87923 143.28 6.1051 2.3259 0.0017061
-186.62 3.7339e-08 1.8394e-11 -194.73 -194.73 -1.3736 732.08 0.0013660 -194.73 -194.73 -1.3736 1.3539 1.9166 2129.6 -0.0077546 10073. 0.20765 1.5780e-08 6.3371e+07 350.82 367.14 5.1200 0.69462 0.88317 144.03 5.9178 2.3534 0.0017533
-185.62 5.5322e-08 2.6897e-11 -192.81 -192.81 -1.3516 731.04 0.0013679 -192.81 -192.81 -1.3516 1.3525 1.9174 2122.9 -0.0077498 9276.1 0.20737 2.3112e-08 4.3267e+07 351.52 368.02 5.0561 0.69857 0.88713 144.77 5.7383 2.3808 0.0018007
-184.62 8.1182e-08 3.8958e-11 -190.89 -190.89 -1.3298 730.00 0.0013699 -190.89 -190.89 -1.3298 1.3513 1.9182 2116.1 -0.0077448 8557.8 0.20708 3.3533e-08 2.9821e+07 352.22 368.91 4.9939 0.70253 0.89108 145.51 5.5662 2.4083 0.0018485
-183.62 1.1803e-07 5.5916e-11 -188.97 -188.97 -1.3083 728.96 0.0013718 -188.97 -188.97 -1.3083 1.3501 1.9191 2109.3 -0.0077395 7909.8 0.20678 4.8211e-08 2.0742e+07 352.92 369.81 4.9333 0.70648 0.89504 146.24 5.4011 2.4357 0.0018965
-182.62 1.7009e-07 7.9550e-11 -187.05 -187.05 -1.2869 727.92 0.0013738 -187.05 -187.05 -1.2869 1.3490 1.9201 2102.5 -0.0077340 7324.3 0.20647 6.8704e-08 1.4555e+07 353.63 370.70 4.8744 0.71043 0.89899 146.97 5.2426 2.4632 0.0019448
-181.62 2.4299e-07 1.1221e-10 -185.13 -185.13 -1.2658 726.88 0.0013757 -185.13 -185.13 -1.2658 1.3480 1.9210 2095.7 -0.0077283 6794.5 0.20616 9.7079e-08 1.0301e+07 354.35 371.60 4.8170 0.71438 0.90294 147.69 5.0904 2.4906 0.0019934
-180.62 3.4425e-07 1.5699e-10 -183.21 -183.21 -1.2450 725.85 0.0013777 -183.21 -183.21 -1.2450 1.3470 1.9220 2088.9 -0.0077225 6314.4 0.20584 1.3605e-07 7.3504e+06 355.06 372.51 4.7612 0.71833 0.90688 148.41 4.9442 2.5181 0.0020423
-179.62 4.8378e-07 2.1790e-10 -181.29 -181.29 -1.2243 724.81 0.0013797 -181.29 -181.29 -1.2243 1.3461 1.9231 2082.0 -0.0077164 5878.8 0.20551 1.8915e-07 5.2868e+06 355.78 373.42 4.7068 0.72227 0.91082 149.13 4.8038 2.5456 0.0020915
-178.62 6.7459e-07 3.0011e-10 -179.37 -179.37 -1.2038 723.78 0.0013816 -179.37 -179.37 -1.2038 1.3453 1.9241 2075.2 -0.0077102 5482.9 0.20517 2.6096e-07 3.8320e+06 356.51 374.33 4.6538 0.72620 0.91475 149.84 4.6688 2.5731 0.0021410
-177.62 9.3358e-07 4.1027e-10 -177.44 -177.44 -1.1836 722.75 0.0013836 -177.44 -177.44 -1.1836 1.3445 1.9252 2068.4 -0.0077039 5122.6 0.20483 3.5737e-07 2.7982e+06 357.23 375.25 4.6022 0.73012 0.91867 150.54 4.5390 2.6005 0.0021907
-176.62 1.2826e-06 5.5685e-10 -175.52 -175.52 -1.1635 721.72 0.0013856 -175.52 -175.52 -1.1635 1.3437 1.9263 2061.5 -0.0076973 4794.1 0.20447 4.8588e-07 2.0581e+06 357.97 376.17 4.5519 0.73403 0.92258 151.25 4.4142 2.6280 0.0022408
-175.62 1.7496e-06 7.5054e-10 -173.59 -173.59 -1.1437 720.69 0.0013876 -173.59 -173.59 -1.1437 1.3430 1.9274 2054.7 -0.0076907 4494.3 0.20411 6.5601e-07 1.5244e+06 358.70 377.09 4.5029 0.73792 0.92648 151.95 4.2941 2.6555 0.0022912
-174.62 2.3705e-06 1.0048e-09 -171.66 -171.66 -1.1240 719.66 0.0013895 -171.66 -171.66 -1.1240 1.3423 1.9286 2047.9 -0.0076838 4220.2 0.20375 8.7976e-07 1.1367e+06 359.44 378.02 4.4551 0.74181 0.93036 152.64 4.1784 2.6830 0.0023418
-173.62 3.1903e-06 1.3364e-09 -169.73 -169.73 -1.1045 718.64 0.0013915 -169.73 -169.73 -1.1045 1.3417 1.9298 2041.0 -0.0076769 3969.3 0.20338 1.1721e-06 8.5314e+05 360.19 378.95 4.4085 0.74568 0.93423 153.33 4.0671 2.7105 0.0023928
-172.62 4.2661e-06 1.7662e-09 -167.80 -167.80 -1.0852 717.61 0.0013935 -167.80 -167.80 -1.0852 1.3411 1.9310 2034.2 -0.0076698 3739.3 0.20300 1.5518e-06 6.4441e+05 360.93 379.89 4.3631 0.74953 0.93809 154.02 3.9599 2.7379 0.0024440
-171.62 5.6692e-06 2.3199e-09 -165.87 -165.87 -1.0661 716.58 0.0013955 -165.87 -165.87 -1.0661 1.3405 1.9322 2027.3 -0.0076625 3528.0 0.20261 2.0419e-06 4.8974e+05 361.69 380.83 4.3188 0.75337 0.94193 154.71 3.8566 2.7654 0.0024955
-170.62 7.4884e-06 3.0291e-09 -163.94 -163.94 -1.0472 715.56 0.0013975 -163.94 -163.94 -1.0472 1.3400 1.9334 2020.5 -0.0076552 3333.8 0.20222 2.6708e-06 3.7442e+05 362.44 381.77 4.2755 0.75720 0.94575 155.39 3.7570 2.7929 0.0025473
-169.62 9.8334e-06 3.9322e-09 -162.00 -162.00 -1.0284 714.54 0.0013995 -162.00 -162.00 -1.0284 1.3395 1.9347 2013.6 -0.0076477 3154.9 0.20182 3.4733e-06 2.8791e+05 363.20 382.72 4.2334 0.76100 0.94956 156.07 3.6609 2.8204 0.0025994
-168.62 1.2839e-05 5.0762e-09 -160.07 -160.07 -1.0098 713.52 0.0014015 -160.07 -160.07 -1.0098 1.3390 1.9359 2006.8 -0.0076401 2989.9 0.20141 4.4917e-06 2.2263e+05 363.96 383.67 4.1922 0.76479 0.95335 156.74 3.5683 2.8479 0.0026518
-167.62 1.6672e-05 6.5173e-09 -158.13 -158.13 -0.99134 712.49 0.0014035 -158.13 -158.13 -0.99134 1.3386 1.9372 2000.0 -0.0076323 2837.5 0.20100 5.7771e-06 1.7310e+05 364.73 384.63 4.1521 0.76856 0.95712 157.41 3.4790 2.8754 0.0027045
-166.62 2.1533e-05 8.3236e-09 -156.19 -156.19 -0.97306 711.47 0.0014055 -156.19 -156.19 -0.97306 1.3382 1.9385 1993.1 -0.0076245 2696.5 0.20058 7.3914e-06 1.3529e+05 365.50 385.59 4.1129 0.77232 0.96087 158.08 3.3927 2.9029 0.0027575
-165.62 2.7666e-05 1.0576e-08 -154.25 -154.25 -0.95494 710.45 0.0014075 -154.25 -154.25 -0.95494 1.3378 1.9398 1986.3 -0.0076165 2566.0 0.20016 9.4084e-06 1.0629e+05 366.27 386.55 4.0746 0.77605 0.96460 158.75 3.3095 2.9304 0.0028108
-164.62 3.5367e-05 1.3371e-08 -152.31 -152.31 -0.93698 709.44 0.0014096 -152.31 -152.31 -0.93698 1.3375 1.9411 1979.4 -0.0076084 2444.9 0.19973 1.1916e-05 83918. 367.05 387.52 4.0372 0.77976 0.96832 159.41 3.2291 2.9579 0.0028643
-163.62 4.4989e-05 1.6823e-08 -150.37 -150.37 -0.91917 708.42 0.0014116 -150.37 -150.37 -0.91917 1.3371 1.9424 1972.6 -0.0076002 2332.3 0.19930 1.5020e-05 66577. 367.83 388.49 4.0008 0.78346 0.97201 160.07 3.1514 2.9854 0.0029182
-162.62 5.6956e-05 2.1067e-08 -148.43 -148.43 -0.90151 707.40 0.0014136 -148.43 -148.43 -0.90151 1.3368 1.9437 1965.8 -0.0075919 2227.7 0.19886 1.8844e-05 53068. 368.62 389.46 3.9651 0.78713 0.97569 160.72 3.0764 3.0129 0.0029723
-161.62 7.1773e-05 2.6262e-08 -146.48 -146.48 -0.88400 706.38 0.0014157 -146.48 -146.48 -0.88400 1.3365 1.9451 1959.0 -0.0075834 2130.2 0.19841 2.3533e-05 42494. 369.41 390.44 3.9304 0.79079 0.97935 161.38 3.0038 3.0404 0.0030268
-160.62 9.0036e-05 3.2592e-08 -144.54 -144.54 -0.86663 705.37 0.0014177 -144.54 -144.54 -0.86663 1.3363 1.9465 1952.1 -0.0075748 2039.2 0.19796 2.9258e-05 34178. 370.20 391.42 3.8964 0.79443 0.98298 162.03 2.9337 3.0679 0.0030815
-159.62 0.00011245 4.0274e-08 -142.59 -142.59 -0.84940 704.35 0.0014197 -142.59 -142.59 -0.84940 1.3360 1.9478 1945.3 -0.0075661 1954.2 0.19751 3.6221e-05 27609. 371.00 392.40 3.8632 0.79805 0.98660 162.68 2.8658 3.0955 0.0031365
-158.62 0.00013985 4.9557e-08 -140.64 -140.64 -0.83231 703.34 0.0014218 -140.64 -140.64 -0.83231 1.3358 1.9492 1938.5 -0.0075573 1874.8 0.19705 4.4652e-05 22395. 371.80 393.39 3.8307 0.80164 0.99020 163.32 2.8002 3.1230 0.0031918
-157.62 0.00017320 6.0731e-08 -138.69 -138.69 -0.81536 702.32 0.0014238 -138.69 -138.69 -0.81536 1.3356 1.9506 1931.7 -0.0075484 1800.3 0.19658 5.4822e-05 18241. 372.60 394.38 3.7990 0.80522 0.99378 163.96 2.7367 3.1505 0.0032474
-156.62 0.00021364 7.4130e-08 -136.74 -136.74 -0.79854 701.31 0.0014259 -136.74 -136.74 -0.79854 1.3354 1.9520 1924.9 -0.0075393 1730.5 0.19611 6.7040e-05 14916. 373.41 395.38 3.7680 0.80878 0.99734 164.60 2.6752 3.1780 0.0033033
-155.62 0.00026248 9.0134e-08 -134.79 -134.79 -0.78185 700.30 0.0014280 -134.79 -134.79 -0.78185 1.3352 1.9534 1918.1 -0.0075302 1664.9 0.19564 8.1666e-05 12245. 374.22 396.38 3.7377 0.81232 1.0009 165.24 2.6157 3.2055 0.0033595
-154.62 0.00032125 1.0918e-07 -132.83 -132.83 -0.76530 699.29 0.0014300 -132.83 -132.83 -0.76530 1.3350 1.9548 1911.3 -0.0075209 1603.3 0.19516 9.9109e-05 10090. 375.03 397.38 3.7081 0.81585 1.0044 165.87 2.5580 3.2330 0.0034160
-153.62 0.00039171 1.3177e-07 -130.88 -130.88 -0.74887 698.27 0.0014321 -130.88 -130.88 -0.74887 1.3349 1.9563 1904.5 -0.0075114 1545.3 0.19468 0.00011984 8344.6 375.85 398.39 3.6792 0.81935 1.0079 166.50 2.5022 3.2606 0.0034727
-152.62 0.00047590 1.5846e-07 -128.92 -128.92 -0.73256 697.26 0.0014342 -128.92 -128.92 -0.73256 1.3348 1.9577 1897.8 -0.0075019 1490.6 0.19419 0.00014439 6925.9 376.67 399.40 3.6509 0.82284 1.0114 167.13 2.4481 3.2881 0.0035298
-151.62 0.00057613 1.8989e-07 -126.96 -126.96 -0.71638 696.25 0.0014363 -126.96 -126.96 -0.71638 1.3346 1.9592 1891.0 -0.0074922 1438.9 0.19370 0.00017336 5768.4 377.49 400.41 3.6232 0.82631 1.0149 167.76 2.3957 3.3156 0.0035872
-150.62 0.00069507 2.2679e-07 -125.00 -125.00 -0.70032 695.24 0.0014384 -125.00 -125.00 -0.70032 1.3345 1.9606 1884.2 -0.0074824 1390.2 0.19320 0.00020744 4820.7 378.32 401.42 3.5962 0.82976 1.0183 168.38 2.3448 3.3431 0.0036448
-149.62 0.00083574 2.6996e-07 -123.04 -123.04 -0.68437 694.23 0.0014404 -123.04 -123.04 -0.68438 1.3345 1.9621 1877.4 -0.0074724 1344.0 0.19270 0.00024740 4042.0 379.15 402.44 3.5697 0.83319 1.0218 169.00 2.2956 3.3706 0.0037027
-148.62 0.0010016 3.2032e-07 -121.08 -121.08 -0.66855 693.22 0.0014425 -121.08 -121.08 -0.66855 1.3344 1.9636 1870.7 -0.0074623 1300.3 0.19220 0.00029412 3400.0 379.99 403.47 3.5438 0.83661 1.0252 169.62 2.2478 3.3982 0.0037610
-147.62 0.0011965 3.7888e-07 -119.11 -119.11 -0.65284 692.21 0.0014447 -119.11 -119.11 -0.65284 1.3343 1.9651 1863.9 -0.0074521 1258.9 0.19169 0.00034856 2869.0 380.83 404.49 3.5185 0.84001 1.0286 170.24 2.2014 3.4257 0.0038195
-146.62 0.0014249 4.4677e-07 -117.15 -117.15 -0.63724 691.20 0.0014468 -117.15 -117.15 -0.63724 1.3343 1.9666 1857.2 -0.0074417 1219.6 0.19117 0.00041181 2428.3 381.67 405.52 3.4938 0.84340 1.0320 170.85 2.1565 3.4532 0.0038783
-145.62 0.0016917 5.2525e-07 -115.18 -115.18 -0.62175 690.19 0.0014489 -115.18 -115.18 -0.62175 1.3343 1.9682 1850.4 -0.0074312 1182.3 0.19066 0.00048510 2061.4 382.51 406.56 3.4695 0.84677 1.0353 171.46 2.1128 3.4807 0.0039374
-144.62 0.0020026 6.1571e-07 -113.21 -113.21 -0.60637 689.18 0.0014510 -113.21 -113.21 -0.60637 1.3343 1.9697 1843.7 -0.0074206 1146.8 0.19014 0.00056976 1755.1 383.36 407.59 3.4458 0.85012 1.0387 172.07 2.0705 3.5082 0.0039967
-143.62 0.0023637 7.1970e-07 -111.24 -111.24 -0.59110 688.17 0.0014531 -111.24 -111.24 -0.59110 1.3343 1.9713 1836.9 -0.0074098 1113.0 0.18962 0.00066731 1498.6 384.21 408.63 3.4226 0.85346 1.0420 172.68 2.0294 3.5358 0.0040564
-142.62 0.0027820 8.3892e-07 -109.27 -109.27 -0.57593 687.16 0.0014553 -109.27 -109.27 -0.57593 1.3343 1.9728 1830.2 -0.0073988 1080.8 0.18909 0.00077939 1283.1 385.07 409.68 3.3999 0.85679 1.0454 173.28 1.9896 3.5633 0.0041164
-141.62 0.0032653 9.7523e-07 -107.30 -107.30 -0.56086 686.15 0.0014574 -107.30 -107.30 -0.56087 1.3343 1.9744 1823.5 -0.0073878 1050.1 0.18856 0.00090784 1101.5 385.93 410.72 3.3777 0.86011 1.0487 173.88 1.9508 3.5908 0.0041766
-140.62 0.0038222 1.1307e-06 -105.32 -105.32 -0.54590 685.14 0.0014596 -105.32 -105.32 -0.54591 1.3344 1.9760 1816.7 -0.0073765 1020.7 0.18803 0.0010547 948.16 386.79 411.77 3.3560 0.86341 1.0520 174.48 1.9133 3.6183 0.0042372
-139.62 0.0044623 1.3076e-06 -103.34 -103.34 -0.53104 684.13 0.0014617 -103.34 -103.34 -0.53105 1.3344 1.9776 1810.0 -0.0073651 992.74 0.18749 0.0012221 818.26 387.65 412.83 3.3347 0.86670 1.0553 175.08 1.8768 3.6459 0.0042980
-138.62 0.0051963 1.5083e-06 -101.37 -101.37 -0.51628 683.12 0.0014639 -101.37 -101.37 -0.51629 1.3345 1.9792 1803.3 -0.0073536 965.97 0.18695 0.0014125 707.94 388.52 413.88 3.3139 0.86998 1.0586 175.67 1.8413 3.6734 0.0043592
-137.62 0.0060358 1.7355e-06 -99.385 -99.385 -0.50162 682.11 0.0014660 -99.386 -99.386 -0.50162 1.3346 1.9808 1796.6 -0.0073419 940.35 0.18641 0.0016287 614.00 389.39 414.94 3.2935 0.87325 1.0619 176.26 1.8069 3.7009 0.0044206
-136.62 0.0069938 1.9922e-06 -97.403 -97.403 -0.48705 681.10 0.0014682 -97.404 -97.404 -0.48705 1.3347 1.9825 1789.9 -0.0073301 915.81 0.18586 0.0018733 533.80 390.26 416.00 3.2735 0.87650 1.0651 176.85 1.7734 3.7284 0.0044823
-135.62 0.0080843 2.2814e-06 -95.420 -95.420 -0.47257 680.09 0.0014704 -95.421 -95.421 -0.47258 1.3348 1.9841 1783.2 -0.0073180 892.30 0.18531 0.0021497 465.17 391.14 417.07 3.2540 0.87975 1.0684 177.44 1.7409 3.7559 0.0045443
-134.62 0.0093230 2.6066e-06 -93.435 -93.435 -0.45819 679.08 0.0014726 -93.436 -93.436 -0.45820 1.3350 1.9858 1776.5 -0.0073059 869.75 0.18476 0.0024613 406.30 392.02 418.14 3.2348 0.88299 1.0716 178.02 1.7093 3.7834 0.0046066
-133.62 0.010727 2.9715e-06 -91.448 -91.448 -0.44390 678.07 0.0014748 -91.450 -91.449 -0.44391 1.3351 1.9875 1769.8 -0.0072935 848.11 0.18421 0.0028116 355.67 392.91 419.21 3.2161 0.88622 1.0749 178.61 1.6786 3.8109 0.0046691
-132.62 0.012315 3.3801e-06 -89.460 -89.459 -0.42970 677.06 0.0014770 -89.461 -89.461 -0.42971 1.3353 1.9892 1763.1 -0.0072810 827.32 0.18365 0.0032049 312.03 393.79 420.29 3.1977 0.88944 1.0781 179.19 1.6488 3.8385 0.0047320
-131.62 0.014106 3.8365e-06 -87.469 -87.469 -0.41558 676.04 0.0014792 -87.471 -87.471 -0.41560 1.3354 1.9909 1756.4 -0.0072684 807.34 0.18309 0.0036453 274.33 394.68 421.36 3.1798 0.89266 1.0813 179.76 1.6197 3.8660 0.0047951
-130.62 0.016124 4.3454e-06 -85.477 -85.477 -0.40156 675.03 0.0014814 -85.479 -85.479 -0.40157 1.3356 1.9926 1749.7 -0.0072555 788.12 0.18253 0.0041375 241.69 395.58 422.44 3.1622 0.89586 1.0846 180.34 1.5915 3.8935 0.0048586
-129.62 0.018392 4.9117e-06 -83.484 -83.483 -0.38762 674.02 0.0014836 -83.486 -83.486 -0.38763 1.3358 1.9944 1743.0 -0.0072425 769.63 0.18196 0.0046867 213.37 396.47 423.53 3.1450 0.89906 1.0878 180.91 1.5641 3.9210 0.0049223
-128.62 0.020935 5.5407e-06 -81.488 -81.488 -0.37376 673.01 0.0014859 -81.491 -81.490 -0.37378 1.3360 1.9961 1736.3 -0.0072294 751.83 0.18140 0.0052981 188.75 397.37 424.62 3.1281 0.90226 1.0910 181.48 1.5374 3.9485 0.0049863
-127.62 0.023783 6.2379e-06 -79.491 -79.490 -0.35999 672.00 0.0014881 -79.494 -79.493 -0.36001 1.3363 1.9979 1729.6 -0.0072160 734.67 0.18083 0.0059776 167.29 398.27 425.71 3.1116 0.90545 1.0942 182.05 1.5114 3.9760 0.0050506
-126.62 0.026966 7.0094e-06 -77.492 -77.491 -0.34630 670.98 0.0014904 -77.495 -77.495 -0.34632 1.3365 1.9997 1722.9 -0.0072025 718.14 0.18025 0.0067313 148.56 399.18 426.80 3.0954 0.90863 1.0974 182.62 1.4861 4.0035 0.0051152
-125.62 0.030515 7.8614e-06 -75.491 -75.490 -0.33269 669.97 0.0014926 -75.494 -75.494 -0.33272 1.3368 2.0015 1716.2 -0.0071888 702.18 0.17968 0.0075660 132.17 400.09 427.89 3.0795 0.91181 1.1006 183.18 1.4615 4.0310 0.0051800
-124.62 0.034467 8.8008e-06 -73.488 -73.487 -0.31916 668.95 0.0014949 -73.492 -73.492 -0.31919 1.3371 2.0033 1709.5 -0.0071749 686.79 0.17910 0.0084885 117.81 401.00 428.99 3.0640 0.91499 1.1038 183.74 1.4375 4.0584 0.0052452
-123.62 0.038859 9.8346e-06 -71.483 -71.482 -0.30571 667.94 0.0014971 -71.488 -71.487 -0.30574 1.3374 2.0051 1702.8 -0.0071609 671.93 0.17852 0.0095065 105.19 401.91 430.10 3.0488 0.91816 1.1070 184.30 1.4141 4.0859 0.0053106
-122.62 0.043731 1.0971e-05 -69.476 -69.476 -0.29233 666.92 0.0014994 -69.482 -69.481 -0.29237 1.3377 2.0070 1696.2 -0.0071466 657.57 0.17794 0.010628 94.092 402.83 431.20 3.0339 0.92134 1.1102 184.86 1.3913 4.1134 0.0053764
-121.62 0.049128 1.2217e-05 -67.468 -67.467 -0.27903 665.91 0.0015017 -67.474 -67.473 -0.27907 1.3380 2.0089 1689.5 -0.0071322 643.70 0.17736 0.011861 84.309 403.75 432.31 3.0193 0.92451 1.1134 185.41 1.3691 4.1409 0.0054424
-120.62 0.055096 1.3581e-05 -65.458 -65.457 -0.26581 664.89 0.0015040 -65.464 -65.463 -0.26585 1.3384 2.0107 1682.8 -0.0071176 630.28 0.17678 0.013215 75.669 404.67 433.42 3.0050 0.92767 1.1166 185.96 1.3475 4.1683 0.0055087
-119.62 0.061684 1.5073e-05 -63.445 -63.444 -0.25266 663.87 0.0015063 -63.452 -63.452 -0.25271 1.3387 2.0126 1676.1 -0.0071028 617.30 0.17619 0.014700 68.027 405.60 434.53 2.9909 0.93084 1.1198 186.51 1.3264 4.1958 0.0055752
-118.62 0.068946 1.6701e-05 -61.431 -61.430 -0.23958 662.86 0.0015086 -61.439 -61.438 -0.23963 1.3391 2.0146 1669.4 -0.0070878 604.74 0.17560 0.016325 61.255 406.53 435.64 2.9772 0.93401 1.1231 187.06 1.3058 4.2233 0.0056421
-117.62 0.076937 1.8476e-05 -59.415 -59.413 -0.22657 661.84 0.0015109 -59.423 -59.422 -0.22663 1.3395 2.0165 1662.8 -0.0070726 592.58 0.17501 0.018101 55.245 407.46 436.76 2.9638 0.93718 1.1263 187.60 1.2857 4.2507 0.0057092
-116.62 0.085718 2.0408e-05 -57.396 -57.395 -0.21364 660.82 0.0015133 -57.406 -57.405 -0.21370 1.3400 2.0184 1656.1 -0.0070573 580.80 0.17442 0.020040 49.901 408.39 437.88 2.9506 0.94035 1.1295 188.14 1.2660 4.2782 0.0057767
-115.62 0.095353 2.2508e-05 -55.376 -55.374 -0.20077 659.80 0.0015156 -55.386 -55.385 -0.20084 1.3404 2.0204 1649.4 -0.0070417 569.38 0.17383 0.022152 45.142 409.33 439.01 2.9377 0.94352 1.1327 188.68 1.2468 4.3056 0.0058444
-114.62 0.10591 2.4787e-05 -53.353 -53.352 -0.18797 658.78 0.0015180 -53.365 -53.364 -0.18805 1.3409 2.0224 1642.7 -0.0070260 558.32 0.17323 0.024451 40.898 410.27 440.13 2.9250 0.94669 1.1360 189.22 1.2281 4.3330 0.0059123
-113.62 0.11746 2.7256e-05 -51.329 -51.327 -0.17524 657.76 0.0015203 -51.342 -51.340 -0.17533 1.3413 2.0244 1636.0 -0.0070100 547.59 0.17264 0.026949 37.107 411.21 441.26 2.9126 0.94987 1.1392 189.75 1.2097 4.3604 0.0059806
-112.62 0.13008 2.9928e-05 -49.302 -49.300 -0.16258 656.73 0.0015227 -49.316 -49.315 -0.16267 1.3418 2.0264 1629.3 -0.0069938 537.18 0.17204 0.029661 33.715 412.16 442.39 2.9005 0.95305 1.1424 190.28 1.1918 4.3879 0.0060491
-111.62 0.14384 3.2816e-05 -47.274 -47.271 -0.14998 655.71 0.0015251 -47.289 -47.287 -0.15008 1.3424 2.0285 1622.7 -0.0069774 527.08 0.17144 0.032600 30.675 413.10 443.53 2.8885 0.95623 1.1457 190.81 1.1742 4.4153 0.0061180
-110.62 0.15884 3.5933e-05 -45.243 -45.240 -0.13744 654.69 0.0015274 -45.259 -45.258 -0.13755 1.3429 2.0305 1616.0 -0.0069609 517.28 0.17084 0.035781 27.948 414.06 444.66 2.8769 0.95942 1.1490 191.34 1.1570 4.4427 0.0061871
-109.62 0.17516 3.9293e-05 -43.210 -43.207 -0.12497 653.66 0.0015298 -43.228 -43.226 -0.12509 1.3435 2.0326 1609.3 -0.0069441 507.76 0.17024 0.039220 25.497 415.01 445.80 2.8654 0.96261 1.1522 191.86 1.1402 4.4701 0.0062564
-108.62 0.19290 4.2910e-05 -41.174 -41.171 -0.11257 652.64 0.0015322 -41.194 -41.192 -0.11269 1.3441 2.0347 1602.6 -0.0069271 498.51 0.16964 0.042933 23.292 415.96 446.94 2.8542 0.96581 1.1555 192.38 1.1236 4.4974 0.0063261
-107.62 0.21215 4.6799e-05 -39.137 -39.133 -0.10022 651.61 0.0015347 -39.158 -39.156 -0.10036 1.3447 2.0369 1595.9 -0.0069098 489.52 0.16903 0.046937 21.305 416.92 448.09 2.8433 0.96901 1.1588 192.90 1.1075 4.5248 0.0063960
-106.62 0.23301 5.0975e-05 -37.097 -37.093 -0.087934 650.58 0.0015371 -37.120 -37.118 -0.088082 1.3453 2.0390 1589.2 -0.0068924 480.79 0.16843 0.051250 19.512 417.88 449.23 2.8325 0.97222 1.1621 193.41 1.0916 4.5522 0.0064662
-105.62 0.25561 5.5455e-05 -35.055 -35.051 -0.075708 649.55 0.0015395 -35.080 -35.078 -0.075868 1.3460 2.0412 1582.6 -0.0068747 472.30 0.16782 0.055891 17.892 418.85 450.38 2.8220 0.97544 1.1655 193.93 1.0760 4.5795 0.0065367
-104.62 0.28004 6.0255e-05 -33.011 -33.006 -0.063541 648.52 0.0015420 -33.038 -33.035 -0.063714 1.3467 2.0434 1575.9 -0.0068569 464.04 0.16721 0.060878 16.426 419.81 451.53 2.8116 0.97867 1.1688 194.44 1.0608 4.6069 0.0066074
-103.62 0.30643 6.5391e-05 -30.964 -30.959 -0.051432 647.49 0.0015444 -30.994 -30.991 -0.051619 1.3474 2.0456 1569.2 -0.0068387 456.00 0.16660 0.066231 15.099 420.78 452.68 2.8015 0.98191 1.1722 194.94 1.0458 4.6342 0.0066785
-102.62 0.33490 7.0882e-05 -28.915 -28.909 -0.039381 646.46 0.0015469 -28.947 -28.944 -0.039582 1.3481 2.0478 1562.5 -0.0068204 448.18 0.16600 0.071971 13.894 421.75 453.84 2.7916 0.98516 1.1755 195.44 1.0310 4.6615 0.0067498
-101.62 0.36558 7.6745e-05 -26.864 -26.857 -0.027386 645.43 0.0015494 -26.898 -26.894 -0.027602 1.3489 2.0501 1555.8 -0.0068018 440.57 0.16539 0.078120 12.801 422.73 454.99 2.7818 0.98841 1.1789 195.95 1.0166 4.6888 0.0068213
-100.62 0.39862 8.2998e-05 -24.810 -24.803 -0.015447 644.39 0.0015519 -24.847 -24.843 -0.015678 1.3497 2.0524 1549.1 -0.0067830 433.16 0.16478 0.084699 11.807 423.70 456.15 2.7723 0.99168 1.1823 196.44 1.0024 4.7161 0.0068932
-99.625 0.43414 8.9661e-05 -22.754 -22.746 -0.0035622 643.36 0.0015544 -22.794 -22.789 -0.0038103 1.3505 2.0547 1542.4 -0.0067639 425.95 0.16416 0.091731 10.901 424.68 457.31 2.7630 0.99496 1.1858 196.94 0.98838 4.7434 0.0069653
-98.625 0.47230 9.6753e-05 -20.695 -20.687 0.0082684 642.32 0.0015569 -20.738 -20.733 0.0080027 1.3514 2.0570 1535.7 -0.0067447 418.92 0.16355 0.099240 10.077 425.66 458.48 2.7538 0.99825 1.1892 197.43 0.97464 4.7707 0.0070377
-97.625 0.51325 0.00010429 -18.634 -18.625 0.020046 641.28 0.0015594 -18.680 -18.674 0.019762 1.3522 2.0594 1529.0 -0.0067251 412.07 0.16294 0.10725 9.3239 426.65 459.64 2.7448 1.0016 1.1927 197.92 0.96112 4.7979 0.0071103
-96.625 0.55714 0.00011230 -16.570 -16.560 0.031771 640.24 0.0015619 -16.620 -16.614 0.031467 1.3531 2.0618 1522.3 -0.0067053 405.39 0.16233 0.11579 8.6365 427.63 460.81 2.7360 1.0049 1.1962 198.40 0.94783 4.8251 0.0071832
-95.625 0.60416 0.00012080 -14.503 -14.493 0.043444 639.20 0.0015645 -14.557 -14.550 0.043120 1.3540 2.0642 1515.7 -0.0066853 398.88 0.16171 0.12488 8.0078 428.62 461.98 2.7274 1.0082 1.1997 198.88 0.93475 4.8524 0.0072564
-94.625 0.65446 0.00012982 -12.434 -12.423 0.055067 638.16 0.0015670 -12.491 -12.484 0.054721 1.3550 2.0667 1509.0 -0.0066650 392.53 0.16110 0.13455 7.4323 429.61 463.15 2.7189 1.0116 1.2032 199.36 0.92188 4.8796 0.0073299
-93.625 0.70822 0.00013936 -10.362 -10.350 0.066640 637.12 0.0015696 -10.424 -10.416 0.066271 1.3560 2.0691 1502.3 -0.0066444 386.34 0.16048 0.14482 6.9050 430.60 464.32 2.7107 1.0149 1.2068 199.83 0.90921 4.9068 0.0074036
-92.625 0.76564 0.00014946 -8.2878 -8.2744 0.078163 636.07 0.0015722 -8.3535 -8.3452 0.077771 1.3570 2.0716 1495.6 -0.0066236 380.31 0.15987 0.15573 6.4212 431.60 465.49 2.7025 1.0183 1.2104 200.30 0.89673 4.9340 0.0074776
-91.625 0.82689 0.00016014 -6.2106 -6.1961 0.089638 635.02 0.0015747 -6.2808 -6.2719 0.089220 1.3580 2.0742 1488.9 -0.0066025 374.41 0.15925 0.16731 5.9769 432.59 466.67 2.6946 1.0217 1.2140 200.77 0.88445 4.9611 0.0075518
-90.625 0.89218 0.00017142 -4.1306 -4.1150 0.10106 633.98 0.0015773 -4.2056 -4.1959 0.10062 1.3591 2.0767 1482.2 -0.0065811 368.66 0.15864 0.17958 5.5685 433.59 467.84 2.6868 1.0251 1.2177 201.24 0.87236 4.9883 0.0076263
-89.625 0.96172 0.00018333 -2.0478 -2.0310 0.11244 632.93 0.0015800 -2.1279 -2.1174 0.11197 1.3602 2.0793 1475.5 -0.0065595 363.05 0.15802 0.19258 5.1928 434.59 469.02 2.6791 1.0285 1.2213 201.70 0.86045 5.0154 0.0077011
-88.625 1.0357 0.00019588 0.037818 0.055896 0.12378 631.88 0.0015826 -0.047516 -0.036215 0.12328 1.3613 2.0819 1468.8 -0.0065375 357.56 0.15740 0.20633 4.8466 435.59 470.20 2.6717 1.0320 1.2250 202.15 0.84873 5.0425 0.0077761
-87.625 1.1144 0.00020911 2.1263 2.1458 0.13507 630.83 0.0015852 2.0355 2.0476 0.13454 1.3625 2.0846 1462.1 -0.0065153 352.21 0.15679 0.22087 4.5276 436.60 471.39 2.6643 1.0354 1.2288 202.61 0.83718 5.0696 0.0078514
-86.625 1.1979 0.00022303 4.2177 4.2387 0.14631 629.77 0.0015879 4.1211 4.1342 0.14575 1.3637 2.0873 1455.4 -0.0064928 346.98 0.15617 0.23623 4.2331 437.61 472.57 2.6571 1.0389 1.2325 203.06 0.82580 5.0967 0.0079270
-85.625 1.2866 0.00023768 6.3121 6.3346 0.15751 628.72 0.0015905 6.2094 6.2235 0.15691 1.3649 2.0900 1448.8 -0.0064701 341.87 0.15555 0.25245 3.9612 438.61 473.75 2.6501 1.0424 1.2363 203.50 0.81460 5.1237 0.0080028
-84.625 1.3806 0.00025307 8.4095 8.4336 0.16866 627.66 0.0015932 8.3004 8.3155 0.16803 1.3661 2.0927 1442.1 -0.0064470 336.87 0.15494 0.26956 3.7097 439.63 474.94 2.6432 1.0460 1.2402 203.95 0.80356 5.1508 0.0080789
-83.625 1.4803 0.00026924 10.510 10.536 0.17977 626.60 0.0015959 10.394 10.410 0.17911 1.3674 2.0955 1435.4 -0.0064236 331.99 0.15432 0.28760 3.4771 440.64 476.13 2.6364 1.0495 1.2440 204.38 0.79269 5.1778 0.0081553
-82.625 1.5858 0.00028620 12.613 12.641 0.19084 625.54 0.0015986 12.491 12.508 0.19014 1.3687 2.0983 1428.7 -0.0063999 327.22 0.15370 0.30659 3.2616 441.65 477.31 2.6298 1.0531 1.2479 204.82 0.78199 5.2048 0.0082319
-81.625 1.6975 0.00030400 14.720 14.750 0.20187 624.48 0.0016013 14.590 14.609 0.20113 1.3700 2.1012 1422.0 -0.0063759 322.55 0.15309 0.32659 3.0619 442.67 478.50 2.6233 1.0567 1.2519 205.25 0.77144 5.2318 0.0083088
-80.625 1.8155 0.00032264 16.830 16.862 0.21286 623.42 0.0016041 16.692 16.712 0.21208 1.3714 2.1041 1415.4 -0.0063516 317.99 0.15247 0.34763 2.8766 443.69 479.70 2.6169 1.0603 1.2558 205.67 0.76106 5.2587 0.0083860
-79.625 1.9402 0.00034215 18.943 18.977 0.22380 622.36 0.0016068 18.797 18.819 0.22299 1.3728 2.1070 1408.7 -0.0063270 313.52 0.15186 0.36974 2.7046 444.71 480.89 2.6106 1.0639 1.2598 206.10 0.75083 5.2857 0.0084634
-78.625 2.0718 0.00036258 21.059 21.095 0.23471 621.29 0.0016096 20.905 20.928 0.23385 1.3742 2.1099 1402.0 -0.0063021 309.15 0.15124 0.39296 2.5448 445.73 482.08 2.6045 1.0676 1.2639 206.51 0.74076 5.3126 0.0085411
-77.625 2.2107 0.00038393 23.179 23.217 0.24558 620.22 0.0016123 23.016 23.040 0.24468 1.3757 2.1129 1395.3 -0.0062768 304.88 0.15062 0.41735 2.3961 446.75 483.27 2.5985 1.0712 1.2680 206.93 0.73084 5.3395 0.0086190
-76.625 2.3571 0.00040624 25.301 25.343 0.25641 619.15 0.0016151 25.130 25.156 0.25546 1.3772 2.1159 1388.7 -0.0062512 300.69 0.15001 0.44292 2.2577 447.78 484.47 2.5926 1.0749 1.2721 207.34 0.72107 5.3664 0.0086972
-75.625 2.5113 0.00042954 27.428 27.471 0.26720 618.08 0.0016179 27.247 27.275 0.26620 1.3787 2.1190 1382.0 -0.0062253 296.59 0.14939 0.46974 2.1288 448.81 485.67 2.5869 1.0787 1.2762 207.74 0.71146 5.3933 0.0087757
-74.625 2.6736 0.00045385 29.557 29.604 0.27795 617.01 0.0016207 29.366 29.396 0.27691 1.3802 2.1221 1375.4 -0.0061990 292.58 0.14878 0.49783 2.0087 449.83 486.86 2.5812 1.0824 1.2804 208.14 0.70200 5.4201 0.0088544
-73.625 2.8444 0.00047920 31.690 31.740 0.28867 615.93 0.0016236 31.489 31.521 0.28758 1.3818 2.1252 1368.7 -0.0061724 288.65 0.14816 0.52725 1.8966 450.86 488.06 2.5757 1.0862 1.2847 208.54 0.69268 5.4469 0.0089334
-72.625 3.0240 0.00050562 33.827 33.880 0.29935 614.85 0.0016264 33.615 33.649 0.29821 1.3834 2.1284 1362.0 -0.0061454 284.81 0.14755 0.55804 1.7920 451.90 489.26 2.5703 1.0900 1.2889 208.93 0.68351 5.4737 0.0090126
-71.625 3.2127 0.00053314 35.967 36.023 0.31000 613.78 0.0016293 35.745 35.781 0.30880 1.3851 2.1316 1355.4 -0.0061181 281.03 0.14694 0.59024 1.6942 452.93 490.46 2.5650 1.0938 1.2932 209.32 0.67448 5.5005 0.0090922
-70.625 3.4108 0.00056178 38.111 38.170 0.32061 612.69 0.0016321 37.877 37.915 0.31935 1.3867 2.1349 1348.7 -0.0060904 277.34 0.14632 0.62390 1.6028 453.96 491.66 2.5598 1.0976 1.2976 209.70 0.66560 5.5273 0.0091720
-69.625 3.6187 0.00059156 40.258 40.321 0.33119 611.61 0.0016350 40.013 40.053 0.32987 1.3884 2.1382 1342.1 -0.0060624 273.72 0.14571 0.65906 1.5173 455.00 492.86 2.5547 1.1015 1.3020 210.08 0.65687 5.5540 0.0092520
-68.625 3.8367 0.00062253 42.409 42.476 0.34173 610.53 0.0016379 42.152 42.195 0.34036 1.3902 2.1415 1335.5 -0.0060339 270.17 0.14510 0.69577 1.4372 456.04 494.06 2.5497 1.1054 1.3064 210.45 0.64827 5.5807 0.0093324
-67.625 4.0652 0.00065471 44.564 44.635 0.35224 609.44 0.0016409 44.294 44.340 0.35080 1.3919 2.1449 1328.8 -0.0060051 266.69 0.14449 0.73408 1.3622 457.08 495.26 2.5448 1.1093 1.3109 210.82 0.63981 5.6074 0.0094130
-66.625 4.3046 0.00068811 46.722 46.798 0.36272 608.35 0.0016438 46.439 46.488 0.36122 1.3937 2.1483 1322.2 -0.0059760 263.28 0.14388 0.77404 1.2919 458.12 496.46 2.5400 1.1133 1.3154 211.18 0.63150 5.6341 0.0094939
-65.625 4.5551 0.00072278 48.885 48.964 0.37316 607.26 0.0016467 48.588 48.640 0.37160 1.3955 2.1518 1315.6 -0.0059464 259.93 0.14327 0.81570 1.2259 459.16 497.67 2.5353 1.1172 1.3200 211.54 0.62332 5.6608 0.0095750
-64.625 4.8173 0.00075874 51.051 51.135 0.38358 606.16 0.0016497 50.740 50.795 0.38195 1.3974 2.1553 1308.9 -0.0059164 256.65 0.14266 0.85910 1.1640 460.21 498.87 2.5307 1.1212 1.3246 211.89 0.61527 5.6874 0.0096564
-63.625 5.0915 0.00079601 53.221 53.310 0.39396 605.07 0.0016527 52.896 52.954 0.39226 1.3993 2.1588 1302.3 -0.0058861 253.42 0.14205 0.90429 1.1058 461.25 500.07 2.5262 1.1252 1.3293 212.24 0.60736 5.7140 0.0097382
-62.625 5.3781 0.00083463 55.395 55.489 0.40431 603.97 0.0016557 55.055 55.117 0.40254 1.4012 2.1624 1295.7 -0.0058553 250.26 0.14144 0.95134 1.0511 462.30 501.28 2.5218 1.1293 1.3340 212.58 0.59958 5.7406 0.0098201
-61.625 5.6774 0.00087461 57.573 57.672 0.41463 602.87 0.0016587 57.218 57.283 0.41279 1.4031 2.1660 1289.1 -0.0058241 247.16 0.14084 1.0003 0.99972 463.35 502.48 2.5175 1.1333 1.3387 212.92 0.59194 5.7672 0.0099024
-60.625 5.9899 0.00091600 59.756 59.860 0.42492 601.77 0.0016618 59.385 59.453 0.42301 1.4051 2.1697 1282.5 -0.0057925 244.12 0.14023 1.0512 0.95131 464.40 503.68 2.5133 1.1374 1.3435 213.26 0.58442 5.7938 0.0099850
-59.625 6.3160 0.00095880 61.942 62.052 0.43519 600.66 0.0016648 61.554 61.627 0.43320 1.4071 2.1734 1275.9 -0.0057605 241.13 0.13962 1.1041 0.90573 465.45 504.89 2.5091 1.1415 1.3483 213.58 0.57704 5.8203 0.010068
-58.625 6.6561 0.0010031 64.132 64.248 0.44542 599.55 0.0016679 63.728 63.805 0.44335 1.4091 2.1772 1269.3 -0.0057280 238.19 0.13902 1.1591 0.86277 466.50 506.09 2.5051 1.1457 1.3532 213.90 0.56978 5.8468 0.010151
-57.625 7.0107 0.0010488 66.327 66.449 0.45563 598.44 0.0016710 65.905 65.986 0.45348 1.4111 2.1810 1262.7 -0.0056951 235.31 0.13842 1.2161 0.82228 467.55 507.30 2.5011 1.1498 1.3581 214.22 0.56265 5.8733 0.010234
-56.625 7.3801 0.0010960 68.525 68.654 0.46580 597.33 0.0016741 68.086 68.172 0.46358 1.4132 2.1848 1256.1 -0.0056617 232.48 0.13781 1.2754 0.78408 468.60 508.50 2.4972 1.1540 1.3631 214.53 0.55564 5.8998 0.010318
-55.625 7.7648 0.0011448 70.728 70.864 0.47596 596.22 0.0016772 70.271 70.361 0.47364 1.4153 2.1887 1249.5 -0.0056279 229.69 0.13721 1.3369 0.74802 469.66 509.71 2.4934 1.1582 1.3681 214.84 0.54875 5.9263 0.010402
-54.625 8.1652 0.0011951 72.936 73.078 0.48608 595.10 0.0016804 72.460 72.554 0.48368 1.4174 2.1927 1242.9 -0.0055937 226.96 0.13661 1.4006 0.71396 470.72 510.91 2.4897 1.1624 1.3731 215.14 0.54199 5.9527 0.010486
-53.625 8.5819 0.0012470 75.148 75.297 0.49618 593.98 0.0016836 74.652 74.752 0.49369 1.4196 2.1967 1236.3 -0.0055589 224.27 0.13601 1.4667 0.68178 471.77 512.11 2.4860 1.1667 1.3782 215.43 0.53535 5.9792 0.010571
-52.625 9.0151 0.0013005 77.364 77.521 0.50625 592.86 0.0016867 76.849 76.954 0.50368 1.4218 2.2007 1229.8 -0.0055237 221.63 0.13541 1.5353 0.65136 472.83 513.32 2.4824 1.1710 1.3834 215.72 0.52882 6.0056 0.010656
-51.625 9.4655 0.0013556 79.584 79.750 0.51630 591.73 0.0016900 79.049 79.159 0.51363 1.4240 2.2048 1223.2 -0.0054880 219.04 0.13482 1.6062 0.62258 473.89 514.52 2.4789 1.1752 1.3886 216.00 0.52241 6.0320 0.010741
-50.625 9.9335 0.0014124 81.809 81.983 0.52632 590.60 0.0016932 81.253 81.369 0.52356 1.4262 2.2089 1216.6 -0.0054519 216.48 0.13422 1.6797 0.59534 474.95 515.73 2.4755 1.1796 1.3938 216.28 0.51612 6.0584 0.010827
-49.625 10.419 0.0014708 84.039 84.221 0.53632 589.47 0.0016964 83.462 83.584 0.53347 1.4285 2.2131 1210.1 -0.0054152 213.98 0.13363 1.7558 0.56954 476.01 516.93 2.4722 1.1839 1.3991 216.55 0.50994 6.0848 0.010913
-48.625 10.924 0.0015310 86.273 86.464 0.54629 588.34 0.0016997 85.674 85.802 0.54334 1.4308 2.2173 1203.5 -0.0053780 211.51 0.13303 1.8345 0.54510 477.07 518.13 2.4689 1.1883 1.4044 216.82 0.50387 6.1112 0.010999
-47.625 11.448 0.0015928 88.512 88.712 0.55624 587.20 0.0017030 87.891 88.025 0.55319 1.4331 2.2216 1196.9 -0.0053403 209.08 0.13244 1.9159 0.52194 478.14 519.33 2.4657 1.1927 1.4098 217.08 0.49792 6.1375 0.011085
-46.625 11.991 0.0016564 90.756 90.965 0.56617 586.06 0.0017063 90.111 90.252 0.56302 1.4354 2.2259 1190.4 -0.0053020 206.69 0.13185 2.0001 0.49997 479.20 520.53 2.4625 1.1971 1.4153 217.33 0.49207 6.1639 0.011172
-45.625 12.554 0.0017218 93.004 93.223 0.57607 584.92 0.0017096 92.336 92.484 0.57282 1.4378 2.2303 1183.8 -0.0052633 204.34 0.13126 2.0872 0.47912 480.27 521.74 2.4594 1.2015 1.4207 217.58 0.48633 6.1902 0.011259
-44.625 13.137 0.0017890 95.257 95.486 0.58595 583.77 0.0017130 94.565 94.720 0.58260 1.4402 2.2347 1177.3 -0.0052240 202.03 0.13067 2.1771 0.45933 481.33 522.94 2.4564 1.2060 1.4263 217.82 0.48069 6.2165 0.011347
-43.625 13.741 0.0018579 97.515 97.755 0.59581 582.62 0.0017164 96.799 96.961 0.59235 1.4426 2.2392 1170.7 -0.0051841 199.75 0.13008 2.2700 0.44053 482.40 524.14 2.4535 1.2104 1.4319 218.05 0.47516 6.2429 0.011435
-42.625 14.367 0.0019287 99.778 100.03 0.60565 581.47 0.0017198 99.036 99.207 0.60208 1.4450 2.2437 1164.2 -0.0051437 197.51 0.12949 2.3659 0.42267 483.46 525.33 2.4506 1.2149 1.4375 218.28 0.46973 6.2692 0.011523
-41.625 15.015 0.0020013 102.05 102.31 0.61546 580.32 0.0017232 101.28 101.46 0.61179 1.4475 2.2483 1157.7 -0.0051027 195.30 0.12891 2.4649 0.40569 484.53 526.53 2.4478 1.2195 1.4432 218.50 0.46440 6.2955 0.011612
-40.625 15.686 0.0020757 104.32 104.59 0.62526 579.16 0.0017266 103.52 103.71 0.62147 1.4500 2.2529 1151.1 -0.0050611 193.13 0.12832 2.5671 0.38954 485.60 527.73 2.4450 1.2240 1.4489 218.72 0.45917 6.3218 0.011701
-39.625 16.380 0.0021521 106.60 106.88 0.63503 578.00 0.0017301 105.78 105.97 0.63113 1.4525 2.2576 1144.6 -0.0050189 190.99 0.12774 2.6725 0.37418 486.67 528.93 2.4423 1.2286 1.4547 218.93 0.45403 6.3481 0.011790
-38.625 17.097 0.0022303 108.88 109.18 0.64478 576.83 0.0017336 108.03 108.24 0.64077 1.4550 2.2623 1138.0 -0.0049761 188.88 0.12716 2.7813 0.35955 487.74 530.12 2.4397 1.2332 1.4606 219.13 0.44900 6.3744 0.011880
-37.625 17.838 0.0023105 111.17 111.48 0.65452 575.66 0.0017371 110.29 110.51 0.65039 1.4576 2.2671 1131.5 -0.0049327 186.81 0.12658 2.8934 0.34562 488.81 531.32 2.4371 1.2378 1.4665 219.33 0.44405 6.4007 0.011970
-36.625 18.604 0.0023925 113.46 113.78 0.66423 574.49 0.0017407 112.56 112.78 0.65999 1.4602 2.2719 1125.0 -0.0048887 184.76 0.12600 3.0089 0.33235 489.88 532.51 2.4346 1.2424 1.4724 219.52 0.43920 6.4270 0.012060
-35.625 19.395 0.0024765 115.76 116.10 0.67393 573.32 0.0017442 114.83 115.06 0.66956 1.4628 2.2768 1118.5 -0.0048440 182.75 0.12542 3.1280 0.31969 490.95 533.70 2.4321 1.2471 1.4784 219.70 0.43444 6.4533 0.012151
-34.625 20.212 0.0025625 118.06 118.41 0.68360 572.14 0.0017478 117.10 117.34 0.67912 1.4654 2.2818 1111.9 -0.0047987 180.76 0.12485 3.2506 0.30763 492.02 534.89 2.4297 1.2517 1.4845 219.88 0.42977 6.4797 0.012243
-33.625 21.056 0.0026504 120.37 120.74 0.69326 570.96 0.0017514 119.38 119.63 0.68865 1.4681 2.2868 1105.4 -0.0047527 178.80 0.12427 3.3770 0.29612 493.09 536.08 2.4273 1.2564 1.4906 220.05 0.42519 6.5060 0.012334
-32.625 21.926 0.0027403 122.68 123.07 0.70290 569.77 0.0017551 121.66 121.93 0.69817 1.4708 2.2918 1098.9 -0.0047061 176.87 0.12370 3.5071 0.28514 494.17 537.27 2.4250 1.2611 1.4968 220.21 0.42070 6.5323 0.012426
-31.625 22.823 0.0028322 125.00 125.40 0.71252 568.58 0.0017588 123.95 124.23 0.70767 1.4735 2.2970 1092.3 -0.0046587 174.97 0.12313 3.6410 0.27465 495.24 538.46 2.4227 1.2659 1.5031 220.36 0.41629 6.5587 0.012519
-30.625 23.749 0.0029260 127.33 127.74 0.72213 567.39 0.0017625 126.24 126.53 0.71714 1.4762 2.3021 1085.8 -0.0046107 173.09 0.12256 3.7787 0.26464 496.31 539.64 2.4205 1.2706 1.5094 220.51 0.41196 6.5850 0.012612
-29.625 24.703 0.0030219 129.66 130.09 0.73171 566.19 0.0017662 128.54 128.84 0.72660 1.4790 2.3074 1079.3 -0.0045619 171.24 0.12200 3.9205 0.25507 497.38 540.83 2.4184 1.2754 1.5157 220.65 0.40772 6.6114 0.012706
-28.625 25.687 0.0031198 131.99 132.44 0.74128 564.99 0.0017699 130.84 131.16 0.73604 1.4818 2.3126 1072.8 -0.0045124 169.42 0.12143 4.0663 0.24592 498.46 542.01 2.4162 1.2802 1.5222 220.79 0.40356 6.6378 0.012800
-27.625 26.700 0.0032197 134.33 134.80 0.75084 563.78 0.0017737 133.15 133.48 0.74547 1.4846 2.3180 1066.2 -0.0044621 167.62 0.12087 4.2163 0.23717 499.53 543.19 2.4142 1.2850 1.5286 220.91 0.39947 6.6642 0.012894
-26.625 27.743 0.0033216 136.68 137.16 0.76038 562.57 0.0017775 135.47 135.81 0.75487 1.4874 2.3234 1059.7 -0.0044111 165.84 0.12031 4.3705 0.22881 500.60 544.37 2.4122 1.2899 1.5352 221.03 0.39547 6.6906 0.012989
-25.625 28.817 0.0034255 139.03 139.53 0.76990 561.36 0.0017814 137.78 138.14 0.76426 1.4902 2.3289 1053.2 -0.0043593 164.09 0.11975 4.5290 0.22080 501.68 545.55 2.4102 1.2947 1.5418 221.14 0.39154 6.7171 0.013084
-24.625 29.923 0.0035315 141.39 141.91 0.77940 560.14 0.0017853 140.11 140.48 0.77363 1.4931 2.3344 1046.7 -0.0043067 162.36 0.11919 4.6918 0.21314 502.75 546.72 2.4083 1.2996 1.5485 221.25 0.38768 6.7436 0.013180
-23.625 31.061 0.0036395 143.75 144.29 0.78889 558.92 0.0017892 142.44 142.82 0.78298 1.4960 2.3400 1040.1 -0.0042533 160.65 0.11863 4.8592 0.20580 503.82 547.90 2.4064 1.3045 1.5552 221.35 0.38391 6.7701 0.013277
-22.625 32.232 0.0037495 146.12 146.68 0.79837 557.69 0.0017931 144.77 145.17 0.79232 1.4990 2.3457 1033.6 -0.0041990 158.97 0.11807 5.0311 0.19877 504.90 549.07 2.4045 1.3095 1.5621 221.44 0.38020 6.7967 0.013374
-21.625 33.435 0.0038615 148.49 149.08 0.80783 556.46 0.0017971 147.11 147.52 0.80164 1.5019 2.3514 1027.1 -0.0041439 157.30 0.11752 5.2076 0.19203 505.97 550.24 2.4027 1.3144 1.5690 221.52 0.37656 6.8232 0.013471
-20.625 34.673 0.0039756 150.88 151.48 0.81727 555.23 0.0018011 149.45 149.88 0.81095 1.5049 2.3572 1020.6 -0.0040879 155.66 0.11697 5.3889 0.18557 507.04 551.40 2.4010 1.3194 1.5759 221.59 0.37300 6.8499 0.013569
-19.625 35.946 0.0040916 153.26 153.89 0.82670 553.99 0.0018051 151.80 152.25 0.82024 1.5079 2.3630 1014.0 -0.0040311 154.04 0.11642 5.5750 0.17937 508.11 552.57 2.3992 1.3244 1.5829 221.66 0.36950 6.8765 0.013668
-18.625 37.253 0.0042097 155.65 156.30 0.83612 552.74 0.0018092 154.16 154.62 0.82952 1.5109 2.3689 1007.5 -0.0039733 152.44 0.11587 5.7660 0.17343 509.19 553.73 2.3976 1.3294 1.5901 221.72 0.36608 6.9032 0.013767
-17.625 38.596 0.0043298 158.05 158.73 0.84552 551.49 0.0018133 156.52 157.00 0.83878 1.5140 2.3749 1001.0 -0.0039145 150.86 0.11532 5.9621 0.16773 510.26 554.89 2.3959 1.3345 1.5972 221.77 0.36272 6.9300 0.013867
-16.625 39.976 0.0044519 160.46 161.15 0.85491 550.24 0.0018174 158.89 159.39 0.84803 1.5171 2.3810 994.44 -0.0038549 149.29 0.11478 6.1632 0.16225 511.33 556.05 2.3943 1.3395 1.6045 221.81 0.35942 6.9568 0.013968
-15.625 41.392 0.0045760 162.87 163.59 0.86429 548.98 0.0018216 161.26 161.78 0.85726 1.5202 2.3871 987.91 -0.0037942 147.75 0.11423 6.3696 0.15700 512.40 557.20 2.3927 1.3446 1.6119 221.85 0.35619 6.9836 0.014069
-14.625 42.846 0.0047020 165.28 166.03 0.87365 547.71 0.0018258 163.64 164.18 0.86649 1.5233 2.3933 981.37 -0.0037325 146.22 0.11369 6.5812 0.15195 513.47 558.36 2.3912 1.3497 1.6193 221.87 0.35302 7.0105 0.014170
-13.625 44.338 0.0048300 167.70 168.48 0.88301 546.44 0.0018300 166.02 166.58 0.87569 1.5264 2.3996 974.83 -0.0036698 144.72 0.11315 6.7983 0.14710 514.54 559.51 2.3897 1.3549 1.6268 221.89 0.34992 7.0375 0.014273
-12.625 45.870 0.0049599 170.13 170.93 0.89234 545.17 0.0018343 168.41 168.99 0.88489 1.5296 2.4059 968.29 -0.0036061 143.23 0.11261 7.0208 0.14243 515.61 560.65 2.3883 1.3600 1.6344 221.90 0.34688 7.0646 0.014376
-11.625 47.440 0.0050917 172.57 173.40 0.90167 543.89 0.0018386 170.81 171.41 0.89407 1.5328 2.4124 961.75 -0.0035413 141.76 0.11208 7.2490 0.13795 516.68 561.80 2.3868 1.3652 1.6421 221.91 0.34389 7.0917 0.014479
-10.625 49.051 0.0052254 175.01 175.86 0.91099 542.60 0.0018430 173.21 173.83 0.90324 1.5360 2.4189 955.20 -0.0034753 140.30 0.11154 7.4829 0.13364 517.75 562.94 2.3854 1.3704 1.6498 221.90 0.34097 7.1188 0.014584
-9.6250 50.703 0.0053610 177.45 178.34 0.92029 541.31 0.0018474 175.61 176.26 0.91240 1.5393 2.4255 948.65 -0.0034082 138.86 0.11101 7.7226 0.12949 518.81 564.08 2.3841 1.3757 1.6577 221.88 0.33810 7.1461 0.014689
-8.6250 52.396 0.0054984 179.91 180.82 0.92958 540.02 0.0018518 178.03 178.70 0.92154 1.5426 2.4321 942.10 -0.0033400 137.44 0.11048 7.9683 0.12550 519.88 565.21 2.3827 1.3809 1.6657 221.86 0.33529 7.1734 0.014795
-7.6250 54.131 0.0056376 182.37 183.31 0.93886 538.72 0.0018563 180.45 181.14 0.93068 1.5459 2.4389 935.55 -0.0032705 136.03 0.10995 8.2200 0.12165 520.94 566.35 2.3814 1.3862 1.6737 221.83 0.33254 7.2008 0.014902
-6.6250 55.909 0.0057787 184.83 185.81 0.94813 537.41 0.0018608 182.87 183.59 0.93980 1.5492 2.4457 928.99 -0.0031998 134.64 0.10942 8.4779 0.11795 522.01 567.48 2.3801 1.3915 1.6819 221.79 0.32984 7.2284 0.015009
-5.6250 57.730 0.0059214 187.30 188.31 0.95739 536.10 0.0018653 185.30 186.05 0.94892 1.5525 2.4526 922.43 -0.0031279 133.27 0.10889 8.7420 0.11439 523.07 568.60 2.3789 1.3969 1.6902 221.74 0.32720 7.2560 0.015117
-4.6250 59.595 0.0060659 189.78 190.82 0.96663 534.78 0.0018699 187.74 188.51 0.95802 1.5559 2.4596 915.87 -0.0030546 131.91 0.10837 9.0126 0.11096 524.13 569.72 2.3777 1.4022 1.6985 221.68 0.32461 7.2837 0.015226
-3.6250 61.505 0.0062120 192.27 193.34 0.97587 533.45 0.0018746 190.19 190.98 0.96711 1.5593 2.4667 909.30 -0.0029800 130.56 0.10785 9.2896 0.10765 525.19 570.84 2.3765 1.4076 1.7070 221.62 0.32207 7.3115 0.015336
-2.6250 63.461 0.0063597 194.76 195.87 0.98510 532.12 0.0018793 192.64 193.46 0.97620 1.5627 2.4739 902.73 -0.0029041 129.23 0.10733 9.5733 0.10446 526.25 571.96 2.3753 1.4131 1.7156 221.54 0.31958 7.3394 0.015447
-1.6250 65.462 0.0065090 197.26 198.40 0.99431 530.78 0.0018840 195.10 195.95 0.98527 1.5662 2.4811 896.16 -0.0028267 127.91 0.10681 9.8638 0.10138 527.31 573.07 2.3742 1.4185 1.7243 221.45 0.31715 7.3674 0.015559
-0.62500 67.510 0.0066599 199.76 200.94 1.0035 529.44 0.0018888 197.56 198.44 0.99434 1.5696 2.4885 889.58 -0.0027478 126.61 0.10629 10.161 0.098414 528.37 574.18 2.3731 1.4240 1.7331 221.36 0.31476 7.3956 0.015671
0.37500 69.606 0.0068122 202.27 203.49 1.0127 528.09 0.0018936 200.03 200.94 1.0034 1.5731 2.4960 883.00 -0.0026675 125.32 0.10578 10.466 0.095552 529.42 575.28 2.3720 1.4295 1.7421 221.26 0.31242 7.4239 0.015785
1.3750 71.749 0.0069659 204.79 206.04 1.0219 526.73 0.0018985 202.51 203.45 1.0124 1.5767 2.5035 876.42 -0.0025856 124.04 0.10527 10.777 0.092790 530.48 576.38 2.3709 1.4350 1.7512 221.14 0.31013 7.4523 0.015899
2.3750 73.941 0.0071209 207.32 208.61 1.0311 525.37 0.0019034 204.99 205.96 1.0215 1.5802 2.5112 869.83 -0.0025022 122.78 0.10476 11.096 0.090123 531.53 577.47 2.3699 1.4406 1.7604 221.02 0.30789 7.4808 0.016015
3.3750 76.183 0.0072773 209.85 211.18 1.0403 523.99 0.0019084 207.48 208.48 1.0305 1.5838 2.5190 863.24 -0.0024171 121.53 0.10425 11.422 0.087549 532.58 578.56 2.3688 1.4462 1.7697 220.89 0.30569 7.5095 0.016131
4.3750 78.475 0.0074348 212.39 213.76 1.0494 522.62 0.0019134 209.98 211.01 1.0395 1.5874 2.5268 856.64 -0.0023303 120.29 0.10374 11.756 0.085062 533.63 579.65 2.3678 1.4518 1.7792 220.75 0.30354 7.5384 0.016249
5.3750 80.817 0.0075935 214.93 216.34 1.0586 521.23 0.0019185 212.48 213.55 1.0486 1.5910 2.5348 850.04 -0.0022417 119.06 0.10324 12.098 0.082660 534.67 580.73 2.3669 1.4575 1.7888 220.60 0.30144 7.5674 0.016368
6.3750 83.211 0.0077532 217.48 218.93 1.0677 519.84 0.0019237 215.00 216.10 1.0576 1.5946 2.5429 843.43 -0.0021514 117.85 0.10273 12.447 0.080340 535.72 581.81 2.3659 1.4632 1.7986 220.44 0.29938 7.5966 0.016487
7.3750 85.657 0.0079139 220.04 221.54 1.0769 518.44 0.0019289 217.51 218.65 1.0666 1.5983 2.5511 836.82 -0.0020593 116.65 0.10223 12.805 0.078096 536.76 582.88 2.3650 1.4689 1.8085 220.27 0.29736 7.6259 0.016608
8.3750 88.156 0.0080754 222.61 224.14 1.0860 517.03 0.0019341 220.04 221.22 1.0756 1.6020 2.5595 830.20 -0.0019652 115.46 0.10173 13.170 0.075928 537.80 583.95 2.3640 1.4746 1.8186 220.08 0.29538 7.6555 0.016730
9.3750 90.708 0.0082377 225.18 226.76 1.0951 515.62 0.0019394 222.57 223.79 1.0846 1.6057 2.5679 823.58 -0.0018691 114.28 0.10124 13.545 0.073830 538.84 585.01 2.3631 1.4804 1.8288 219.89 0.29345 7.6852 0.016853
10.375 93.315 0.0084007 227.76 229.39 1.1042 514.19 0.0019448 225.11 226.37 1.0936 1.6095 2.5765 816.96 -0.0017710 113.11 0.10074 13.927 0.071802 539.87 586.07 2.3622 1.4863 1.8392 219.69 0.29156 7.7151 0.016978
11.375 95.977 0.0085642 230.34 232.02 1.1133 512.76 0.0019502 227.66 228.95 1.1025 1.6132 2.5852 810.32 -0.0016708 111.95 0.10025 14.319 0.069840 540.90 587.12 2.3614 1.4921 1.8498 219.48 0.28971 7.7452 0.017103
12.375 98.694 0.0087282 232.94 234.66 1.1224 511.32 0.0019557 230.22 231.55 1.1115 1.6170 2.5940 803.68 -0.0015685 110.80 0.099756 14.719 0.067941 541.93 588.17 2.3605 1.4980 1.8605 219.26 0.28790 7.7756 0.017230
13.375 101.47 0.0088925 235.54 237.31 1.1315 509.87 0.0019613 232.78 234.15 1.1205 1.6208 2.6030 797.04 -0.0014639 109.67 0.099267 15.128 0.066103 542.96 589.21 2.3597 1.5040 1.8715 219.03 0.28612 7.8061 0.017359
14.375 104.30 0.0090570 238.15 239.97 1.1406 508.42 0.0019669 235.35 236.77 1.1295 1.6247 2.6121 790.39 -0.0013569 108.54 0.098779 15.547 0.064323 543.99 590.24 2.3588 1.5099 1.8826 218.79 0.28439 7.8369 0.017488
15.375 107.19 0.0092215 240.76 242.63 1.1497 506.95 0.0019726 237.93 239.39 1.1384 1.6286 2.6214 783.73 -0.0012476 107.43 0.098294 15.974 0.062600 545.01 591.27 2.3580 1.5159 1.8940 218.53 0.28270 7.8680 0.017619
16.375 110.13 0.0093859 243.39 245.31 1.1588 505.48 0.0019783 240.52 242.02 1.1474 1.6324 2.6308 777.07 -0.0011357 106.32 0.097810 16.412 0.060931 546.03 592.29 2.3572 1.5220 1.9055 218.27 0.28104 7.8993 0.017752
17.375 113.14 0.0095500 246.02 247.99 1.1678 504.00 0.0019841 243.11 244.66 1.1564 1.6364 2.6403 770.40 -0.0010213 105.22 0.097328 16.859 0.059314 547.04 593.31 2.3564 1.5281 1.9172 217.99 0.27942 7.9308 0.017886
18.375 116.21 0.0097137 248.65 250.68 1.1769 502.50 0.0019900 245.72 247.31 1.1653 1.6403 2.6501 763.72 -0.00090422 104.14 0.096848 17.317 0.057747 548.05 594.32 2.3557 1.5342 1.9292 217.71 0.27783 7.9626 0.018021
19.375 119.33 0.0098768 251.30 253.38 1.1859 501.00 0.0019960 248.33 249.97 1.1743 1.6443 2.6599 757.04 -0.00078435 103.06 0.096371 17.785 0.056228 549.06 595.33 2.3549 1.5404 1.9414 217.41 0.27628 7.9947 0.018159
20.375 122.52 0.010039 253.95 256.09 1.1950 499.49 0.0020020 250.95 252.64 1.1832 1.6483 2.6700 750.35 -0.00066161 101.99 0.095895 18.263 0.054756 550.07 596.32 2.3541 1.5466 1.9538 217.10 0.27477 8.0272 0.018297
21.375 125.77 0.010200 256.61 258.80 1.2040 497.97 0.0020082 253.57 255.32 1.1922 1.6523 2.6802 743.64 -0.00053589 100.93 0.095420 18.752 0.053328 551.07 597.31 2.3534 1.5528 1.9665 216.78 0.27329 8.0599 0.018438
22.375 129.08 0.010360 259.28 261.53 1.2131 496.43 0.0020144 256.21 258.00 1.2012 1.6563 2.6906 736.94 -0.00040708 99.877 0.094948 19.252 0.051943 552.07 598.30 2.3526 1.5591 1.9795 216.45 0.27184 8.0929 0.018580
23.375 132.46 0.010519 261.95 264.26 1.2221 494.89 0.0020206 258.86 260.70 1.2101 1.6604 2.7012 730.22 -0.00027505 98.834 0.094478 19.763 0.050600 553.06 599.27 2.3519 1.5655 1.9927 216.11 0.27043 8.1263 0.018724
24.375 135.90 0.010676 264.63 267.00 1.2311 493.34 0.0020270 261.51 263.41 1.2191 1.6645 2.7120 723.49 -0.00013968 97.800 0.094009 20.285 0.049297 554.05 600.24 2.3512 1.5718 2.0061 215.75 0.26906 8.1600 0.018870
25.375 139.41 0.010831 267.32 269.76 1.2402 491.77 0.0020335 264.17 266.13 1.2280 1.6686 2.7230 716.76 -8.3775e-07 96.773 0.093543 20.820 0.048032 555.03 601.20 2.3504 1.5783 2.0199 215.39 0.26771 8.1941 0.019017
26.375 142.98 0.010983 270.02 272.52 1.2492 490.20 0.0020400 266.84 268.85 1.2370 1.6728 2.7342 710.01 0.00014161 95.755 0.093078 21.366 0.046804 556.01 602.15 2.3497 1.5847 2.0340 215.01 0.26640 8.2286 0.019167
27.375 146.62 0.011134 272.72 275.28 1.2582 488.61 0.0020466 269.52 271.59 1.2459 1.6770 2.7456 703.26 0.00028782 94.745 0.092615 21.924 0.045612 556.99 603.10 2.3490 1.5913 2.0484 214.62 0.26512 8.2634 0.019319
28.375 150.33 0.011281 275.44 278.06 1.2672 487.01 0.0020533 272.21 274.34 1.2549 1.6812 2.7573 696.49 0.00043793 93.742 0.092154 22.495 0.044454 557.96 604.03 2.3483 1.5978 2.0631 214.21 0.26387 8.2987 0.019472
29.375 154.10 0.011425 278.16 280.85 1.2762 485.40 0.0020601 274.91 277.10 1.2638 1.6854 2.7691 689.72 0.00059212 92.747 0.091695 23.079 0.043329 558.92 604.96 2.3476 1.6044 2.0781 213.80 0.26265 8.3344 0.019628
30.375 157.94 0.011566 280.89 283.64 1.2852 483.78 0.0020671 277.62 279.87 1.2728 1.6897 2.7813 682.93 0.00075055 91.760 0.091238 23.676 0.042237 559.88 605.88 2.3469 1.6111 2.0935 213.37 0.26147 8.3705 0.019786
31.375 161.86 0.011703 283.62 286.45 1.2942 482.15 0.0020741 280.34 282.66 1.2818 1.6939 2.7936 676.13 0.00091340 90.779 0.090782 24.287 0.041175 560.84 606.79 2.3462 1.6178 2.1092 212.93 0.26031 8.4071 0.019947
32.375 165.84 0.011835 286.37 289.26 1.3032 480.50 0.0020812 283.07 285.45 1.2908 1.6983 2.8063 669.32 0.0010809 89.806 0.090328 24.911 0.040143 561.79 607.69 2.3455 1.6246 2.1254 212.48 0.25919 8.4442 0.020110
33.375 169.90 0.011963 289.12 292.09 1.3122 478.83 0.0020884 285.81 288.26 1.2997 1.7026 2.8192 662.50 0.0012532 88.840 0.089876 25.549 0.039140 562.73 608.58 2.3448 1.6314 2.1419 212.01 0.25809 8.4818 0.020275
34.375 174.02 0.012086 291.88 294.92 1.3212 477.16 0.0020957 288.56 291.07 1.3087 1.7070 2.8324 655.67 0.0014305 87.880 0.089426 26.202 0.038164 563.67 609.46 2.3440 1.6383 2.1589 211.53 0.25702 8.5199 0.020443
35.375 178.22 0.012202 294.65 297.76 1.3302 475.47 0.0021032 291.32 293.90 1.3177 1.7114 2.8459 648.82 0.0016131 86.927 0.088977 26.870 0.037216 564.60 610.33 2.3433 1.6452 2.1763 211.04 0.25599 8.5586 0.020613
36.375 182.50 0.012313 297.43 300.61 1.3392 473.77 0.0021107 294.09 296.74 1.3267 1.7158 2.8597 641.96 0.0018012 85.980 0.088531 27.553 0.036293 565.52 611.19 2.3426 1.6522 2.1942 210.53 0.25498 8.5978 0.020786
37.375 186.84 0.012417 300.21 303.48 1.3482 472.05 0.0021184 296.87 299.60 1.3357 1.7203 2.8739 635.08 0.0019950 85.040 0.088085 28.252 0.035395 566.44 612.04 2.3419 1.6592 2.2125 210.01 0.25400 8.6376 0.020962
38.375 191.27 0.012514 303.01 306.35 1.3572 470.31 0.0021262 299.66 302.46 1.3447 1.7248 2.8884 628.19 0.0021949 84.105 0.087642 28.967 0.034522 567.35 612.88 2.3411 1.6663 2.2314 209.47 0.25305 8.6780 0.021141
39.375 195.77 0.012603 305.81 309.23 1.3661 468.56 0.0021342 302.46 305.34 1.3537 1.7293 2.9033 621.29 0.0024011 83.177 0.087200 29.699 0.033671 568.26 613.70 2.3404 1.6734 2.2508 208.92 0.25213 8.7190 0.021323
40.375 200.34 0.012683 308.62 312.12 1.3751 466.80 0.0021423 305.27 308.23 1.3627 1.7339 2.9185 614.37 0.0026140 82.254 0.086760 30.447 0.032844 569.15 614.52 2.3396 1.6806 2.2708 208.36 0.25123 8.7608 0.021508
41.375 205.00 0.012754 311.44 315.02 1.3841 465.01 0.0021505 308.10 311.14 1.3718 1.7385 2.9342 607.43 0.0028338 81.338 0.086322 31.214 0.032037 570.04 615.32 2.3389 1.6879 2.2913 207.78 0.25037 8.8032 0.021696
42.375 209.73 0.012814 314.27 317.93 1.3931 463.21 0.0021588 310.94 314.06 1.3808 1.7432 2.9502 600.47 0.0030609 80.426 0.085885 31.998 0.031252 570.92 616.11 2.3381 1.6952 2.3125 207.19 0.24953 8.8463 0.021888
43.375 214.54 0.012864 317.11 320.85 1.4021 461.40 0.0021673 313.79 316.99 1.3899 1.7478 2.9667 593.50 0.0032957 79.520 0.085449 32.800 0.030488 571.79 616.88 2.3373 1.7027 2.3344 206.58 0.24871 8.8902 0.022084
44.375 219.43 0.012902 319.95 323.78 1.4110 459.56 0.0021760 316.65 319.94 1.3989 1.7525 2.9837 586.51 0.0035386 78.619 0.085015 33.622 0.029742 572.65 617.65 2.3365 1.7101 2.3569 205.96 0.24793 8.9349 0.022283
45.375 224.41 0.012927 322.80 326.72 1.4200 457.71 0.0021848 319.52 322.90 1.4080 1.7573 3.0012 579.50 0.0037900 77.723 0.084583 34.463 0.029016 573.50 618.40 2.3357 1.7177 2.3802 205.32 0.24717 8.9805 0.022485
46.375 229.46 0.012938 325.67 329.67 1.4290 455.83 0.0021938 322.41 325.88 1.4171 1.7621 3.0192 572.46 0.0040504 76.832 0.084152 35.325 0.028308 574.34 619.13 2.3349 1.7253 2.4042 204.67 0.24644 9.0269 0.022692
47.375 234.60 0.012934 328.54 332.63 1.4380 453.94 0.0022029 325.31 328.87 1.4262 1.7669 3.0377 565.41 0.0043202 75.946 0.083723 36.208 0.027618 575.17 619.85 2.3340 1.7329 2.4291 204.00 0.24573 9.0742 0.022903
48.375 239.83 0.012913 331.42 335.61 1.4469 452.03 0.0022123 328.22 331.88 1.4353 1.7718 3.0569 558.34 0.0046000 75.064 0.083295 37.112 0.026945 576.00 620.55 2.3332 1.7407 2.4548 203.31 0.24505 9.1224 0.023119
49.375 245.13 0.012875 334.31 338.59 1.4559 450.09 0.0022218 331.15 334.90 1.4445 1.7767 3.0766 551.24 0.0048904 74.186 0.082868 38.039 0.026289 576.81 621.24 2.3323 1.7485 2.4815 202.61 0.24440 9.1716 0.023339
50.375 250.53 0.012818 337.21 341.58 1.4649 448.13 0.0022315 334.09 337.94 1.4536 1.7817 3.0970 544.13 0.0051920 73.313 0.082442 38.989 0.025648 577.61 621.91 2.3314 1.7564 2.5092 201.89 0.24377 9.2219 0.023564
51.375 256.01 0.012740 340.12 344.59 1.4739 446.15 0.0022414 337.04 341.00 1.4628 1.7867 3.1181 536.98 0.0055054 72.443 0.082018 39.962 0.025024 578.39 622.56 2.3304 1.7644 2.5379 201.16 0.24317 9.2733 0.023794
52.375 261.57 0.012640 343.04 347.60 1.4828 444.15 0.0022515 340.01 344.07 1.4720 1.7918 3.1400 529.82 0.0058313 71.577 0.081595 40.961 0.024414 579.17 623.20 2.3295 1.7724 2.5677 200.41 0.24260 9.3258 0.024029
53.375 267.23 0.012516 345.96 350.63 1.4918 442.12 0.0022618 343.00 347.17 1.4812 1.7969 3.1627 522.62 0.0061705 70.715 0.081174 41.985 0.023818 579.93 623.81 2.3285 1.7805 2.5987 199.63 0.24205 9.3795 0.024270
54.375 272.97 0.012366 348.90 353.67 1.5008 440.06 0.0022724 346.00 350.28 1.4904 1.8021 3.1862 515.40 0.0065239 69.856 0.080753 43.036 0.023237 580.68 624.41 2.3274 1.7887 2.6310 198.85 0.24154 9.4344 0.024516
55.375 278.81 0.012187 351.85 356.71 1.5098 437.98 0.0022832 349.02 353.40 1.4997 1.8073 3.2106 508.15 0.0068923 69.001 0.080334 44.114 0.022669 581.41 624.99 2.3264 1.7969 2.6646 198.04 0.24105 9.4907 0.024769
56.375 284.74 0.011977 354.80 359.77 1.5188 435.87 0.0022943 352.05 356.55 1.5090 1.8126 3.2360 500.87 0.0072767 68.148 0.079915 45.221 0.022114 582.13 625.54 2.3253 1.8052 2.6998 197.22 0.24059 9.5484 0.025028
57.375 290.76 0.011735 357.77 362.85 1.5278 433.73 0.0023056 355.10 359.72 1.5183 1.8179 3.2624 493.56 0.0076782 67.299 0.079498 46.358 0.021571 582.83 626.07 2.3241 1.8136 2.7365 196.37 0.24016 9.6075 0.025294
58.375 296.87 0.011455 360.75 365.93 1.5367 431.56 0.0023172 358.17 362.91 1.5276 1.8233 3.2900 486.22 0.0080980 66.451 0.079082 47.525 0.021041 583.52 626.58 2.3230 1.8220 2.7749 195.51 0.23976 9.6682 0.025568
59.375 303.08 0.011137 363.73 369.02 1.5457 429.36 0.0023290 361.25 366.12 1.5370 1.8288 3.3188 478.84 0.0085373 65.606 0.078666 48.726 0.020523 584.18 627.07 2.3218 1.8305 2.8152 194.63 0.23939 9.7305 0.025849
60.375 309.38 0.010775 366.73 372.13 1.5547 427.13 0.0023412 364.36 369.35 1.5464 1.8343 3.3489 471.43 0.0089976 64.763 0.078251 49.960 0.020016 584.83 627.53 2.3205 1.8391 2.8576 193.73 0.23905 9.7945 0.026138
61.375 315.78 0.010367 369.74 375.25 1.5637 424.87 0.0023537 367.48 372.60 1.5558 1.8400 3.3805 463.99 0.0094803 63.922 0.077838 51.229 0.019520 585.46 627.96 2.3192 1.8479 2.9022 192.82 0.23873 9.8603 0.026436
62.375 322.28 0.0099073 372.76 378.38 1.5728 422.56 0.0023665 370.62 375.88 1.5653 1.8457 3.4136 456.50 0.0099871 63.083 0.077425 52.535 0.019035 586.07 628.37 2.3178 1.8567 2.9492 191.88 0.23845 9.9281 0.026744
63.375 328.88 0.0093919 375.79 381.53 1.5818 420.22 0.0023797 373.79 379.18 1.5748 1.8514 3.4483 448.97 0.010520 62.244 0.077012 53.879 0.018560 586.66 628.74 2.3164 1.8656 2.9989 190.92 0.23819 9.9979 0.027061
64.375 335.58 0.0088153 378.83 384.68 1.5908 417.85 0.0023932 376.97 382.51 1.5844 1.8573 3.4850 441.40 0.011081 61.407 0.076600 55.265 0.018095 587.22 629.09 2.3149 1.8747 3.0517 189.95 0.23796 10.070 0.027389
65.375 342.38 0.0081717 381.88 387.85 1.5998 415.42 0.0024072 380.18 385.86 1.5939 1.8633 3.5236 433.79 0.011672 60.570 0.076189 56.692 0.017639 587.76 629.40 2.3133 1.8839 3.1077 188.95 0.23775 10.144 0.027729
66.375 349.28 0.0074542 384.94 391.04 1.6089 412.96 0.0024215 383.41 389.25 1.6036 1.8693 3.5645 426.12 0.012296 59.733 0.075779 58.165 0.017193 588.28 629.68 2.3117 1.8933 3.1674 187.93 0.23757 10.221 0.028080
67.375 356.28 0.0066555 388.01 394.23 1.6179 410.45 0.0024363 386.67 392.65 1.6133 1.8755 3.6078 418.41 0.012956 58.897 0.075368 59.684 0.016755 588.76 629.92 2.3100 1.9030 3.2311 186.89 0.23740 10.300 0.028446
68.375 363.40 0.0057672 391.10 397.44 1.6269 407.89 0.0024516 389.95 396.09 1.6230 1.8818 3.6537 410.64 0.013655 58.059 0.074959 61.253 0.016326 589.22 630.13 2.3082 1.9129 3.2994 185.83 0.23724 10.382 0.028825
69.375 370.61 0.0047796 394.20 400.67 1.6360 405.28 0.0024674 393.26 399.57 1.6328 1.8882 3.7027 402.81 0.014396 57.221 0.074549 62.875 0.015905 589.65 630.29 2.3064 1.9231 3.3727 184.74 0.23710 10.467 0.029221
70.375 377.94 0.0036819 397.31 403.91 1.6451 402.62 0.0024838 396.60 403.07 1.6426 1.8947 3.7550 394.92 0.015183 56.381 0.074141 64.552 0.015491 590.04 630.41 2.3044 1.9336 3.4518 183.63 0.23697 10.555 0.029633
71.375 385.37 0.0024617 400.43 407.16 1.6541 399.89 0.0025007 399.96 406.61 1.6525 1.9014 3.8109 386.97 0.016021 55.540 0.073732 66.288 0.015086 590.40 630.49 2.3024 1.9444 3.5371 182.50 0.23684 10.647 0.030064
72.375 392.92 0.0011049 403.57 410.43 1.6632 397.11 0.0025182 403.36 410.18 1.6625 1.9083 3.8711 378.95 0.016915 54.696 0.073324 68.087 0.014687 590.73 630.51 2.3002 1.9556 3.6297 181.34 0.23671 10.743 0.030515
73.375 407.86 undefined 406.40 413.52 1.6714 395.00 0.0025316 406.40 413.52 1.6714 1.9139 3.9073 373.95 0.017495 54.073 0.073039 395.00 0.0025316 406.40 413.52 1.6714 1.9139 3.9073 373.95 0.017495 54.073 0.073039
74.375 443.88 undefined 408.31 416.06 1.6769 395.00 0.0025316 408.31 416.06 1.6769 1.9155 3.8651 377.76 0.017032 54.097 0.073106 395.00 0.0025316 408.31 416.06 1.6769 1.9155 3.8651 377.76 0.017032 54.097 0.073106
75.375 480.03 undefined 410.23 418.61 1.6824 395.00 0.0025316 410.23 418.61 1.6824 1.9171 3.8257 381.48 0.016590 54.121 0.073176 395.00 0.0025316 410.23 418.61 1.6824 1.9171 3.8257 381.48 0.016590 54.121 0.073176
76.375 516.29 undefined 412.15 421.16 1.6879 395.00 0.0025316 412.15 421.16 1.6879 1.9189 3.7888 385.12 0.016167 54.145 0.073247 395.00 0.0025316 412.15 421.16 1.6879 1.9189 3.7888 385.12 0.016167 54.145 0.073247
77.375 552.66 undefined 414.07 423.71 1.6934 395.00 0.0025316 414.07 423.71 1.6934 1.9208 3.7541 388.68 0.015762 54.169 0.073320 395.00 0.0025316 414.07 423.71 1.6934 1.9208 3.7541 388.68 0.015762 54.169 0.073320
78.375 589.14 undefined 415.99 426.27 1.6989 395.00 0.0025316 415.99 426.27 1.6989 1.9228 3.7215 392.16 0.015373 54.192 0.073395 395.00 0.0025316 415.99 426.27 1.6989 1.9228 3.7215 392.16 0.015373 54.192 0.073395
79.375 625.72 undefined 417.91 428.84 1.7044 395.00 0.0025316 417.91 428.84 1.7044 1.9249 3.6908 395.57 0.014999 54.216 0.073471 395.00 0.0025316 417.91 428.84 1.7044 1.9249 3.6908 395.57 0.014999 54.216 0.073471
80.375 662.40 undefined 419.84 431.40 1.7098 395.00 0.0025316 419.84 431.40 1.7098 1.9271 3.6619 398.91 0.014639 54.240 0.073548 395.00 0.0025316 419.84 431.40 1.7098 1.9271 3.6619 398.91 0.014639 54.240 0.073548
81.375 699.17 undefined 421.77 433.97 1.7153 395.00 0.0025316 421.77 433.97 1.7153 1.9293 3.6345 402.18 0.014293 54.264 0.073627 395.00 0.0025316 421.77 433.97 1.7153 1.9293 3.6345 402.18 0.014293 54.264 0.073627
82.375 736.03 undefined 423.70 436.55 1.7207 395.00 0.0025316 423.70 436.55 1.7207 1.9317 3.6086 405.39 0.013959 54.288 0.073707 395.00 0.0025316 423.70 436.55 1.7207 1.9317 3.6086 405.39 0.013959 54.288 0.073707
83.375 772.98 undefined 425.63 439.12 1.7261 395.00 0.0025316 425.63 439.12 1.7261 1.9341 3.5840 408.54 0.013636 54.311 0.073788 395.00 0.0025316 425.63 439.12 1.7261 1.9341 3.5840 408.54 0.013636 54.311 0.073788
84.375 810.00 undefined 427.57 441.70 1.7315 395.00 0.0025316 427.57 441.70 1.7315 1.9366 3.5606 411.63 0.013325 54.335 0.073871 395.00 0.0025316 427.57 441.70 1.7315 1.9366 3.5606 411.63 0.013325 54.335 0.073871
85.375 847.11 undefined 429.50 444.29 1.7370 395.00 0.0025316 429.50 444.29 1.7370 1.9392 3.5385 414.67 0.013024 54.359 0.073954 395.00 0.0025316 429.50 444.29 1.7370 1.9392 3.5385 414.67 0.013024 54.359 0.073954
86.375 884.29 undefined 431.44 446.88 1.7424 395.00 0.0025316 431.44 446.88 1.7424 1.9418 3.5174 417.65 0.012732 54.383 0.074039 395.00 0.0025316 431.44 446.88 1.7424 1.9418 3.5174 417.65 0.012732 54.383 0.074039
87.375 921.54 undefined 433.39 449.47 1.7478 395.00 0.0025316 433.39 449.47 1.7478 1.9445 3.4973 420.59 0.012449 54.407 0.074124 395.00 0.0025316 433.39 449.47 1.7478 1.9445 3.4973 420.59 0.012449 54.407 0.074124
88.375 958.86 undefined 435.33 452.07 1.7532 395.00 0.0025316 435.33 452.07 1.7532 1.9473 3.4781 423.47 0.012175 54.431 0.074210 395.00 0.0025316 435.33 452.07 1.7532 1.9473 3.4781 423.47 0.012175 54.431 0.074210
89.375 996.25 undefined 437.28 454.67 1.7585 395.00 0.0025316 437.28 454.67 1.7585 1.9501 3.4598 426.31 0.011909 54.454 0.074297 395.00 0.0025316 437.28 454.67 1.7585 1.9501 3.4598 426.31 0.011909 54.454 0.074297
90.375 1033.7 undefined 439.23 457.28 1.7639 395.00 0.0025316 439.23 457.28 1.7639 1.9530 3.4423 429.11 0.011651 54.478 0.074385 395.00 0.0025316 439.23 457.28 1.7639 1.9530 3.4423 429.11 0.011651 54.478 0.074385
91.375 1071.2 undefined 441.19 459.89 1.7693 395.00 0.0025316 441.19 459.89 1.7693 1.9560 3.4256 431.86 0.011400 54.502 0.074474 395.00 0.0025316 441.19 459.89 1.7693 1.9560 3.4256 431.86 0.011400 54.502 0.074474
92.375 1108.8 undefined 443.15 462.50 1.7746 395.00 0.0025316 443.15 462.50 1.7746 1.9590 3.4097 434.58 0.011156 54.526 0.074564 395.00 0.0025316 443.15 462.50 1.7746 1.9590 3.4097 434.58 0.011156 54.526 0.074564
93.375 1146.4 undefined 445.11 465.12 1.7800 395.00 0.0025316 445.11 465.12 1.7800 1.9620 3.3944 437.25 0.010919 54.550 0.074654 395.00 0.0025316 445.11 465.12 1.7800 1.9620 3.3944 437.25 0.010919 54.550 0.074654
94.375 1184.1 undefined 447.07 467.74 1.7853 395.00 0.0025316 447.07 467.74 1.7853 1.9651 3.3798 439.89 0.010688 54.573 0.074745 395.00 0.0025316 447.07 467.74 1.7853 1.9651 3.3798 439.89 0.010688 54.573 0.074745
95.375 1221.8 undefined 449.04 470.36 1.7907 395.00 0.0025316 449.04 470.36 1.7907 1.9683 3.3658 442.50 0.010463 54.597 0.074836 395.00 0.0025316 449.04 470.36 1.7907 1.9683 3.3658 442.50 0.010463 54.597 0.074836
96.375 1259.6 undefined 451.01 472.99 1.7960 395.00 0.0025316 451.01 472.99 1.7960 1.9715 3.3524 445.07 0.010243 54.621 0.074929 395.00 0.0025316 451.01 472.99 1.7960 1.9715 3.3524 445.07 0.010243 54.621 0.074929
97.375 1297.4 undefined 452.98 475.63 1.8014 395.00 0.0025316 452.98 475.63 1.8014 1.9747 3.3395 447.60 0.010030 54.645 0.075022 395.00 0.0025316 452.98 475.63 1.8014 1.9747 3.3395 447.60 0.010030 54.645 0.075022
98.375 1335.3 undefined 454.96 478.26 1.8067 395.00 0.0025316 454.96 478.26 1.8067 1.9780 3.3271 450.11 0.0098212 54.669 0.075115 395.00 0.0025316 454.96 478.26 1.8067 1.9780 3.3271 450.11 0.0098212 54.669 0.075115
99.375 1373.2 undefined 456.94 480.90 1.8120 395.00 0.0025316 456.94 480.90 1.8120 1.9813 3.3153 452.59 0.0096178 54.692 0.075210 395.00 0.0025316 456.94 480.90 1.8120 1.9813 3.3153 452.59 0.0096178 54.692 0.075210
100.38 1411.1 undefined 458.92 483.55 1.8173 395.00 0.0025316 458.92 483.55 1.8173 1.9846 3.3039 455.04 0.0094194 54.716 0.075305 395.00 0.0025316 458.92 483.55 1.8173 1.9846 3.3039 455.04 0.0094194 54.716 0.075305
101.38 1449.1 undefined 460.90 486.20 1.8226 395.00 0.0025316 460.90 486.20 1.8226 1.9880 3.2930 457.46 0.0092256 54.740 0.075400 395.00 0.0025316 460.90 486.20 1.8226 1.9880 3.2930 457.46 0.0092256 54.740 0.075400
102.38 1487.1 undefined 462.89 488.85 1.8279 395.00 0.0025316 462.89 488.85 1.8279 1.9914 3.2825 459.86 0.0090363 54.764 0.075496 395.00 0.0025316 462.89 488.85 1.8279 1.9914 3.2825 459.86 0.0090363 54.764 0.075496
103.38 1525.2 undefined 464.89 491.51 1.8332 395.00 0.0025316 464.89 491.51 1.8332 1.9948 3.2725 462.23 0.0088514 54.787 0.075593 395.00 0.0025316 464.89 491.51 1.8332 1.9948 3.2725 462.23 0.0088514 54.787 0.075593
104.38 1563.3 undefined 466.88 494.17 1.8385 395.00 0.0025316 466.88 494.17 1.8385 1.9983 3.2628 464.57 0.0086706 54.811 0.075690 395.00 0.0025316 466.88 494.17 1.8385 1.9983 3.2628 464.57 0.0086706 54.811 0.075690
105.38 1601.5 undefined 468.88 496.84 1.8438 395.00 0.0025316 468.88 496.84 1.8438 2.0018 3.2535 466.89 0.0084939 54.835 0.075787 395.00 0.0025316 468.88 496.84 1.8438 2.0018 3.2535 466.89 0.0084939 54.835 0.075787
106.38 1639.6 undefined 470.89 499.51 1.8491 395.00 0.0025316 470.89 499.51 1.8491 2.0053 3.2446 469.19 0.0083211 54.859 0.075885 395.00 0.0025316 470.89 499.51 1.8491 2.0053 3.2446 469.19 0.0083211 54.859 0.075885
107.38 1677.8 undefined 472.89 502.18 1.8544 395.00 0.0025316 472.89 502.18 1.8544 2.0088 3.2360 471.47 0.0081521 54.883 0.075984 395.00 0.0025316 472.89 502.18 1.8544 2.0088 3.2360 471.47 0.0081521 54.883 0.075984
108.38 1716.1 undefined 474.91 504.86 1.8597 395.00 0.0025316 474.91 504.86 1.8597 2.0123 3.2277 473.72 0.0079867 54.906 0.076083 395.00 0.0025316 474.91 504.86 1.8597 2.0123 3.2277 473.72 0.0079867 54.906 0.076083
109.38 1754.3 undefined 476.92 507.54 1.8649 395.00 0.0025316 476.92 507.54 1.8649 2.0159 3.2198 475.95 0.0078247 54.930 0.076183 395.00 0.0025316 476.92 507.54 1.8649 2.0159 3.2198 475.95 0.0078247 54.930 0.076183
110.38 1792.6 undefined 478.94 510.23 1.8702 395.00 0.0025316 478.94 510.23 1.8702 2.0195 3.2121 478.17 0.0076662 54.954 0.076283 395.00 0.0025316 478.94 510.23 1.8702 2.0195 3.2121 478.17 0.0076662 54.954 0.076283
111.38 1830.9 undefined 480.96 512.92 1.8755 395.00 0.0025316 480.96 512.92 1.8755 2.0231 3.2048 480.36 0.0075110 54.978 0.076384 395.00 0.0025316 480.96 512.92 1.8755 2.0231 3.2048 480.36 0.0075110 54.978 0.076384
112.38 1869.3 undefined 482.98 515.61 1.8807 395.00 0.0025316 482.98 515.61 1.8807 2.0268 3.1977 482.54 0.0073590 55.001 0.076485 395.00 0.0025316 482.98 515.61 1.8807 2.0268 3.1977 482.54 0.0073590 55.001 0.076485
113.38 1907.6 undefined 485.01 518.31 1.8860 395.00 0.0025316 485.01 518.31 1.8860 2.0304 3.1909 484.69 0.0072100 55.025 0.076586 395.00 0.0025316 485.01 518.31 1.8860 2.0304 3.1909 484.69 0.0072100 55.025 0.076586
114.38 1946.0 undefined 487.04 521.01 1.8912 395.00 0.0025316 487.04 521.01 1.8912 2.0341 3.1844 486.83 0.0070641 55.049 0.076688 395.00 0.0025316 487.04 521.01 1.8912 2.0341 3.1844 486.83 0.0070641 55.049 0.076688
115.38 1984.4 undefined 489.08 523.72 1.8965 395.00 0.0025316 489.08 523.72 1.8965 2.0377 3.1781 488.95 0.0069210 55.073 0.076791 395.00 0.0025316 489.08 523.72 1.8965 2.0377 3.1781 488.95 0.0069210 55.073 0.076791
116.38 2022.9 undefined 491.12 526.43 1.9017 395.00 0.0025316 491.12 526.43 1.9017 2.0414 3.1720 491.05 0.0067808 55.096 0.076894 395.00 0.0025316 491.12 526.43 1.9017 2.0414 3.1720 491.05 0.0067808 55.096 0.076894
117.38 2061.3 undefined 493.16 529.14 1.9070 395.00 0.0025316 493.16 529.14 1.9070 2.0451 3.1662 493.14 0.0066433 55.120 0.076997 395.00 0.0025316 493.16 529.14 1.9070 2.0451 3.1662 493.14 0.0066433 55.120 0.076997
118.38 2099.8 undefined 495.21 531.86 1.9122 395.00 0.0025316 495.21 531.86 1.9122 2.0488 3.1606 495.21 0.0065084 55.144 0.077101 395.00 0.0025316 495.21 531.86 1.9122 2.0488 3.1606 495.21 0.0065084 55.144 0.077101
119.38 2138.3 undefined 497.26 534.59 1.9174 395.00 0.0025316 497.26 534.59 1.9174 2.0526 3.1552 497.27 0.0063762 55.168 0.077205 395.00 0.0025316 497.26 534.59 1.9174 2.0526 3.1552 497.27 0.0063762 55.168 0.077205
120.38 2176.8 undefined 499.31 537.31 1.9227 395.00 0.0025316 499.31 537.31 1.9227 2.0563 3.1500 499.31 0.0062464 55.191 0.077310 395.00 0.0025316 499.31 537.31 1.9227 2.0563 3.1500 499.31 0.0062464 55.191 0.077310
121.38 2215.4 undefined 501.37 540.04 1.9279 395.00 0.0025316 501.37 540.04 1.9279 2.0600 3.1450 501.33 0.0061191 55.215 0.077415 395.00 0.0025316 501.37 540.04 1.9279 2.0600 3.1450 501.33 0.0061191 55.215 0.077415
122.38 2253.9 undefined 503.43 542.78 1.9331 395.00 0.0025316 503.43 542.78 1.9331 2.0638 3.1403 503.34 0.0059941 55.239 0.077520 395.00 0.0025316 503.43 542.78 1.9331 2.0638 3.1403 503.34 0.0059941 55.239 0.077520
123.38 2292.5 undefined 505.50 545.52 1.9383 395.00 0.0025316 505.50 545.52 1.9383 2.0676 3.1357 505.34 0.0058714 55.262 0.077626 395.00 0.0025316 505.50 545.52 1.9383 2.0676 3.1357 505.34 0.0058714 55.262 0.077626
124.38 2331.1 undefined 507.57 548.26 1.9435 395.00 0.0025316 507.57 548.26 1.9435 2.0713 3.1312 507.32 0.0057510 55.286 0.077732 395.00 0.0025316 507.57 548.26 1.9435 2.0713 3.1312 507.32 0.0057510 55.286 0.077732
125.38 2369.7 undefined 509.64 551.01 1.9487 395.00 0.0025316 509.64 551.01 1.9487 2.0751 3.1270 509.29 0.0056328 55.310 0.077839 395.00 0.0025316 509.64 551.01 1.9487 2.0751 3.1270 509.29 0.0056328 55.310 0.077839
126.38 2408.3 undefined 511.72 553.76 1.9539 395.00 0.0025316 511.72 553.76 1.9539 2.0789 3.1229 511.25 0.0055167 55.334 0.077946 395.00 0.0025316 511.72 553.76 1.9539 2.0789 3.1229 511.25 0.0055167 55.334 0.077946
127.38 2447.0 undefined 513.80 556.51 1.9592 395.00 0.0025316 513.80 556.51 1.9592 2.0827 3.1190 513.19 0.0054026 55.357 0.078053 395.00 0.0025316 513.80 556.51 1.9592 2.0827 3.1190 513.19 0.0054026 55.357 0.078053
128.38 2485.6 undefined 515.89 559.27 1.9643 395.00 0.0025316 515.89 559.27 1.9643 2.0865 3.1152 515.12 0.0052906 55.381 0.078161 395.00 0.0025316 515.89 559.27 1.9643 2.0865 3.1152 515.12 0.0052906 55.381 0.078161
129.38 2524.3 undefined 517.97 562.04 1.9695 395.00 0.0025316 517.97 562.04 1.9695 2.0903 3.1116 517.04 0.0051805 55.405 0.078269 395.00 0.0025316 517.97 562.04 1.9695 2.0903 3.1116 517.04 0.0051805 55.405 0.078269
130.38 2563.0 undefined 520.07 564.80 1.9747 395.00 0.0025316 520.07 564.80 1.9747 2.0941 3.1082 518.94 0.0050724 55.428 0.078378 395.00 0.0025316 520.07 564.80 1.9747 2.0941 3.1082 518.94 0.0050724 55.428 0.078378
131.38 2601.7 undefined 522.16 567.57 1.9799 395.00 0.0025316 522.16 567.57 1.9799 2.0979 3.1049 520.84 0.0049661 55.452 0.078487 395.00 0.0025316 522.16 567.57 1.9799 2.0979 3.1049 520.84 0.0049661 55.452 0.078487
132.38 2640.4 undefined 524.26 570.35 1.9851 395.00 0.0025316 524.26 570.35 1.9851 2.1017 3.1017 522.72 0.0048616 55.476 0.078596 395.00 0.0025316 524.26 570.35 1.9851 2.1017 3.1017 522.72 0.0048616 55.476 0.078596
133.38 2679.1 undefined 526.37 573.13 1.9903 395.00 0.0025316 526.37 573.13 1.9903 2.1055 3.0986 524.59 0.0047590 55.499 0.078706 395.00 0.0025316 526.37 573.13 1.9903 2.1055 3.0986 524.59 0.0047590 55.499 0.078706
134.38 2717.8 undefined 528.47 575.91 1.9955 395.00 0.0025316 528.47 575.91 1.9955 2.1094 3.0957 526.45 0.0046580 55.523 0.078816 395.00 0.0025316 528.47 575.91 1.9955 2.1094 3.0957 526.45 0.0046580 55.523 0.078816
135.38 2756.5 undefined 530.58 578.70 2.0006 395.00 0.0025316 530.58 578.70 2.0006 2.1132 3.0929 528.29 0.0045588 55.547 0.078926 395.00 0.0025316 530.58 578.70 2.0006 2.1132 3.0929 528.29 0.0045588 55.547 0.078926
136.38 2795.3 undefined 532.70 581.49 2.0058 395.00 0.0025316 532.70 581.49 2.0058 2.1170 3.0902 530.13 0.0044611 55.570 0.079037 395.00 0.0025316 532.70 581.49 2.0058 2.1170 3.0902 530.13 0.0044611 55.570 0.079037
137.38 2834.1 undefined 534.82 584.29 2.0110 395.00 0.0025316 534.82 584.29 2.0110 2.1209 3.0877 531.96 0.0043652 55.594 0.079148 395.00 0.0025316 534.82 584.29 2.0110 2.1209 3.0877 531.96 0.0043652 55.594 0.079148
138.38 2872.8 undefined 536.94 587.09 2.0161 395.00 0.0025316 536.94 587.09 2.0161 2.1247 3.0853 533.77 0.0042707 55.618 0.079260 395.00 0.0025316 536.94 587.09 2.0161 2.1247 3.0853 533.77 0.0042707 55.618 0.079260
139.38 2911.6 undefined 539.07 589.89 2.0213 395.00 0.0025316 539.07 589.89 2.0213 2.1286 3.0829 535.58 0.0041779 55.641 0.079372 395.00 0.0025316 539.07 589.89 2.0213 2.1286 3.0829 535.58 0.0041779 55.641 0.079372
140.38 2950.4 undefined 541.20 592.70 2.0265 395.00 0.0025316 541.20 592.70 2.0265 2.1324 3.0807 537.37 0.0040865 55.665 0.079484 395.00 0.0025316 541.20 592.70 2.0265 2.1324 3.0807 537.37 0.0040865 55.665 0.079484
141.38 2989.2 undefined 543.33 595.51 2.0316 395.00 0.0025316 543.33 595.51 2.0316 2.1362 3.0786 539.16 0.0039966 55.688 0.079597 395.00 0.0025316 543.33 595.51 2.0316 2.1362 3.0786 539.16 0.0039966 55.688 0.079597
142.38 3028.0 undefined 545.47 598.32 2.0368 395.00 0.0025316 545.47 598.32 2.0368 2.1401 3.0766 540.94 0.0039081 55.712 0.079710 395.00 0.0025316 545.47 598.32 2.0368 2.1401 3.0766 540.94 0.0039081 55.712 0.079710
143.38 3066.8 undefined 547.61 601.14 2.0419 395.00 0.0025316 547.61 601.14 2.0419 2.1439 3.0747 542.70 0.0038211 55.736 0.079823 395.00 0.0025316 547.61 601.14 2.0419 2.1439 3.0747 542.70 0.0038211 55.736 0.079823
144.38 3105.6 undefined 549.76 603.97 2.0471 395.00 0.0025316 549.76 603.97 2.0471 2.1478 3.0729 544.46 0.0037354 55.759 0.079937 395.00 0.0025316 549.76 603.97 2.0471 2.1478 3.0729 544.46 0.0037354 55.759 0.079937
145.38 3144.4 undefined 551.91 606.79 2.0522 395.00 0.0025316 551.91 606.79 2.0522 2.1517 3.0711 546.21 0.0036510 55.783 0.080051 395.00 0.0025316 551.91 606.79 2.0522 2.1517 3.0711 546.21 0.0036510 55.783 0.080051
146.38 3183.2 undefined 554.06 609.63 2.0573 395.00 0.0025316 554.06 609.63 2.0573 2.1555 3.0695 547.95 0.0035680 55.806 0.080165 395.00 0.0025316 554.06 609.63 2.0573 2.1555 3.0695 547.95 0.0035680 55.806 0.080165
147.38 3222.1 undefined 556.22 612.46 2.0625 395.00 0.0025316 556.22 612.46 2.0625 2.1594 3.0680 549.68 0.0034862 55.830 0.080280 395.00 0.0025316 556.22 612.46 2.0625 2.1594 3.0680 549.68 0.0034862 55.830 0.080280
148.38 3260.9 undefined 558.38 615.30 2.0676 395.00 0.0025316 558.38 615.30 2.0676 2.1632 3.0665 551.40 0.0034058 55.854 0.080395 395.00 0.0025316 558.38 615.30 2.0676 2.1632 3.0665 551.40 0.0034058 55.854 0.080395
149.38 3299.7 undefined 560.55 618.14 2.0727 395.00 0.0025316 560.55 618.14 2.0727 2.1671 3.0652 553.11 0.0033265 55.877 0.080510 395.00 0.0025316 560.55 618.14 2.0727 2.1671 3.0652 553.11 0.0033265 55.877 0.080510
150.38 3338.6 undefined 562.71 620.99 2.0779 395.00 0.0025316 562.71 620.99 2.0779 2.1709 3.0639 554.81 0.0032484 55.901 0.080626 395.00 0.0025316 562.71 620.99 2.0779 2.1709 3.0639 554.81 0.0032484 55.901 0.080626
151.38 3377.4 undefined 564.89 623.84 2.0830 395.00 0.0025316 564.89 623.84 2.0830 2.1748 3.0627 556.51 0.0031715 55.924 0.080742 395.00 0.0025316 564.89 623.84 2.0830 2.1748 3.0627 556.51 0.0031715 55.924 0.080742
152.38 3416.3 undefined 567.06 626.70 2.0881 395.00 0.0025316 567.06 626.70 2.0881 2.1787 3.0615 558.20 0.0030958 55.948 0.080858 395.00 0.0025316 567.06 626.70 2.0881 2.1787 3.0615 558.20 0.0030958 55.948 0.080858
153.38 3455.2 undefined 569.25 629.56 2.0932 395.00 0.0025316 569.25 629.56 2.0932 2.1825 3.0605 559.87 0.0030212 55.971 0.080975 395.00 0.0025316 569.25 629.56 2.0932 2.1825 3.0605 559.87 0.0030212 55.971 0.080975
154.38 3494.0 undefined 571.43 632.42 2.0984 395.00 0.0025316 571.43 632.42 2.0984 2.1864 3.0595 561.54 0.0029477 55.995 0.081092 395.00 0.0025316 571.43 632.42 2.0984 2.1864 3.0595 561.54 0.0029477 55.995 0.081092
155.38 3532.9 undefined 573.62 635.28 2.1035 395.00 0.0025316 573.62 635.28 2.1035 2.1902 3.0586 563.21 0.0028753 56.018 0.081209 395.00 0.0025316 573.62 635.28 2.1035 2.1902 3.0586 563.21 0.0028753 56.018 0.081209
156.38 3571.8 undefined 575.81 638.16 2.1086 395.00 0.0025316 575.81 638.16 2.1086 2.1941 3.0577 564.86 0.0028040 56.042 0.081327 395.00 0.0025316 575.81 638.16 2.1086 2.1941 3.0577 564.86 0.0028040 56.042 0.081327
157.38 3610.6 undefined 578.01 641.03 2.1137 395.00 0.0025316 578.01 641.03 2.1137 2.1979 3.0569 566.51 0.0027337 56.065 0.081445 395.00 0.0025316 578.01 641.03 2.1137 2.1979 3.0569 566.51 0.0027337 56.065 0.081445
158.38 3649.5 undefined 580.21 643.91 2.1188 395.00 0.0025316 580.21 643.91 2.1188 2.2018 3.0562 568.15 0.0026644 56.089 0.081563 395.00 0.0025316 580.21 643.91 2.1188 2.2018 3.0562 568.15 0.0026644 56.089 0.081563
159.38 3688.4 undefined 582.41 646.79 2.1239 395.00 0.0025316 582.41 646.79 2.1239 2.2057 3.0556 569.78 0.0025961 56.112 0.081682 395.00 0.0025316 582.41 646.79 2.1239 2.2057 3.0556 569.78 0.0025961 56.112 0.081682
160.38 3727.3 undefined 584.62 649.68 2.1290 395.00 0.0025316 584.62 649.68 2.1290 2.2095 3.0550 571.41 0.0025288 56.136 0.081801 395.00 0.0025316 584.62 649.68 2.1290 2.2095 3.0550 571.41 0.0025288 56.136 0.081801
161.38 3766.1 undefined 586.83 652.57 2.1341 395.00 0.0025316 586.83 652.57 2.1341 2.2134 3.0545 573.02 0.0024624 56.159 0.081920 395.00 0.0025316 586.83 652.57 2.1341 2.2134 3.0545 573.02 0.0024624 56.159 0.081920
162.38 3805.0 undefined 589.04 655.46 2.1392 395.00 0.0025316 589.04 655.46 2.1392 2.2172 3.0540 574.63 0.0023970 56.183 0.082040 395.00 0.0025316 589.04 655.46 2.1392 2.2172 3.0540 574.63 0.0023970 56.183 0.082040
163.38 3843.9 undefined 591.26 658.36 2.1443 395.00 0.0025316 591.26 658.36 2.1443 2.2211 3.0536 576.24 0.0023325 56.206 0.082160 395.00 0.0025316 591.26 658.36 2.1443 2.2211 3.0536 576.24 0.0023325 56.206 0.082160
164.38 3882.8 undefined 593.49 661.26 2.1494 395.00 0.0025316 593.49 661.26 2.1494 2.2249 3.0533 577.83 0.0022689 56.230 0.082280 395.00 0.0025316 593.49 661.26 2.1494 2.2249 3.0533 577.83 0.0022689 56.230 0.082280
165.38 3921.7 undefined 595.71 664.17 2.1544 395.00 0.0025316 595.71 664.17 2.1544 2.2288 3.0530 579.42 0.0022062 56.253 0.082401 395.00 0.0025316 595.71 664.17 2.1544 2.2288 3.0530 579.42 0.0022062 56.253 0.082401
166.38 3960.5 undefined 597.94 667.08 2.1595 395.00 0.0025316 597.94 667.08 2.1595 2.2326 3.0528 581.00 0.0021444 56.277 0.082522 395.00 0.0025316 597.94 667.08 2.1595 2.2326 3.0528 581.00 0.0021444 56.277 0.082522
167.38 3999.4 undefined 600.18 669.99 2.1646 395.00 0.0025316 600.18 669.99 2.1646 2.2365 3.0526 582.58 0.0020834 56.300 0.082643 395.00 0.0025316 600.18 669.99 2.1646 2.2365 3.0526 582.58 0.0020834 56.300 0.082643
168.38 4038.3 undefined 602.42 672.91 2.1697 395.00 0.0025316 602.42 672.91 2.1697 2.2403 3.0525 584.15 0.0020233 56.323 0.082764 395.00 0.0025316 602.42 672.91 2.1697 2.2403 3.0525 584.15 0.0020233 56.323 0.082764
169.38 4077.2 undefined 604.66 675.83 2.1747 395.00 0.0025316 604.66 675.83 2.1747 2.2442 3.0524 585.71 0.0019640 56.347 0.082886 395.00 0.0025316 604.66 675.83 2.1747 2.2442 3.0524 585.71 0.0019640 56.347 0.082886
170.38 4116.1 undefined 606.90 678.75 2.1798 395.00 0.0025316 606.90 678.75 2.1798 2.2480 3.0524 587.26 0.0019055 56.370 0.083008 395.00 0.0025316 606.90 678.75 2.1798 2.2480 3.0524 587.26 0.0019055 56.370 0.083008
171.38 4155.0 undefined 609.15 681.68 2.1849 395.00 0.0025316 609.15 681.68 2.1849 2.2519 3.0524 588.81 0.0018478 56.394 0.083131 395.00 0.0025316 609.15 681.68 2.1849 2.2519 3.0524 588.81 0.0018478 56.394 0.083131
172.38 4193.8 undefined 611.41 684.61 2.1899 395.00 0.0025316 611.41 684.61 2.1899 2.2557 3.0524 590.35 0.0017908 56.417 0.083254 395.00 0.0025316 611.41 684.61 2.1899 2.2557 3.0524 590.35 0.0017908 56.417 0.083254
173.38 4232.7 undefined 613.67 687.55 2.1950 395.00 0.0025316 613.67 687.55 2.1950 2.2595 3.0526 591.89 0.0017347 56.440 0.083377 395.00 0.0025316 613.67 687.55 2.1950 2.2595 3.0526 591.89 0.0017347 56.440 0.083377
174.38 4271.6 undefined 615.93 690.49 2.2001 395.00 0.0025316 615.93 690.49 2.2001 2.2634 3.0527 593.42 0.0016793 56.464 0.083500 395.00 0.0025316 615.93 690.49 2.2001 2.2634 3.0527 593.42 0.0016793 56.464 0.083500
175.38 4310.5 undefined 618.19 693.43 2.2051 395.00 0.0025316 618.19 693.43 2.2051 2.2672 3.0529 594.94 0.0016246 56.487 0.083624 395.00 0.0025316 618.19 693.43 2.2051 2.2672 3.0529 594.94 0.0016246 56.487 0.083624
176.38 4349.3 undefined 620.46 696.38 2.2102 395.00 0.0025316 620.46 696.38 2.2102 2.2711 3.0532 596.46 0.0015706 56.510 0.083748 395.00 0.0025316 620.46 696.38 2.2102 2.2711 3.0532 596.46 0.0015706 56.510 0.083748
177.38 4388.2 undefined 622.74 699.33 2.2152 395.00 0.0025316 622.74 699.33 2.2152 2.2749 3.0534 597.97 0.0015174 56.534 0.083872 395.00 0.0025316 622.74 699.33 2.2152 2.2749 3.0534 597.97 0.0015174 56.534 0.083872
178.38 4427.1 undefined 625.01 702.29 2.2203 395.00 0.0025316 625.01 702.29 2.2203 2.2787 3.0538 599.48 0.0014648 56.557 0.083997 395.00 0.0025316 625.01 702.29 2.2203 2.2787 3.0538 599.48 0.0014648 56.557 0.083997
179.38 4466.0 undefined 627.29 705.25 2.2253 395.00 0.0025316 627.29 705.25 2.2253 2.2825 3.0541 600.98 0.0014129 56.580 0.084122 395.00 0.0025316 627.29 705.25 2.2253 2.2825 3.0541 600.98 0.0014129 56.580 0.084122
180.38 4504.8 undefined 629.58 708.21 2.2304 395.00 0.0025316 629.58 708.21 2.2304 2.2864 3.0545 602.47 0.0013617 56.604 0.084247 395.00 0.0025316 629.58 708.21 2.2304 2.2864 3.0545 602.47 0.0013617 56.604 0.084247
181.38 4543.7 undefined 631.87 711.18 2.2354 395.00 0.0025316 631.87 711.18 2.2354 2.2902 3.0550 603.96 0.0013112 56.627 0.084373 395.00 0.0025316 631.87 711.18 2.2354 2.2902 3.0550 603.96 0.0013112 56.627 0.084373
182.38 4582.5 undefined 634.16 714.15 2.2404 395.00 0.0025316 634.16 714.15 2.2404 2.2940 3.0555 605.44 0.0012613 56.650 0.084499 395.00 0.0025316 634.16 714.15 2.2404 2.2940 3.0555 605.44 0.0012613 56.650 0.084499
183.38 4621.4 undefined 636.45 717.12 2.2455 395.00 0.0025316 636.45 717.12 2.2455 2.2978 3.0560 606.92 0.0012121 56.673 0.084625 395.00 0.0025316 636.45 717.12 2.2455 2.2978 3.0560 606.92 0.0012121 56.673 0.084625
184.38 4660.3 undefined 638.75 720.10 2.2505 395.00 0.0025316 638.75 720.10 2.2505 2.3017 3.0566 608.39 0.0011635 56.697 0.084751 395.00 0.0025316 638.75 720.10 2.2505 2.3017 3.0566 608.39 0.0011635 56.697 0.084751
185.38 4699.1 undefined 641.06 723.08 2.2555 395.00 0.0025316 641.06 723.08 2.2555 2.3055 3.0572 609.86 0.0011155 56.720 0.084878 395.00 0.0025316 641.06 723.08 2.2555 2.3055 3.0572 609.86 0.0011155 56.720 0.084878
186.38 4738.0 undefined 643.36 726.07 2.2606 395.00 0.0025316 643.36 726.07 2.2606 2.3093 3.0578 611.32 0.0010681 56.743 0.085005 395.00 0.0025316 643.36 726.07 2.2606 2.3093 3.0578 611.32 0.0010681 56.743 0.085005
187.38 4776.8 undefined 645.68 729.05 2.2656 395.00 0.0025316 645.68 729.05 2.2656 2.3131 3.0584 612.77 0.0010213 56.766 0.085133 395.00 0.0025316 645.68 729.05 2.2656 2.3131 3.0584 612.77 0.0010213 56.766 0.085133
188.38 4815.6 undefined 647.99 732.05 2.2706 395.00 0.0025316 647.99 732.05 2.2706 2.3169 3.0591 614.22 0.00097508 56.790 0.085260 395.00 0.0025316 647.99 732.05 2.2706 2.3169 3.0591 614.22 0.00097508 56.790 0.085260
189.38 4854.5 undefined 650.31 735.04 2.2756 395.00 0.0025316 650.31 735.04 2.2756 2.3207 3.0599 615.67 0.00092946 56.813 0.085388 395.00 0.0025316 650.31 735.04 2.2756 2.3207 3.0599 615.67 0.00092946 56.813 0.085388
190.38 4893.3 undefined 652.63 738.04 2.2806 395.00 0.0025316 652.63 738.04 2.2806 2.3245 3.0606 617.11 0.00088439 56.836 0.085517 395.00 0.0025316 652.63 738.04 2.2806 2.3245 3.0606 617.11 0.00088439 56.836 0.085517
191.38 4932.1 undefined 654.96 741.05 2.2857 395.00 0.0025316 654.96 741.05 2.2857 2.3283 3.0614 618.54 0.00083989 56.859 0.085645 395.00 0.0025316 654.96 741.05 2.2857 2.3283 3.0614 618.54 0.00083989 56.859 0.085645
192.38 4970.9 undefined 657.29 744.06 2.2907 395.00 0.0025316 657.29 744.06 2.2907 2.3321 3.0622 619.97 0.00079593 56.882 0.085774 395.00 0.0025316 657.29 744.06 2.2907 2.3321 3.0622 619.97 0.00079593 56.882 0.085774
193.38 5009.8 undefined 659.62 747.07 2.2957 395.00 0.0025316 659.62 747.07 2.2957 2.3359 3.0631 621.39 0.00075252 56.906 0.085903 395.00 0.0025316 659.62 747.07 2.2957 2.3359 3.0631 621.39 0.00075252 56.906 0.085903
194.38 5048.6 undefined 661.96 750.08 2.3007 395.00 0.0025316 661.96 750.08 2.3007 2.3397 3.0640 622.81 0.00070964 56.929 0.086033 395.00 0.0025316 661.96 750.08 2.3007 2.3397 3.0640 622.81 0.00070964 56.929 0.086033
195.38 5087.4 undefined 664.30 753.10 2.3057 395.00 0.0025316 664.30 753.10 2.3057 2.3435 3.0649 624.23 0.00066728 56.952 0.086163 395.00 0.0025316 664.30 753.10 2.3057 2.3435 3.0649 624.23 0.00066728 56.952 0.086163
196.38 5126.2 undefined 666.65 756.12 2.3107 395.00 0.0025316 666.65 756.12 2.3107 2.3473 3.0658 625.63 0.00062543 56.975 0.086293 395.00 0.0025316 666.65 756.12 2.3107 2.3473 3.0658 625.63 0.00062543 56.975 0.086293
197.38 5165.0 undefined 669.00 759.15 2.3157 395.00 0.0025316 669.00 759.15 2.3157 2.3511 3.0668 627.04 0.00058409 56.998 0.086423 395.00 0.0025316 669.00 759.15 2.3157 2.3511 3.0668 627.04 0.00058409 56.998 0.086423
198.38 5203.8 undefined 671.35 762.18 2.3207 395.00 0.0025316 671.35 762.18 2.3207 2.3548 3.0678 628.44 0.00054325 57.021 0.086554 395.00 0.0025316 671.35 762.18 2.3207 2.3548 3.0678 628.44 0.00054325 57.021 0.086554
199.38 5242.5 undefined 673.71 765.21 2.3257 395.00 0.0025316 673.71 765.21 2.3257 2.3586 3.0688 629.83 0.00050290 57.044 0.086685 395.00 0.0025316 673.71 765.21 2.3257 2.3586 3.0688 629.83 0.00050290 57.044 0.086685
200.38 5281.3 undefined 676.07 768.25 2.3307 395.00 0.0025316 676.07 768.25 2.3307 2.3624 3.0698 631.22 0.00046303 57.068 0.086816 395.00 0.0025316 676.07 768.25 2.3307 2.3624 3.0698 631.22 0.00046303 57.068 0.086816
201.38 5320.1 undefined 678.43 771.29 2.3356 395.00 0.0025316 678.43 771.29 2.3356 2.3662 3.0709 632.61 0.00042364 57.091 0.086947 395.00 0.0025316 678.43 771.29 2.3356 2.3662 3.0709 632.61 0.00042364 57.091 0.086947
202.38 5358.9 undefined 680.80 774.34 2.3406 395.00 0.0025316 680.80 774.34 2.3406 2.3699 3.0720 633.99 0.00038472 57.114 0.087079 395.00 0.0025316 680.80 774.34 2.3406 2.3699 3.0720 633.99 0.00038472 57.114 0.087079
203.38 5397.6 undefined 683.17 777.39 2.3456 395.00 0.0025316 683.17 777.39 2.3456 2.3737 3.0731 635.36 0.00034625 57.137 0.087211 395.00 0.0025316 683.17 777.39 2.3456 2.3737 3.0731 635.36 0.00034625 57.137 0.087211
204.38 5436.4 undefined 685.55 780.44 2.3506 395.00 0.0025316 685.55 780.44 2.3506 2.3775 3.0743 636.74 0.00030824 57.160 0.087344 395.00 0.0025316 685.55 780.44 2.3506 2.3775 3.0743 636.74 0.00030824 57.160 0.087344
205.38 5475.1 undefined 687.93 783.49 2.3556 395.00 0.0025316 687.93 783.49 2.3556 2.3812 3.0754 638.10 0.00027068 57.183 0.087476 395.00 0.0025316 687.93 783.49 2.3556 2.3812 3.0754 638.10 0.00027068 57.183 0.087476
206.38 5513.9 undefined 690.31 786.55 2.3605 395.00 0.0025316 690.31 786.55 2.3605 2.3850 3.0766 639.47 0.00023355 57.206 0.087609 395.00 0.0025316 690.31 786.55 2.3605 2.3850 3.0766 639.47 0.00023355 57.206 0.087609
207.38 5552.6 undefined 692.70 789.62 2.3655 395.00 0.0025316 692.70 789.62 2.3655 2.3887 3.0778 640.82 0.00019686 57.229 0.087743 395.00 0.0025316 692.70 789.62 2.3655 2.3887 3.0778 640.82 0.00019686 57.229 0.087743
208.38 5591.3 undefined 695.09 792.68 2.3705 395.00 0.0025316 695.09 792.68 2.3705 2.3925 3.0791 642.18 0.00016060 57.252 0.087876 395.00 0.0025316 695.09 792.68 2.3705 2.3925 3.0791 642.18 0.00016060 57.252 0.087876
209.38 5630.0 undefined 697.48 795.75 2.3755 395.00 0.0025316 697.48 795.75 2.3755 2.3962 3.0803 643.53 0.00012475 57.275 0.088010 395.00 0.0025316 697.48 795.75 2.3755 2.3962 3.0803 643.53 0.00012475 57.275 0.088010
210.38 5668.8 undefined 699.88 798.83 2.3804 395.00 0.0025316 699.88 798.83 2.3804 2.4000 3.0816 644.87 8.9321e-05 57.298 0.088144 395.00 0.0025316 699.88 798.83 2.3804 2.4000 3.0816 644.87 8.9321e-05 57.298 0.088144
211.38 5707.5 undefined 702.28 801.90 2.3854 395.00 0.0025316 702.28 801.90 2.3854 2.4037 3.0829 646.21 5.4299e-05 57.321 0.088279 395.00 0.0025316 702.28 801.90 2.3854 2.4037 3.0829 646.21 5.4299e-05 57.321 0.088279
212.38 5746.2 undefined 704.69 804.99 2.3903 395.00 0.0025316 704.69 804.99 2.3903 2.4075 3.0842 647.55 1.9678e-05 57.344 0.088413 395.00 0.0025316 704.69 804.99 2.3903 2.4075 3.0842 647.55 1.9678e-05 57.344 0.088413
213.38 5784.9 undefined 707.10 808.07 2.3953 395.00 0.0025316 707.10 808.07 2.3953 2.4112 3.0856 648.88 -1.4548e-05 57.367 0.088548 395.00 0.0025316 707.10 808.07 2.3953 2.4112 3.0856 648.88 -1.4548e-05 57.367 0.088548
214.38 5823.5 undefined 709.51 811.16 2.4003 395.00 0.0025316 709.51 811.16 2.4003 2.4149 3.0869 650.21 -4.8383e-05 57.390 0.088684 395.00 0.0025316 709.51 811.16 2.4003 2.4149 3.0869 650.21 -4.8383e-05 57.390 0.088684
215.38 5862.2 undefined 711.93 814.25 2.4052 395.00 0.0025316 711.93 814.25 2.4052 2.4187 3.0883 651.53 -8.1834e-05 57.413 0.088819 395.00 0.0025316 711.93 814.25 2.4052 2.4187 3.0883 651.53 -8.1834e-05 57.413 0.088819
216.38 5900.9 undefined 714.35 817.35 2.4102 395.00 0.0025316 714.35 817.35 2.4102 2.4224 3.0897 652.86 -0.00011491 57.436 0.088955 395.00 0.0025316 714.35 817.35 2.4102 2.4224 3.0897 652.86 -0.00011491 57.436 0.088955
217.38 5939.5 undefined 716.77 820.45 2.4151 395.00 0.0025316 716.77 820.45 2.4151 2.4261 3.0911 654.17 -0.00014761 57.458 0.089091 395.00 0.0025316 716.77 820.45 2.4151 2.4261 3.0911 654.17 -0.00014761 57.458 0.089091
218.38 5978.2 undefined 719.20 823.55 2.4200 395.00 0.0025316 719.20 823.55 2.4200 2.4298 3.0925 655.48 -0.00017994 57.481 0.089227 395.00 0.0025316 719.20 823.55 2.4200 2.4298 3.0925 655.48 -0.00017994 57.481 0.089227
219.38 6016.8 undefined 721.63 826.65 2.4250 395.00 0.0025316 721.63 826.65 2.4250 2.4336 3.0940 656.79 -0.00021190 57.504 0.089364 395.00 0.0025316 721.63 826.65 2.4250 2.4336 3.0940 656.79 -0.00021190 57.504 0.089364
220.38 6055.5 undefined 724.07 829.76 2.4299 395.00 0.0025316 724.07 829.76 2.4299 2.4373 3.0955 658.10 -0.00024352 57.527 0.089501 395.00 0.0025316 724.07 829.76 2.4299 2.4373 3.0955 658.10 -0.00024352 57.527 0.089501
221.38 6094.1 undefined 726.50 832.88 2.4349 395.00 0.0025316 726.50 832.88 2.4349 2.4410 3.0970 659.40 -0.00027477 57.550 0.089638 395.00 0.0025316 726.50 832.88 2.4349 2.4410 3.0970 659.40 -0.00027477 57.550 0.089638
222.38 6132.7 undefined 728.95 835.99 2.4398 395.00 0.0025316 728.95 835.99 2.4398 2.4447 3.0985 660.69 -0.00030569 57.573 0.089776 395.00 0.0025316 728.95 835.99 2.4398 2.4447 3.0985 660.69 -0.00030569 57.573 0.089776
223.38 6171.4 undefined 731.39 839.12 2.4447 395.00 0.0025316 731.39 839.12 2.4447 2.4484 3.1000 661.99 -0.00033625 57.596 0.089913 395.00 0.0025316 731.39 839.12 2.4447 2.4484 3.1000 661.99 -0.00033625 57.596 0.089913
224.38 6210.0 undefined 733.84 842.24 2.4497 395.00 0.0025316 733.84 842.24 2.4497 2.4521 3.1015 663.28 -0.00036649 57.618 0.090051 395.00 0.0025316 733.84 842.24 2.4497 2.4521 3.1015 663.28 -0.00036649 57.618 0.090051
225.38 6248.6 undefined 736.30 845.37 2.4546 395.00 0.0025316 736.30 845.37 2.4546 2.4558 3.1031 664.56 -0.00039638 57.641 0.090190 395.00 0.0025316 736.30 845.37 2.4546 2.4558 3.1031 664.56 -0.00039638 57.641 0.090190
226.38 6287.1 undefined 738.76 848.50 2.4595 395.00 0.0025316 738.76 848.50 2.4595 2.4595 3.1046 665.84 -0.00042595 57.664 0.090328 395.00 0.0025316 738.76 848.50 2.4595 2.4595 3.1046 665.84 -0.00042595 57.664 0.090328
227.38 6325.7 undefined 741.22 851.63 2.4644 395.00 0.0025316 741.22 851.63 2.4644 2.4632 3.1062 667.12 -0.00045520 57.687 0.090467 395.00 0.0025316 741.22 851.63 2.4644 2.4632 3.1062 667.12 -0.00045520 57.687 0.090467
228.38 6364.3 undefined 743.68 854.77 2.4694 395.00 0.0025316 743.68 854.77 2.4694 2.4669 3.1078 668.39 -0.00048413 57.710 0.090606 395.00 0.0025316 743.68 854.77 2.4694 2.4669 3.1078 668.39 -0.00048413 57.710 0.090606
229.38 6402.9 undefined 746.15 857.91 2.4743 395.00 0.0025316 746.15 857.91 2.4743 2.4705 3.1094 669.67 -0.00051274 57.732 0.090746 395.00 0.0025316 746.15 857.91 2.4743 2.4705 3.1094 669.67 -0.00051274 57.732 0.090746
230.38 6441.4 undefined 748.62 861.06 2.4792 395.00 0.0025316 748.62 861.06 2.4792 2.4742 3.1111 670.93 -0.00054104 57.755 0.090885 395.00 0.0025316 748.62 861.06 2.4792 2.4742 3.1111 670.93 -0.00054104 57.755 0.090885
231.38 6480.0 undefined 751.10 864.21 2.4841 395.00 0.0025316 751.10 864.21 2.4841 2.4779 3.1127 672.20 -0.00056904 57.778 0.091025 395.00 0.0025316 751.10 864.21 2.4841 2.4779 3.1127 672.20 -0.00056904 57.778 0.091025
232.38 6518.5 undefined 753.58 867.36 2.4890 395.00 0.0025316 753.58 867.36 2.4890 2.4816 3.1144 673.46 -0.00059673 57.801 0.091165 395.00 0.0025316 753.58 867.36 2.4890 2.4816 3.1144 673.46 -0.00059673 57.801 0.091165
233.38 6557.0 undefined 756.06 870.52 2.4939 395.00 0.0025316 756.06 870.52 2.4939 2.4852 3.1160 674.71 -0.00062412 57.823 0.091310 395.00 0.0025316 756.06 870.52 2.4939 2.4852 3.1160 674.71 -0.00062412 57.823 0.091310
234.38 6595.6 undefined 758.55 873.67 2.4988 395.00 0.0025316 758.55 873.67 2.4988 2.4889 3.1177 675.97 -0.00065122 57.846 0.091456 395.00 0.0025316 758.55 873.67 2.4988 2.4889 3.1177 675.97 -0.00065122 57.846 0.091456
235.38 6634.1 undefined 761.04 876.84 2.5037 395.00 0.0025316 761.04 876.84 2.5037 2.4926 3.1194 677.21 -0.00067803 57.869 0.091602 395.00 0.0025316 761.04 876.84 2.5037 2.4926 3.1194 677.21 -0.00067803 57.869 0.091602
236.38 6672.6 undefined 763.53 880.00 2.5086 395.00 0.0025316 763.53 880.00 2.5086 2.4962 3.1211 678.46 -0.00070456 57.891 0.091749 395.00 0.0025316 763.53 880.00 2.5086 2.4962 3.1211 678.46 -0.00070456 57.891 0.091749
237.38 6711.1 undefined 766.03 883.17 2.5135 395.00 0.0025316 766.03 883.17 2.5135 2.4999 3.1229 679.70 -0.00073080 57.914 0.091896 395.00 0.0025316 766.03 883.17 2.5135 2.4999 3.1229 679.70 -0.00073080 57.914 0.091896
238.38 6749.5 undefined 768.53 886.35 2.5184 395.00 0.0025316 768.53 886.35 2.5184 2.5035 3.1246 680.94 -0.00075676 57.937 0.092044 395.00 0.0025316 768.53 886.35 2.5184 2.5035 3.1246 680.94 -0.00075676 57.937 0.092044
239.38 6788.0 undefined 771.04 889.52 2.5233 395.00 0.0025316 771.04 889.52 2.5233 2.5072 3.1263 682.18 -0.00078245 57.959 0.092191 395.00 0.0025316 771.04 889.52 2.5233 2.5072 3.1263 682.18 -0.00078245 57.959 0.092191
240.38 6826.5 undefined 773.55 892.70 2.5282 395.00 0.0025316 773.55 892.70 2.5282 2.5108 3.1281 683.41 -0.00080787 57.982 0.092339 395.00 0.0025316 773.55 892.70 2.5282 2.5108 3.1281 683.41 -0.00080787 57.982 0.092339
241.38 6864.9 undefined 776.06 895.89 2.5331 395.00 0.0025316 776.06 895.89 2.5331 2.5144 3.1299 684.64 -0.00083301 58.004 0.092487 395.00 0.0025316 776.06 895.89 2.5331 2.5144 3.1299 684.64 -0.00083301 58.004 0.092487
242.38 6903.4 undefined 778.58 899.08 2.5380 395.00 0.0025316 778.58 899.08 2.5380 2.5181 3.1317 685.87 -0.00085790 58.027 0.092636 395.00 0.0025316 778.58 899.08 2.5380 2.5181 3.1317 685.87 -0.00085790 58.027 0.092636
243.38 6941.8 undefined 781.10 902.27 2.5429 395.00 0.0025316 781.10 902.27 2.5429 2.5217 3.1335 687.09 -0.00088252 58.050 0.092785 395.00 0.0025316 781.10 902.27 2.5429 2.5217 3.1335 687.09 -0.00088252 58.050 0.092785
244.38 6980.2 undefined 783.62 905.46 2.5477 395.00 0.0025316 783.62 905.46 2.5477 2.5253 3.1353 688.31 -0.00090689 58.072 0.092934 395.00 0.0025316 783.62 905.46 2.5477 2.5253 3.1353 688.31 -0.00090689 58.072 0.092934
245.38 7018.6 undefined 786.15 908.66 2.5526 395.00 0.0025316 786.15 908.66 2.5526 2.5290 3.1371 689.53 -0.00093100 58.095 0.093083 395.00 0.0025316 786.15 908.66 2.5526 2.5290 3.1371 689.53 -0.00093100 58.095 0.093083
246.38 7057.1 undefined 788.68 911.86 2.5575 395.00 0.0025316 788.68 911.86 2.5575 2.5326 3.1389 690.74 -0.00095486 58.117 0.093233 395.00 0.0025316 788.68 911.86 2.5575 2.5326 3.1389 690.74 -0.00095486 58.117 0.093233
247.38 7095.4 undefined 791.21 915.06 2.5624 395.00 0.0025316 791.21 915.06 2.5624 2.5362 3.1408 691.95 -0.00097847 58.140 0.093383 395.00 0.0025316 791.21 915.06 2.5624 2.5362 3.1408 691.95 -0.00097847 58.140 0.093383
248.38 7133.8 undefined 793.75 918.27 2.5672 395.00 0.0025316 793.75 918.27 2.5672 2.5398 3.1426 693.16 -0.0010018 58.162 0.093533 395.00 0.0025316 793.75 918.27 2.5672 2.5398 3.1426 693.16 -0.0010018 58.162 0.093533
249.38 7172.2 undefined 796.29 921.48 2.5721 395.00 0.0025316 796.29 921.48 2.5721 2.5434 3.1445 694.36 -0.0010250 58.185 0.093684 395.00 0.0025316 796.29 921.48 2.5721 2.5434 3.1445 694.36 -0.0010250 58.185 0.093684
250.38 7210.6 undefined 798.84 924.70 2.5770 395.00 0.0025316 798.84 924.70 2.5770 2.5470 3.1464 695.56 -0.0010479 58.207 0.093835 395.00 0.0025316 798.84 924.70 2.5770 2.5470 3.1464 695.56 -0.0010479 58.207 0.093835
251.38 7248.9 undefined 801.39 927.92 2.5818 395.00 0.0025316 801.39 927.92 2.5818 2.5506 3.1482 696.76 -0.0010705 58.230 0.093986 395.00 0.0025316 801.39 927.92 2.5818 2.5506 3.1482 696.76 -0.0010705 58.230 0.093986
252.38 7287.3 undefined 803.94 931.14 2.5867 395.00 0.0025316 803.94 931.14 2.5867 2.5542 3.1501 697.95 -0.0010929 58.252 0.094137 395.00 0.0025316 803.94 931.14 2.5867 2.5542 3.1501 697.95 -0.0010929 58.252 0.094137
253.38 7325.6 undefined 806.49 934.36 2.5916 395.00 0.0025316 806.49 934.36 2.5916 2.5578 3.1520 699.15 -0.0011151 58.275 0.094289 395.00 0.0025316 806.49 934.36 2.5916 2.5578 3.1520 699.15 -0.0011151 58.275 0.094289
254.38 7363.9 undefined 809.05 937.59 2.5964 395.00 0.0025316 809.05 937.59 2.5964 2.5614 3.1539 700.33 -0.0011371 58.297 0.094441 395.00 0.0025316 809.05 937.59 2.5964 2.5614 3.1539 700.33 -0.0011371 58.297 0.094441
255.38 7402.3 undefined 811.62 940.82 2.6013 395.00 0.0025316 811.62 940.82 2.6013 2.5650 3.1559 701.52 -0.0011588 58.319 0.094593 395.00 0.0025316 811.62 940.82 2.6013 2.5650 3.1559 701.52 -0.0011588 58.319 0.094593
256.38 7440.6 undefined 814.18 944.06 2.6061 395.00 0.0025316 814.18 944.06 2.6061 2.5686 3.1578 702.70 -0.0011803 58.342 0.094746 395.00 0.0025316 814.18 944.06 2.6061 2.5686 3.1578 702.70 -0.0011803 58.342 0.094746
257.38 7478.9 undefined 816.75 947.30 2.6110 395.00 0.0025316 816.75 947.30 2.6110 2.5721 3.1597 703.88 -0.0012016 58.364 0.094899 395.00 0.0025316 816.75 947.30 2.6110 2.5721 3.1597 703.88 -0.0012016 58.364 0.094899
258.38 7517.1 undefined 819.33 950.54 2.6158 395.00 0.0025316 819.33 950.54 2.6158 2.5757 3.1617 705.06 -0.0012227 58.387 0.095052 395.00 0.0025316 819.33 950.54 2.6158 2.5757 3.1617 705.06 -0.0012227 58.387 0.095052
259.38 7555.4 undefined 821.91 953.79 2.6207 395.00 0.0025316 821.91 953.79 2.6207 2.5793 3.1636 706.23 -0.0012436 58.409 0.095206 395.00 0.0025316 821.91 953.79 2.6207 2.5793 3.1636 706.23 -0.0012436 58.409 0.095206
260.38 7593.7 undefined 824.49 957.04 2.6255 395.00 0.0025316 824.49 957.04 2.6255 2.5829 3.1656 707.41 -0.0012643 58.431 0.095360 395.00 0.0025316 824.49 957.04 2.6255 2.5829 3.1656 707.41 -0.0012643 58.431 0.095360
261.38 7631.9 undefined 827.07 960.29 2.6304 395.00 0.0025316 827.07 960.29 2.6304 2.5864 3.1676 708.57 -0.0012847 58.454 0.095514 395.00 0.0025316 827.07 960.29 2.6304 2.5864 3.1676 708.57 -0.0012847 58.454 0.095514
262.38 7670.2 undefined 829.66 963.54 2.6352 395.00 0.0025316 829.66 963.54 2.6352 2.5900 3.1696 709.74 -0.0013050 58.476 0.095668 395.00 0.0025316 829.66 963.54 2.6352 2.5900 3.1696 709.74 -0.0013050 58.476 0.095668
263.38 7708.4 undefined 832.25 966.80 2.6400 395.00 0.0025316 832.25 966.80 2.6400 2.5935 3.1715 710.90 -0.0013250 58.498 0.095823 395.00 0.0025316 832.25 966.80 2.6400 2.5935 3.1715 710.90 -0.0013250 58.498 0.095823
264.38 7746.6 undefined 834.85 970.07 2.6449 395.00 0.0025316 834.85 970.07 2.6449 2.5971 3.1735 712.06 -0.0013449 58.521 0.095978 395.00 0.0025316 834.85 970.07 2.6449 2.5971 3.1735 712.06 -0.0013449 58.521 0.095978
265.38 7784.8 undefined 837.45 973.33 2.6497 395.00 0.0025316 837.45 973.33 2.6497 2.6006 3.1755 713.22 -0.0013645 58.543 0.096133 395.00 0.0025316 837.45 973.33 2.6497 2.6006 3.1755 713.22 -0.0013645 58.543 0.096133
266.38 7823.0 undefined 840.05 976.60 2.6545 395.00 0.0025316 840.05 976.60 2.6545 2.6042 3.1776 714.38 -0.0013839 58.565 0.096289 395.00 0.0025316 840.05 976.60 2.6545 2.6042 3.1776 714.38 -0.0013839 58.565 0.096289
267.38 7861.2 undefined 842.65 979.87 2.6593 395.00 0.0025316 842.65 979.87 2.6593 2.6077 3.1796 715.53 -0.0014032 58.587 0.096444 395.00 0.0025316 842.65 979.87 2.6593 2.6077 3.1796 715.53 -0.0014032 58.587 0.096444
268.38 7899.4 undefined 845.26 983.15 2.6642 395.00 0.0025316 845.26 983.15 2.6642 2.6112 3.1816 716.68 -0.0014223 58.610 0.096601 395.00 0.0025316 845.26 983.15 2.6642 2.6112 3.1816 716.68 -0.0014223 58.610 0.096601
269.38 7937.6 undefined 847.88 986.43 2.6690 395.00 0.0025316 847.88 986.43 2.6690 2.6148 3.1836 717.82 -0.0014412 58.632 0.096757 395.00 0.0025316 847.88 986.43 2.6690 2.6148 3.1836 717.82 -0.0014412 58.632 0.096757
270.38 7975.7 undefined 850.49 989.71 2.6738 395.00 0.0025316 850.49 989.71 2.6738 2.6183 3.1857 718.97 -0.0014598 58.654 0.096914 395.00 0.0025316 850.49 989.71 2.6738 2.6183 3.1857 718.97 -0.0014598 58.654 0.096914
271.38 8013.9 undefined 853.11 993.00 2.6786 395.00 0.0025316 853.11 993.00 2.6786 2.6218 3.1877 720.11 -0.0014784 58.676 0.097071 395.00 0.0025316 853.11 993.00 2.6786 2.6218 3.1877 720.11 -0.0014784 58.676 0.097071
272.38 8052.0 undefined 855.74 996.29 2.6834 395.00 0.0025316 855.74 996.29 2.6834 2.6253 3.1898 721.25 -0.0014967 58.698 0.097228 395.00 0.0025316 855.74 996.29 2.6834 2.6253 3.1898 721.25 -0.0014967 58.698 0.097228
273.38 8090.1 undefined 858.36 999.58 2.6882 395.00 0.0025316 858.36 999.58 2.6882 2.6288 3.1918 722.38 -0.0015148 58.720 0.097386 395.00 0.0025316 858.36 999.58 2.6882 2.6288 3.1918 722.38 -0.0015148 58.720 0.097386
274.38 8128.3 undefined 860.99 1002.9 2.6931 395.00 0.0025316 860.99 1002.9 2.6931 2.6324 3.1939 723.52 -0.0015328 58.743 0.097544 395.00 0.0025316 860.99 1002.9 2.6931 2.6324 3.1939 723.52 -0.0015328 58.743 0.097544
275.38 8166.4 undefined 863.63 1006.2 2.6979 395.00 0.0025316 863.63 1006.2 2.6979 2.6359 3.1960 724.65 -0.0015506 58.765 0.097702 395.00 0.0025316 863.63 1006.2 2.6979 2.6359 3.1960 724.65 -0.0015506 58.765 0.097702
276.38 8204.5 undefined 866.27 1009.5 2.7027 395.00 0.0025316 866.27 1009.5 2.7027 2.6394 3.1981 725.78 -0.0015682 58.787 0.097860 395.00 0.0025316 866.27 1009.5 2.7027 2.6394 3.1981 725.78 -0.0015682 58.787 0.097860
277.38 8242.5 undefined 868.91 1012.8 2.7075 395.00 0.0025316 868.91 1012.8 2.7075 2.6429 3.2001 726.90 -0.0015857 58.809 0.098019 395.00 0.0025316 868.91 1012.8 2.7075 2.6429 3.2001 726.90 -0.0015857 58.809 0.098019
278.38 8280.6 undefined 871.55 1016.1 2.7123 395.00 0.0025316 871.55 1016.1 2.7123 2.6464 3.2022 728.02 -0.0016029 58.831 0.098178 395.00 0.0025316 871.55 1016.1 2.7123 2.6464 3.2022 728.02 -0.0016029 58.831 0.098178
279.38 8318.7 undefined 874.20 1019.4 2.7171 395.00 0.0025316 874.20 1019.4 2.7171 2.6498 3.2043 729.14 -0.0016201 58.853 0.098338 395.00 0.0025316 874.20 1019.4 2.7171 2.6498 3.2043 729.14 -0.0016201 58.853 0.098338
280.38 8356.7 undefined 876.85 1022.7 2.7219 395.00 0.0025316 876.85 1022.7 2.7219 2.6533 3.2064 730.26 -0.0016370 58.875 0.098497 395.00 0.0025316 876.85 1022.7 2.7219 2.6533 3.2064 730.26 -0.0016370 58.875 0.098497
281.38 8394.8 undefined 879.51 1026.0 2.7266 395.00 0.0025316 879.51 1026.0 2.7266 2.6568 3.2086 731.38 -0.0016538 58.897 0.098657 395.00 0.0025316 879.51 1026.0 2.7266 2.6568 3.2086 731.38 -0.0016538 58.897 0.098657
282.38 8432.8 undefined 882.17 1029.4 2.7314 395.00 0.0025316 882.17 1029.4 2.7314 2.6603 3.2107 732.49 -0.0016704 58.919 0.098362 395.00 0.0025316 882.17 1029.4 2.7314 2.6603 3.2107 732.49 -0.0016704 58.919 0.098362
283.38 8470.8 undefined 884.83 1032.7 2.7362 395.00 0.0025316 884.83 1032.7 2.7362 2.6638 3.2128 733.60 -0.0016869 58.941 0.098522 395.00 0.0025316 884.83 1032.7 2.7362 2.6638 3.2128 733.60 -0.0016869 58.941 0.098522
284.38 8508.8 undefined 887.49 1036.0 2.7410 395.00 0.0025316 887.49 1036.0 2.7410 2.6672 3.2149 734.71 -0.0017032 58.963 0.098682 395.00 0.0025316 887.49 1036.0 2.7410 2.6672 3.2149 734.71 -0.0017032 58.963 0.098682
285.38 8546.8 undefined 890.16 1039.3 2.7458 395.00 0.0025316 890.16 1039.3 2.7458 2.6707 3.2170 735.82 -0.0017193 58.985 0.098842 395.00 0.0025316 890.16 1039.3 2.7458 2.6707 3.2170 735.82 -0.0017193 58.985 0.098842
286.38 8584.8 undefined 892.83 1042.7 2.7506 395.00 0.0025316 892.83 1042.7 2.7506 2.6742 3.2192 736.92 -0.0017353 59.007 0.099003 395.00 0.0025316 892.83 1042.7 2.7506 2.6742 3.2192 736.92 -0.0017353 59.007 0.099003
287.38 8622.8 undefined 895.51 1046.0 2.7554 395.00 0.0025316 895.51 1046.0 2.7554 2.6776 3.2213 738.02 -0.0017511 59.029 0.099163 395.00 0.0025316 895.51 1046.0 2.7554 2.6776 3.2213 738.02 -0.0017511 59.029 0.099163
288.38 8660.7 undefined 898.19 1049.4 2.7601 395.00 0.0025316 898.19 1049.4 2.7601 2.6811 3.2235 739.12 -0.0017668 59.051 0.099324 395.00 0.0025316 898.19 1049.4 2.7601 2.6811 3.2235 739.12 -0.0017668 59.051 0.099324
289.38 8698.7 undefined 900.87 1052.7 2.7649 395.00 0.0025316 900.87 1052.7 2.7649 2.6845 3.2256 740.22 -0.0017824 59.073 0.099486 395.00 0.0025316 900.87 1052.7 2.7649 2.6845 3.2256 740.22 -0.0017824 59.073 0.099486
290.38 8736.6 undefined 903.56 1056.1 2.7697 395.00 0.0025316 903.56 1056.1 2.7697 2.6880 3.2278 741.31 -0.0017978 59.095 0.099647 395.00 0.0025316 903.56 1056.1 2.7697 2.6880 3.2278 741.31 -0.0017978 59.095 0.099647
291.38 8774.5 undefined 906.25 1059.4 2.7744 395.00 0.0025316 906.25 1059.4 2.7744 2.6914 3.2299 742.40 -0.0018130 59.117 0.099809 395.00 0.0025316 906.25 1059.4 2.7744 2.6914 3.2299 742.40 -0.0018130 59.117 0.099809
292.38 8812.4 undefined 908.94 1062.8 2.7792 395.00 0.0025316 908.94 1062.8 2.7792 2.6948 3.2321 743.49 -0.0018281 59.139 0.099972 395.00 0.0025316 908.94 1062.8 2.7792 2.6948 3.2321 743.49 -0.0018281 59.139 0.099972
293.38 8850.3 undefined 911.64 1066.1 2.7840 395.00 0.0025316 911.64 1066.1 2.7840 2.6983 3.2343 744.58 -0.0018430 59.160 0.10013 395.00 0.0025316 911.64 1066.1 2.7840 2.6983 3.2343 744.58 -0.0018430 59.160 0.10013
294.38 8888.2 undefined 914.34 1069.5 2.7887 395.00 0.0025316 914.34 1069.5 2.7887 2.7017 3.2365 745.66 -0.0018579 59.182 0.10030 395.00 0.0025316 914.34 1069.5 2.7887 2.7017 3.2365 745.66 -0.0018579 59.182 0.10030
295.38 8926.1 undefined 917.04 1072.8 2.7935 395.00 0.0025316 917.04 1072.8 2.7935 2.7051 3.2386 746.75 -0.0018725 59.204 0.10046 395.00 0.0025316 917.04 1072.8 2.7935 2.7051 3.2386 746.75 -0.0018725 59.204 0.10046
296.38 8964.0 undefined 919.75 1076.2 2.7983 395.00 0.0025316 919.75 1076.2 2.7983 2.7085 3.2408 747.83 -0.0018871 59.226 0.10062 395.00 0.0025316 919.75 1076.2 2.7983 2.7085 3.2408 747.83 -0.0018871 59.226 0.10062
297.38 9001.8 undefined 922.46 1079.6 2.8030 395.00 0.0025316 922.46 1079.6 2.8030 2.7120 3.2430 748.90 -0.0019015 59.248 0.10079 395.00 0.0025316 922.46 1079.6 2.8030 2.7120 3.2430 748.90 -0.0019015 59.248 0.10079
298.38 9039.7 undefined 925.17 1083.0 2.8078 395.00 0.0025316 925.17 1083.0 2.8078 2.7154 3.2452 749.98 -0.0019157 59.269 0.10095 395.00 0.0025316 925.17 1083.0 2.8078 2.7154 3.2452 749.98 -0.0019157 59.269 0.10095
299.38 9077.5 undefined 927.89 1086.3 2.8125 395.00 0.0025316 927.89 1086.3 2.8125 2.7188 3.2474 751.05 -0.0019299 59.291 0.10112 395.00 0.0025316 927.89 1086.3 2.8125 2.7188 3.2474 751.05 -0.0019299 59.291 0.10112
300.38 9115.4 undefined 930.61 1089.7 2.8173 395.00 0.0025316 930.61 1089.7 2.8173 2.7222 3.2496 752.12 -0.0019439 59.313 0.10128 395.00 0.0025316 930.61 1089.7 2.8173 2.7222 3.2496 752.12 -0.0019439 59.313 0.10128