Temperature (C) Pressure (psia) Quality (l+v) Internal Energy (l+v, kJ/kg) Enthalpy (l+v, kJ/kg) Entropy (l+v, J/g*K) Density (l, kg/m3) Volume (l, m3/kg) Internal Energy (l, kJ/kg) Enthalpy (l, kJ/kg) Entropy (l, J/g*K) Cv (l, J/g*K) Cp (l, J/g*K) Sound Spd. (l, m/s) Joule-Thomson (l, F/psia) Viscosity (l, uPa*s) Therm. Cond. (l, W/m*K) Density (v, kg/m3) Volume (v, m3/kg) Internal Energy (v, kJ/kg) Enthalpy (v, kJ/kg) Entropy (v, J/g*K) Cv (v, J/g*K) Cp (v, J/g*K) Sound Spd. (v, m/s) Joule-Thomson (v, F/psia) Viscosity (v, uPa*s) Therm. Cond. (v, W/m*K)
-187.62 2.4953e-08 1.0849e-11 -196.64 -196.64 -1.3959 733.13 0.0013640 -196.64 -196.64 -1.3959 1.3553 1.9158 2136.4 -0.0077592 10960. 0.20792 1.0669e-08 9.3732e+07 350.13 366.26 5.1858 0.69067 0.87923 143.28 6.1051 2.3259 0.0017061
-186.62 3.7339e-08 1.6016e-11 -194.73 -194.73 -1.3736 732.08 0.0013660 -194.73 -194.73 -1.3736 1.3539 1.9166 2129.6 -0.0077546 10073. 0.20765 1.5780e-08 6.3371e+07 350.82 367.14 5.1200 0.69462 0.88317 144.03 5.9178 2.3534 0.0017533
-185.62 5.5322e-08 2.3414e-11 -192.81 -192.81 -1.3516 731.04 0.0013679 -192.81 -192.81 -1.3516 1.3525 1.9174 2122.9 -0.0077498 9276.1 0.20737 2.3112e-08 4.3267e+07 351.52 368.02 5.0561 0.69857 0.88713 144.77 5.7383 2.3808 0.0018007
-184.62 8.1182e-08 3.3905e-11 -190.89 -190.89 -1.3298 730.00 0.0013699 -190.89 -190.89 -1.3298 1.3513 1.9182 2116.1 -0.0077448 8557.8 0.20708 3.3533e-08 2.9821e+07 352.22 368.91 4.9939 0.70253 0.89108 145.51 5.5662 2.4083 0.0018485
-183.62 1.1803e-07 4.8651e-11 -188.97 -188.97 -1.3083 728.96 0.0013718 -188.97 -188.97 -1.3083 1.3501 1.9191 2109.3 -0.0077395 7909.8 0.20678 4.8211e-08 2.0742e+07 352.92 369.81 4.9333 0.70648 0.89504 146.24 5.4011 2.4357 0.0018965
-182.62 1.7009e-07 6.9197e-11 -187.05 -187.05 -1.2869 727.92 0.0013738 -187.05 -187.05 -1.2869 1.3490 1.9201 2102.5 -0.0077340 7324.3 0.20647 6.8704e-08 1.4555e+07 353.63 370.70 4.8744 0.71043 0.89899 146.97 5.2426 2.4632 0.0019448
-181.62 2.4299e-07 9.7585e-11 -185.13 -185.13 -1.2658 726.88 0.0013757 -185.13 -185.13 -1.2658 1.3480 1.9210 2095.7 -0.0077283 6794.5 0.20616 9.7079e-08 1.0301e+07 354.35 371.60 4.8170 0.71438 0.90294 147.69 5.0904 2.4906 0.0019934
-180.62 3.4425e-07 1.3649e-10 -183.21 -183.21 -1.2450 725.85 0.0013777 -183.21 -183.21 -1.2450 1.3470 1.9220 2088.9 -0.0077225 6314.4 0.20584 1.3605e-07 7.3504e+06 355.06 372.51 4.7612 0.71833 0.90688 148.41 4.9442 2.5181 0.0020423
-179.62 4.8378e-07 1.8939e-10 -181.29 -181.29 -1.2243 724.81 0.0013797 -181.29 -181.29 -1.2243 1.3461 1.9231 2082.0 -0.0077164 5878.8 0.20551 1.8915e-07 5.2868e+06 355.78 373.42 4.7068 0.72227 0.91082 149.13 4.8038 2.5456 0.0020915
-178.62 6.7459e-07 2.6078e-10 -179.37 -179.37 -1.2038 723.78 0.0013816 -179.37 -179.37 -1.2038 1.3453 1.9241 2075.2 -0.0077102 5482.9 0.20517 2.6096e-07 3.8320e+06 356.51 374.33 4.6538 0.72620 0.91475 149.84 4.6688 2.5731 0.0021410
-177.62 9.3358e-07 3.5642e-10 -177.44 -177.44 -1.1836 722.75 0.0013836 -177.44 -177.44 -1.1836 1.3445 1.9252 2068.4 -0.0077039 5122.6 0.20483 3.5737e-07 2.7982e+06 357.23 375.25 4.6022 0.73012 0.91867 150.54 4.5390 2.6005 0.0021907
-176.62 1.2826e-06 4.8363e-10 -175.52 -175.52 -1.1635 721.72 0.0013856 -175.52 -175.52 -1.1635 1.3437 1.9263 2061.5 -0.0076973 4794.1 0.20447 4.8588e-07 2.0581e+06 357.97 376.17 4.5519 0.73403 0.92258 151.25 4.4142 2.6280 0.0022408
-175.62 1.7496e-06 6.5168e-10 -173.59 -173.59 -1.1437 720.69 0.0013876 -173.59 -173.59 -1.1437 1.3430 1.9274 2054.7 -0.0076907 4494.3 0.20411 6.5601e-07 1.5244e+06 358.70 377.09 4.5029 0.73792 0.92648 151.95 4.2941 2.6555 0.0022912
-174.62 2.3705e-06 8.7221e-10 -171.66 -171.66 -1.1240 719.66 0.0013895 -171.66 -171.66 -1.1240 1.3423 1.9286 2047.9 -0.0076838 4220.2 0.20375 8.7976e-07 1.1367e+06 359.44 378.02 4.4551 0.74181 0.93036 152.64 4.1784 2.6830 0.0023418
-173.62 3.1903e-06 1.1597e-09 -169.73 -169.73 -1.1045 718.64 0.0013915 -169.73 -169.73 -1.1045 1.3417 1.9298 2041.0 -0.0076769 3969.3 0.20338 1.1721e-06 8.5314e+05 360.19 378.95 4.4085 0.74568 0.93423 153.33 4.0671 2.7105 0.0023928
-172.62 4.2661e-06 1.5323e-09 -167.80 -167.80 -1.0852 717.61 0.0013935 -167.80 -167.80 -1.0852 1.3411 1.9310 2034.2 -0.0076698 3739.3 0.20300 1.5518e-06 6.4441e+05 360.93 379.89 4.3631 0.74953 0.93809 154.02 3.9599 2.7379 0.0024440
-171.62 5.6692e-06 2.0122e-09 -165.87 -165.87 -1.0661 716.58 0.0013955 -165.87 -165.87 -1.0661 1.3405 1.9322 2027.3 -0.0076625 3528.0 0.20261 2.0419e-06 4.8974e+05 361.69 380.83 4.3188 0.75337 0.94193 154.71 3.8566 2.7654 0.0024955
-170.62 7.4884e-06 2.6266e-09 -163.94 -163.94 -1.0472 715.56 0.0013975 -163.94 -163.94 -1.0472 1.3400 1.9334 2020.5 -0.0076552 3333.8 0.20222 2.6708e-06 3.7442e+05 362.44 381.77 4.2755 0.75720 0.94575 155.39 3.7570 2.7929 0.0025473
-169.62 9.8334e-06 3.4088e-09 -162.00 -162.00 -1.0284 714.54 0.0013995 -162.00 -162.00 -1.0284 1.3395 1.9347 2013.6 -0.0076477 3154.9 0.20182 3.4733e-06 2.8791e+05 363.20 382.72 4.2334 0.76100 0.94956 156.07 3.6609 2.8204 0.0025994
-168.62 1.2839e-05 4.3993e-09 -160.07 -160.07 -1.0098 713.52 0.0014015 -160.07 -160.07 -1.0098 1.3390 1.9359 2006.8 -0.0076401 2989.9 0.20141 4.4917e-06 2.2263e+05 363.96 383.67 4.1922 0.76479 0.95335 156.74 3.5683 2.8479 0.0026518
-167.62 1.6672e-05 5.6468e-09 -158.13 -158.13 -0.99134 712.49 0.0014035 -158.13 -158.13 -0.99134 1.3386 1.9372 2000.0 -0.0076323 2837.5 0.20100 5.7771e-06 1.7310e+05 364.73 384.63 4.1521 0.76856 0.95712 157.41 3.4790 2.8754 0.0027045
-166.62 2.1533e-05 7.2097e-09 -156.19 -156.19 -0.97306 711.47 0.0014055 -156.19 -156.19 -0.97306 1.3382 1.9385 1993.1 -0.0076245 2696.5 0.20058 7.3914e-06 1.3529e+05 365.50 385.59 4.1129 0.77232 0.96087 158.08 3.3927 2.9029 0.0027575
-165.62 2.7666e-05 9.1582e-09 -154.25 -154.25 -0.95494 710.45 0.0014075 -154.25 -154.25 -0.95494 1.3378 1.9398 1986.3 -0.0076165 2566.0 0.20016 9.4084e-06 1.0629e+05 366.27 386.55 4.0746 0.77605 0.96460 158.75 3.3095 2.9304 0.0028108
-164.62 3.5367e-05 1.1575e-08 -152.31 -152.31 -0.93698 709.44 0.0014096 -152.31 -152.31 -0.93698 1.3375 1.9411 1979.4 -0.0076084 2444.9 0.19973 1.1916e-05 83918. 367.05 387.52 4.0372 0.77976 0.96832 159.41 3.2291 2.9579 0.0028643
-163.62 4.4989e-05 1.4560e-08 -150.37 -150.37 -0.91917 708.42 0.0014116 -150.37 -150.37 -0.91917 1.3371 1.9424 1972.6 -0.0076002 2332.3 0.19930 1.5020e-05 66577. 367.83 388.49 4.0008 0.78346 0.97201 160.07 3.1514 2.9854 0.0029182
-162.62 5.6956e-05 1.8228e-08 -148.43 -148.43 -0.90151 707.40 0.0014136 -148.43 -148.43 -0.90151 1.3368 1.9437 1965.8 -0.0075919 2227.7 0.19886 1.8844e-05 53068. 368.62 389.46 3.9651 0.78713 0.97569 160.72 3.0764 3.0129 0.0029723
-161.62 7.1773e-05 2.2716e-08 -146.48 -146.48 -0.88400 706.38 0.0014157 -146.48 -146.48 -0.88400 1.3365 1.9451 1959.0 -0.0075834 2130.2 0.19841 2.3533e-05 42494. 369.41 390.44 3.9304 0.79079 0.97935 161.38 3.0038 3.0404 0.0030268
-160.62 9.0036e-05 2.8183e-08 -144.54 -144.54 -0.86663 705.37 0.0014177 -144.54 -144.54 -0.86663 1.3363 1.9465 1952.1 -0.0075748 2039.2 0.19796 2.9258e-05 34178. 370.20 391.42 3.8964 0.79443 0.98298 162.03 2.9337 3.0679 0.0030815
-159.62 0.00011245 3.4816e-08 -142.59 -142.59 -0.84940 704.35 0.0014197 -142.59 -142.59 -0.84940 1.3360 1.9478 1945.3 -0.0075661 1954.2 0.19751 3.6221e-05 27609. 371.00 392.40 3.8632 0.79805 0.98660 162.68 2.8658 3.0955 0.0031365
-158.62 0.00013985 4.2829e-08 -140.64 -140.64 -0.83231 703.34 0.0014218 -140.64 -140.64 -0.83231 1.3358 1.9492 1938.5 -0.0075573 1874.8 0.19705 4.4652e-05 22395. 371.80 393.39 3.8307 0.80164 0.99020 163.32 2.8002 3.1230 0.0031918
-157.62 0.00017320 5.2470e-08 -138.69 -138.69 -0.81536 702.32 0.0014238 -138.69 -138.69 -0.81536 1.3356 1.9506 1931.7 -0.0075484 1800.3 0.19658 5.4822e-05 18241. 372.60 394.38 3.7990 0.80522 0.99378 163.96 2.7367 3.1505 0.0032474
-156.62 0.00021364 6.4027e-08 -136.74 -136.74 -0.79854 701.31 0.0014259 -136.74 -136.74 -0.79854 1.3354 1.9520 1924.9 -0.0075393 1730.5 0.19611 6.7040e-05 14916. 373.41 395.38 3.7680 0.80878 0.99734 164.60 2.6752 3.1780 0.0033033
-155.62 0.00026248 7.7827e-08 -134.79 -134.79 -0.78185 700.30 0.0014280 -134.79 -134.79 -0.78185 1.3352 1.9534 1918.1 -0.0075302 1664.9 0.19564 8.1666e-05 12245. 374.22 396.38 3.7377 0.81232 1.0009 165.24 2.6157 3.2055 0.0033595
-154.62 0.00032125 9.4245e-08 -132.83 -132.83 -0.76530 699.29 0.0014300 -132.83 -132.83 -0.76530 1.3350 1.9548 1911.3 -0.0075209 1603.3 0.19516 9.9109e-05 10090. 375.03 397.38 3.7081 0.81585 1.0044 165.87 2.5580 3.2330 0.0034160
-153.62 0.00039171 1.1371e-07 -130.88 -130.88 -0.74887 698.27 0.0014321 -130.88 -130.88 -0.74887 1.3349 1.9563 1904.5 -0.0075114 1545.3 0.19468 0.00011984 8344.6 375.85 398.39 3.6792 0.81935 1.0079 166.50 2.5022 3.2606 0.0034727
-152.62 0.00047590 1.3670e-07 -128.92 -128.92 -0.73256 697.26 0.0014342 -128.92 -128.92 -0.73256 1.3348 1.9577 1897.8 -0.0075019 1490.6 0.19419 0.00014439 6925.9 376.67 399.40 3.6509 0.82284 1.0114 167.13 2.4481 3.2881 0.0035298
-151.62 0.00057613 1.6377e-07 -126.96 -126.96 -0.71638 696.25 0.0014363 -126.96 -126.96 -0.71638 1.3346 1.9592 1891.0 -0.0074922 1438.9 0.19370 0.00017336 5768.4 377.49 400.41 3.6232 0.82631 1.0149 167.76 2.3957 3.3156 0.0035872
-150.62 0.00069507 1.9553e-07 -125.00 -125.00 -0.70032 695.24 0.0014384 -125.00 -125.00 -0.70032 1.3345 1.9606 1884.2 -0.0074824 1390.2 0.19320 0.00020744 4820.7 378.32 401.42 3.5962 0.82976 1.0183 168.38 2.3448 3.3431 0.0036448
-149.62 0.00083574 2.3268e-07 -123.04 -123.04 -0.68437 694.23 0.0014404 -123.04 -123.04 -0.68438 1.3345 1.9621 1877.4 -0.0074724 1344.0 0.19270 0.00024740 4042.0 379.15 402.44 3.5697 0.83319 1.0218 169.00 2.2956 3.3706 0.0037027
-148.62 0.0010016 2.7600e-07 -121.08 -121.08 -0.66855 693.22 0.0014425 -121.08 -121.08 -0.66855 1.3344 1.9636 1870.7 -0.0074623 1300.3 0.19220 0.00029412 3400.0 379.99 403.47 3.5438 0.83661 1.0252 169.62 2.2478 3.3982 0.0037610
-147.62 0.0011965 3.2635e-07 -119.11 -119.11 -0.65284 692.21 0.0014447 -119.11 -119.11 -0.65284 1.3343 1.9651 1863.9 -0.0074521 1258.9 0.19169 0.00034856 2869.0 380.83 404.49 3.5185 0.84001 1.0286 170.24 2.2014 3.4257 0.0038195
-146.62 0.0014249 3.8471e-07 -117.15 -117.15 -0.63724 691.20 0.0014468 -117.15 -117.15 -0.63724 1.3343 1.9666 1857.2 -0.0074417 1219.6 0.19117 0.00041181 2428.3 381.67 405.52 3.4938 0.84340 1.0320 170.85 2.1565 3.4532 0.0038783
-145.62 0.0016917 4.5214e-07 -115.18 -115.18 -0.62175 690.19 0.0014489 -115.18 -115.18 -0.62175 1.3343 1.9682 1850.4 -0.0074312 1182.3 0.19066 0.00048510 2061.4 382.51 406.56 3.4695 0.84677 1.0353 171.46 2.1128 3.4807 0.0039374
-144.62 0.0020026 5.2985e-07 -113.21 -113.21 -0.60637 689.18 0.0014510 -113.21 -113.21 -0.60637 1.3343 1.9697 1843.7 -0.0074206 1146.8 0.19014 0.00056976 1755.1 383.36 407.59 3.4458 0.85012 1.0387 172.07 2.0705 3.5082 0.0039967
-143.62 0.0023637 6.1914e-07 -111.24 -111.24 -0.59110 688.17 0.0014531 -111.24 -111.24 -0.59110 1.3343 1.9713 1836.9 -0.0074098 1113.0 0.18962 0.00066731 1498.6 384.21 408.63 3.4226 0.85346 1.0420 172.68 2.0294 3.5358 0.0040564
-142.62 0.0027820 7.2147e-07 -109.27 -109.27 -0.57593 687.16 0.0014553 -109.27 -109.27 -0.57593 1.3343 1.9728 1830.2 -0.0073988 1080.8 0.18909 0.00077939 1283.1 385.07 409.68 3.3999 0.85679 1.0454 173.28 1.9896 3.5633 0.0041164
-141.62 0.0032653 8.3843e-07 -107.30 -107.30 -0.56087 686.15 0.0014574 -107.30 -107.30 -0.56087 1.3343 1.9744 1823.5 -0.0073878 1050.1 0.18856 0.00090784 1101.5 385.93 410.72 3.3777 0.86011 1.0487 173.88 1.9508 3.5908 0.0041766
-140.62 0.0038222 9.7177e-07 -105.32 -105.32 -0.54590 685.14 0.0014596 -105.32 -105.32 -0.54591 1.3344 1.9760 1816.7 -0.0073765 1020.7 0.18803 0.0010547 948.16 386.79 411.77 3.3560 0.86341 1.0520 174.48 1.9133 3.6183 0.0042372
-139.62 0.0044623 1.1234e-06 -103.34 -103.34 -0.53104 684.13 0.0014617 -103.34 -103.34 -0.53105 1.3344 1.9776 1810.0 -0.0073651 992.74 0.18749 0.0012221 818.26 387.65 412.83 3.3347 0.86670 1.0553 175.08 1.8768 3.6459 0.0042980
-138.62 0.0051963 1.2954e-06 -101.37 -101.37 -0.51628 683.12 0.0014639 -101.37 -101.37 -0.51629 1.3345 1.9792 1803.3 -0.0073536 965.97 0.18695 0.0014125 707.94 388.52 413.88 3.3139 0.86998 1.0586 175.67 1.8413 3.6734 0.0043592
-137.62 0.0060358 1.4901e-06 -99.385 -99.385 -0.50162 682.11 0.0014660 -99.386 -99.386 -0.50162 1.3346 1.9808 1796.6 -0.0073419 940.35 0.18641 0.0016287 614.00 389.39 414.94 3.2935 0.87325 1.0619 176.26 1.8069 3.7009 0.0044206
-136.62 0.0069938 1.7099e-06 -97.404 -97.404 -0.48705 681.10 0.0014682 -97.404 -97.404 -0.48705 1.3347 1.9825 1789.9 -0.0073301 915.81 0.18586 0.0018733 533.80 390.26 416.00 3.2735 0.87650 1.0651 176.85 1.7734 3.7284 0.0044823
-135.62 0.0080843 1.9575e-06 -95.420 -95.420 -0.47257 680.09 0.0014704 -95.421 -95.421 -0.47258 1.3348 1.9841 1783.2 -0.0073180 892.30 0.18531 0.0021497 465.17 391.14 417.07 3.2540 0.87975 1.0684 177.44 1.7409 3.7559 0.0045443
-134.62 0.0093230 2.2357e-06 -93.435 -93.435 -0.45819 679.08 0.0014726 -93.436 -93.436 -0.45820 1.3350 1.9858 1776.5 -0.0073059 869.75 0.18476 0.0024613 406.30 392.02 418.14 3.2348 0.88299 1.0716 178.02 1.7093 3.7834 0.0046066
-133.62 0.010727 2.5478e-06 -91.448 -91.448 -0.44390 678.07 0.0014748 -91.450 -91.449 -0.44391 1.3351 1.9875 1769.8 -0.0072935 848.11 0.18421 0.0028116 355.67 392.91 419.21 3.2161 0.88622 1.0749 178.61 1.6786 3.8109 0.0046691
-132.62 0.012315 2.8971e-06 -89.460 -89.460 -0.42970 677.06 0.0014770 -89.461 -89.461 -0.42971 1.3353 1.9892 1763.1 -0.0072810 827.32 0.18365 0.0032049 312.03 393.79 420.29 3.1977 0.88944 1.0781 179.19 1.6488 3.8385 0.0047320
-131.62 0.014106 3.2872e-06 -87.470 -87.469 -0.41559 676.04 0.0014792 -87.471 -87.471 -0.41560 1.3354 1.9909 1756.4 -0.0072684 807.34 0.18309 0.0036453 274.33 394.68 421.36 3.1798 0.89266 1.0813 179.76 1.6197 3.8660 0.0047951
-130.62 0.016124 3.7219e-06 -85.478 -85.477 -0.40156 675.03 0.0014814 -85.479 -85.479 -0.40157 1.3356 1.9926 1749.7 -0.0072555 788.12 0.18253 0.0041375 241.69 395.58 422.44 3.1622 0.89586 1.0846 180.34 1.5915 3.8935 0.0048586
-129.62 0.018392 4.2055e-06 -83.484 -83.484 -0.38762 674.02 0.0014836 -83.486 -83.486 -0.38763 1.3358 1.9944 1743.0 -0.0072425 769.63 0.18196 0.0046867 213.37 396.47 423.53 3.1450 0.89906 1.0878 180.91 1.5641 3.9210 0.0049223
-128.62 0.020935 4.7423e-06 -81.488 -81.488 -0.37376 673.01 0.0014859 -81.491 -81.490 -0.37378 1.3360 1.9961 1736.3 -0.0072294 751.83 0.18140 0.0052981 188.75 397.37 424.62 3.1281 0.90226 1.0910 181.48 1.5374 3.9485 0.0049863
-127.62 0.023783 5.3371e-06 -79.491 -79.491 -0.35999 672.00 0.0014881 -79.494 -79.493 -0.36001 1.3363 1.9979 1729.6 -0.0072160 734.67 0.18083 0.0059776 167.29 398.27 425.71 3.1116 0.90545 1.0942 182.05 1.5114 3.9760 0.0050506
-126.62 0.026966 5.9950e-06 -77.492 -77.492 -0.34630 670.98 0.0014904 -77.495 -77.495 -0.34632 1.3365 1.9997 1722.9 -0.0072025 718.14 0.18025 0.0067313 148.56 399.18 426.80 3.0954 0.90863 1.0974 182.62 1.4861 4.0035 0.0051152
-125.62 0.030515 6.7213e-06 -75.491 -75.491 -0.33269 669.97 0.0014926 -75.494 -75.494 -0.33272 1.3368 2.0015 1716.2 -0.0071888 702.18 0.17968 0.0075660 132.17 400.09 427.89 3.0795 0.91181 1.1006 183.18 1.4615 4.0310 0.0051800
-124.62 0.034467 7.5216e-06 -73.488 -73.488 -0.31916 668.95 0.0014949 -73.492 -73.492 -0.31919 1.3371 2.0033 1709.5 -0.0071749 686.79 0.17910 0.0084885 117.81 401.00 428.99 3.0640 0.91499 1.1038 183.74 1.4375 4.0584 0.0052452
-123.62 0.038859 8.4021e-06 -71.484 -71.483 -0.30571 667.94 0.0014971 -71.488 -71.487 -0.30574 1.3374 2.0051 1702.8 -0.0071609 671.93 0.17852 0.0095065 105.19 401.91 430.10 3.0488 0.91816 1.1070 184.30 1.4141 4.0859 0.0053106
-122.62 0.043731 9.3690e-06 -69.477 -69.476 -0.29234 666.92 0.0014994 -69.482 -69.481 -0.29237 1.3377 2.0070 1696.2 -0.0071466 657.57 0.17794 0.010628 94.092 402.83 431.20 3.0339 0.92134 1.1102 184.86 1.3913 4.1134 0.0053764
-121.62 0.049128 1.0429e-05 -67.469 -67.468 -0.27904 665.91 0.0015017 -67.474 -67.473 -0.27907 1.3380 2.0089 1689.5 -0.0071322 643.70 0.17736 0.011861 84.309 403.75 432.31 3.0193 0.92451 1.1134 185.41 1.3691 4.1409 0.0054424
-120.62 0.055096 1.1589e-05 -65.458 -65.458 -0.26581 664.89 0.0015040 -65.464 -65.463 -0.26585 1.3384 2.0107 1682.8 -0.0071176 630.28 0.17678 0.013215 75.669 404.67 433.42 3.0050 0.92767 1.1166 185.96 1.3475 4.1683 0.0055087
-119.62 0.061684 1.2858e-05 -63.446 -63.445 -0.25266 663.87 0.0015063 -63.452 -63.452 -0.25271 1.3387 2.0126 1676.1 -0.0071028 617.30 0.17619 0.014700 68.027 405.60 434.53 2.9909 0.93084 1.1198 186.51 1.3264 4.1958 0.0055752
-118.62 0.068946 1.4241e-05 -61.432 -61.431 -0.23959 662.86 0.0015086 -61.439 -61.438 -0.23963 1.3391 2.0146 1669.4 -0.0070878 604.74 0.17560 0.016325 61.255 406.53 435.64 2.9772 0.93401 1.1231 187.06 1.3058 4.2233 0.0056421
-117.62 0.076937 1.5749e-05 -59.416 -59.415 -0.22658 661.84 0.0015109 -59.423 -59.422 -0.22663 1.3395 2.0165 1662.8 -0.0070726 592.58 0.17501 0.018101 55.245 407.46 436.76 2.9638 0.93718 1.1263 187.60 1.2857 4.2507 0.0057092
-116.62 0.085718 1.7389e-05 -57.398 -57.396 -0.21365 660.82 0.0015133 -57.406 -57.405 -0.21370 1.3400 2.0184 1656.1 -0.0070573 580.80 0.17442 0.020040 49.901 408.39 437.88 2.9506 0.94035 1.1295 188.14 1.2660 4.2782 0.0057767
-115.62 0.095353 1.9170e-05 -55.377 -55.376 -0.20078 659.80 0.0015156 -55.386 -55.385 -0.20084 1.3404 2.0204 1649.4 -0.0070417 569.38 0.17383 0.022152 45.142 409.33 439.01 2.9377 0.94352 1.1327 188.68 1.2468 4.3056 0.0058444
-114.62 0.10591 2.1102e-05 -53.355 -53.353 -0.18798 658.78 0.0015180 -53.365 -53.364 -0.18805 1.3409 2.0224 1642.7 -0.0070260 558.32 0.17323 0.024451 40.898 410.27 440.13 2.9250 0.94669 1.1360 189.22 1.2281 4.3330 0.0059123
-113.62 0.11746 2.3195e-05 -51.331 -51.329 -0.17525 657.76 0.0015203 -51.342 -51.340 -0.17533 1.3413 2.0244 1636.0 -0.0070100 547.59 0.17264 0.026949 37.107 411.21 441.26 2.9126 0.94987 1.1392 189.75 1.2097 4.3604 0.0059806
-112.62 0.13008 2.5458e-05 -49.304 -49.302 -0.16259 656.73 0.0015227 -49.316 -49.315 -0.16267 1.3418 2.0264 1629.3 -0.0069938 537.18 0.17204 0.029661 33.715 412.16 442.39 2.9005 0.95305 1.1424 190.28 1.1918 4.3879 0.0060491
-111.62 0.14384 2.7903e-05 -47.276 -47.274 -0.14999 655.71 0.0015251 -47.289 -47.287 -0.15008 1.3424 2.0285 1622.7 -0.0069774 527.08 0.17144 0.032600 30.675 413.10 443.53 2.8885 0.95623 1.1457 190.81 1.1742 4.4153 0.0061180
-110.62 0.15884 3.0541e-05 -45.245 -45.243 -0.13746 654.69 0.0015274 -45.259 -45.258 -0.13755 1.3429 2.0305 1616.0 -0.0069609 517.28 0.17084 0.035781 27.948 414.06 444.66 2.8769 0.95942 1.1490 191.34 1.1570 4.4427 0.0061871
-109.62 0.17516 3.3382e-05 -43.212 -43.210 -0.12499 653.66 0.0015298 -43.228 -43.226 -0.12509 1.3435 2.0326 1609.3 -0.0069441 507.76 0.17024 0.039220 25.497 415.01 445.80 2.8654 0.96261 1.1522 191.86 1.1402 4.4701 0.0062564
-108.62 0.19290 3.6440e-05 -41.177 -41.174 -0.11258 652.64 0.0015322 -41.194 -41.192 -0.11269 1.3441 2.0347 1602.6 -0.0069271 498.51 0.16964 0.042933 23.292 415.96 446.94 2.8542 0.96581 1.1555 192.38 1.1236 4.4974 0.0063261
-107.62 0.21215 3.9725e-05 -39.140 -39.137 -0.10024 651.61 0.0015347 -39.158 -39.156 -0.10036 1.3447 2.0369 1595.9 -0.0069098 489.52 0.16903 0.046937 21.305 416.92 448.09 2.8433 0.96901 1.1588 192.90 1.1075 4.5248 0.0063960
-106.62 0.23301 4.3252e-05 -37.101 -37.097 -0.087956 650.58 0.0015371 -37.120 -37.118 -0.088082 1.3453 2.0390 1589.2 -0.0068924 480.79 0.16843 0.051250 19.512 417.88 449.23 2.8325 0.97222 1.1621 193.41 1.0916 4.5522 0.0064662
-105.62 0.25561 4.7032e-05 -35.059 -35.055 -0.075732 649.55 0.0015395 -35.080 -35.078 -0.075868 1.3460 2.0412 1582.6 -0.0068747 472.30 0.16782 0.055891 17.892 418.85 450.38 2.8220 0.97544 1.1655 193.93 1.0760 4.5795 0.0065367
-104.62 0.28004 5.1080e-05 -33.015 -33.011 -0.063567 648.52 0.0015420 -33.038 -33.035 -0.063714 1.3467 2.0434 1575.9 -0.0068569 464.04 0.16721 0.060878 16.426 419.81 451.53 2.8116 0.97867 1.1688 194.44 1.0608 4.6069 0.0066074
-103.62 0.30643 5.5410e-05 -30.969 -30.964 -0.051461 647.49 0.0015444 -30.994 -30.991 -0.051619 1.3474 2.0456 1569.2 -0.0068387 456.00 0.16660 0.066231 15.099 420.78 452.68 2.8015 0.98191 1.1722 194.94 1.0458 4.6342 0.0066785
-102.62 0.33490 6.0035e-05 -28.920 -28.915 -0.039412 646.46 0.0015469 -28.947 -28.944 -0.039582 1.3481 2.0478 1562.5 -0.0068204 448.18 0.16600 0.071971 13.894 421.75 453.84 2.7916 0.98516 1.1755 195.44 1.0310 4.6615 0.0067498
-101.62 0.36558 6.4971e-05 -26.869 -26.863 -0.027419 645.43 0.0015494 -26.898 -26.894 -0.027602 1.3489 2.0501 1555.8 -0.0068018 440.57 0.16539 0.078120 12.801 422.73 454.99 2.7818 0.98841 1.1789 195.95 1.0166 4.6888 0.0068213
-100.62 0.39862 7.0233e-05 -24.816 -24.809 -0.015482 644.39 0.0015519 -24.847 -24.843 -0.015678 1.3497 2.0524 1549.1 -0.0067830 433.16 0.16478 0.084699 11.807 423.70 456.15 2.7723 0.99168 1.1823 196.44 1.0024 4.7161 0.0068932
-99.625 0.43414 7.5836e-05 -22.760 -22.753 -0.0036004 643.36 0.0015544 -22.794 -22.789 -0.0038103 1.3505 2.0547 1542.4 -0.0067639 425.95 0.16416 0.091731 10.901 424.68 457.31 2.7630 0.99496 1.1858 196.94 0.98838 4.7434 0.0069653
-98.625 0.47230 8.1796e-05 -20.702 -20.694 0.0082273 642.32 0.0015569 -20.738 -20.733 0.0080027 1.3514 2.0570 1535.7 -0.0067447 418.92 0.16355 0.099240 10.077 425.66 458.48 2.7538 0.99825 1.1892 197.43 0.97464 4.7707 0.0070377
-97.625 0.51325 8.8129e-05 -18.641 -18.632 0.020002 641.28 0.0015594 -18.680 -18.674 0.019762 1.3522 2.0594 1529.0 -0.0067251 412.07 0.16294 0.10725 9.3239 426.65 459.64 2.7448 1.0016 1.1927 197.92 0.96112 4.7979 0.0071103
-96.625 0.55714 9.4852e-05 -16.577 -16.568 0.031724 640.24 0.0015619 -16.620 -16.614 0.031467 1.3531 2.0618 1522.3 -0.0067053 405.39 0.16233 0.11579 8.6365 427.63 460.81 2.7360 1.0049 1.1962 198.40 0.94783 4.8251 0.0071832
-95.625 0.60416 0.00010198 -14.511 -14.502 0.043394 639.20 0.0015645 -14.557 -14.550 0.043120 1.3540 2.0642 1515.7 -0.0066853 398.88 0.16171 0.12488 8.0078 428.62 461.98 2.7274 1.0082 1.1997 198.88 0.93475 4.8524 0.0072564
-94.625 0.65446 0.00010954 -12.443 -12.432 0.055013 638.16 0.0015670 -12.491 -12.484 0.054721 1.3550 2.0667 1509.0 -0.0066650 392.53 0.16110 0.13455 7.4323 429.61 463.15 2.7189 1.0116 1.2032 199.36 0.92188 4.8796 0.0073299
-93.625 0.70822 0.00011753 -10.372 -10.360 0.066582 637.12 0.0015696 -10.424 -10.416 0.066271 1.3560 2.0691 1502.3 -0.0066444 386.34 0.16048 0.14482 6.9050 430.60 464.32 2.7107 1.0149 1.2068 199.83 0.90921 4.9068 0.0074036
-92.625 0.76564 0.00012599 -8.2981 -8.2855 0.078101 636.07 0.0015722 -8.3535 -8.3452 0.077771 1.3570 2.0716 1495.6 -0.0066236 380.31 0.15987 0.15573 6.4212 431.60 465.49 2.7025 1.0183 1.2104 200.30 0.89673 4.9340 0.0074776
-91.625 0.82689 0.00013492 -6.2216 -6.2081 0.089572 635.02 0.0015747 -6.2808 -6.2719 0.089220 1.3580 2.0742 1488.9 -0.0066025 374.41 0.15925 0.16731 5.9769 432.59 466.67 2.6946 1.0217 1.2140 200.77 0.88445 4.9611 0.0075518
-90.625 0.89218 0.00014435 -4.1424 -4.1278 0.10099 633.98 0.0015773 -4.2056 -4.1959 0.10062 1.3591 2.0767 1482.2 -0.0065811 368.66 0.15864 0.17958 5.5685 433.59 467.84 2.6868 1.0251 1.2177 201.24 0.87236 4.9883 0.0076263
-89.625 0.96172 0.00015430 -2.0605 -2.0447 0.11237 632.93 0.0015800 -2.1279 -2.1174 0.11197 1.3602 2.0793 1475.5 -0.0065595 363.05 0.15802 0.19258 5.1928 434.59 469.02 2.6791 1.0285 1.2213 201.70 0.86045 5.0154 0.0077011
-88.625 1.0357 0.00016478 0.024269 0.041271 0.12370 631.88 0.0015826 -0.047516 -0.036215 0.12328 1.3613 2.0819 1468.8 -0.0065375 357.56 0.15740 0.20633 4.8466 435.59 470.20 2.6717 1.0320 1.2250 202.15 0.84873 5.0425 0.0077761
-87.625 1.1144 0.00017581 2.1119 2.1301 0.13498 630.83 0.0015852 2.0355 2.0476 0.13454 1.3625 2.0846 1462.1 -0.0065153 352.21 0.15679 0.22087 4.5276 436.60 471.39 2.6643 1.0354 1.2288 202.61 0.83718 5.0696 0.0078514
-86.625 1.1979 0.00018742 4.2023 4.2220 0.14622 629.77 0.0015879 4.1211 4.1342 0.14575 1.3637 2.0873 1455.4 -0.0064928 346.98 0.15617 0.23623 4.2331 437.61 472.57 2.6571 1.0389 1.2325 203.06 0.82580 5.0967 0.0079270
-85.625 1.2866 0.00019962 6.2957 6.3168 0.15741 628.72 0.0015905 6.2094 6.2235 0.15691 1.3649 2.0900 1448.8 -0.0064701 341.87 0.15555 0.25245 3.9612 438.61 473.75 2.6501 1.0424 1.2363 203.50 0.81460 5.1237 0.0080028
-84.625 1.3806 0.00021243 8.3920 8.4146 0.16856 627.66 0.0015932 8.3004 8.3155 0.16803 1.3661 2.0927 1442.1 -0.0064470 336.87 0.15494 0.26956 3.7097 439.63 474.94 2.6432 1.0460 1.2402 203.95 0.80356 5.1508 0.0080789
-83.625 1.4803 0.00022588 10.491 10.516 0.17967 626.60 0.0015959 10.394 10.410 0.17911 1.3674 2.0955 1435.4 -0.0064236 331.99 0.15432 0.28760 3.4771 440.64 476.13 2.6364 1.0495 1.2440 204.38 0.79269 5.1778 0.0081553
-82.625 1.5858 0.00023998 12.594 12.620 0.19073 625.54 0.0015986 12.491 12.508 0.19014 1.3687 2.0983 1428.7 -0.0063999 327.22 0.15370 0.30659 3.2616 441.65 477.31 2.6298 1.0531 1.2479 204.82 0.78199 5.2048 0.0082319
-81.625 1.6975 0.00025475 14.699 14.727 0.20175 624.48 0.0016013 14.590 14.609 0.20113 1.3700 2.1012 1422.0 -0.0063759 322.55 0.15309 0.32659 3.0619 442.67 478.50 2.6233 1.0567 1.2519 205.25 0.77144 5.2318 0.0083088
-80.625 1.8155 0.00027022 16.807 16.837 0.21273 623.42 0.0016041 16.692 16.712 0.21208 1.3714 2.1041 1415.4 -0.0063516 317.99 0.15247 0.34763 2.8766 443.69 479.70 2.6169 1.0603 1.2558 205.67 0.76106 5.2587 0.0083860
-79.625 1.9402 0.00028640 18.919 18.951 0.22367 622.36 0.0016068 18.797 18.819 0.22299 1.3728 2.1070 1408.7 -0.0063270 313.52 0.15186 0.36974 2.7046 444.71 480.89 2.6106 1.0639 1.2598 206.10 0.75083 5.2857 0.0084634
-78.625 2.0718 0.00030332 21.034 21.068 0.23457 621.29 0.0016096 20.905 20.928 0.23385 1.3742 2.1099 1402.0 -0.0063021 309.15 0.15124 0.39296 2.5448 445.73 482.08 2.6045 1.0676 1.2639 206.51 0.74076 5.3126 0.0085411
-77.625 2.2107 0.00032100 23.152 23.188 0.24543 620.22 0.0016123 23.016 23.040 0.24468 1.3757 2.1129 1395.3 -0.0062768 304.88 0.15062 0.41735 2.3961 446.75 483.27 2.5985 1.0712 1.2680 206.93 0.73084 5.3395 0.0086190
-76.625 2.3571 0.00033945 25.273 25.312 0.25625 619.15 0.0016151 25.130 25.156 0.25546 1.3772 2.1159 1388.7 -0.0062512 300.69 0.15001 0.44292 2.2577 447.78 484.47 2.5926 1.0749 1.2721 207.34 0.72107 5.3664 0.0086972
-75.625 2.5113 0.00035870 27.398 27.439 0.26704 618.08 0.0016179 27.247 27.275 0.26620 1.3787 2.1190 1382.0 -0.0062253 296.59 0.14939 0.46974 2.1288 448.81 485.67 2.5869 1.0787 1.2762 207.74 0.71146 5.3933 0.0087757
-74.625 2.6736 0.00037877 29.526 29.570 0.27778 617.01 0.0016207 29.366 29.396 0.27691 1.3802 2.1221 1375.4 -0.0061990 292.58 0.14878 0.49783 2.0087 449.83 486.86 2.5812 1.0824 1.2804 208.14 0.70200 5.4201 0.0088544
-73.625 2.8444 0.00039968 31.657 31.704 0.28849 615.93 0.0016236 31.489 31.521 0.28758 1.3818 2.1252 1368.7 -0.0061724 288.65 0.14816 0.52725 1.8966 450.86 488.06 2.5757 1.0862 1.2847 208.54 0.69268 5.4469 0.0089334
-72.625 3.0240 0.00042145 33.792 33.841 0.29916 614.85 0.0016264 33.615 33.649 0.29821 1.3834 2.1284 1362.0 -0.0061454 284.81 0.14755 0.55804 1.7920 451.90 489.26 2.5703 1.0900 1.2889 208.93 0.68351 5.4737 0.0090126
-71.625 3.2127 0.00044411 35.930 35.983 0.30980 613.78 0.0016293 35.745 35.781 0.30880 1.3851 2.1316 1355.4 -0.0061181 281.03 0.14694 0.59024 1.6942 452.93 490.46 2.5650 1.0938 1.2932 209.32 0.67448 5.5005 0.0090922
-70.625 3.4108 0.00046766 38.072 38.128 0.32040 612.69 0.0016321 37.877 37.915 0.31935 1.3867 2.1349 1348.7 -0.0060904 277.34 0.14632 0.62390 1.6028 453.96 491.66 2.5598 1.0976 1.2976 209.70 0.66560 5.5273 0.0091720
-69.625 3.6187 0.00049214 40.217 40.276 0.33097 611.61 0.0016350 40.013 40.053 0.32987 1.3884 2.1382 1342.1 -0.0060624 273.72 0.14571 0.65906 1.5173 455.00 492.86 2.5547 1.1015 1.3020 210.08 0.65687 5.5540 0.0092520
-68.625 3.8367 0.00051756 42.366 42.429 0.34150 610.53 0.0016379 42.152 42.195 0.34036 1.3902 2.1415 1335.5 -0.0060339 270.17 0.14510 0.69577 1.4372 456.04 494.06 2.5497 1.1054 1.3064 210.45 0.64827 5.5807 0.0093324
-67.625 4.0652 0.00054395 44.518 44.585 0.35200 609.44 0.0016409 44.294 44.340 0.35080 1.3919 2.1449 1328.8 -0.0060051 266.69 0.14449 0.73408 1.3622 457.08 495.26 2.5448 1.1093 1.3109 210.82 0.63981 5.6074 0.0094130
-66.625 4.3046 0.00057132 46.674 46.745 0.36246 608.35 0.0016438 46.439 46.488 0.36122 1.3937 2.1483 1322.2 -0.0059760 263.28 0.14388 0.77404 1.2919 458.12 496.46 2.5400 1.1133 1.3154 211.18 0.63150 5.6341 0.0094939
-65.625 4.5551 0.00059970 48.834 48.909 0.37290 607.26 0.0016467 48.588 48.640 0.37160 1.3955 2.1518 1315.6 -0.0059464 259.93 0.14327 0.81570 1.2259 459.16 497.67 2.5353 1.1172 1.3200 211.54 0.62332 5.6608 0.0095750
-64.625 4.8173 0.00062909 50.998 51.077 0.38330 606.16 0.0016497 50.740 50.795 0.38195 1.3974 2.1553 1308.9 -0.0059164 256.65 0.14266 0.85910 1.1640 460.21 498.87 2.5307 1.1212 1.3246 211.89 0.61527 5.6874 0.0096564
-63.625 5.0915 0.00065954 53.165 53.249 0.39367 605.07 0.0016527 52.896 52.954 0.39226 1.3993 2.1588 1302.3 -0.0058861 253.42 0.14205 0.90429 1.1058 461.25 500.07 2.5262 1.1252 1.3293 212.24 0.60736 5.7140 0.0097382
-62.625 5.3781 0.00069104 55.337 55.425 0.40401 603.97 0.0016557 55.055 55.117 0.40254 1.4012 2.1624 1295.7 -0.0058553 250.26 0.14144 0.95134 1.0511 462.30 501.28 2.5218 1.1293 1.3340 212.58 0.59958 5.7406 0.0098201
-61.625 5.6774 0.00072363 57.512 57.605 0.41431 602.87 0.0016587 57.218 57.283 0.41279 1.4031 2.1660 1289.1 -0.0058241 247.16 0.14084 1.0003 0.99972 463.35 502.48 2.5175 1.1333 1.3387 212.92 0.59194 5.7672 0.0099024
-60.625 5.9899 0.00075731 59.691 59.790 0.42459 601.77 0.0016618 59.385 59.453 0.42301 1.4051 2.1697 1282.5 -0.0057925 244.12 0.14023 1.0512 0.95131 464.40 503.68 2.5133 1.1374 1.3435 213.26 0.58442 5.7938 0.0099850
-59.625 6.3160 0.00079212 61.874 61.978 0.43484 600.66 0.0016648 61.554 61.627 0.43320 1.4071 2.1734 1275.9 -0.0057605 241.13 0.13962 1.1041 0.90573 465.45 504.89 2.5091 1.1415 1.3483 213.58 0.57704 5.8203 0.010068
-58.625 6.6561 0.00082806 64.062 64.171 0.44506 599.55 0.0016679 63.728 63.805 0.44335 1.4091 2.1772 1269.3 -0.0057280 238.19 0.13902 1.1591 0.86277 466.50 506.09 2.5051 1.1457 1.3532 213.90 0.56978 5.8468 0.010151
-57.625 7.0107 0.00086516 66.253 66.368 0.45525 598.44 0.0016710 65.905 65.986 0.45348 1.4111 2.1810 1262.7 -0.0056951 235.31 0.13842 1.2161 0.82228 467.55 507.30 2.5011 1.1498 1.3581 214.22 0.56265 5.8733 0.010234
-56.625 7.3801 0.00090343 68.448 68.569 0.46541 597.33 0.0016741 68.086 68.172 0.46358 1.4132 2.1848 1256.1 -0.0056617 232.48 0.13781 1.2754 0.78408 468.60 508.50 2.4972 1.1540 1.3631 214.53 0.55564 5.8998 0.010318
-55.625 7.7648 0.00094288 70.648 70.775 0.47555 596.22 0.0016772 70.271 70.361 0.47364 1.4153 2.1887 1249.5 -0.0056279 229.69 0.13721 1.3369 0.74802 469.66 509.71 2.4934 1.1582 1.3681 214.84 0.54875 5.9263 0.010402
-54.625 8.1652 0.00098355 72.852 72.986 0.48566 595.10 0.0016804 72.460 72.554 0.48368 1.4174 2.1927 1242.9 -0.0055937 226.96 0.13661 1.4006 0.71396 470.72 510.91 2.4897 1.1624 1.3731 215.14 0.54199 5.9527 0.010486
-53.625 8.5819 0.0010254 75.060 75.200 0.49574 593.98 0.0016836 74.652 74.752 0.49369 1.4196 2.1967 1236.3 -0.0055589 224.27 0.13601 1.4667 0.68178 471.77 512.11 2.4860 1.1667 1.3782 215.43 0.53535 5.9792 0.010571
-52.625 9.0151 0.0010685 77.272 77.420 0.50579 592.86 0.0016867 76.849 76.954 0.50368 1.4218 2.2007 1229.8 -0.0055237 221.63 0.13541 1.5353 0.65136 472.83 513.32 2.4824 1.1710 1.3834 215.72 0.52882 6.0056 0.010656
-51.625 9.4655 0.0011129 79.488 79.644 0.51582 591.73 0.0016900 79.049 79.159 0.51363 1.4240 2.2048 1223.2 -0.0054880 219.04 0.13482 1.6062 0.62258 473.89 514.52 2.4789 1.1752 1.3886 216.00 0.52241 6.0320 0.010741
-50.625 9.9335 0.0011586 81.709 81.873 0.52582 590.60 0.0016932 81.253 81.369 0.52356 1.4262 2.2089 1216.6 -0.0054519 216.48 0.13422 1.6797 0.59534 474.95 515.73 2.4755 1.1796 1.3938 216.28 0.51612 6.0584 0.010827
-49.625 10.419 0.0012055 83.935 84.106 0.53580 589.47 0.0016964 83.462 83.584 0.53347 1.4285 2.2131 1210.1 -0.0054152 213.98 0.13363 1.7558 0.56954 476.01 516.93 2.4722 1.1839 1.3991 216.55 0.50994 6.0848 0.010913
-48.625 10.924 0.0012537 86.165 86.344 0.54576 588.34 0.0016997 85.674 85.802 0.54334 1.4308 2.2173 1203.5 -0.0053780 211.51 0.13303 1.8345 0.54510 477.07 518.13 2.4689 1.1883 1.4044 216.82 0.50387 6.1112 0.010999
-47.625 11.448 0.0013032 88.399 88.587 0.55569 587.20 0.0017030 87.891 88.025 0.55319 1.4331 2.2216 1196.9 -0.0053403 209.08 0.13244 1.9159 0.52194 478.14 519.33 2.4657 1.1927 1.4098 217.08 0.49792 6.1375 0.011085
-46.625 11.991 0.0013540 90.638 90.835 0.56559 586.06 0.0017063 90.111 90.252 0.56302 1.4354 2.2259 1190.4 -0.0053020 206.69 0.13185 2.0001 0.49997 479.20 520.53 2.4625 1.1971 1.4153 217.33 0.49207 6.1639 0.011172
-45.625 12.554 0.0014062 92.882 93.088 0.57547 584.92 0.0017096 92.336 92.484 0.57282 1.4378 2.2303 1183.8 -0.0052633 204.34 0.13126 2.0872 0.47912 480.27 521.74 2.4594 1.2015 1.4207 217.58 0.48633 6.1902 0.011259
-44.625 13.137 0.0014597 95.130 95.345 0.58533 583.77 0.0017130 94.565 94.720 0.58260 1.4402 2.2347 1177.3 -0.0052240 202.03 0.13067 2.1771 0.45933 481.33 522.94 2.4564 1.2060 1.4263 217.82 0.48069 6.2165 0.011347
-43.625 13.741 0.0015145 97.383 97.608 0.59517 582.62 0.0017164 96.799 96.961 0.59235 1.4426 2.2392 1170.7 -0.0051841 199.75 0.13008 2.2700 0.44053 482.40 524.14 2.4535 1.2104 1.4319 218.05 0.47516 6.2429 0.011435
-42.625 14.367 0.0015707 99.640 99.876 0.60498 581.47 0.0017198 99.036 99.207 0.60208 1.4450 2.2437 1164.2 -0.0051437 197.51 0.12949 2.3659 0.42267 483.46 525.33 2.4506 1.2149 1.4375 218.28 0.46973 6.2692 0.011523
-41.625 15.015 0.0016282 101.90 102.15 0.61478 580.32 0.0017232 101.28 101.46 0.61179 1.4475 2.2483 1157.7 -0.0051027 195.30 0.12891 2.4649 0.40569 484.53 526.53 2.4478 1.2195 1.4432 218.50 0.46440 6.2955 0.011612
-40.625 15.686 0.0016872 104.17 104.43 0.62455 579.16 0.0017266 103.52 103.71 0.62147 1.4500 2.2529 1151.1 -0.0050611 193.13 0.12832 2.5671 0.38954 485.60 527.73 2.4450 1.2240 1.4489 218.72 0.45917 6.3218 0.011701
-39.625 16.380 0.0017475 106.44 106.71 0.63430 578.00 0.0017301 105.78 105.97 0.63113 1.4525 2.2576 1144.6 -0.0050189 190.99 0.12774 2.6725 0.37418 486.67 528.93 2.4423 1.2286 1.4547 218.93 0.45403 6.3481 0.011790
-38.625 17.097 0.0018092 108.72 109.00 0.64403 576.83 0.0017336 108.03 108.24 0.64077 1.4550 2.2623 1138.0 -0.0049761 188.88 0.12716 2.7813 0.35955 487.74 530.12 2.4397 1.2332 1.4606 219.13 0.44900 6.3744 0.011880
-37.625 17.838 0.0018722 111.00 111.29 0.65373 575.66 0.0017371 110.29 110.51 0.65039 1.4576 2.2671 1131.5 -0.0049327 186.81 0.12658 2.8934 0.34562 488.81 531.32 2.4371 1.2378 1.4665 219.33 0.44405 6.4007 0.011970
-36.625 18.604 0.0019367 113.29 113.59 0.66342 574.49 0.0017407 112.56 112.78 0.65999 1.4602 2.2719 1125.0 -0.0048887 184.76 0.12600 3.0089 0.33235 489.88 532.51 2.4346 1.2424 1.4724 219.52 0.43920 6.4270 0.012060
-35.625 19.395 0.0020026 115.58 115.90 0.67309 573.32 0.0017442 114.83 115.06 0.66956 1.4628 2.2768 1118.5 -0.0048440 182.75 0.12542 3.1280 0.31969 490.95 533.70 2.4321 1.2471 1.4784 219.70 0.43444 6.4533 0.012151
-34.625 20.212 0.0020698 117.88 118.21 0.68274 572.14 0.0017478 117.10 117.34 0.67912 1.4654 2.2818 1111.9 -0.0047987 180.76 0.12485 3.2506 0.30763 492.02 534.89 2.4297 1.2517 1.4845 219.88 0.42977 6.4797 0.012243
-33.625 21.056 0.0021385 120.18 120.52 0.69237 570.96 0.0017514 119.38 119.63 0.68865 1.4681 2.2868 1105.4 -0.0047527 178.80 0.12427 3.3770 0.29612 493.09 536.08 2.4273 1.2564 1.4906 220.05 0.42519 6.5060 0.012334
-32.625 21.926 0.0022085 122.48 122.84 0.70198 569.77 0.0017551 121.66 121.93 0.69817 1.4708 2.2918 1098.9 -0.0047061 176.87 0.12370 3.5071 0.28514 494.17 537.27 2.4250 1.2611 1.4968 220.21 0.42070 6.5323 0.012426
-31.625 22.823 0.0022800 124.80 125.17 0.71158 568.58 0.0017588 123.95 124.23 0.70767 1.4735 2.2970 1092.3 -0.0046587 174.97 0.12313 3.6410 0.27465 495.24 538.46 2.4227 1.2659 1.5031 220.36 0.41629 6.5587 0.012519
-30.625 23.749 0.0023528 127.11 127.50 0.72115 567.39 0.0017625 126.24 126.53 0.71714 1.4762 2.3021 1085.8 -0.0046107 173.09 0.12256 3.7787 0.26464 496.31 539.64 2.4205 1.2706 1.5094 220.51 0.41196 6.5850 0.012612
-29.625 24.703 0.0024270 129.44 129.84 0.73071 566.19 0.0017662 128.54 128.84 0.72660 1.4790 2.3074 1079.3 -0.0045619 171.24 0.12200 3.9205 0.25507 497.38 540.83 2.4184 1.2754 1.5157 220.65 0.40772 6.6114 0.012706
-28.625 25.687 0.0025026 131.76 132.19 0.74025 564.99 0.0017699 130.84 131.16 0.73604 1.4818 2.3126 1072.8 -0.0045124 169.42 0.12143 4.0663 0.24592 498.46 542.01 2.4162 1.2802 1.5222 220.79 0.40356 6.6378 0.012800
-27.625 26.700 0.0025795 134.10 134.54 0.74977 563.78 0.0017737 133.15 133.48 0.74547 1.4846 2.3180 1066.2 -0.0044621 167.62 0.12087 4.2163 0.23717 499.53 543.19 2.4142 1.2850 1.5286 220.91 0.39947 6.6642 0.012894
-26.625 27.743 0.0026578 136.44 136.89 0.75928 562.57 0.0017775 135.47 135.81 0.75487 1.4874 2.3234 1059.7 -0.0044111 165.84 0.12031 4.3705 0.22881 500.60 544.37 2.4122 1.2899 1.5352 221.03 0.39547 6.6906 0.012989
-25.625 28.817 0.0027375 138.78 139.25 0.76876 561.36 0.0017814 137.78 138.14 0.76426 1.4902 2.3289 1053.2 -0.0043593 164.09 0.11975 4.5290 0.22080 501.68 545.55 2.4102 1.2947 1.5418 221.14 0.39154 6.7171 0.013084
-24.625 29.923 0.0028185 141.13 141.62 0.77824 560.14 0.0017853 140.11 140.48 0.77363 1.4931 2.3344 1046.7 -0.0043067 162.36 0.11919 4.6918 0.21314 502.75 546.72 2.4083 1.2996 1.5485 221.25 0.38768 6.7436 0.013180
-23.625 31.061 0.0029008 143.48 143.99 0.78769 558.92 0.0017892 142.44 142.82 0.78298 1.4960 2.3400 1040.1 -0.0042533 160.65 0.11863 4.8592 0.20580 503.82 547.90 2.4064 1.3045 1.5552 221.35 0.38391 6.7701 0.013277
-22.625 32.232 0.0029844 145.84 146.37 0.79713 557.69 0.0017931 144.77 145.17 0.79232 1.4990 2.3457 1033.6 -0.0041990 158.97 0.11807 5.0311 0.19877 504.90 549.07 2.4045 1.3095 1.5621 221.44 0.38020 6.7967 0.013374
-21.625 33.435 0.0030693 148.21 148.76 0.80656 556.46 0.0017971 147.11 147.52 0.80164 1.5019 2.3514 1027.1 -0.0041439 157.30 0.11752 5.2076 0.19203 505.97 550.24 2.4027 1.3144 1.5690 221.52 0.37656 6.8232 0.013471
-20.625 34.673 0.0031555 150.58 151.15 0.81597 555.23 0.0018011 149.45 149.88 0.81095 1.5049 2.3572 1020.6 -0.0040879 155.66 0.11697 5.3889 0.18557 507.04 551.40 2.4010 1.3194 1.5759 221.59 0.37300 6.8499 0.013569
-19.625 35.946 0.0032430 152.96 153.55 0.82536 553.99 0.0018051 151.80 152.25 0.82024 1.5079 2.3630 1014.0 -0.0040311 154.04 0.11642 5.5750 0.17937 508.11 552.57 2.3992 1.3244 1.5829 221.66 0.36950 6.8765 0.013668
-18.625 37.253 0.0033317 155.34 155.95 0.83474 552.74 0.0018092 154.16 154.62 0.82952 1.5109 2.3689 1007.5 -0.0039733 152.44 0.11587 5.7660 0.17343 509.19 553.73 2.3976 1.3294 1.5901 221.72 0.36608 6.9032 0.013767
-17.625 38.596 0.0034216 157.73 158.36 0.84411 551.49 0.0018133 156.52 157.00 0.83878 1.5140 2.3749 1001.0 -0.0039145 150.86 0.11532 5.9621 0.16773 510.26 554.89 2.3959 1.3345 1.5972 221.77 0.36272 6.9300 0.013867
-16.625 39.976 0.0035126 160.13 160.78 0.85346 550.24 0.0018174 158.89 159.39 0.84803 1.5171 2.3810 994.44 -0.0038549 149.29 0.11478 6.1632 0.16225 511.33 556.05 2.3943 1.3395 1.6045 221.81 0.35942 6.9568 0.013968
-15.625 41.392 0.0036048 162.53 163.20 0.86280 548.98 0.0018216 161.26 161.78 0.85726 1.5202 2.3871 987.91 -0.0037942 147.75 0.11423 6.3696 0.15700 512.40 557.20 2.3927 1.3446 1.6119 221.85 0.35619 6.9836 0.014069
-14.625 42.846 0.0036982 164.93 165.63 0.87212 547.71 0.0018258 163.64 164.18 0.86649 1.5233 2.3933 981.37 -0.0037325 146.22 0.11369 6.5812 0.15195 513.47 558.36 2.3912 1.3497 1.6193 221.87 0.35302 7.0105 0.014170
-13.625 44.338 0.0037926 167.34 168.07 0.88144 546.44 0.0018300 166.02 166.58 0.87569 1.5264 2.3996 974.83 -0.0036698 144.72 0.11315 6.7983 0.14710 514.54 559.51 2.3897 1.3549 1.6268 221.89 0.34992 7.0375 0.014273
-12.625 45.870 0.0038881 169.76 170.51 0.89073 545.17 0.0018343 168.41 168.99 0.88489 1.5296 2.4059 968.29 -0.0036061 143.23 0.11261 7.0208 0.14243 515.61 560.65 2.3883 1.3600 1.6344 221.90 0.34688 7.0646 0.014376
-11.625 47.440 0.0039846 172.18 172.96 0.90002 543.89 0.0018386 170.81 171.41 0.89407 1.5328 2.4124 961.75 -0.0035413 141.76 0.11208 7.2490 0.13795 516.68 561.80 2.3868 1.3652 1.6421 221.91 0.34389 7.0917 0.014479
-10.625 49.051 0.0040820 174.61 175.42 0.90929 542.60 0.0018430 173.21 173.83 0.90324 1.5360 2.4189 955.20 -0.0034753 140.30 0.11154 7.4829 0.13364 517.75 562.94 2.3854 1.3704 1.6498 221.90 0.34097 7.1188 0.014584
-9.6250 50.703 0.0041804 177.05 177.88 0.91855 541.31 0.0018474 175.61 176.26 0.91240 1.5393 2.4255 948.65 -0.0034082 138.86 0.11101 7.7226 0.12949 518.81 564.08 2.3841 1.3757 1.6577 221.88 0.33810 7.1461 0.014689
-8.6250 52.396 0.0042797 179.49 180.35 0.92780 540.02 0.0018518 178.03 178.70 0.92154 1.5426 2.4321 942.10 -0.0033400 137.44 0.11048 7.9683 0.12550 519.88 565.21 2.3827 1.3809 1.6657 221.86 0.33529 7.1734 0.014795
-7.6250 54.131 0.0043798 181.94 182.83 0.93703 538.72 0.0018563 180.45 181.14 0.93068 1.5459 2.4389 935.55 -0.0032705 136.03 0.10995 8.2200 0.12165 520.94 566.35 2.3814 1.3862 1.6737 221.83 0.33254 7.2008 0.014902
-6.6250 55.909 0.0044806 184.39 185.31 0.94626 537.41 0.0018608 182.87 183.59 0.93980 1.5492 2.4457 928.99 -0.0031998 134.64 0.10942 8.4779 0.11795 522.01 567.48 2.3801 1.3915 1.6819 221.79 0.32984 7.2284 0.015009
-5.6250 57.730 0.0045822 186.85 187.80 0.95547 536.10 0.0018653 185.30 186.05 0.94892 1.5525 2.4526 922.43 -0.0031279 133.27 0.10889 8.7420 0.11439 523.07 568.60 2.3789 1.3969 1.6902 221.74 0.32720 7.2560 0.015117
-4.6250 59.595 0.0046845 189.32 190.30 0.96467 534.78 0.0018699 187.74 188.51 0.95802 1.5559 2.4596 915.87 -0.0030546 131.91 0.10837 9.0126 0.11096 524.13 569.72 2.3777 1.4022 1.6985 221.68 0.32461 7.2837 0.015226
-3.6250 61.505 0.0047873 191.79 192.80 0.97386 533.45 0.0018746 190.19 190.98 0.96711 1.5593 2.4667 909.30 -0.0029800 130.56 0.10785 9.2896 0.10765 525.19 570.84 2.3765 1.4076 1.7070 221.62 0.32207 7.3115 0.015336
-2.6250 63.461 0.0048907 194.27 195.31 0.98304 532.12 0.0018793 192.64 193.46 0.97620 1.5627 2.4739 902.73 -0.0029041 129.23 0.10733 9.5733 0.10446 526.25 571.96 2.3753 1.4131 1.7156 221.54 0.31958 7.3394 0.015447
-1.6250 65.462 0.0049945 196.75 197.83 0.99221 530.78 0.0018840 195.10 195.95 0.98527 1.5662 2.4811 896.16 -0.0028267 127.91 0.10681 9.8638 0.10138 527.31 573.07 2.3742 1.4185 1.7243 221.45 0.31715 7.3674 0.015559
-0.62500 67.510 0.0050987 199.25 200.35 1.0014 529.44 0.0018888 197.56 198.44 0.99434 1.5696 2.4885 889.58 -0.0027478 126.61 0.10629 10.161 0.098414 528.37 574.18 2.3731 1.4240 1.7331 221.36 0.31476 7.3956 0.015671
0.37500 69.606 0.0052032 201.74 202.89 1.0105 528.09 0.0018936 200.03 200.94 1.0034 1.5731 2.4960 883.00 -0.0026675 125.32 0.10578 10.466 0.095552 529.42 575.28 2.3720 1.4295 1.7421 221.26 0.31242 7.4239 0.015785
1.3750 71.749 0.0053079 204.25 205.43 1.0197 526.73 0.0018985 202.51 203.45 1.0124 1.5767 2.5035 876.42 -0.0025856 124.04 0.10527 10.777 0.092790 530.48 576.38 2.3709 1.4350 1.7512 221.14 0.31013 7.4523 0.015899
2.3750 73.941 0.0054128 206.76 207.97 1.0288 525.37 0.0019034 204.99 205.96 1.0215 1.5802 2.5112 869.83 -0.0025022 122.78 0.10476 11.096 0.090123 531.53 577.47 2.3699 1.4406 1.7604 221.02 0.30789 7.4808 0.016015
3.3750 76.183 0.0055177 209.28 210.53 1.0379 523.99 0.0019084 207.48 208.48 1.0305 1.5838 2.5190 863.24 -0.0024171 121.53 0.10425 11.422 0.087549 532.58 578.56 2.3688 1.4462 1.7697 220.89 0.30569 7.5095 0.016131
4.3750 78.475 0.0056225 211.80 213.09 1.0470 522.62 0.0019134 209.98 211.01 1.0395 1.5874 2.5268 856.64 -0.0023303 120.29 0.10374 11.756 0.085062 533.63 579.65 2.3678 1.4518 1.7792 220.75 0.30354 7.5384 0.016249
5.3750 80.817 0.0057271 214.33 215.66 1.0561 521.23 0.0019185 212.48 213.55 1.0486 1.5910 2.5348 850.04 -0.0022417 119.06 0.10324 12.098 0.082660 534.67 580.73 2.3669 1.4575 1.7888 220.60 0.30144 7.5674 0.016368
6.3750 83.211 0.0058315 216.87 218.23 1.0652 519.84 0.0019237 215.00 216.10 1.0576 1.5946 2.5429 843.43 -0.0021514 117.85 0.10273 12.447 0.080340 535.72 581.81 2.3659 1.4632 1.7986 220.44 0.29938 7.5966 0.016487
7.3750 85.657 0.0059354 219.41 220.82 1.0743 518.44 0.0019289 217.51 218.65 1.0666 1.5983 2.5511 836.82 -0.0020593 116.65 0.10223 12.805 0.078096 536.76 582.88 2.3650 1.4689 1.8085 220.27 0.29736 7.6259 0.016608
8.3750 88.156 0.0060388 221.96 223.41 1.0834 517.03 0.0019341 220.04 221.22 1.0756 1.6020 2.5595 830.20 -0.0019652 115.46 0.10173 13.170 0.075928 537.80 583.95 2.3640 1.4746 1.8186 220.08 0.29538 7.6555 0.016730
9.3750 90.708 0.0061416 224.52 226.00 1.0924 515.62 0.0019394 222.57 223.79 1.0846 1.6057 2.5679 823.58 -0.0018691 114.28 0.10124 13.545 0.073830 538.84 585.01 2.3631 1.4804 1.8288 219.89 0.29345 7.6852 0.016853
10.375 93.315 0.0062435 227.08 228.61 1.1015 514.19 0.0019448 225.11 226.37 1.0936 1.6095 2.5765 816.96 -0.0017710 113.11 0.10074 13.927 0.071802 539.87 586.07 2.3622 1.4863 1.8392 219.69 0.29156 7.7151 0.016978
11.375 95.977 0.0063446 229.65 231.23 1.1105 512.76 0.0019502 227.66 228.95 1.1025 1.6132 2.5852 810.32 -0.0016708 111.95 0.10025 14.319 0.069840 540.90 587.12 2.3614 1.4921 1.8498 219.48 0.28971 7.7452 0.017103
12.375 98.694 0.0064445 232.23 233.85 1.1196 511.32 0.0019557 230.22 231.55 1.1115 1.6170 2.5940 803.68 -0.0015685 110.80 0.099756 14.719 0.067941 541.93 588.17 2.3605 1.4980 1.8605 219.26 0.28790 7.7756 0.017230
13.375 101.47 0.0065431 234.81 236.48 1.1286 509.87 0.0019613 232.78 234.15 1.1205 1.6208 2.6030 797.04 -0.0014639 109.67 0.099267 15.128 0.066103 542.96 589.21 2.3597 1.5040 1.8715 219.03 0.28612 7.8061 0.017359
14.375 104.30 0.0066403 237.40 239.11 1.1376 508.42 0.0019669 235.35 236.77 1.1295 1.6247 2.6121 790.39 -0.0013569 108.54 0.098779 15.547 0.064323 543.99 590.24 2.3588 1.5099 1.8826 218.79 0.28439 7.8369 0.017488
15.375 107.19 0.0067359 240.00 241.76 1.1467 506.95 0.0019726 237.93 239.39 1.1384 1.6286 2.6214 783.73 -0.0012476 107.43 0.098294 15.974 0.062600 545.01 591.27 2.3580 1.5159 1.8940 218.53 0.28270 7.8680 0.017619
16.375 110.13 0.0068297 242.60 244.41 1.1557 505.48 0.0019783 240.52 242.02 1.1474 1.6324 2.6308 777.07 -0.0011357 106.32 0.097810 16.412 0.060931 546.03 592.29 2.3572 1.5220 1.9055 218.27 0.28104 7.8993 0.017752
17.375 113.14 0.0069215 245.22 247.07 1.1647 504.00 0.0019841 243.11 244.66 1.1564 1.6364 2.6403 770.40 -0.0010213 105.22 0.097328 16.859 0.059314 547.04 593.31 2.3564 1.5281 1.9172 217.99 0.27942 7.9308 0.017886
18.375 116.21 0.0070110 247.84 249.74 1.1737 502.50 0.0019900 245.72 247.31 1.1653 1.6403 2.6501 763.72 -0.00090422 104.14 0.096848 17.317 0.057747 548.05 594.32 2.3557 1.5342 1.9292 217.71 0.27783 7.9626 0.018021
19.375 119.33 0.0070981 250.46 252.42 1.1827 501.00 0.0019960 248.33 249.97 1.1743 1.6443 2.6599 757.04 -0.00078435 103.06 0.096371 17.785 0.056228 549.06 595.33 2.3549 1.5404 1.9414 217.41 0.27628 7.9947 0.018159
20.375 122.52 0.0071825 253.09 255.11 1.1917 499.49 0.0020020 250.95 252.64 1.1832 1.6483 2.6700 750.35 -0.00066161 101.99 0.095895 18.263 0.054756 550.07 596.32 2.3541 1.5466 1.9538 217.10 0.27477 8.0272 0.018297
21.375 125.77 0.0072640 255.73 257.80 1.2006 497.97 0.0020082 253.57 255.32 1.1922 1.6523 2.6802 743.64 -0.00053589 100.93 0.095420 18.752 0.053328 551.07 597.31 2.3534 1.5528 1.9665 216.78 0.27329 8.0599 0.018438
22.375 129.08 0.0073422 258.38 260.50 1.2096 496.43 0.0020144 256.21 258.00 1.2012 1.6563 2.6906 736.94 -0.00040708 99.877 0.094948 19.252 0.051943 552.07 598.30 2.3526 1.5591 1.9795 216.45 0.27184 8.0929 0.018580
23.375 132.46 0.0074169 261.04 263.21 1.2186 494.89 0.0020206 258.86 260.70 1.2101 1.6604 2.7012 730.22 -0.00027505 98.834 0.094478 19.763 0.050600 553.06 599.27 2.3519 1.5655 1.9927 216.11 0.27043 8.1263 0.018724
24.375 135.90 0.0074879 263.70 265.93 1.2275 493.34 0.0020270 261.51 263.41 1.2191 1.6645 2.7120 723.49 -0.00013968 97.800 0.094009 20.285 0.049297 554.05 600.24 2.3512 1.5718 2.0061 215.75 0.26906 8.1600 0.018870
25.375 139.41 0.0075547 266.37 268.66 1.2365 491.77 0.0020335 264.17 266.13 1.2280 1.6686 2.7230 716.76 -8.3775e-07 96.773 0.093543 20.820 0.048032 555.03 601.20 2.3504 1.5783 2.0199 215.39 0.26771 8.1941 0.019017
26.375 142.98 0.0076170 269.05 271.39 1.2454 490.20 0.0020400 266.84 268.85 1.2370 1.6728 2.7342 710.01 0.00014161 95.755 0.093078 21.366 0.046804 556.01 602.15 2.3497 1.5847 2.0340 215.01 0.26640 8.2286 0.019167
27.375 146.62 0.0076746 271.73 274.14 1.2544 488.61 0.0020466 269.52 271.59 1.2459 1.6770 2.7456 703.26 0.00028782 94.745 0.092615 21.924 0.045612 556.99 603.10 2.3490 1.5913 2.0484 214.62 0.26512 8.2634 0.019319
28.375 150.33 0.0077269 274.42 276.89 1.2633 487.01 0.0020533 272.21 274.34 1.2549 1.6812 2.7573 696.49 0.00043793 93.742 0.092154 22.495 0.044454 557.96 604.03 2.3483 1.5978 2.0631 214.21 0.26387 8.2987 0.019472
29.375 154.10 0.0077737 277.12 279.65 1.2723 485.40 0.0020601 274.91 277.10 1.2638 1.6854 2.7691 689.72 0.00059212 92.747 0.091695 23.079 0.043329 558.92 604.96 2.3476 1.6044 2.0781 213.80 0.26265 8.3344 0.019628
30.375 157.94 0.0078144 279.83 282.42 1.2812 483.78 0.0020671 277.62 279.87 1.2728 1.6897 2.7813 682.93 0.00075055 91.760 0.091238 23.676 0.042237 559.88 605.88 2.3469 1.6111 2.0935 213.37 0.26147 8.3705 0.019786
31.375 161.86 0.0078486 282.54 285.20 1.2901 482.15 0.0020741 280.34 282.66 1.2818 1.6939 2.7936 676.13 0.00091340 90.779 0.090782 24.287 0.041175 560.84 606.79 2.3462 1.6178 2.1092 212.93 0.26031 8.4071 0.019947
32.375 165.84 0.0078759 285.27 287.99 1.2991 480.50 0.0020812 283.07 285.45 1.2908 1.6983 2.8063 669.32 0.0010809 89.806 0.090328 24.911 0.040143 561.79 607.69 2.3455 1.6246 2.1254 212.48 0.25919 8.4442 0.020110
33.375 169.90 0.0078958 288.00 290.78 1.3080 478.83 0.0020884 285.81 288.26 1.2997 1.7026 2.8192 662.50 0.0012532 88.840 0.089876 25.549 0.039140 562.73 608.58 2.3448 1.6314 2.1419 212.01 0.25809 8.4818 0.020275
34.375 174.02 0.0079076 290.73 293.59 1.3169 477.16 0.0020957 288.56 291.07 1.3087 1.7070 2.8324 655.67 0.0014305 87.880 0.089426 26.202 0.038164 563.67 609.46 2.3440 1.6383 2.1589 211.53 0.25702 8.5199 0.020443
35.375 178.22 0.0079108 293.48 296.40 1.3258 475.47 0.0021032 291.32 293.90 1.3177 1.7114 2.8459 648.82 0.0016131 86.927 0.088977 26.870 0.037216 564.60 610.33 2.3433 1.6452 2.1763 211.04 0.25599 8.5586 0.020613
36.375 182.50 0.0079048 296.23 299.23 1.3347 473.77 0.0021107 294.09 296.74 1.3267 1.7158 2.8597 641.96 0.0018012 85.980 0.088531 27.553 0.036293 565.52 611.19 2.3426 1.6522 2.1942 210.53 0.25498 8.5978 0.020786
37.375 186.84 0.0078889 298.99 302.06 1.3436 472.05 0.0021184 296.87 299.60 1.3357 1.7203 2.8739 635.08 0.0019950 85.040 0.088085 28.252 0.035395 566.44 612.04 2.3419 1.6592 2.2125 210.01 0.25400 8.6376 0.020962
38.375 191.27 0.0078624 301.76 304.90 1.3525 470.31 0.0021262 299.66 302.46 1.3447 1.7248 2.8884 628.19 0.0021949 84.105 0.087642 28.967 0.034522 567.35 612.88 2.3411 1.6663 2.2314 209.47 0.25305 8.6780 0.021141
39.375 195.77 0.0078246 304.54 307.75 1.3614 468.56 0.0021342 302.46 305.34 1.3537 1.7293 2.9033 621.29 0.0024011 83.177 0.087200 29.699 0.033671 568.26 613.70 2.3404 1.6734 2.2508 208.92 0.25213 8.7190 0.021323
40.375 200.34 0.0077747 307.33 310.62 1.3703 466.80 0.0021423 305.27 308.23 1.3627 1.7339 2.9185 614.37 0.0026140 82.254 0.086760 30.447 0.032844 569.15 614.52 2.3396 1.6806 2.2708 208.36 0.25123 8.7608 0.021508
41.375 205.00 0.0077117 310.12 313.49 1.3792 465.01 0.0021505 308.10 311.14 1.3718 1.7385 2.9342 607.43 0.0028338 81.338 0.086322 31.214 0.032037 570.04 615.32 2.3389 1.6879 2.2913 207.78 0.25037 8.8032 0.021696
42.375 209.73 0.0076349 312.92 316.37 1.3881 463.21 0.0021588 310.94 314.06 1.3808 1.7432 2.9502 600.47 0.0030609 80.426 0.085885 31.998 0.031252 570.92 616.11 2.3381 1.6952 2.3125 207.19 0.24953 8.8463 0.021888
43.375 214.54 0.0075431 315.73 319.25 1.3970 461.40 0.0021673 313.79 316.99 1.3899 1.7478 2.9667 593.50 0.0032957 79.520 0.085449 32.800 0.030488 571.79 616.88 2.3373 1.7027 2.3344 206.58 0.24871 8.8902 0.022084
44.375 219.43 0.0074353 318.55 322.15 1.4059 459.56 0.0021760 316.65 319.94 1.3989 1.7525 2.9837 586.51 0.0035386 78.619 0.085015 33.622 0.029742 572.65 617.65 2.3365 1.7101 2.3569 205.96 0.24793 8.9349 0.022283
45.375 224.41 0.0073104 321.38 325.06 1.4148 457.71 0.0021848 319.52 322.90 1.4080 1.7573 3.0012 579.50 0.0037900 77.723 0.084583 34.463 0.029016 573.50 618.40 2.3357 1.7177 2.3802 205.32 0.24717 8.9805 0.022485
46.375 229.46 0.0071672 324.21 327.98 1.4237 455.83 0.0021938 322.41 325.88 1.4171 1.7621 3.0192 572.46 0.0040504 76.832 0.084152 35.325 0.028308 574.34 619.13 2.3349 1.7253 2.4042 204.67 0.24644 9.0269 0.022692
47.375 234.60 0.0070043 327.06 330.91 1.4326 453.94 0.0022029 325.31 328.87 1.4262 1.7669 3.0377 565.41 0.0043202 75.946 0.083723 36.208 0.027618 575.17 619.85 2.3340 1.7329 2.4291 204.00 0.24573 9.0742 0.022903
48.375 239.83 0.0068203 329.91 333.85 1.4415 452.03 0.0022123 328.22 331.88 1.4353 1.7718 3.0569 558.34 0.0046000 75.064 0.083295 37.112 0.026945 576.00 620.55 2.3332 1.7407 2.4548 203.31 0.24505 9.1224 0.023119
49.375 245.13 0.0066137 332.77 336.80 1.4503 450.09 0.0022218 331.15 334.90 1.4445 1.7767 3.0766 551.24 0.0048904 74.186 0.082868 38.039 0.026289 576.81 621.24 2.3323 1.7485 2.4815 202.61 0.24440 9.1716 0.023339
50.375 250.53 0.0063827 335.64 339.76 1.4592 448.13 0.0022315 334.09 337.94 1.4536 1.7817 3.0970 544.13 0.0051920 73.313 0.082442 38.989 0.025648 577.61 621.91 2.3314 1.7564 2.5092 201.89 0.24377 9.2219 0.023564
51.375 256.01 0.0061257 338.52 342.72 1.4681 446.15 0.0022414 337.04 341.00 1.4628 1.7867 3.1181 536.98 0.0055054 72.443 0.082018 39.962 0.025024 578.39 622.56 2.3304 1.7644 2.5379 201.16 0.24317 9.2733 0.023794
52.375 261.57 0.0058406 341.41 345.70 1.4770 444.15 0.0022515 340.01 344.07 1.4720 1.7918 3.1400 529.82 0.0058313 71.577 0.081595 40.961 0.024414 579.17 623.20 2.3295 1.7724 2.5677 200.41 0.24260 9.3258 0.024029
53.375 267.23 0.0055253 344.31 348.69 1.4859 442.12 0.0022618 343.00 347.17 1.4812 1.7969 3.1627 522.62 0.0061705 70.715 0.081174 41.985 0.023818 579.93 623.81 2.3285 1.7805 2.5987 199.63 0.24205 9.3795 0.024270
54.375 272.97 0.0051775 347.21 351.70 1.4948 440.06 0.0022724 346.00 350.28 1.4904 1.8021 3.1862 515.40 0.0065239 69.856 0.080753 43.036 0.023237 580.68 624.41 2.3274 1.7887 2.6310 198.85 0.24154 9.4344 0.024516
55.375 278.81 0.0047947 350.13 354.71 1.5037 437.98 0.0022832 349.02 353.40 1.4997 1.8073 3.2106 508.15 0.0068923 69.001 0.080334 44.114 0.022669 581.41 624.99 2.3264 1.7969 2.6646 198.04 0.24105 9.4907 0.024769
56.375 284.74 0.0043741 353.05 357.73 1.5126 435.87 0.0022943 352.05 356.55 1.5090 1.8126 3.2360 500.87 0.0072767 68.148 0.079915 45.221 0.022114 582.13 625.54 2.3253 1.8052 2.6998 197.22 0.24059 9.5484 0.025028
57.375 290.76 0.0039127 355.99 360.76 1.5215 433.73 0.0023056 355.10 359.72 1.5183 1.8179 3.2624 493.56 0.0076782 67.299 0.079498 46.358 0.021571 582.83 626.07 2.3241 1.8136 2.7365 196.37 0.24016 9.6075 0.025294
58.375 296.87 0.0034073 358.93 363.81 1.5303 431.56 0.0023172 358.17 362.91 1.5276 1.8233 3.2900 486.22 0.0080980 66.451 0.079082 47.525 0.021041 583.52 626.58 2.3230 1.8220 2.7749 195.51 0.23976 9.6682 0.025568
59.375 303.08 0.0028542 361.89 366.86 1.5392 429.36 0.0023290 361.25 366.12 1.5370 1.8288 3.3188 478.84 0.0085373 65.606 0.078666 48.726 0.020523 584.18 627.07 2.3218 1.8305 2.8152 194.63 0.23939 9.7305 0.025849
60.375 309.38 0.0022494 364.85 369.93 1.5481 427.13 0.0023412 364.36 369.35 1.5464 1.8343 3.3489 471.43 0.0089976 64.763 0.078251 49.960 0.020016 584.83 627.53 2.3205 1.8391 2.8576 193.73 0.23905 9.7945 0.026138
61.375 315.78 0.0015885 367.83 373.01 1.5570 424.87 0.0023537 367.48 372.60 1.5558 1.8400 3.3805 463.99 0.0094803 63.922 0.077838 51.229 0.019520 585.46 627.96 2.3192 1.8479 2.9022 192.82 0.23873 9.8603 0.026436
62.375 322.28 0.00086669 370.81 376.10 1.5660 422.56 0.0023665 370.62 375.88 1.5653 1.8457 3.4136 456.50 0.0099871 63.083 0.077425 52.535 0.019035 586.07 628.37 2.3178 1.8567 2.9492 191.88 0.23845 9.9281 0.026744
63.375 328.88 7.8516e-05 373.80 379.20 1.5749 420.22 0.0023797 373.79 379.18 1.5748 1.8514 3.4483 448.97 0.010520 62.244 0.077012 53.879 0.018560 586.66 628.74 2.3164 1.8656 2.9989 190.92 0.23819 9.9979 0.027061
64.375 369.02 undefined 375.77 381.82 1.5807 420.00 0.0023810 375.77 381.82 1.5807 1.8541 3.4307 451.55 0.010314 62.184 0.077047 420.00 0.0023810 375.77 381.82 1.5807 1.8541 3.4307 451.55 0.010314 62.184 0.077047
65.375 412.78 undefined 377.62 384.40 1.5862 420.00 0.0023810 377.62 384.40 1.5862 1.8565 3.4086 455.12 0.010039 62.206 0.077130 420.00 0.0023810 377.62 384.40 1.5862 1.8565 3.4086 455.12 0.010039 62.206 0.077130
66.375 456.64 undefined 379.48 386.98 1.5917 420.00 0.0023810 379.48 386.98 1.5917 1.8590 3.3876 458.62 0.0097741 62.228 0.077214 420.00 0.0023810 379.48 386.98 1.5917 1.8590 3.3876 458.62 0.0097741 62.228 0.077214
67.375 500.60 undefined 381.34 389.56 1.5971 420.00 0.0023810 381.34 389.56 1.5971 1.8616 3.3678 462.05 0.0095182 62.250 0.077299 420.00 0.0023810 381.34 389.56 1.5971 1.8616 3.3678 462.05 0.0095182 62.250 0.077299
68.375 544.66 undefined 383.20 392.14 1.6026 420.00 0.0023810 383.20 392.14 1.6026 1.8642 3.3489 465.41 0.0092709 62.272 0.077385 420.00 0.0023810 383.20 392.14 1.6026 1.8642 3.3489 465.41 0.0092709 62.272 0.077385
69.375 588.80 undefined 385.07 394.73 1.6080 420.00 0.0023810 385.07 394.73 1.6080 1.8669 3.3309 468.71 0.0090318 62.293 0.077471 420.00 0.0023810 385.07 394.73 1.6080 1.8669 3.3309 468.71 0.0090318 62.293 0.077471
70.375 633.04 undefined 386.94 397.33 1.6135 420.00 0.0023810 386.94 397.33 1.6135 1.8697 3.3139 471.95 0.0088004 62.315 0.077559 420.00 0.0023810 386.94 397.33 1.6135 1.8697 3.3139 471.95 0.0088004 62.315 0.077559
71.375 677.36 undefined 388.81 399.93 1.6189 420.00 0.0023810 388.81 399.93 1.6189 1.8725 3.2976 475.13 0.0085762 62.337 0.077647 420.00 0.0023810 388.81 399.93 1.6189 1.8725 3.2976 475.13 0.0085762 62.337 0.077647
72.375 721.75 undefined 390.68 402.53 1.6244 420.00 0.0023810 390.68 402.53 1.6244 1.8754 3.2821 478.26 0.0083589 62.359 0.077736 420.00 0.0023810 390.68 402.53 1.6244 1.8754 3.2821 478.26 0.0083589 62.359 0.077736
73.375 766.23 undefined 392.56 405.14 1.6298 420.00 0.0023810 392.56 405.14 1.6298 1.8784 3.2673 481.33 0.0081481 62.381 0.077825 420.00 0.0023810 392.56 405.14 1.6298 1.8784 3.2673 481.33 0.0081481 62.381 0.077825
74.375 810.77 undefined 394.44 407.75 1.6352 420.00 0.0023810 394.44 407.75 1.6352 1.8814 3.2532 484.36 0.0079434 62.403 0.077915 420.00 0.0023810 394.44 407.75 1.6352 1.8814 3.2532 484.36 0.0079434 62.403 0.077915
75.375 855.38 undefined 396.32 410.36 1.6406 420.00 0.0023810 396.32 410.36 1.6406 1.8844 3.2397 487.34 0.0077446 62.424 0.078006 420.00 0.0023810 396.32 410.36 1.6406 1.8844 3.2397 487.34 0.0077446 62.424 0.078006
76.375 900.06 undefined 398.21 412.98 1.6460 420.00 0.0023810 398.21 412.98 1.6460 1.8875 3.2268 490.27 0.0075513 62.446 0.078097 420.00 0.0023810 398.21 412.98 1.6460 1.8875 3.2268 490.27 0.0075513 62.446 0.078097
77.375 944.81 undefined 400.10 415.61 1.6514 420.00 0.0023810 400.10 415.61 1.6514 1.8907 3.2145 493.16 0.0073634 62.468 0.078190 420.00 0.0023810 400.10 415.61 1.6514 1.8907 3.2145 493.16 0.0073634 62.468 0.078190
78.375 989.61 undefined 401.99 418.23 1.6568 420.00 0.0023810 401.99 418.23 1.6568 1.8939 3.2027 496.01 0.0071805 62.490 0.078282 420.00 0.0023810 401.99 418.23 1.6568 1.8939 3.2027 496.01 0.0071805 62.490 0.078282
79.375 1034.5 undefined 403.88 420.87 1.6622 420.00 0.0023810 403.88 420.87 1.6622 1.8972 3.1914 498.81 0.0070024 62.512 0.078375 420.00 0.0023810 403.88 420.87 1.6622 1.8972 3.1914 498.81 0.0070024 62.512 0.078375
80.375 1079.4 undefined 405.78 423.50 1.6676 420.00 0.0023810 405.78 423.50 1.6676 1.9005 3.1806 501.58 0.0068290 62.534 0.078469 420.00 0.0023810 405.78 423.50 1.6676 1.9005 3.1806 501.58 0.0068290 62.534 0.078469
81.375 1124.4 undefined 407.68 426.14 1.6729 420.00 0.0023810 407.68 426.14 1.6729 1.9038 3.1702 504.31 0.0066599 62.556 0.078563 420.00 0.0023810 407.68 426.14 1.6729 1.9038 3.1702 504.31 0.0066599 62.556 0.078563
82.375 1169.4 undefined 409.59 428.79 1.6783 420.00 0.0023810 409.59 428.79 1.6783 1.9072 3.1603 507.00 0.0064951 62.578 0.078658 420.00 0.0023810 409.59 428.79 1.6783 1.9072 3.1603 507.00 0.0064951 62.578 0.078658
83.375 1214.4 undefined 411.50 431.44 1.6837 420.00 0.0023810 411.50 431.44 1.6837 1.9106 3.1507 509.66 0.0063343 62.600 0.078754 420.00 0.0023810 411.50 431.44 1.6837 1.9106 3.1507 509.66 0.0063343 62.600 0.078754
84.375 1259.6 undefined 413.41 434.09 1.6890 420.00 0.0023810 413.41 434.09 1.6890 1.9140 3.1416 512.29 0.0061774 62.622 0.078850 420.00 0.0023810 413.41 434.09 1.6890 1.9140 3.1416 512.29 0.0061774 62.622 0.078850
85.375 1304.7 undefined 415.33 436.75 1.6944 420.00 0.0023810 415.33 436.75 1.6944 1.9175 3.1329 514.88 0.0060242 62.644 0.078946 420.00 0.0023810 415.33 436.75 1.6944 1.9175 3.1329 514.88 0.0060242 62.644 0.078946
86.375 1349.9 undefined 417.25 439.41 1.6997 420.00 0.0023810 417.25 439.41 1.6997 1.9210 3.1245 517.45 0.0058746 62.666 0.079043 420.00 0.0023810 417.25 439.41 1.6997 1.9210 3.1245 517.45 0.0058746 62.666 0.079043
87.375 1395.1 undefined 419.17 442.07 1.7051 420.00 0.0023810 419.17 442.07 1.7051 1.9246 3.1164 519.98 0.0057285 62.688 0.079140 420.00 0.0023810 419.17 442.07 1.7051 1.9246 3.1164 519.98 0.0057285 62.688 0.079140
88.375 1440.4 undefined 421.10 444.74 1.7104 420.00 0.0023810 421.10 444.74 1.7104 1.9281 3.1087 522.49 0.0055857 62.710 0.079238 420.00 0.0023810 421.10 444.74 1.7104 1.9281 3.1087 522.49 0.0055857 62.710 0.079238
89.375 1485.7 undefined 423.03 447.42 1.7157 420.00 0.0023810 423.03 447.42 1.7157 1.9317 3.1013 524.97 0.0054461 62.732 0.079336 420.00 0.0023810 423.03 447.42 1.7157 1.9317 3.1013 524.97 0.0054461 62.732 0.079336
90.375 1531.1 undefined 424.96 450.09 1.7211 420.00 0.0023810 424.96 450.09 1.7211 1.9354 3.0941 527.42 0.0053096 62.754 0.079435 420.00 0.0023810 424.96 450.09 1.7211 1.9354 3.0941 527.42 0.0053096 62.754 0.079435
91.375 1576.5 undefined 426.90 452.78 1.7264 420.00 0.0023810 426.90 452.78 1.7264 1.9390 3.0873 529.84 0.0051761 62.776 0.079534 420.00 0.0023810 426.90 452.78 1.7264 1.9390 3.0873 529.84 0.0051761 62.776 0.079534
92.375 1621.9 undefined 428.84 455.46 1.7317 420.00 0.0023810 428.84 455.46 1.7317 1.9427 3.0807 532.24 0.0050454 62.798 0.079634 420.00 0.0023810 428.84 455.46 1.7317 1.9427 3.0807 532.24 0.0050454 62.798 0.079634
93.375 1667.3 undefined 430.78 458.15 1.7370 420.00 0.0023810 430.78 458.15 1.7370 1.9464 3.0745 534.62 0.0049175 62.820 0.079734 420.00 0.0023810 430.78 458.15 1.7370 1.9464 3.0745 534.62 0.0049175 62.820 0.079734
94.375 1712.8 undefined 432.73 460.85 1.7423 420.00 0.0023810 432.73 460.85 1.7423 1.9501 3.0684 536.98 0.0047924 62.842 0.079834 420.00 0.0023810 432.73 460.85 1.7423 1.9501 3.0684 536.98 0.0047924 62.842 0.079834
95.375 1758.3 undefined 434.68 463.55 1.7476 420.00 0.0023810 434.68 463.55 1.7476 1.9538 3.0626 539.31 0.0046698 62.864 0.079935 420.00 0.0023810 434.68 463.55 1.7476 1.9538 3.0626 539.31 0.0046698 62.864 0.079935
96.375 1803.8 undefined 436.64 466.25 1.7529 420.00 0.0023810 436.64 466.25 1.7529 1.9575 3.0571 541.62 0.0045498 62.886 0.080037 420.00 0.0023810 436.64 466.25 1.7529 1.9575 3.0571 541.62 0.0045498 62.886 0.080037
97.375 1849.4 undefined 438.60 468.96 1.7582 420.00 0.0023810 438.60 468.96 1.7582 1.9613 3.0517 543.91 0.0044322 62.908 0.080138 420.00 0.0023810 438.60 468.96 1.7582 1.9613 3.0517 543.91 0.0044322 62.908 0.080138
98.375 1895.0 undefined 440.56 471.67 1.7635 420.00 0.0023810 440.56 471.67 1.7635 1.9651 3.0466 546.18 0.0043170 62.930 0.080241 420.00 0.0023810 440.56 471.67 1.7635 1.9651 3.0466 546.18 0.0043170 62.930 0.080241
99.375 1940.6 undefined 442.53 474.38 1.7688 420.00 0.0023810 442.53 474.38 1.7688 1.9689 3.0417 548.43 0.0042041 62.952 0.080343 420.00 0.0023810 442.53 474.38 1.7688 1.9689 3.0417 548.43 0.0042041 62.952 0.080343
100.38 1986.2 undefined 444.50 477.10 1.7741 420.00 0.0023810 444.50 477.10 1.7741 1.9727 3.0370 550.66 0.0040934 62.974 0.080446 420.00 0.0023810 444.50 477.10 1.7741 1.9727 3.0370 550.66 0.0040934 62.974 0.080446
101.38 2031.8 undefined 446.47 479.83 1.7794 420.00 0.0023810 446.47 479.83 1.7794 1.9765 3.0325 552.87 0.0039848 62.996 0.080550 420.00 0.0023810 446.47 479.83 1.7794 1.9765 3.0325 552.87 0.0039848 62.996 0.080550
102.38 2077.5 undefined 448.45 482.55 1.7846 420.00 0.0023810 448.45 482.55 1.7846 1.9804 3.0282 555.06 0.0038784 63.018 0.080653 420.00 0.0023810 448.45 482.55 1.7846 1.9804 3.0282 555.06 0.0038784 63.018 0.080653
103.38 2123.2 undefined 450.43 485.29 1.7899 420.00 0.0023810 450.43 485.29 1.7899 1.9842 3.0240 557.24 0.0037741 63.040 0.080757 420.00 0.0023810 450.43 485.29 1.7899 1.9842 3.0240 557.24 0.0037741 63.040 0.080757
104.38 2168.9 undefined 452.42 488.02 1.7952 420.00 0.0023810 452.42 488.02 1.7952 1.9881 3.0201 559.40 0.0036717 63.062 0.080862 420.00 0.0023810 452.42 488.02 1.7952 1.9881 3.0201 559.40 0.0036717 63.062 0.080862
105.38 2214.6 undefined 454.41 490.76 1.8004 420.00 0.0023810 454.41 490.76 1.8004 1.9919 3.0163 561.54 0.0035712 63.084 0.080967 420.00 0.0023810 454.41 490.76 1.8004 1.9919 3.0163 561.54 0.0035712 63.084 0.080967
106.38 2260.3 undefined 456.40 493.51 1.8057 420.00 0.0023810 456.40 493.51 1.8057 1.9958 3.0126 563.66 0.0034727 63.106 0.081072 420.00 0.0023810 456.40 493.51 1.8057 1.9958 3.0126 563.66 0.0034727 63.106 0.081072
107.38 2306.1 undefined 458.40 496.26 1.8109 420.00 0.0023810 458.40 496.26 1.8109 1.9997 3.0092 565.77 0.0033759 63.128 0.081178 420.00 0.0023810 458.40 496.26 1.8109 1.9997 3.0092 565.77 0.0033759 63.128 0.081178
108.38 2351.9 undefined 460.40 499.01 1.8162 420.00 0.0023810 460.40 499.01 1.8162 2.0036 3.0058 567.87 0.0032810 63.151 0.081284 420.00 0.0023810 460.40 499.01 1.8162 2.0036 3.0058 567.87 0.0032810 63.151 0.081284
109.38 2397.6 undefined 462.41 501.77 1.8215 420.00 0.0023810 462.41 501.77 1.8215 2.0075 3.0027 569.95 0.0031877 63.173 0.081390 420.00 0.0023810 462.41 501.77 1.8215 2.0075 3.0027 569.95 0.0031877 63.173 0.081390
110.38 2443.4 undefined 464.42 504.53 1.8267 420.00 0.0023810 464.42 504.53 1.8267 2.0114 2.9996 572.01 0.0030962 63.195 0.081497 420.00 0.0023810 464.42 504.53 1.8267 2.0114 2.9996 572.01 0.0030962 63.195 0.081497
111.38 2489.2 undefined 466.43 507.29 1.8319 420.00 0.0023810 466.43 507.29 1.8319 2.0154 2.9968 574.06 0.0030063 63.217 0.081604 420.00 0.0023810 466.43 507.29 1.8319 2.0154 2.9968 574.06 0.0030063 63.217 0.081604
112.38 2535.1 undefined 468.45 510.06 1.8372 420.00 0.0023810 468.45 510.06 1.8372 2.0193 2.9940 576.10 0.0029180 63.239 0.081712 420.00 0.0023810 468.45 510.06 1.8372 2.0193 2.9940 576.10 0.0029180 63.239 0.081712
113.38 2580.9 undefined 470.47 512.84 1.8424 420.00 0.0023810 470.47 512.84 1.8424 2.0232 2.9914 578.12 0.0028313 63.261 0.081819 420.00 0.0023810 470.47 512.84 1.8424 2.0232 2.9914 578.12 0.0028313 63.261 0.081819
114.38 2626.7 undefined 472.49 515.62 1.8476 420.00 0.0023810 472.49 515.62 1.8476 2.0272 2.9889 580.13 0.0027461 63.283 0.081928 420.00 0.0023810 472.49 515.62 1.8476 2.0272 2.9889 580.13 0.0027461 63.283 0.081928
115.38 2672.6 undefined 474.52 518.40 1.8529 420.00 0.0023810 474.52 518.40 1.8529 2.0311 2.9865 582.13 0.0026624 63.305 0.082036 420.00 0.0023810 474.52 518.40 1.8529 2.0311 2.9865 582.13 0.0026624 63.305 0.082036
116.38 2718.5 undefined 476.56 521.18 1.8581 420.00 0.0023810 476.56 521.18 1.8581 2.0351 2.9842 584.11 0.0025801 63.327 0.082145 420.00 0.0023810 476.56 521.18 1.8581 2.0351 2.9842 584.11 0.0025801 63.327 0.082145
117.38 2764.3 undefined 478.59 523.97 1.8633 420.00 0.0023810 478.59 523.97 1.8633 2.0390 2.9821 586.08 0.0024993 63.350 0.082254 420.00 0.0023810 478.59 523.97 1.8633 2.0390 2.9821 586.08 0.0024993 63.350 0.082254
118.38 2810.2 undefined 480.63 526.77 1.8685 420.00 0.0023810 480.63 526.77 1.8685 2.0430 2.9801 588.04 0.0024198 63.372 0.082364 420.00 0.0023810 480.63 526.77 1.8685 2.0430 2.9801 588.04 0.0024198 63.372 0.082364
119.38 2856.1 undefined 482.68 529.57 1.8738 420.00 0.0023810 482.68 529.57 1.8738 2.0470 2.9781 589.99 0.0023417 63.394 0.082474 420.00 0.0023810 482.68 529.57 1.8738 2.0470 2.9781 589.99 0.0023417 63.394 0.082474
120.38 2902.0 undefined 484.73 532.37 1.8790 420.00 0.0023810 484.73 532.37 1.8790 2.0509 2.9763 591.92 0.0022649 63.416 0.082584 420.00 0.0023810 484.73 532.37 1.8790 2.0509 2.9763 591.92 0.0022649 63.416 0.082584
121.38 2947.9 undefined 486.78 535.17 1.8842 420.00 0.0023810 486.78 535.17 1.8842 2.0549 2.9746 593.84 0.0021894 63.438 0.082695 420.00 0.0023810 486.78 535.17 1.8842 2.0549 2.9746 593.84 0.0021894 63.438 0.082695
122.38 2993.8 undefined 488.84 537.99 1.8894 420.00 0.0023810 488.84 537.99 1.8894 2.0589 2.9730 595.75 0.0021151 63.460 0.082806 420.00 0.0023810 488.84 537.99 1.8894 2.0589 2.9730 595.75 0.0021151 63.460 0.082806
123.38 3039.7 undefined 490.90 540.80 1.8946 420.00 0.0023810 490.90 540.80 1.8946 2.0629 2.9715 597.66 0.0020421 63.482 0.082917 420.00 0.0023810 490.90 540.80 1.8946 2.0629 2.9715 597.66 0.0020421 63.482 0.082917
124.38 3085.6 undefined 492.96 543.62 1.8998 420.00 0.0023810 492.96 543.62 1.8998 2.0669 2.9700 599.55 0.0019703 63.505 0.083029 420.00 0.0023810 492.96 543.62 1.8998 2.0669 2.9700 599.55 0.0019703 63.505 0.083029
125.38 3131.6 undefined 495.03 546.44 1.9050 420.00 0.0023810 495.03 546.44 1.9050 2.0708 2.9687 601.42 0.0018996 63.527 0.083141 420.00 0.0023810 495.03 546.44 1.9050 2.0708 2.9687 601.42 0.0018996 63.527 0.083141
126.38 3177.5 undefined 497.11 549.27 1.9102 420.00 0.0023810 497.11 549.27 1.9102 2.0748 2.9674 603.29 0.0018301 63.549 0.083253 420.00 0.0023810 497.11 549.27 1.9102 2.0748 2.9674 603.29 0.0018301 63.549 0.083253
127.38 3223.4 undefined 499.18 552.10 1.9154 420.00 0.0023810 499.18 552.10 1.9154 2.0788 2.9663 605.15 0.0017617 63.571 0.083366 420.00 0.0023810 499.18 552.10 1.9154 2.0788 2.9663 605.15 0.0017617 63.571 0.083366
128.38 3269.4 undefined 501.26 554.93 1.9206 420.00 0.0023810 501.26 554.93 1.9206 2.0828 2.9652 607.00 0.0016944 63.593 0.083479 420.00 0.0023810 501.26 554.93 1.9206 2.0828 2.9652 607.00 0.0016944 63.593 0.083479
129.38 3315.3 undefined 503.35 557.77 1.9258 420.00 0.0023810 503.35 557.77 1.9258 2.0868 2.9642 608.84 0.0016282 63.615 0.083592 420.00 0.0023810 503.35 557.77 1.9258 2.0868 2.9642 608.84 0.0016282 63.615 0.083592
130.38 3361.3 undefined 505.44 560.62 1.9309 420.00 0.0023810 505.44 560.62 1.9309 2.0908 2.9633 610.66 0.0015631 63.637 0.083706 420.00 0.0023810 505.44 560.62 1.9309 2.0908 2.9633 610.66 0.0015631 63.637 0.083706
131.38 3407.2 undefined 507.53 563.46 1.9361 420.00 0.0023810 507.53 563.46 1.9361 2.0948 2.9624 612.48 0.0014989 63.660 0.083820 420.00 0.0023810 507.53 563.46 1.9361 2.0948 2.9624 612.48 0.0014989 63.660 0.083820
132.38 3453.1 undefined 509.63 566.31 1.9413 420.00 0.0023810 509.63 566.31 1.9413 2.0988 2.9616 614.29 0.0014358 63.682 0.083934 420.00 0.0023810 509.63 566.31 1.9413 2.0988 2.9616 614.29 0.0014358 63.682 0.083934
133.38 3499.1 undefined 511.73 569.17 1.9465 420.00 0.0023810 511.73 569.17 1.9465 2.1028 2.9609 616.09 0.0013736 63.704 0.084048 420.00 0.0023810 511.73 569.17 1.9465 2.1028 2.9609 616.09 0.0013736 63.704 0.084048
134.38 3545.0 undefined 513.83 572.03 1.9516 420.00 0.0023810 513.83 572.03 1.9516 2.1068 2.9603 617.88 0.0013124 63.726 0.084163 420.00 0.0023810 513.83 572.03 1.9516 2.1068 2.9603 617.88 0.0013124 63.726 0.084163
135.38 3591.0 undefined 515.94 574.89 1.9568 420.00 0.0023810 515.94 574.89 1.9568 2.1108 2.9598 619.66 0.0012522 63.748 0.084279 420.00 0.0023810 515.94 574.89 1.9568 2.1108 2.9598 619.66 0.0012522 63.748 0.084279
136.38 3637.0 undefined 518.05 577.76 1.9620 420.00 0.0023810 518.05 577.76 1.9620 2.1148 2.9593 621.44 0.0011929 63.770 0.084394 420.00 0.0023810 518.05 577.76 1.9620 2.1148 2.9593 621.44 0.0011929 63.770 0.084394
137.38 3682.9 undefined 520.17 580.63 1.9671 420.00 0.0023810 520.17 580.63 1.9671 2.1188 2.9588 623.20 0.0011344 63.793 0.084510 420.00 0.0023810 520.17 580.63 1.9671 2.1188 2.9588 623.20 0.0011344 63.793 0.084510
138.38 3728.9 undefined 522.29 583.50 1.9723 420.00 0.0023810 522.29 583.50 1.9723 2.1227 2.9585 624.95 0.0010769 63.815 0.084626 420.00 0.0023810 522.29 583.50 1.9723 2.1227 2.9585 624.95 0.0010769 63.815 0.084626
139.38 3774.8 undefined 524.42 586.38 1.9775 420.00 0.0023810 524.42 586.38 1.9775 2.1267 2.9582 626.70 0.0010202 63.837 0.084743 420.00 0.0023810 524.42 586.38 1.9775 2.1267 2.9582 626.70 0.0010202 63.837 0.084743
140.38 3820.8 undefined 526.54 589.27 1.9826 420.00 0.0023810 526.54 589.27 1.9826 2.1307 2.9579 628.44 0.00096442 63.859 0.084860 420.00 0.0023810 526.54 589.27 1.9826 2.1307 2.9579 628.44 0.00096442 63.859 0.084860
141.38 3866.7 undefined 528.68 592.15 1.9878 420.00 0.0023810 528.68 592.15 1.9878 2.1347 2.9578 630.17 0.00090943 63.881 0.084977 420.00 0.0023810 528.68 592.15 1.9878 2.1347 2.9578 630.17 0.00090943 63.881 0.084977
142.38 3912.7 undefined 530.81 595.05 1.9929 420.00 0.0023810 530.81 595.05 1.9929 2.1387 2.9576 631.89 0.00085526 63.903 0.085095 420.00 0.0023810 530.81 595.05 1.9929 2.1387 2.9576 631.89 0.00085526 63.903 0.085095
143.38 3958.6 undefined 532.96 597.94 1.9981 420.00 0.0023810 532.96 597.94 1.9981 2.1427 2.9576 633.60 0.00080189 63.925 0.085212 420.00 0.0023810 532.96 597.94 1.9981 2.1427 2.9576 633.60 0.00080189 63.925 0.085212
144.38 4004.6 undefined 535.10 600.84 2.0032 420.00 0.0023810 535.10 600.84 2.0032 2.1467 2.9576 635.31 0.00074930 63.948 0.085331 420.00 0.0023810 535.10 600.84 2.0032 2.1467 2.9576 635.31 0.00074930 63.948 0.085331
145.38 4050.5 undefined 537.25 603.74 2.0083 420.00 0.0023810 537.25 603.74 2.0083 2.1507 2.9576 637.01 0.00069749 63.970 0.085449 420.00 0.0023810 537.25 603.74 2.0083 2.1507 2.9576 637.01 0.00069749 63.970 0.085449
146.38 4096.5 undefined 539.40 606.65 2.0135 420.00 0.0023810 539.40 606.65 2.0135 2.1547 2.9577 638.70 0.00064642 63.992 0.085568 420.00 0.0023810 539.40 606.65 2.0135 2.1547 2.9577 638.70 0.00064642 63.992 0.085568
147.38 4142.4 undefined 541.56 609.56 2.0186 420.00 0.0023810 541.56 609.56 2.0186 2.1587 2.9578 640.38 0.00059610 64.014 0.085687 420.00 0.0023810 541.56 609.56 2.0186 2.1587 2.9578 640.38 0.00059610 64.014 0.085687
148.38 4188.4 undefined 543.72 612.47 2.0237 420.00 0.0023810 543.72 612.47 2.0237 2.1627 2.9580 642.06 0.00054650 64.036 0.085806 420.00 0.0023810 543.72 612.47 2.0237 2.1627 2.9580 642.06 0.00054650 64.036 0.085806
149.38 4234.3 undefined 545.88 615.39 2.0289 420.00 0.0023810 545.88 615.39 2.0289 2.1666 2.9583 643.72 0.00049761 64.058 0.085926 420.00 0.0023810 545.88 615.39 2.0289 2.1666 2.9583 643.72 0.00049761 64.058 0.085926
150.38 4280.2 undefined 548.05 618.32 2.0340 420.00 0.0023810 548.05 618.32 2.0340 2.1706 2.9586 645.38 0.00044942 64.081 0.086046 420.00 0.0023810 548.05 618.32 2.0340 2.1706 2.9586 645.38 0.00044942 64.081 0.086046
151.38 4326.2 undefined 550.22 621.24 2.0391 420.00 0.0023810 550.22 621.24 2.0391 2.1746 2.9589 647.04 0.00040191 64.103 0.086166 420.00 0.0023810 550.22 621.24 2.0391 2.1746 2.9589 647.04 0.00040191 64.103 0.086166
152.38 4372.1 undefined 552.40 624.17 2.0442 420.00 0.0023810 552.40 624.17 2.0442 2.1786 2.9593 648.68 0.00035507 64.125 0.086287 420.00 0.0023810 552.40 624.17 2.0442 2.1786 2.9593 648.68 0.00035507 64.125 0.086287
153.38 4418.0 undefined 554.58 627.11 2.0494 420.00 0.0023810 554.58 627.11 2.0494 2.1826 2.9597 650.32 0.00030890 64.147 0.086408 420.00 0.0023810 554.58 627.11 2.0494 2.1826 2.9597 650.32 0.00030890 64.147 0.086408
154.38 4463.9 undefined 556.77 630.05 2.0545 420.00 0.0023810 556.77 630.05 2.0545 2.1865 2.9602 651.95 0.00026337 64.169 0.086529 420.00 0.0023810 556.77 630.05 2.0545 2.1865 2.9602 651.95 0.00026337 64.169 0.086529
155.38 4509.8 undefined 558.95 632.99 2.0596 420.00 0.0023810 558.95 632.99 2.0596 2.1905 2.9607 653.58 0.00021847 64.191 0.086651 420.00 0.0023810 558.95 632.99 2.0596 2.1905 2.9607 653.58 0.00021847 64.191 0.086651
156.38 4555.7 undefined 561.15 635.93 2.0647 420.00 0.0023810 561.15 635.93 2.0647 2.1945 2.9612 655.20 0.00017420 64.213 0.086773 420.00 0.0023810 561.15 635.93 2.0647 2.1945 2.9612 655.20 0.00017420 64.213 0.086773
157.38 4601.6 undefined 563.34 638.88 2.0698 420.00 0.0023810 563.34 638.88 2.0698 2.1985 2.9618 656.81 0.00013054 64.235 0.086895 420.00 0.0023810 563.34 638.88 2.0698 2.1985 2.9618 656.81 0.00013054 64.235 0.086895
158.38 4647.5 undefined 565.54 641.84 2.0749 420.00 0.0023810 565.54 641.84 2.0749 2.2024 2.9625 658.41 8.7483e-05 64.258 0.087017 420.00 0.0023810 565.54 641.84 2.0749 2.2024 2.9625 658.41 8.7483e-05 64.258 0.087017
159.38 4693.4 undefined 567.75 644.80 2.0800 420.00 0.0023810 567.75 644.80 2.0800 2.2064 2.9631 660.01 4.5013e-05 64.280 0.087140 420.00 0.0023810 567.75 644.80 2.0800 2.2064 2.9631 660.01 4.5013e-05 64.280 0.087140
160.38 4739.3 undefined 569.96 647.76 2.0851 420.00 0.0023810 569.96 647.76 2.0851 2.2104 2.9638 661.60 3.1231e-06 64.302 0.087263 420.00 0.0023810 569.96 647.76 2.0851 2.2104 2.9638 661.60 3.1231e-06 64.302 0.087263
161.38 4785.2 undefined 572.17 650.72 2.0902 420.00 0.0023810 572.17 650.72 2.0902 2.2143 2.9646 663.19 -3.8198e-05 64.324 0.087387 420.00 0.0023810 572.17 650.72 2.0902 2.2143 2.9646 663.19 -3.8198e-05 64.324 0.087387
162.38 4831.1 undefined 574.39 653.69 2.0953 420.00 0.0023810 574.39 653.69 2.0953 2.2183 2.9654 664.77 -7.8961e-05 64.346 0.087510 420.00 0.0023810 574.39 653.69 2.0953 2.2183 2.9654 664.77 -7.8961e-05 64.346 0.087510
163.38 4876.9 undefined 576.61 656.67 2.1004 420.00 0.0023810 576.61 656.67 2.1004 2.2222 2.9662 666.34 -0.00011917 64.368 0.087634 420.00 0.0023810 576.61 656.67 2.1004 2.2222 2.9662 666.34 -0.00011917 64.368 0.087634
164.38 4922.8 undefined 578.83 659.64 2.1055 420.00 0.0023810 578.83 659.64 2.1055 2.2262 2.9670 667.91 -0.00015885 64.390 0.087759 420.00 0.0023810 578.83 659.64 2.1055 2.2262 2.9670 667.91 -0.00015885 64.390 0.087759
165.38 4968.7 undefined 581.06 662.62 2.1106 420.00 0.0023810 581.06 662.62 2.1106 2.2302 2.9679 669.47 -0.00019799 64.412 0.087883 420.00 0.0023810 581.06 662.62 2.1106 2.2302 2.9679 669.47 -0.00019799 64.412 0.087883
166.38 5014.5 undefined 583.29 665.61 2.1157 420.00 0.0023810 583.29 665.61 2.1157 2.2341 2.9688 671.03 -0.00023662 64.435 0.088008 420.00 0.0023810 583.29 665.61 2.1157 2.2341 2.9688 671.03 -0.00023662 64.435 0.088008
167.38 5060.3 undefined 585.53 668.60 2.1207 420.00 0.0023810 585.53 668.60 2.1207 2.2381 2.9698 672.57 -0.00027473 64.457 0.088133 420.00 0.0023810 585.53 668.60 2.1207 2.2381 2.9698 672.57 -0.00027473 64.457 0.088133
168.38 5106.2 undefined 587.77 671.59 2.1258 420.00 0.0023810 587.77 671.59 2.1258 2.2420 2.9707 674.12 -0.00031234 64.479 0.088259 420.00 0.0023810 587.77 671.59 2.1258 2.2420 2.9707 674.12 -0.00031234 64.479 0.088259
169.38 5152.0 undefined 590.01 674.59 2.1309 420.00 0.0023810 590.01 674.59 2.1309 2.2459 2.9717 675.65 -0.00034945 64.501 0.088385 420.00 0.0023810 590.01 674.59 2.1309 2.2459 2.9717 675.65 -0.00034945 64.501 0.088385
170.38 5197.8 undefined 592.26 677.59 2.1360 420.00 0.0023810 592.26 677.59 2.1360 2.2499 2.9728 677.19 -0.00038608 64.523 0.088511 420.00 0.0023810 592.26 677.59 2.1360 2.2499 2.9728 677.19 -0.00038608 64.523 0.088511
171.38 5243.6 undefined 594.51 680.59 2.1410 420.00 0.0023810 594.51 680.59 2.1410 2.2538 2.9739 678.71 -0.00042224 64.545 0.088637 420.00 0.0023810 594.51 680.59 2.1410 2.2538 2.9739 678.71 -0.00042224 64.545 0.088637
172.38 5289.4 undefined 596.77 683.60 2.1461 420.00 0.0023810 596.77 683.60 2.1461 2.2577 2.9749 680.23 -0.00045792 64.567 0.088764 420.00 0.0023810 596.77 683.60 2.1461 2.2577 2.9749 680.23 -0.00045792 64.567 0.088764
173.38 5335.2 undefined 599.03 686.61 2.1512 420.00 0.0023810 599.03 686.61 2.1512 2.2617 2.9761 681.75 -0.00049314 64.589 0.088891 420.00 0.0023810 599.03 686.61 2.1512 2.2617 2.9761 681.75 -0.00049314 64.589 0.088891
174.38 5381.0 undefined 601.29 689.62 2.1562 420.00 0.0023810 601.29 689.62 2.1562 2.2656 2.9772 683.25 -0.00052790 64.611 0.089018 420.00 0.0023810 601.29 689.62 2.1562 2.2656 2.9772 683.25 -0.00052790 64.611 0.089018
175.38 5426.8 undefined 603.56 692.64 2.1613 420.00 0.0023810 603.56 692.64 2.1613 2.2695 2.9784 684.76 -0.00056222 64.633 0.089146 420.00 0.0023810 603.56 692.64 2.1613 2.2695 2.9784 684.76 -0.00056222 64.633 0.089146
176.38 5472.6 undefined 605.83 695.67 2.1664 420.00 0.0023810 605.83 695.67 2.1664 2.2735 2.9796 686.26 -0.00059610 64.655 0.089274 420.00 0.0023810 605.83 695.67 2.1664 2.2735 2.9796 686.26 -0.00059610 64.655 0.089274
177.38 5518.3 undefined 608.10 698.69 2.1714 420.00 0.0023810 608.10 698.69 2.1714 2.2774 2.9808 687.75 -0.00062955 64.678 0.089402 420.00 0.0023810 608.10 698.69 2.1714 2.2774 2.9808 687.75 -0.00062955 64.678 0.089402
178.38 5564.1 undefined 610.38 701.72 2.1765 420.00 0.0023810 610.38 701.72 2.1765 2.2813 2.9821 689.24 -0.00066258 64.700 0.089531 420.00 0.0023810 610.38 701.72 2.1765 2.2813 2.9821 689.24 -0.00066258 64.700 0.089531
179.38 5609.8 undefined 612.67 704.76 2.1815 420.00 0.0023810 612.67 704.76 2.1815 2.2852 2.9834 690.72 -0.00069518 64.722 0.089659 420.00 0.0023810 612.67 704.76 2.1815 2.2852 2.9834 690.72 -0.00069518 64.722 0.089659
180.38 5655.6 undefined 614.95 707.80 2.1866 420.00 0.0023810 614.95 707.80 2.1866 2.2891 2.9847 692.19 -0.00072738 64.744 0.089788 420.00 0.0023810 614.95 707.80 2.1866 2.2891 2.9847 692.19 -0.00072738 64.744 0.089788
181.38 5701.3 undefined 617.24 710.84 2.1916 420.00 0.0023810 617.24 710.84 2.1916 2.2930 2.9860 693.67 -0.00075917 64.766 0.089918 420.00 0.0023810 617.24 710.84 2.1916 2.2930 2.9860 693.67 -0.00075917 64.766 0.089918
182.38 5747.0 undefined 619.54 713.88 2.1967 420.00 0.0023810 619.54 713.88 2.1967 2.2969 2.9874 695.13 -0.00079056 64.788 0.090048 420.00 0.0023810 619.54 713.88 2.1967 2.2969 2.9874 695.13 -0.00079056 64.788 0.090048
183.38 5792.7 undefined 621.84 716.93 2.2017 420.00 0.0023810 621.84 716.93 2.2017 2.3008 2.9887 696.59 -0.00082156 64.810 0.090178 420.00 0.0023810 621.84 716.93 2.2017 2.3008 2.9887 696.59 -0.00082156 64.810 0.090178
184.38 5838.4 undefined 624.14 719.99 2.2067 420.00 0.0023810 624.14 719.99 2.2067 2.3047 2.9901 698.05 -0.00085217 64.832 0.090308 420.00 0.0023810 624.14 719.99 2.2067 2.3047 2.9901 698.05 -0.00085217 64.832 0.090308
185.38 5884.1 undefined 626.45 723.04 2.2118 420.00 0.0023810 626.45 723.04 2.2118 2.3086 2.9916 699.50 -0.00088241 64.854 0.090438 420.00 0.0023810 626.45 723.04 2.2118 2.3086 2.9916 699.50 -0.00088241 64.854 0.090438
186.38 5929.8 undefined 628.76 726.10 2.2168 420.00 0.0023810 628.76 726.10 2.2168 2.3125 2.9930 700.95 -0.00091227 64.876 0.090569 420.00 0.0023810 628.76 726.10 2.2168 2.3125 2.9930 700.95 -0.00091227 64.876 0.090569
187.38 5975.5 undefined 631.07 729.17 2.2218 420.00 0.0023810 631.07 729.17 2.2218 2.3164 2.9945 702.39 -0.00094176 64.898 0.090700 420.00 0.0023810 631.07 729.17 2.2218 2.3164 2.9945 702.39 -0.00094176 64.898 0.090700
188.38 6021.1 undefined 633.39 732.23 2.2269 420.00 0.0023810 633.39 732.23 2.2269 2.3203 2.9959 703.83 -0.00097089 64.920 0.090832 420.00 0.0023810 633.39 732.23 2.2269 2.3203 2.9959 703.83 -0.00097089 64.920 0.090832
189.38 6066.8 undefined 635.71 735.31 2.2319 420.00 0.0023810 635.71 735.31 2.2319 2.3242 2.9974 705.26 -0.00099967 64.942 0.090964 420.00 0.0023810 635.71 735.31 2.2319 2.3242 2.9974 705.26 -0.00099967 64.942 0.090964
190.38 6112.4 undefined 638.04 738.38 2.2369 420.00 0.0023810 638.04 738.38 2.2369 2.3280 2.9990 706.69 -0.0010281 64.964 0.091096 420.00 0.0023810 638.04 738.38 2.2369 2.3280 2.9990 706.69 -0.0010281 64.964 0.091096
191.38 6158.0 undefined 640.37 741.46 2.2419 420.00 0.0023810 640.37 741.46 2.2419 2.3319 3.0005 708.11 -0.0010562 64.986 0.091228 420.00 0.0023810 640.37 741.46 2.2419 2.3319 3.0005 708.11 -0.0010562 64.986 0.091228
192.38 6203.7 undefined 642.70 744.54 2.2470 420.00 0.0023810 642.70 744.54 2.2470 2.3358 3.0021 709.53 -0.0010839 65.008 0.091361 420.00 0.0023810 642.70 744.54 2.2470 2.3358 3.0021 709.53 -0.0010839 65.008 0.091361
193.38 6249.3 undefined 645.04 747.63 2.2520 420.00 0.0023810 645.04 747.63 2.2520 2.3396 3.0036 710.94 -0.0011113 65.030 0.091493 420.00 0.0023810 645.04 747.63 2.2520 2.3396 3.0036 710.94 -0.0011113 65.030 0.091493
194.38 6294.9 undefined 647.38 750.72 2.2570 420.00 0.0023810 647.38 750.72 2.2570 2.3435 3.0052 712.35 -0.0011384 65.052 0.091627 420.00 0.0023810 647.38 750.72 2.2570 2.3435 3.0052 712.35 -0.0011384 65.052 0.091627
195.38 6340.4 undefined 649.73 753.81 2.2620 420.00 0.0023810 649.73 753.81 2.2620 2.3474 3.0069 713.76 -0.0011651 65.074 0.091760 420.00 0.0023810 649.73 753.81 2.2620 2.3474 3.0069 713.76 -0.0011651 65.074 0.091760
196.38 6386.0 undefined 652.08 756.91 2.2670 420.00 0.0023810 652.08 756.91 2.2670 2.3512 3.0085 715.16 -0.0011916 65.096 0.091894 420.00 0.0023810 652.08 756.91 2.2670 2.3512 3.0085 715.16 -0.0011916 65.096 0.091894
197.38 6431.6 undefined 654.43 760.01 2.2720 420.00 0.0023810 654.43 760.01 2.2720 2.3551 3.0101 716.55 -0.0012177 65.118 0.092028 420.00 0.0023810 654.43 760.01 2.2720 2.3551 3.0101 716.55 -0.0012177 65.118 0.092028
198.38 6477.1 undefined 656.79 763.12 2.2770 420.00 0.0023810 656.79 763.12 2.2770 2.3589 3.0118 717.95 -0.0012435 65.140 0.092162 420.00 0.0023810 656.79 763.12 2.2770 2.3589 3.0118 717.95 -0.0012435 65.140 0.092162
199.38 6522.7 undefined 659.15 766.22 2.2820 420.00 0.0023810 659.15 766.22 2.2820 2.3628 3.0135 719.33 -0.0012690 65.162 0.092297 420.00 0.0023810 659.15 766.22 2.2820 2.3628 3.0135 719.33 -0.0012690 65.162 0.092297
200.38 6568.2 undefined 661.51 769.34 2.2870 420.00 0.0023810 661.51 769.34 2.2870 2.3666 3.0152 720.72 -0.0012942 65.184 0.092432 420.00 0.0023810 661.51 769.34 2.2870 2.3666 3.0152 720.72 -0.0012942 65.184 0.092432
201.38 6613.7 undefined 663.88 772.45 2.2920 420.00 0.0023810 663.88 772.45 2.2920 2.3704 3.0169 722.10 -0.0013191 65.206 0.092567 420.00 0.0023810 663.88 772.45 2.2920 2.3704 3.0169 722.10 -0.0013191 65.206 0.092567
202.38 6659.2 undefined 666.25 775.57 2.2970 420.00 0.0023810 666.25 775.57 2.2970 2.3743 3.0186 723.47 -0.0013437 65.227 0.092703 420.00 0.0023810 666.25 775.57 2.2970 2.3743 3.0186 723.47 -0.0013437 65.227 0.092703
203.38 6704.7 undefined 668.63 778.69 2.3020 420.00 0.0023810 668.63 778.69 2.3020 2.3781 3.0204 724.84 -0.0013680 65.249 0.092838 420.00 0.0023810 668.63 778.69 2.3020 2.3781 3.0204 724.84 -0.0013680 65.249 0.092838
204.38 6750.2 undefined 671.01 781.82 2.3070 420.00 0.0023810 671.01 781.82 2.3070 2.3819 3.0222 726.21 -0.0013920 65.271 0.092974 420.00 0.0023810 671.01 781.82 2.3070 2.3819 3.0222 726.21 -0.0013920 65.271 0.092974
205.38 6795.6 undefined 673.39 784.95 2.3120 420.00 0.0023810 673.39 784.95 2.3120 2.3858 3.0239 727.57 -0.0014158 65.293 0.093111 420.00 0.0023810 673.39 784.95 2.3120 2.3858 3.0239 727.57 -0.0014158 65.293 0.093111
206.38 6841.1 undefined 675.78 788.09 2.3170 420.00 0.0023810 675.78 788.09 2.3170 2.3896 3.0257 728.93 -0.0014393 65.315 0.093247 420.00 0.0023810 675.78 788.09 2.3170 2.3896 3.0257 728.93 -0.0014393 65.315 0.093247
207.38 6886.5 undefined 678.17 791.22 2.3219 420.00 0.0023810 678.17 791.22 2.3219 2.3934 3.0275 730.28 -0.0014625 65.337 0.093384 420.00 0.0023810 678.17 791.22 2.3219 2.3934 3.0275 730.28 -0.0014625 65.337 0.093384
208.38 6932.0 undefined 680.57 794.36 2.3269 420.00 0.0023810 680.57 794.36 2.3269 2.3972 3.0293 731.63 -0.0014854 65.359 0.093521 420.00 0.0023810 680.57 794.36 2.3269 2.3972 3.0293 731.63 -0.0014854 65.359 0.093521
209.38 6977.4 undefined 682.97 797.51 2.3319 420.00 0.0023810 682.97 797.51 2.3319 2.4010 3.0312 732.98 -0.0015081 65.381 0.093659 420.00 0.0023810 682.97 797.51 2.3319 2.4010 3.0312 732.98 -0.0015081 65.381 0.093659
210.38 7022.8 undefined 685.37 800.66 2.3369 420.00 0.0023810 685.37 800.66 2.3369 2.4048 3.0330 734.32 -0.0015305 65.403 0.093797 420.00 0.0023810 685.37 800.66 2.3369 2.4048 3.0330 734.32 -0.0015305 65.403 0.093797
211.38 7068.2 undefined 687.78 803.81 2.3418 420.00 0.0023810 687.78 803.81 2.3418 2.4086 3.0349 735.66 -0.0015526 65.425 0.093935 420.00 0.0023810 687.78 803.81 2.3418 2.4086 3.0349 735.66 -0.0015526 65.425 0.093935
212.38 7113.6 undefined 690.19 806.96 2.3468 420.00 0.0023810 690.19 806.96 2.3468 2.4124 3.0368 736.99 -0.0015745 65.446 0.094073 420.00 0.0023810 690.19 806.96 2.3468 2.4124 3.0368 736.99 -0.0015745 65.446 0.094073
213.38 7159.0 undefined 692.60 810.12 2.3518 420.00 0.0023810 692.60 810.12 2.3518 2.4162 3.0386 738.32 -0.0015962 65.468 0.094212 420.00 0.0023810 692.60 810.12 2.3518 2.4162 3.0386 738.32 -0.0015962 65.468 0.094212
214.38 7204.3 undefined 695.02 813.29 2.3568 420.00 0.0023810 695.02 813.29 2.3568 2.4200 3.0405 739.65 -0.0016176 65.490 0.094351 420.00 0.0023810 695.02 813.29 2.3568 2.4200 3.0405 739.65 -0.0016176 65.490 0.094351
215.38 7249.7 undefined 697.44 816.45 2.3617 420.00 0.0023810 697.44 816.45 2.3617 2.4238 3.0425 740.97 -0.0016387 65.512 0.094490 420.00 0.0023810 697.44 816.45 2.3617 2.4238 3.0425 740.97 -0.0016387 65.512 0.094490
216.38 7295.0 undefined 699.87 819.62 2.3667 420.00 0.0023810 699.87 819.62 2.3667 2.4275 3.0444 742.29 -0.0016597 65.534 0.094632 420.00 0.0023810 699.87 819.62 2.3667 2.4275 3.0444 742.29 -0.0016597 65.534 0.094632
217.38 7340.3 undefined 702.30 822.80 2.3716 420.00 0.0023810 702.30 822.80 2.3716 2.4313 3.0463 743.61 -0.0016803 65.556 0.094776 420.00 0.0023810 702.30 822.80 2.3716 2.4313 3.0463 743.61 -0.0016803 65.556 0.094776
218.38 7385.6 undefined 704.73 825.97 2.3766 420.00 0.0023810 704.73 825.97 2.3766 2.4351 3.0482 744.92 -0.0017008 65.577 0.094920 420.00 0.0023810 704.73 825.97 2.3766 2.4351 3.0482 744.92 -0.0017008 65.577 0.094920
219.38 7430.9 undefined 707.17 829.15 2.3815 420.00 0.0023810 707.17 829.15 2.3815 2.4389 3.0502 746.23 -0.0017210 65.599 0.095064 420.00 0.0023810 707.17 829.15 2.3815 2.4389 3.0502 746.23 -0.0017210 65.599 0.095064
220.38 7476.2 undefined 709.61 832.34 2.3865 420.00 0.0023810 709.61 832.34 2.3865 2.4426 3.0522 747.53 -0.0017410 65.621 0.095208 420.00 0.0023810 709.61 832.34 2.3865 2.4426 3.0522 747.53 -0.0017410 65.621 0.095208
221.38 7521.4 undefined 712.05 835.52 2.3914 420.00 0.0023810 712.05 835.52 2.3914 2.4464 3.0541 748.83 -0.0017608 65.643 0.095353 420.00 0.0023810 712.05 835.52 2.3914 2.4464 3.0541 748.83 -0.0017608 65.643 0.095353
222.38 7566.7 undefined 714.50 838.72 2.3964 420.00 0.0023810 714.50 838.72 2.3964 2.4501 3.0561 750.13 -0.0017803 65.664 0.095498 420.00 0.0023810 714.50 838.72 2.3964 2.4501 3.0561 750.13 -0.0017803 65.664 0.095498
223.38 7611.9 undefined 716.95 841.91 2.4013 420.00 0.0023810 716.95 841.91 2.4013 2.4539 3.0581 751.42 -0.0017997 65.686 0.095644 420.00 0.0023810 716.95 841.91 2.4013 2.4539 3.0581 751.42 -0.0017997 65.686 0.095644
224.38 7657.2 undefined 719.41 845.11 2.4063 420.00 0.0023810 719.41 845.11 2.4063 2.4576 3.0601 752.71 -0.0018188 65.708 0.095790 420.00 0.0023810 719.41 845.11 2.4063 2.4576 3.0601 752.71 -0.0018188 65.708 0.095790
225.38 7702.4 undefined 721.87 848.31 2.4112 420.00 0.0023810 721.87 848.31 2.4112 2.4614 3.0622 754.00 -0.0018377 65.730 0.095936 420.00 0.0023810 721.87 848.31 2.4112 2.4614 3.0622 754.00 -0.0018377 65.730 0.095936
226.38 7747.6 undefined 724.33 851.52 2.4161 420.00 0.0023810 724.33 851.52 2.4161 2.4651 3.0642 755.29 -0.0018564 65.752 0.096082 420.00 0.0023810 724.33 851.52 2.4161 2.4651 3.0642 755.29 -0.0018564 65.752 0.096082
227.38 7792.8 undefined 726.80 854.72 2.4211 420.00 0.0023810 726.80 854.72 2.4211 2.4689 3.0662 756.57 -0.0018749 65.773 0.096229 420.00 0.0023810 726.80 854.72 2.4211 2.4689 3.0662 756.57 -0.0018749 65.773 0.096229
228.38 7837.9 undefined 729.27 857.94 2.4260 420.00 0.0023810 729.27 857.94 2.4260 2.4726 3.0683 757.84 -0.0018931 65.795 0.096375 420.00 0.0023810 729.27 857.94 2.4260 2.4726 3.0683 757.84 -0.0018931 65.795 0.096375
229.38 7883.1 undefined 731.74 861.15 2.4309 420.00 0.0023810 731.74 861.15 2.4309 2.4763 3.0703 759.12 -0.0019112 65.817 0.096523 420.00 0.0023810 731.74 861.15 2.4309 2.4763 3.0703 759.12 -0.0019112 65.817 0.096523
230.38 7928.2 undefined 734.22 864.37 2.4359 420.00 0.0023810 734.22 864.37 2.4359 2.4800 3.0724 760.39 -0.0019291 65.838 0.096670 420.00 0.0023810 734.22 864.37 2.4359 2.4800 3.0724 760.39 -0.0019291 65.838 0.096670
231.38 7973.4 undefined 736.70 867.59 2.4408 420.00 0.0023810 736.70 867.59 2.4408 2.4838 3.0745 761.65 -0.0019468 65.860 0.096818 420.00 0.0023810 736.70 867.59 2.4408 2.4838 3.0745 761.65 -0.0019468 65.860 0.096818
232.38 8018.5 undefined 739.19 870.82 2.4457 420.00 0.0023810 739.19 870.82 2.4457 2.4875 3.0766 762.92 -0.0019643 65.882 0.096966 420.00 0.0023810 739.19 870.82 2.4457 2.4875 3.0766 762.92 -0.0019643 65.882 0.096966
233.38 8063.6 undefined 741.68 874.05 2.4506 420.00 0.0023810 741.68 874.05 2.4506 2.4912 3.0786 764.18 -0.0019816 65.903 0.097114 420.00 0.0023810 741.68 874.05 2.4506 2.4912 3.0786 764.18 -0.0019816 65.903 0.097114
234.38 8108.7 undefined 744.17 877.28 2.4555 420.00 0.0023810 744.17 877.28 2.4555 2.4949 3.0807 765.43 -0.0019987 65.925 0.097263 420.00 0.0023810 744.17 877.28 2.4555 2.4949 3.0807 765.43 -0.0019987 65.925 0.097263
235.38 8153.7 undefined 746.67 880.52 2.4605 420.00 0.0023810 746.67 880.52 2.4605 2.4986 3.0829 766.69 -0.0020156 65.947 0.097412 420.00 0.0023810 746.67 880.52 2.4605 2.4986 3.0829 766.69 -0.0020156 65.947 0.097412
236.38 8198.8 undefined 749.17 883.76 2.4654 420.00 0.0023810 749.17 883.76 2.4654 2.5023 3.0850 767.94 -0.0020324 65.968 0.097561 420.00 0.0023810 749.17 883.76 2.4654 2.5023 3.0850 767.94 -0.0020324 65.968 0.097561
237.38 8243.8 undefined 751.67 887.00 2.4703 420.00 0.0023810 751.67 887.00 2.4703 2.5060 3.0871 769.18 -0.0020490 65.990 0.097711 420.00 0.0023810 751.67 887.00 2.4703 2.5060 3.0871 769.18 -0.0020490 65.990 0.097711
238.38 8288.9 undefined 754.18 890.25 2.4752 420.00 0.0023810 754.18 890.25 2.4752 2.5097 3.0892 770.43 -0.0020654 66.012 0.097861 420.00 0.0023810 754.18 890.25 2.4752 2.5097 3.0892 770.43 -0.0020654 66.012 0.097861
239.38 8333.9 undefined 756.69 893.50 2.4801 420.00 0.0023810 756.69 893.50 2.4801 2.5134 3.0914 771.67 -0.0020816 66.033 0.098011 420.00 0.0023810 756.69 893.50 2.4801 2.5134 3.0914 771.67 -0.0020816 66.033 0.098011
240.38 8378.9 undefined 759.21 896.76 2.4850 420.00 0.0023810 759.21 896.76 2.4850 2.5171 3.0935 772.91 -0.0020976 66.055 0.098161 420.00 0.0023810 759.21 896.76 2.4850 2.5171 3.0935 772.91 -0.0020976 66.055 0.098161
241.38 8423.9 undefined 761.73 900.01 2.4899 420.00 0.0023810 761.73 900.01 2.4899 2.5207 3.0957 774.14 -0.0021135 66.077 0.098312 420.00 0.0023810 761.73 900.01 2.4899 2.5207 3.0957 774.14 -0.0021135 66.077 0.098312
242.38 8468.9 undefined 764.25 903.27 2.4948 420.00 0.0023810 764.25 903.27 2.4948 2.5244 3.0978 775.37 -0.0021292 66.098 0.098463 420.00 0.0023810 764.25 903.27 2.4948 2.5244 3.0978 775.37 -0.0021292 66.098 0.098463
243.38 8513.8 undefined 766.78 906.54 2.4997 420.00 0.0023810 766.78 906.54 2.4997 2.5281 3.1000 776.60 -0.0021447 66.120 0.098614 420.00 0.0023810 766.78 906.54 2.4997 2.5281 3.1000 776.60 -0.0021447 66.120 0.098614
244.38 8558.8 undefined 769.31 909.81 2.5046 420.00 0.0023810 769.31 909.81 2.5046 2.5317 3.1022 777.83 -0.0021600 66.141 0.098766 420.00 0.0023810 769.31 909.81 2.5046 2.5317 3.1022 777.83 -0.0021600 66.141 0.098766
245.38 8603.7 undefined 771.84 913.08 2.5095 420.00 0.0023810 771.84 913.08 2.5095 2.5354 3.1044 779.05 -0.0021752 66.163 0.098918 420.00 0.0023810 771.84 913.08 2.5095 2.5354 3.1044 779.05 -0.0021752 66.163 0.098918
246.38 8648.6 undefined 774.38 916.35 2.5144 420.00 0.0023810 774.38 916.35 2.5144 2.5391 3.1065 780.27 -0.0021903 66.184 0.099070 420.00 0.0023810 774.38 916.35 2.5144 2.5391 3.1065 780.27 -0.0021903 66.184 0.099070
247.38 8693.5 undefined 776.92 919.63 2.5193 420.00 0.0023810 776.92 919.63 2.5193 2.5427 3.1087 781.49 -0.0022052 66.206 0.099222 420.00 0.0023810 776.92 919.63 2.5193 2.5427 3.1087 781.49 -0.0022052 66.206 0.099222
248.38 8738.4 undefined 779.46 922.91 2.5241 420.00 0.0023810 779.46 922.91 2.5241 2.5464 3.1109 782.70 -0.0022199 66.227 0.099375 420.00 0.0023810 779.46 922.91 2.5241 2.5464 3.1109 782.70 -0.0022199 66.227 0.099375
249.38 8783.3 undefined 782.01 926.20 2.5290 420.00 0.0023810 782.01 926.20 2.5290 2.5500 3.1132 783.91 -0.0022344 66.249 0.099528 420.00 0.0023810 782.01 926.20 2.5290 2.5500 3.1132 783.91 -0.0022344 66.249 0.099528
250.38 8828.1 undefined 784.56 929.48 2.5339 420.00 0.0023810 784.56 929.48 2.5339 2.5536 3.1154 785.12 -0.0022489 66.271 0.099681 420.00 0.0023810 784.56 929.48 2.5339 2.5536 3.1154 785.12 -0.0022489 66.271 0.099681
251.38 8873.0 undefined 787.12 932.78 2.5388 420.00 0.0023810 787.12 932.78 2.5388 2.5573 3.1176 786.33 -0.0022631 66.292 0.099835 420.00 0.0023810 787.12 932.78 2.5388 2.5573 3.1176 786.33 -0.0022631 66.292 0.099835
252.38 8917.8 undefined 789.68 936.07 2.5436 420.00 0.0023810 789.68 936.07 2.5436 2.5609 3.1198 787.53 -0.0022772 66.314 0.099989 420.00 0.0023810 789.68 936.07 2.5436 2.5609 3.1198 787.53 -0.0022772 66.314 0.099989
253.38 8962.6 undefined 792.24 939.37 2.5485 420.00 0.0023810 792.24 939.37 2.5485 2.5645 3.1220 788.73 -0.0022912 66.335 0.10014 420.00 0.0023810 792.24 939.37 2.5485 2.5645 3.1220 788.73 -0.0022912 66.335 0.10014
254.38 9007.4 undefined 794.80 942.67 2.5534 420.00 0.0023810 794.80 942.67 2.5534 2.5682 3.1243 789.92 -0.0023050 66.356 0.10030 420.00 0.0023810 794.80 942.67 2.5534 2.5682 3.1243 789.92 -0.0023050 66.356 0.10030
255.38 9052.2 undefined 797.37 945.98 2.5583 420.00 0.0023810 797.37 945.98 2.5583 2.5718 3.1265 791.12 -0.0023187 66.378 0.10045 420.00 0.0023810 797.37 945.98 2.5583 2.5718 3.1265 791.12 -0.0023187 66.378 0.10045
256.38 9097.0 undefined 799.95 949.29 2.5631 420.00 0.0023810 799.95 949.29 2.5631 2.5754 3.1288 792.31 -0.0023322 66.399 0.10061 420.00 0.0023810 799.95 949.29 2.5631 2.5754 3.1288 792.31 -0.0023322 66.399 0.10061
257.38 9141.8 undefined 802.53 952.60 2.5680 420.00 0.0023810 802.53 952.60 2.5680 2.5790 3.1310 793.50 -0.0023456 66.421 0.10076 420.00 0.0023810 802.53 952.60 2.5680 2.5790 3.1310 793.50 -0.0023456 66.421 0.10076
258.38 9186.5 undefined 805.11 955.91 2.5728 420.00 0.0023810 805.11 955.91 2.5728 2.5826 3.1333 794.68 -0.0023588 66.442 0.10092 420.00 0.0023810 805.11 955.91 2.5728 2.5826 3.1333 794.68 -0.0023588 66.442 0.10092
259.38 9231.2 undefined 807.69 959.23 2.5777 420.00 0.0023810 807.69 959.23 2.5777 2.5862 3.1355 795.87 -0.0023719 66.464 0.10107 420.00 0.0023810 807.69 959.23 2.5777 2.5862 3.1355 795.87 -0.0023719 66.464 0.10107
260.38 9275.9 undefined 810.28 962.55 2.5826 420.00 0.0023810 810.28 962.55 2.5826 2.5898 3.1378 797.05 -0.0023849 66.485 0.10123 420.00 0.0023810 810.28 962.55 2.5826 2.5898 3.1378 797.05 -0.0023849 66.485 0.10123
261.38 9320.6 undefined 812.87 965.88 2.5874 420.00 0.0023810 812.87 965.88 2.5874 2.5934 3.1401 798.22 -0.0023977 66.506 0.10139 420.00 0.0023810 812.87 965.88 2.5874 2.5934 3.1401 798.22 -0.0023977 66.506 0.10139
262.38 9365.3 undefined 815.47 969.21 2.5923 420.00 0.0023810 815.47 969.21 2.5923 2.5970 3.1424 799.40 -0.0024104 66.528 0.10154 420.00 0.0023810 815.47 969.21 2.5923 2.5970 3.1424 799.40 -0.0024104 66.528 0.10154
263.38 9410.0 undefined 818.06 972.54 2.5971 420.00 0.0023810 818.06 972.54 2.5971 2.6006 3.1447 800.57 -0.0024230 66.549 0.10170 420.00 0.0023810 818.06 972.54 2.5971 2.6006 3.1447 800.57 -0.0024230 66.549 0.10170
264.38 9454.6 undefined 820.67 975.87 2.6020 420.00 0.0023810 820.67 975.87 2.6020 2.6041 3.1469 801.74 -0.0024355 66.571 0.10186 420.00 0.0023810 820.67 975.87 2.6020 2.6041 3.1469 801.74 -0.0024355 66.571 0.10186
265.38 9499.3 undefined 823.27 979.21 2.6068 420.00 0.0023810 823.27 979.21 2.6068 2.6077 3.1492 802.91 -0.0024478 66.592 0.10202 420.00 0.0023810 823.27 979.21 2.6068 2.6077 3.1492 802.91 -0.0024478 66.592 0.10202
266.38 9543.9 undefined 825.88 982.56 2.6116 420.00 0.0023810 825.88 982.56 2.6116 2.6113 3.1515 804.07 -0.0024600 66.613 0.10217 420.00 0.0023810 825.88 982.56 2.6116 2.6113 3.1515 804.07 -0.0024600 66.613 0.10217
267.38 9588.5 undefined 828.50 985.90 2.6165 420.00 0.0023810 828.50 985.90 2.6165 2.6148 3.1538 805.23 -0.0024720 66.635 0.10233 420.00 0.0023810 828.50 985.90 2.6165 2.6148 3.1538 805.23 -0.0024720 66.635 0.10233
268.38 9633.1 undefined 831.11 989.25 2.6213 420.00 0.0023810 831.11 989.25 2.6213 2.6184 3.1561 806.39 -0.0024840 66.656 0.10249 420.00 0.0023810 831.11 989.25 2.6213 2.6184 3.1561 806.39 -0.0024840 66.656 0.10249
269.38 9677.7 undefined 833.73 992.60 2.6261 420.00 0.0023810 833.73 992.60 2.6261 2.6220 3.1584 807.55 -0.0024958 66.677 0.10265 420.00 0.0023810 833.73 992.60 2.6261 2.6220 3.1584 807.55 -0.0024958 66.677 0.10265
270.38 9722.2 undefined 836.36 995.96 2.6310 420.00 0.0023810 836.36 995.96 2.6310 2.6255 3.1608 808.70 -0.0025075 66.699 0.10281 420.00 0.0023810 836.36 995.96 2.6310 2.6255 3.1608 808.70 -0.0025075 66.699 0.10281
271.38 9766.8 undefined 838.98 999.32 2.6358 420.00 0.0023810 838.98 999.32 2.6358 2.6291 3.1631 809.86 -0.0025190 66.720 0.10297 420.00 0.0023810 838.98 999.32 2.6358 2.6291 3.1631 809.86 -0.0025190 66.720 0.10297
272.38 9811.3 undefined 841.61 1002.7 2.6406 420.00 0.0023810 841.61 1002.7 2.6406 2.6326 3.1654 811.00 -0.0025305 66.741 0.10313 420.00 0.0023810 841.61 1002.7 2.6406 2.6326 3.1654 811.00 -0.0025305 66.741 0.10313
273.38 9855.8 undefined 844.25 1006.0 2.6455 420.00 0.0023810 844.25 1006.0 2.6455 2.6361 3.1677 812.15 -0.0025418 66.762 0.10329 420.00 0.0023810 844.25 1006.0 2.6455 2.6361 3.1677 812.15 -0.0025418 66.762 0.10329
274.38 9900.3 undefined 846.89 1009.4 2.6503 420.00 0.0023810 846.89 1009.4 2.6503 2.6397 3.1700 813.30 -0.0025531 66.784 0.10345 420.00 0.0023810 846.89 1009.4 2.6503 2.6397 3.1700 813.30 -0.0025531 66.784 0.10345
275.38 9944.8 undefined 849.53 1012.8 2.6551 420.00 0.0023810 849.53 1012.8 2.6551 2.6432 3.1724 814.44 -0.0025642 66.805 0.10361 420.00 0.0023810 849.53 1012.8 2.6551 2.6432 3.1724 814.44 -0.0025642 66.805 0.10361
276.38 9989.3 undefined 852.17 1016.2 2.6599 420.00 0.0023810 852.17 1016.2 2.6599 2.6467 3.1747 815.58 -0.0025752 66.826 0.10377 420.00 0.0023810 852.17 1016.2 2.6599 2.6467 3.1747 815.58 -0.0025752 66.826 0.10377
277.38 10034. undefined 854.82 1019.5 2.6647 420.00 0.0023810 854.82 1019.5 2.6647 2.6503 3.1771 816.71 -0.0025861 66.847 0.10393 420.00 0.0023810 854.82 1019.5 2.6647 2.6503 3.1771 816.71 -0.0025861 66.847 0.10393
278.38 10078. undefined 857.47 1022.9 2.6695 420.00 0.0023810 857.47 1022.9 2.6695 2.6538 3.1794 817.85 -0.0025968 66.869 0.10409 420.00 0.0023810 857.47 1022.9 2.6695 2.6538 3.1794 817.85 -0.0025968 66.869 0.10409
279.38 10123. undefined 860.13 1026.3 2.6744 420.00 0.0023810 860.13 1026.3 2.6744 2.6573 3.1817 818.98 -0.0026075 66.890 0.10426 420.00 0.0023810 860.13 1026.3 2.6744 2.6573 3.1817 818.98 -0.0026075 66.890 0.10426
280.38 10167. undefined 862.79 1029.7 2.6792 420.00 0.0023810 862.79 1029.7 2.6792 2.6608 3.1841 820.11 -0.0026181 66.911 0.10442 420.00 0.0023810 862.79 1029.7 2.6792 2.6608 3.1841 820.11 -0.0026181 66.911 0.10442
281.38 10211. undefined 865.45 1033.1 2.6840 420.00 0.0023810 865.45 1033.1 2.6840 2.6643 3.1864 821.24 -0.0026285 66.932 0.10458 420.00 0.0023810 865.45 1033.1 2.6840 2.6643 3.1864 821.24 -0.0026285 66.932 0.10458
282.38 10256. undefined 868.12 1036.5 2.6888 420.00 0.0023810 868.12 1036.5 2.6888 2.6678 3.1888 822.36 -0.0026389 66.953 0.10432 420.00 0.0023810 868.12 1036.5 2.6888 2.6678 3.1888 822.36 -0.0026389 66.953 0.10432
283.38 10300. undefined 870.79 1039.9 2.6936 420.00 0.0023810 870.79 1039.9 2.6936 2.6713 3.1912 823.48 -0.0026491 66.974 0.10448 420.00 0.0023810 870.79 1039.9 2.6936 2.6713 3.1912 823.48 -0.0026491 66.974 0.10448
284.38 10345. undefined 873.46 1043.3 2.6984 420.00 0.0023810 873.46 1043.3 2.6984 2.6748 3.1935 824.60 -0.0026593 66.995 0.10464 420.00 0.0023810 873.46 1043.3 2.6984 2.6748 3.1935 824.60 -0.0026593 66.995 0.10464
285.38 10389. undefined 876.14 1046.7 2.7032 420.00 0.0023810 876.14 1046.7 2.7032 2.6783 3.1959 825.72 -0.0026693 67.017 0.10481 420.00 0.0023810 876.14 1046.7 2.7032 2.6783 3.1959 825.72 -0.0026693 67.017 0.10481
286.38 10433. undefined 878.82 1050.1 2.7080 420.00 0.0023810 878.82 1050.1 2.7080 2.6818 3.1982 826.84 -0.0026792 67.038 0.10497 420.00 0.0023810 878.82 1050.1 2.7080 2.6818 3.1982 826.84 -0.0026792 67.038 0.10497
287.38 10477. undefined 881.50 1053.5 2.7128 420.00 0.0023810 881.50 1053.5 2.7128 2.6852 3.2006 827.95 -0.0026891 67.059 0.10513 420.00 0.0023810 881.50 1053.5 2.7128 2.6852 3.2006 827.95 -0.0026891 67.059 0.10513
288.38 10522. undefined 884.19 1056.9 2.7175 420.00 0.0023810 884.19 1056.9 2.7175 2.6887 3.2030 829.06 -0.0026988 67.080 0.10530 420.00 0.0023810 884.19 1056.9 2.7175 2.6887 3.2030 829.06 -0.0026988 67.080 0.10530
289.38 10566. undefined 886.88 1060.3 2.7223 420.00 0.0023810 886.88 1060.3 2.7223 2.6922 3.2054 830.17 -0.0027085 67.101 0.10546 420.00 0.0023810 886.88 1060.3 2.7223 2.6922 3.2054 830.17 -0.0027085 67.101 0.10546
290.38 10610. undefined 889.57 1063.8 2.7271 420.00 0.0023810 889.57 1063.8 2.7271 2.6956 3.2077 831.28 -0.0027180 67.122 0.10562 420.00 0.0023810 889.57 1063.8 2.7271 2.6956 3.2077 831.28 -0.0027180 67.122 0.10562
291.38 10655. undefined 892.27 1067.2 2.7319 420.00 0.0023810 892.27 1067.2 2.7319 2.6991 3.2101 832.38 -0.0027275 67.143 0.10579 420.00 0.0023810 892.27 1067.2 2.7319 2.6991 3.2101 832.38 -0.0027275 67.143 0.10579
292.38 10699. undefined 894.97 1070.6 2.7367 420.00 0.0023810 894.97 1070.6 2.7367 2.7026 3.2125 833.48 -0.0027368 67.164 0.10595 420.00 0.0023810 894.97 1070.6 2.7367 2.7026 3.2125 833.48 -0.0027368 67.164 0.10595
293.38 10743. undefined 897.67 1074.0 2.7415 420.00 0.0023810 897.67 1074.0 2.7415 2.7060 3.2149 834.58 -0.0027461 67.185 0.10612 420.00 0.0023810 897.67 1074.0 2.7415 2.7060 3.2149 834.58 -0.0027461 67.185 0.10612
294.38 10787. undefined 900.38 1077.5 2.7462 420.00 0.0023810 900.38 1077.5 2.7462 2.7095 3.2173 835.68 -0.0027552 67.206 0.10628 420.00 0.0023810 900.38 1077.5 2.7462 2.7095 3.2173 835.68 -0.0027552 67.206 0.10628
295.38 10831. undefined 903.09 1080.9 2.7510 420.00 0.0023810 903.09 1080.9 2.7510 2.7129 3.2197 836.77 -0.0027643 67.227 0.10645 420.00 0.0023810 903.09 1080.9 2.7510 2.7129 3.2197 836.77 -0.0027643 67.227 0.10645
296.38 10876. undefined 905.81 1084.3 2.7558 420.00 0.0023810 905.81 1084.3 2.7558 2.7163 3.2220 837.87 -0.0027733 67.248 0.10662 420.00 0.0023810 905.81 1084.3 2.7558 2.7163 3.2220 837.87 -0.0027733 67.248 0.10662
297.38 10920. undefined 908.52 1087.8 2.7605 420.00 0.0023810 908.52 1087.8 2.7605 2.7198 3.2244 838.96 -0.0027822 67.269 0.10678 420.00 0.0023810 908.52 1087.8 2.7605 2.7198 3.2244 838.96 -0.0027822 67.269 0.10678
298.38 10964. undefined 911.25 1091.2 2.7653 420.00 0.0023810 911.25 1091.2 2.7653 2.7232 3.2268 840.05 -0.0027910 67.290 0.10695 420.00 0.0023810 911.25 1091.2 2.7653 2.7232 3.2268 840.05 -0.0027910 67.290 0.10695
299.38 11008. undefined 913.97 1094.7 2.7701 420.00 0.0023810 913.97 1094.7 2.7701 2.7266 3.2292 841.13 -0.0027998 67.311 0.10711 420.00 0.0023810 913.97 1094.7 2.7701 2.7266 3.2292 841.13 -0.0027998 67.311 0.10711
300.38 11052. undefined 916.70 1098.1 2.7748 420.00 0.0023810 916.70 1098.1 2.7748 2.7300 3.2316 842.22 -0.0028084 67.332 0.10728 420.00 0.0023810 916.70 1098.1 2.7748 2.7300 3.2316 842.22 -0.0028084 67.332 0.10728