Temperature (C) Pressure (psia) Quality (l+v) Internal Energy (l+v, kJ/kg) Enthalpy (l+v, kJ/kg) Entropy (l+v, J/g*K) Density (l, kg/m3) Volume (l, m3/kg) Internal Energy (l, kJ/kg) Enthalpy (l, kJ/kg) Entropy (l, J/g*K) Cv (l, J/g*K) Cp (l, J/g*K) Sound Spd. (l, m/s) Joule-Thomson (l, F/psia) Viscosity (l, uPa*s) Therm. Cond. (l, W/m*K) Density (v, kg/m3) Volume (v, m3/kg) Internal Energy (v, kJ/kg) Enthalpy (v, kJ/kg) Entropy (v, J/g*K) Cv (v, J/g*K) Cp (v, J/g*K) Sound Spd. (v, m/s) Joule-Thomson (v, F/psia) Viscosity (v, uPa*s) Therm. Cond. (v, W/m*K)
-187.62 2.4953e-08 8.3911e-12 -196.64 -196.64 -1.3959 733.13 0.0013640 -196.64 -196.64 -1.3959 1.3553 1.9158 2136.4 -0.0077592 10960. 0.20792 1.0669e-08 9.3732e+07 350.13 366.26 5.1858 0.69067 0.87923 143.28 6.1051 2.3259 0.0017061
-186.62 3.7339e-08 1.2381e-11 -194.73 -194.73 -1.3736 732.08 0.0013660 -194.73 -194.73 -1.3736 1.3539 1.9166 2129.6 -0.0077546 10073. 0.20765 1.5780e-08 6.3371e+07 350.82 367.14 5.1200 0.69462 0.88317 144.03 5.9178 2.3534 0.0017533
-185.62 5.5322e-08 1.8088e-11 -192.81 -192.81 -1.3516 731.04 0.0013679 -192.81 -192.81 -1.3516 1.3525 1.9174 2122.9 -0.0077498 9276.1 0.20737 2.3112e-08 4.3267e+07 351.52 368.02 5.0561 0.69857 0.88713 144.77 5.7383 2.3808 0.0018007
-184.62 8.1182e-08 2.6178e-11 -190.89 -190.89 -1.3298 730.00 0.0013699 -190.89 -190.89 -1.3298 1.3513 1.9182 2116.1 -0.0077448 8557.8 0.20708 3.3533e-08 2.9821e+07 352.22 368.91 4.9939 0.70253 0.89108 145.51 5.5662 2.4083 0.0018485
-183.62 1.1803e-07 3.7543e-11 -188.97 -188.97 -1.3083 728.96 0.0013718 -188.97 -188.97 -1.3083 1.3501 1.9191 2109.3 -0.0077395 7909.8 0.20678 4.8211e-08 2.0742e+07 352.92 369.81 4.9333 0.70648 0.89504 146.24 5.4011 2.4357 0.0018965
-182.62 1.7009e-07 5.3367e-11 -187.05 -187.05 -1.2869 727.92 0.0013738 -187.05 -187.05 -1.2869 1.3490 1.9201 2102.5 -0.0077340 7324.3 0.20647 6.8704e-08 1.4555e+07 353.63 370.70 4.8744 0.71043 0.89899 146.97 5.2426 2.4632 0.0019448
-181.62 2.4299e-07 7.5217e-11 -185.13 -185.13 -1.2658 726.88 0.0013757 -185.13 -185.13 -1.2658 1.3480 1.9210 2095.7 -0.0077283 6794.5 0.20616 9.7079e-08 1.0301e+07 354.35 371.60 4.8170 0.71438 0.90294 147.69 5.0904 2.4906 0.0019934
-180.62 3.4425e-07 1.0514e-10 -183.21 -183.21 -1.2450 725.85 0.0013777 -183.21 -183.21 -1.2450 1.3470 1.9220 2088.9 -0.0077225 6314.4 0.20584 1.3605e-07 7.3504e+06 355.06 372.51 4.7612 0.71833 0.90688 148.41 4.9442 2.5181 0.0020423
-179.62 4.8378e-07 1.4581e-10 -181.29 -181.29 -1.2243 724.81 0.0013797 -181.29 -181.29 -1.2243 1.3461 1.9231 2082.0 -0.0077164 5878.8 0.20551 1.8915e-07 5.2868e+06 355.78 373.42 4.7068 0.72227 0.91082 149.13 4.8038 2.5456 0.0020915
-178.62 6.7459e-07 2.0065e-10 -179.37 -179.37 -1.2038 723.78 0.0013816 -179.37 -179.37 -1.2038 1.3453 1.9241 2075.2 -0.0077102 5482.9 0.20517 2.6096e-07 3.8320e+06 356.51 374.33 4.6538 0.72620 0.91475 149.84 4.6688 2.5731 0.0021410
-177.62 9.3358e-07 2.7408e-10 -177.44 -177.44 -1.1836 722.75 0.0013836 -177.44 -177.44 -1.1836 1.3445 1.9252 2068.4 -0.0077039 5122.6 0.20483 3.5737e-07 2.7982e+06 357.23 375.25 4.6022 0.73012 0.91867 150.54 4.5390 2.6005 0.0021907
-176.62 1.2826e-06 3.7168e-10 -175.52 -175.52 -1.1635 721.72 0.0013856 -175.52 -175.52 -1.1635 1.3437 1.9263 2061.5 -0.0076973 4794.1 0.20447 4.8588e-07 2.0581e+06 357.97 376.17 4.5519 0.73403 0.92258 151.25 4.4142 2.6280 0.0022408
-175.62 1.7496e-06 5.0052e-10 -173.59 -173.59 -1.1437 720.69 0.0013876 -173.59 -173.59 -1.1437 1.3430 1.9274 2054.7 -0.0076907 4494.3 0.20411 6.5601e-07 1.5244e+06 358.70 377.09 4.5029 0.73792 0.92648 151.95 4.2941 2.6555 0.0022912
-174.62 2.3705e-06 6.6950e-10 -171.66 -171.66 -1.1240 719.66 0.0013895 -171.66 -171.66 -1.1240 1.3423 1.9286 2047.9 -0.0076838 4220.2 0.20375 8.7976e-07 1.1367e+06 359.44 378.02 4.4551 0.74181 0.93036 152.64 4.1784 2.6830 0.0023418
-173.62 3.1903e-06 8.8967e-10 -169.73 -169.73 -1.1045 718.64 0.0013915 -169.73 -169.73 -1.1045 1.3417 1.9298 2041.0 -0.0076769 3969.3 0.20338 1.1721e-06 8.5314e+05 360.19 378.95 4.4085 0.74568 0.93423 153.33 4.0671 2.7105 0.0023928
-172.62 4.2661e-06 1.1748e-09 -167.80 -167.80 -1.0852 717.61 0.0013935 -167.80 -167.80 -1.0852 1.3411 1.9310 2034.2 -0.0076698 3739.3 0.20300 1.5518e-06 6.4441e+05 360.93 379.89 4.3631 0.74953 0.93809 154.02 3.9599 2.7379 0.0024440
-171.62 5.6692e-06 1.5417e-09 -165.87 -165.87 -1.0661 716.58 0.0013955 -165.87 -165.87 -1.0661 1.3405 1.9322 2027.3 -0.0076625 3528.0 0.20261 2.0419e-06 4.8974e+05 361.69 380.83 4.3188 0.75337 0.94193 154.71 3.8566 2.7654 0.0024955
-170.62 7.4884e-06 2.0112e-09 -163.94 -163.94 -1.0472 715.56 0.0013975 -163.94 -163.94 -1.0472 1.3400 1.9334 2020.5 -0.0076552 3333.8 0.20222 2.6708e-06 3.7442e+05 362.44 381.77 4.2755 0.75720 0.94575 155.39 3.7570 2.7929 0.0025473
-169.62 9.8334e-06 2.6085e-09 -162.00 -162.00 -1.0284 714.54 0.0013995 -162.00 -162.00 -1.0284 1.3395 1.9347 2013.6 -0.0076477 3154.9 0.20182 3.4733e-06 2.8791e+05 363.20 382.72 4.2334 0.76100 0.94956 156.07 3.6609 2.8204 0.0025994
-168.62 1.2839e-05 3.3644e-09 -160.07 -160.07 -1.0098 713.52 0.0014015 -160.07 -160.07 -1.0098 1.3390 1.9359 2006.8 -0.0076401 2989.9 0.20141 4.4917e-06 2.2263e+05 363.96 383.67 4.1922 0.76479 0.95335 156.74 3.5683 2.8479 0.0026518
-167.62 1.6672e-05 4.3156e-09 -158.13 -158.13 -0.99134 712.49 0.0014035 -158.13 -158.13 -0.99134 1.3386 1.9372 2000.0 -0.0076323 2837.5 0.20100 5.7771e-06 1.7310e+05 364.73 384.63 4.1521 0.76856 0.95712 157.41 3.4790 2.8754 0.0027045
-166.62 2.1533e-05 5.5066e-09 -156.19 -156.19 -0.97306 711.47 0.0014055 -156.19 -156.19 -0.97306 1.3382 1.9385 1993.1 -0.0076245 2696.5 0.20058 7.3914e-06 1.3529e+05 365.50 385.59 4.1129 0.77232 0.96087 158.08 3.3927 2.9029 0.0027575
-165.62 2.7666e-05 6.9903e-09 -154.25 -154.25 -0.95494 710.45 0.0014075 -154.25 -154.25 -0.95494 1.3378 1.9398 1986.3 -0.0076165 2566.0 0.20016 9.4084e-06 1.0629e+05 366.27 386.55 4.0746 0.77605 0.96460 158.75 3.3095 2.9304 0.0028108
-164.62 3.5367e-05 8.8296e-09 -152.31 -152.31 -0.93698 709.44 0.0014096 -152.31 -152.31 -0.93698 1.3375 1.9411 1979.4 -0.0076084 2444.9 0.19973 1.1916e-05 83918. 367.05 387.52 4.0372 0.77976 0.96832 159.41 3.2291 2.9579 0.0028643
-163.62 4.4989e-05 1.1099e-08 -150.37 -150.37 -0.91917 708.42 0.0014116 -150.37 -150.37 -0.91917 1.3371 1.9424 1972.6 -0.0076002 2332.3 0.19930 1.5020e-05 66577. 367.83 388.49 4.0008 0.78346 0.97201 160.07 3.1514 2.9854 0.0029182
-162.62 5.6956e-05 1.3886e-08 -148.43 -148.43 -0.90151 707.40 0.0014136 -148.43 -148.43 -0.90151 1.3368 1.9437 1965.8 -0.0075919 2227.7 0.19886 1.8844e-05 53068. 368.62 389.46 3.9651 0.78713 0.97569 160.72 3.0764 3.0129 0.0029723
-161.62 7.1773e-05 1.7294e-08 -146.48 -146.48 -0.88400 706.38 0.0014157 -146.48 -146.48 -0.88400 1.3365 1.9451 1959.0 -0.0075834 2130.2 0.19841 2.3533e-05 42494. 369.41 390.44 3.9304 0.79079 0.97935 161.38 3.0038 3.0404 0.0030268
-160.62 9.0036e-05 2.1442e-08 -144.54 -144.54 -0.86663 705.37 0.0014177 -144.54 -144.54 -0.86663 1.3363 1.9465 1952.1 -0.0075748 2039.2 0.19796 2.9258e-05 34178. 370.20 391.42 3.8964 0.79443 0.98298 162.03 2.9337 3.0679 0.0030815
-159.62 0.00011245 2.6470e-08 -142.59 -142.59 -0.84940 704.35 0.0014197 -142.59 -142.59 -0.84940 1.3360 1.9478 1945.3 -0.0075661 1954.2 0.19751 3.6221e-05 27609. 371.00 392.40 3.8632 0.79805 0.98660 162.68 2.8658 3.0955 0.0031365
-158.62 0.00013985 3.2540e-08 -140.64 -140.64 -0.83231 703.34 0.0014218 -140.64 -140.64 -0.83231 1.3358 1.9492 1938.5 -0.0075573 1874.8 0.19705 4.4652e-05 22395. 371.80 393.39 3.8307 0.80164 0.99020 163.32 2.8002 3.1230 0.0031918
-157.62 0.00017320 3.9839e-08 -138.69 -138.69 -0.81536 702.32 0.0014238 -138.69 -138.69 -0.81536 1.3356 1.9506 1931.7 -0.0075484 1800.3 0.19658 5.4822e-05 18241. 372.60 394.38 3.7990 0.80522 0.99378 163.96 2.7367 3.1505 0.0032474
-156.62 0.00021364 4.8580e-08 -136.74 -136.74 -0.79854 701.31 0.0014259 -136.74 -136.74 -0.79854 1.3354 1.9520 1924.9 -0.0075393 1730.5 0.19611 6.7040e-05 14916. 373.41 395.38 3.7680 0.80878 0.99734 164.60 2.6752 3.1780 0.0033033
-155.62 0.00026248 5.9010e-08 -134.79 -134.79 -0.78185 700.30 0.0014280 -134.79 -134.79 -0.78185 1.3352 1.9534 1918.1 -0.0075302 1664.9 0.19564 8.1666e-05 12245. 374.22 396.38 3.7377 0.81232 1.0009 165.24 2.6157 3.2055 0.0033595
-154.62 0.00032125 7.1409e-08 -132.83 -132.83 -0.76530 699.29 0.0014300 -132.83 -132.83 -0.76530 1.3350 1.9548 1911.3 -0.0075209 1603.3 0.19516 9.9109e-05 10090. 375.03 397.38 3.7081 0.81585 1.0044 165.87 2.5580 3.2330 0.0034160
-153.62 0.00039171 8.6096e-08 -130.88 -130.88 -0.74887 698.27 0.0014321 -130.88 -130.88 -0.74887 1.3349 1.9563 1904.5 -0.0075114 1545.3 0.19468 0.00011984 8344.6 375.85 398.39 3.6792 0.81935 1.0079 166.50 2.5022 3.2606 0.0034727
-152.62 0.00047590 1.0343e-07 -128.92 -128.92 -0.73256 697.26 0.0014342 -128.92 -128.92 -0.73256 1.3348 1.9577 1897.8 -0.0075019 1490.6 0.19419 0.00014439 6925.9 376.67 399.40 3.6509 0.82284 1.0114 167.13 2.4481 3.2881 0.0035298
-151.62 0.00057613 1.2382e-07 -126.96 -126.96 -0.71638 696.25 0.0014363 -126.96 -126.96 -0.71638 1.3346 1.9592 1891.0 -0.0074922 1438.9 0.19370 0.00017336 5768.4 377.49 400.41 3.6232 0.82631 1.0149 167.76 2.3957 3.3156 0.0035872
-150.62 0.00069507 1.4773e-07 -125.00 -125.00 -0.70032 695.24 0.0014384 -125.00 -125.00 -0.70032 1.3345 1.9606 1884.2 -0.0074824 1390.2 0.19320 0.00020744 4820.7 378.32 401.42 3.5962 0.82976 1.0183 168.38 2.3448 3.3431 0.0036448
-149.62 0.00083574 1.7568e-07 -123.04 -123.04 -0.68438 694.23 0.0014404 -123.04 -123.04 -0.68438 1.3345 1.9621 1877.4 -0.0074724 1344.0 0.19270 0.00024740 4042.0 379.15 402.44 3.5697 0.83319 1.0218 169.00 2.2956 3.3706 0.0037027
-148.62 0.0010016 2.0823e-07 -121.08 -121.08 -0.66855 693.22 0.0014425 -121.08 -121.08 -0.66855 1.3344 1.9636 1870.7 -0.0074623 1300.3 0.19220 0.00029412 3400.0 379.99 403.47 3.5438 0.83661 1.0252 169.62 2.2478 3.3982 0.0037610
-147.62 0.0011965 2.4604e-07 -119.11 -119.11 -0.65284 692.21 0.0014447 -119.11 -119.11 -0.65284 1.3343 1.9651 1863.9 -0.0074521 1258.9 0.19169 0.00034856 2869.0 380.83 404.49 3.5185 0.84001 1.0286 170.24 2.2014 3.4257 0.0038195
-146.62 0.0014249 2.8982e-07 -117.15 -117.15 -0.63724 691.20 0.0014468 -117.15 -117.15 -0.63724 1.3343 1.9666 1857.2 -0.0074417 1219.6 0.19117 0.00041181 2428.3 381.67 405.52 3.4938 0.84340 1.0320 170.85 2.1565 3.4532 0.0038783
-145.62 0.0016917 3.4037e-07 -115.18 -115.18 -0.62175 690.19 0.0014489 -115.18 -115.18 -0.62175 1.3343 1.9682 1850.4 -0.0074312 1182.3 0.19066 0.00048510 2061.4 382.51 406.56 3.4695 0.84677 1.0353 171.46 2.1128 3.4807 0.0039374
-144.62 0.0020026 3.9857e-07 -113.21 -113.21 -0.60637 689.18 0.0014510 -113.21 -113.21 -0.60637 1.3343 1.9697 1843.7 -0.0074206 1146.8 0.19014 0.00056976 1755.1 383.36 407.59 3.4458 0.85012 1.0387 172.07 2.0705 3.5082 0.0039967
-143.62 0.0023637 4.6538e-07 -111.24 -111.24 -0.59110 688.17 0.0014531 -111.24 -111.24 -0.59110 1.3343 1.9713 1836.9 -0.0074098 1113.0 0.18962 0.00066731 1498.6 384.21 408.63 3.4226 0.85346 1.0420 172.68 2.0294 3.5358 0.0040564
-142.62 0.0027820 5.4188e-07 -109.27 -109.27 -0.57593 687.16 0.0014553 -109.27 -109.27 -0.57593 1.3343 1.9728 1830.2 -0.0073988 1080.8 0.18909 0.00077939 1283.1 385.07 409.68 3.3999 0.85679 1.0454 173.28 1.9896 3.5633 0.0041164
-141.62 0.0032653 6.2925e-07 -107.30 -107.30 -0.56087 686.15 0.0014574 -107.30 -107.30 -0.56087 1.3343 1.9744 1823.5 -0.0073878 1050.1 0.18856 0.00090784 1101.5 385.93 410.72 3.3777 0.86011 1.0487 173.88 1.9508 3.5908 0.0041766
-140.62 0.0038222 7.2876e-07 -105.32 -105.32 -0.54591 685.14 0.0014596 -105.32 -105.32 -0.54591 1.3344 1.9760 1816.7 -0.0073765 1020.7 0.18803 0.0010547 948.16 386.79 411.77 3.3560 0.86341 1.0520 174.48 1.9133 3.6183 0.0042372
-139.62 0.0044623 8.4181e-07 -103.34 -103.34 -0.53104 684.13 0.0014617 -103.34 -103.34 -0.53105 1.3344 1.9776 1810.0 -0.0073651 992.74 0.18749 0.0012221 818.26 387.65 412.83 3.3347 0.86670 1.0553 175.08 1.8768 3.6459 0.0042980
-138.62 0.0051963 9.6994e-07 -101.37 -101.37 -0.51628 683.12 0.0014639 -101.37 -101.37 -0.51629 1.3345 1.9792 1803.3 -0.0073536 965.97 0.18695 0.0014125 707.94 388.52 413.88 3.3139 0.86998 1.0586 175.67 1.8413 3.6734 0.0043592
-137.62 0.0060358 1.1148e-06 -99.386 -99.385 -0.50162 682.11 0.0014660 -99.386 -99.386 -0.50162 1.3346 1.9808 1796.6 -0.0073419 940.35 0.18641 0.0016287 614.00 389.39 414.94 3.2935 0.87325 1.0619 176.26 1.8069 3.7009 0.0044206
-136.62 0.0069938 1.2782e-06 -97.404 -97.404 -0.48705 681.10 0.0014682 -97.404 -97.404 -0.48705 1.3347 1.9825 1789.9 -0.0073301 915.81 0.18586 0.0018733 533.80 390.26 416.00 3.2735 0.87650 1.0651 176.85 1.7734 3.7284 0.0044823
-135.62 0.0080843 1.4621e-06 -95.420 -95.420 -0.47257 680.09 0.0014704 -95.421 -95.421 -0.47258 1.3348 1.9841 1783.2 -0.0073180 892.30 0.18531 0.0021497 465.17 391.14 417.07 3.2540 0.87975 1.0684 177.44 1.7409 3.7559 0.0045443
-134.62 0.0093230 1.6686e-06 -93.435 -93.435 -0.45819 679.08 0.0014726 -93.436 -93.436 -0.45820 1.3350 1.9858 1776.5 -0.0073059 869.75 0.18476 0.0024613 406.30 392.02 418.14 3.2348 0.88299 1.0716 178.02 1.7093 3.7834 0.0046066
-133.62 0.010727 1.9000e-06 -91.449 -91.448 -0.44390 678.07 0.0014748 -91.450 -91.449 -0.44391 1.3351 1.9875 1769.8 -0.0072935 848.11 0.18421 0.0028116 355.67 392.91 419.21 3.2161 0.88622 1.0749 178.61 1.6786 3.8109 0.0046691
-132.62 0.012315 2.1587e-06 -89.460 -89.460 -0.42970 677.06 0.0014770 -89.461 -89.461 -0.42971 1.3353 1.9892 1763.1 -0.0072810 827.32 0.18365 0.0032049 312.03 393.79 420.29 3.1977 0.88944 1.0781 179.19 1.6488 3.8385 0.0047320
-131.62 0.014106 2.4472e-06 -87.470 -87.470 -0.41559 676.04 0.0014792 -87.471 -87.471 -0.41560 1.3354 1.9909 1756.4 -0.0072684 807.34 0.18309 0.0036453 274.33 394.68 421.36 3.1798 0.89266 1.0813 179.76 1.6197 3.8660 0.0047951
-130.62 0.016124 2.7686e-06 -85.478 -85.478 -0.40156 675.03 0.0014814 -85.479 -85.479 -0.40157 1.3356 1.9926 1749.7 -0.0072555 788.12 0.18253 0.0041375 241.69 395.58 422.44 3.1622 0.89586 1.0846 180.34 1.5915 3.8935 0.0048586
-129.62 0.018392 3.1256e-06 -83.484 -83.484 -0.38762 674.02 0.0014836 -83.486 -83.486 -0.38763 1.3358 1.9944 1743.0 -0.0072425 769.63 0.18196 0.0046867 213.37 396.47 423.53 3.1450 0.89906 1.0878 180.91 1.5641 3.9210 0.0049223
-128.62 0.020935 3.5215e-06 -81.489 -81.489 -0.37377 673.01 0.0014859 -81.491 -81.490 -0.37378 1.3360 1.9961 1736.3 -0.0072294 751.83 0.18140 0.0052981 188.75 397.37 424.62 3.1281 0.90226 1.0910 181.48 1.5374 3.9485 0.0049863
-127.62 0.023783 3.9598e-06 -79.492 -79.491 -0.36000 672.00 0.0014881 -79.494 -79.493 -0.36001 1.3363 1.9979 1729.6 -0.0072160 734.67 0.18083 0.0059776 167.29 398.27 425.71 3.1116 0.90545 1.0942 182.05 1.5114 3.9760 0.0050506
-126.62 0.026966 4.4440e-06 -77.493 -77.492 -0.34631 670.98 0.0014904 -77.495 -77.495 -0.34632 1.3365 1.9997 1722.9 -0.0072025 718.14 0.18025 0.0067313 148.56 399.18 426.80 3.0954 0.90863 1.0974 182.62 1.4861 4.0035 0.0051152
-125.62 0.030515 4.9779e-06 -75.492 -75.491 -0.33270 669.97 0.0014926 -75.494 -75.494 -0.33272 1.3368 2.0015 1716.2 -0.0071888 702.18 0.17968 0.0075660 132.17 400.09 427.89 3.0795 0.91181 1.1006 183.18 1.4615 4.0310 0.0051800
-124.62 0.034467 5.5657e-06 -73.489 -73.489 -0.31917 668.95 0.0014949 -73.492 -73.492 -0.31919 1.3371 2.0033 1709.5 -0.0071749 686.79 0.17910 0.0084885 117.81 401.00 428.99 3.0640 0.91499 1.1038 183.74 1.4375 4.0584 0.0052452
-123.62 0.038859 6.2116e-06 -71.485 -71.484 -0.30572 667.94 0.0014971 -71.488 -71.487 -0.30574 1.3374 2.0051 1702.8 -0.0071609 671.93 0.17852 0.0095065 105.19 401.91 430.10 3.0488 0.91816 1.1070 184.30 1.4141 4.0859 0.0053106
-122.62 0.043731 6.9201e-06 -69.478 -69.478 -0.29234 666.92 0.0014994 -69.482 -69.481 -0.29237 1.3377 2.0070 1696.2 -0.0071466 657.57 0.17794 0.010628 94.092 402.83 431.20 3.0339 0.92134 1.1102 184.86 1.3913 4.1134 0.0053764
-121.62 0.049128 7.6960e-06 -67.470 -67.469 -0.27905 665.91 0.0015017 -67.474 -67.473 -0.27907 1.3380 2.0089 1689.5 -0.0071322 643.70 0.17736 0.011861 84.309 403.75 432.31 3.0193 0.92451 1.1134 185.41 1.3691 4.1409 0.0054424
-120.62 0.055096 8.5444e-06 -65.460 -65.459 -0.26582 664.89 0.0015040 -65.464 -65.463 -0.26585 1.3384 2.0107 1682.8 -0.0071176 630.28 0.17678 0.013215 75.669 404.67 433.42 3.0050 0.92767 1.1166 185.96 1.3475 4.1683 0.0055087
-119.62 0.061684 9.4704e-06 -63.448 -63.447 -0.25268 663.87 0.0015063 -63.452 -63.452 -0.25271 1.3387 2.0126 1676.1 -0.0071028 617.30 0.17619 0.014700 68.027 405.60 434.53 2.9909 0.93084 1.1198 186.51 1.3264 4.1958 0.0055752
-118.62 0.068946 1.0480e-05 -61.434 -61.433 -0.23960 662.86 0.0015086 -61.439 -61.438 -0.23963 1.3391 2.0146 1669.4 -0.0070878 604.74 0.17560 0.016325 61.255 406.53 435.64 2.9772 0.93401 1.1231 187.06 1.3058 4.2233 0.0056421
-117.62 0.076937 1.1578e-05 -59.418 -59.417 -0.22660 661.84 0.0015109 -59.423 -59.422 -0.22663 1.3395 2.0165 1662.8 -0.0070726 592.58 0.17501 0.018101 55.245 407.46 436.76 2.9638 0.93718 1.1263 187.60 1.2857 4.2507 0.0057092
-116.62 0.085718 1.2771e-05 -57.400 -57.398 -0.21366 660.82 0.0015133 -57.406 -57.405 -0.21370 1.3400 2.0184 1656.1 -0.0070573 580.80 0.17442 0.020040 49.901 408.39 437.88 2.9506 0.94035 1.1295 188.14 1.2660 4.2782 0.0057767
-115.62 0.095353 1.4065e-05 -55.380 -55.378 -0.20080 659.80 0.0015156 -55.386 -55.385 -0.20084 1.3404 2.0204 1649.4 -0.0070417 569.38 0.17383 0.022152 45.142 409.33 439.01 2.9377 0.94352 1.1327 188.68 1.2468 4.3056 0.0058444
-114.62 0.10591 1.5468e-05 -53.358 -53.356 -0.18800 658.78 0.0015180 -53.365 -53.364 -0.18805 1.3409 2.0224 1642.7 -0.0070260 558.32 0.17323 0.024451 40.898 410.27 440.13 2.9250 0.94669 1.1360 189.22 1.2281 4.3330 0.0059123
-113.62 0.11746 1.6985e-05 -51.334 -51.332 -0.17527 657.76 0.0015203 -51.342 -51.340 -0.17533 1.3413 2.0244 1636.0 -0.0070100 547.59 0.17264 0.026949 37.107 411.21 441.26 2.9126 0.94987 1.1392 189.75 1.2097 4.3604 0.0059806
-112.62 0.13008 1.8623e-05 -49.308 -49.306 -0.16261 656.73 0.0015227 -49.316 -49.315 -0.16267 1.3418 2.0264 1629.3 -0.0069938 537.18 0.17204 0.029661 33.715 412.16 442.39 2.9005 0.95305 1.1424 190.28 1.1918 4.3879 0.0060491
-111.62 0.14384 2.0391e-05 -47.279 -47.277 -0.15002 655.71 0.0015251 -47.289 -47.287 -0.15008 1.3424 2.0285 1622.7 -0.0069774 527.08 0.17144 0.032600 30.675 413.10 443.53 2.8885 0.95623 1.1457 190.81 1.1742 4.4153 0.0061180
-110.62 0.15884 2.2296e-05 -45.249 -45.247 -0.13749 654.69 0.0015274 -45.259 -45.258 -0.13755 1.3429 2.0305 1616.0 -0.0069609 517.28 0.17084 0.035781 27.948 414.06 444.66 2.8769 0.95942 1.1490 191.34 1.1570 4.4427 0.0061871
-109.62 0.17516 2.4345e-05 -43.217 -43.214 -0.12502 653.66 0.0015298 -43.228 -43.226 -0.12509 1.3435 2.0326 1609.3 -0.0069441 507.76 0.17024 0.039220 25.497 415.01 445.80 2.8654 0.96261 1.1522 191.86 1.1402 4.4701 0.0062564
-108.62 0.19290 2.6547e-05 -41.182 -41.179 -0.11261 652.64 0.0015322 -41.194 -41.192 -0.11269 1.3441 2.0347 1602.6 -0.0069271 498.51 0.16964 0.042933 23.292 415.96 446.94 2.8542 0.96581 1.1555 192.38 1.1236 4.4974 0.0063261
-107.62 0.21215 2.8909e-05 -39.145 -39.142 -0.10027 651.61 0.0015347 -39.158 -39.156 -0.10036 1.3447 2.0369 1595.9 -0.0069098 489.52 0.16903 0.046937 21.305 416.92 448.09 2.8433 0.96901 1.1588 192.90 1.1075 4.5248 0.0063960
-106.62 0.23301 3.1442e-05 -37.106 -37.103 -0.087991 650.58 0.0015371 -37.120 -37.118 -0.088082 1.3453 2.0390 1589.2 -0.0068924 480.79 0.16843 0.051250 19.512 417.88 449.23 2.8325 0.97222 1.1621 193.41 1.0916 4.5522 0.0064662
-105.62 0.25561 3.4153e-05 -35.065 -35.061 -0.075770 649.55 0.0015395 -35.080 -35.078 -0.075868 1.3460 2.0412 1582.6 -0.0068747 472.30 0.16782 0.055891 17.892 418.85 450.38 2.8220 0.97544 1.1655 193.93 1.0760 4.5795 0.0065367
-104.62 0.28004 3.7052e-05 -33.021 -33.017 -0.063608 648.52 0.0015420 -33.038 -33.035 -0.063714 1.3467 2.0434 1575.9 -0.0068569 464.04 0.16721 0.060878 16.426 419.81 451.53 2.8116 0.97867 1.1688 194.44 1.0608 4.6069 0.0066074
-103.62 0.30643 4.0148e-05 -30.976 -30.971 -0.051504 647.49 0.0015444 -30.994 -30.991 -0.051619 1.3474 2.0456 1569.2 -0.0068387 456.00 0.16660 0.066231 15.099 420.78 452.68 2.8015 0.98191 1.1722 194.94 1.0458 4.6342 0.0066785
-102.62 0.33490 4.3450e-05 -28.928 -28.923 -0.039459 646.46 0.0015469 -28.947 -28.944 -0.039582 1.3481 2.0478 1562.5 -0.0068204 448.18 0.16600 0.071971 13.894 421.75 453.84 2.7916 0.98516 1.1755 195.44 1.0310 4.6615 0.0067498
-101.62 0.36558 4.6969e-05 -26.877 -26.872 -0.027470 645.43 0.0015494 -26.898 -26.894 -0.027602 1.3489 2.0501 1555.8 -0.0068018 440.57 0.16539 0.078120 12.801 422.73 454.99 2.7818 0.98841 1.1789 195.95 1.0166 4.6888 0.0068213
-100.62 0.39862 5.0714e-05 -24.824 -24.819 -0.015537 644.39 0.0015519 -24.847 -24.843 -0.015678 1.3497 2.0524 1549.1 -0.0067830 433.16 0.16478 0.084699 11.807 423.70 456.15 2.7723 0.99168 1.1823 196.44 1.0024 4.7161 0.0068932
-99.625 0.43414 5.4697e-05 -22.769 -22.763 -0.0036589 643.36 0.0015544 -22.794 -22.789 -0.0038103 1.3505 2.0547 1542.4 -0.0067639 425.95 0.16416 0.091731 10.901 424.68 457.31 2.7630 0.99496 1.1858 196.94 0.98838 4.7434 0.0069653
-98.625 0.47230 5.8926e-05 -20.712 -20.705 0.0081645 642.32 0.0015569 -20.738 -20.733 0.0080027 1.3514 2.0570 1535.7 -0.0067447 418.92 0.16355 0.099240 10.077 425.66 458.48 2.7538 0.99825 1.1892 197.43 0.97464 4.7707 0.0070377
-97.625 0.51325 6.3413e-05 -18.652 -18.644 0.019934 641.28 0.0015594 -18.680 -18.674 0.019762 1.3522 2.0594 1529.0 -0.0067251 412.07 0.16294 0.10725 9.3239 426.65 459.64 2.7448 1.0016 1.1927 197.92 0.96112 4.7979 0.0071103
-96.625 0.55714 6.8168e-05 -16.589 -16.581 0.031652 640.24 0.0015619 -16.620 -16.614 0.031467 1.3531 2.0618 1522.3 -0.0067053 405.39 0.16233 0.11579 8.6365 427.63 460.81 2.7360 1.0049 1.1962 198.40 0.94783 4.8251 0.0071832
-95.625 0.60416 7.3203e-05 -14.524 -14.515 0.043317 639.20 0.0015645 -14.557 -14.550 0.043120 1.3540 2.0642 1515.7 -0.0066853 398.88 0.16171 0.12488 8.0078 428.62 461.98 2.7274 1.0082 1.1997 198.88 0.93475 4.8524 0.0072564
-94.625 0.65446 7.8529e-05 -12.457 -12.447 0.054930 638.16 0.0015670 -12.491 -12.484 0.054721 1.3550 2.0667 1509.0 -0.0066650 392.53 0.16110 0.13455 7.4323 429.61 463.15 2.7189 1.0116 1.2032 199.36 0.92188 4.8796 0.0073299
-93.625 0.70822 8.4156e-05 -10.387 -10.376 0.066494 637.12 0.0015696 -10.424 -10.416 0.066271 1.3560 2.0691 1502.3 -0.0066444 386.34 0.16048 0.14482 6.9050 430.60 464.32 2.7107 1.0149 1.2068 199.83 0.90921 4.9068 0.0074036
-92.625 0.76564 9.0097e-05 -8.3139 -8.3025 0.078007 636.07 0.0015722 -8.3535 -8.3452 0.077771 1.3570 2.0716 1495.6 -0.0066236 380.31 0.15987 0.15573 6.4212 431.60 465.49 2.7025 1.0183 1.2104 200.30 0.89673 4.9340 0.0074776
-91.625 0.82689 9.6362e-05 -6.2386 -6.2263 0.089471 635.02 0.0015747 -6.2808 -6.2719 0.089220 1.3580 2.0742 1488.9 -0.0066025 374.41 0.15925 0.16731 5.9769 432.59 466.67 2.6946 1.0217 1.2140 200.77 0.88445 4.9611 0.0075518
-90.625 0.89218 0.00010296 -4.1606 -4.1473 0.10089 633.98 0.0015773 -4.2056 -4.1959 0.10062 1.3591 2.0767 1482.2 -0.0065811 368.66 0.15864 0.17958 5.5685 433.59 467.84 2.6868 1.0251 1.2177 201.24 0.87236 4.9883 0.0076263
-89.625 0.96172 0.00010991 -2.0799 -2.0656 0.11226 632.93 0.0015800 -2.1279 -2.1174 0.11197 1.3602 2.0793 1475.5 -0.0065595 363.05 0.15802 0.19258 5.1928 434.59 469.02 2.6791 1.0285 1.2213 201.70 0.86045 5.0154 0.0077011
-88.625 1.0357 0.00011722 0.0035509 0.018908 0.12358 631.88 0.0015826 -0.047516 -0.036215 0.12328 1.3613 2.0819 1468.8 -0.0065375 357.56 0.15740 0.20633 4.8466 435.59 470.20 2.6717 1.0320 1.2250 202.15 0.84873 5.0425 0.0077761
-87.625 1.1144 0.00012490 2.0897 2.1063 0.13485 630.83 0.0015852 2.0355 2.0476 0.13454 1.3625 2.0846 1462.1 -0.0065153 352.21 0.15679 0.22087 4.5276 436.60 471.39 2.6643 1.0354 1.2288 202.61 0.83718 5.0696 0.0078514
-86.625 1.1979 0.00013297 4.1787 4.1965 0.14608 629.77 0.0015879 4.1211 4.1342 0.14575 1.3637 2.0873 1455.4 -0.0064928 346.98 0.15617 0.23623 4.2331 437.61 472.57 2.6571 1.0389 1.2325 203.06 0.82580 5.0967 0.0079270
-85.625 1.2866 0.00014143 6.2705 6.2896 0.15727 628.72 0.0015905 6.2094 6.2235 0.15691 1.3649 2.0900 1448.8 -0.0064701 341.87 0.15555 0.25245 3.9612 438.61 473.75 2.6501 1.0424 1.2363 203.50 0.81460 5.1237 0.0080028
-84.625 1.3806 0.00015030 8.3652 8.3857 0.16841 627.66 0.0015932 8.3004 8.3155 0.16803 1.3661 2.0927 1442.1 -0.0064470 336.87 0.15494 0.26956 3.7097 439.63 474.94 2.6432 1.0460 1.2402 203.95 0.80356 5.1508 0.0080789
-83.625 1.4803 0.00015958 10.463 10.485 0.17950 626.60 0.0015959 10.394 10.410 0.17911 1.3674 2.0955 1435.4 -0.0064236 331.99 0.15432 0.28760 3.4771 440.64 476.13 2.6364 1.0495 1.2440 204.38 0.79269 5.1778 0.0081553
-82.625 1.5858 0.00016930 12.563 12.587 0.19056 625.54 0.0015986 12.491 12.508 0.19014 1.3687 2.0983 1428.7 -0.0063999 327.22 0.15370 0.30659 3.2616 441.65 477.31 2.6298 1.0531 1.2479 204.82 0.78199 5.2048 0.0082319
-81.625 1.6975 0.00017946 14.667 14.692 0.20157 624.48 0.0016013 14.590 14.609 0.20113 1.3700 2.1012 1422.0 -0.0063759 322.55 0.15309 0.32659 3.0619 442.67 478.50 2.6233 1.0567 1.2519 205.25 0.77144 5.2318 0.0083088
-80.625 1.8155 0.00019008 16.773 16.800 0.21254 623.42 0.0016041 16.692 16.712 0.21208 1.3714 2.1041 1415.4 -0.0063516 317.99 0.15247 0.34763 2.8766 443.69 479.70 2.6169 1.0603 1.2558 205.67 0.76106 5.2587 0.0083860
-79.625 1.9402 0.00020116 18.883 18.912 0.22347 622.36 0.0016068 18.797 18.819 0.22299 1.3728 2.1070 1408.7 -0.0063270 313.52 0.15186 0.36974 2.7046 444.71 480.89 2.6106 1.0639 1.2598 206.10 0.75083 5.2857 0.0084634
-78.625 2.0718 0.00021272 20.995 21.026 0.23436 621.29 0.0016096 20.905 20.928 0.23385 1.3742 2.1099 1402.0 -0.0063021 309.15 0.15124 0.39296 2.5448 445.73 482.08 2.6045 1.0676 1.2639 206.51 0.74076 5.3126 0.0085411
-77.625 2.2107 0.00022477 23.111 23.144 0.24520 620.22 0.0016123 23.016 23.040 0.24468 1.3757 2.1129 1395.3 -0.0062768 304.88 0.15062 0.41735 2.3961 446.75 483.27 2.5985 1.0712 1.2680 206.93 0.73084 5.3395 0.0086190
-76.625 2.3571 0.00023732 25.230 25.265 0.25601 619.15 0.0016151 25.130 25.156 0.25546 1.3772 2.1159 1388.7 -0.0062512 300.69 0.15001 0.44292 2.2577 447.78 484.47 2.5926 1.0749 1.2721 207.34 0.72107 5.3664 0.0086972
-75.625 2.5113 0.00025039 27.352 27.389 0.26678 618.08 0.0016179 27.247 27.275 0.26620 1.3787 2.1190 1382.0 -0.0062253 296.59 0.14939 0.46974 2.1288 448.81 485.67 2.5869 1.0787 1.2762 207.74 0.71146 5.3933 0.0087757
-74.625 2.6736 0.00026397 29.477 29.517 0.27752 617.01 0.0016207 29.366 29.396 0.27691 1.3802 2.1221 1375.4 -0.0061990 292.58 0.14878 0.49783 2.0087 449.83 486.86 2.5812 1.0824 1.2804 208.14 0.70200 5.4201 0.0088544
-73.625 2.8444 0.00027809 31.606 31.648 0.28821 615.93 0.0016236 31.489 31.521 0.28758 1.3818 2.1252 1368.7 -0.0061724 288.65 0.14816 0.52725 1.8966 450.86 488.06 2.5757 1.0862 1.2847 208.54 0.69268 5.4469 0.0089334
-72.625 3.0240 0.00029276 33.738 33.783 0.29887 614.85 0.0016264 33.615 33.649 0.29821 1.3834 2.1284 1362.0 -0.0061454 284.81 0.14755 0.55804 1.7920 451.90 489.26 2.5703 1.0900 1.2889 208.93 0.68351 5.4737 0.0090126
-71.625 3.2127 0.00030798 35.873 35.921 0.30949 613.78 0.0016293 35.745 35.781 0.30880 1.3851 2.1316 1355.4 -0.0061181 281.03 0.14694 0.59024 1.6942 452.93 490.46 2.5650 1.0938 1.2932 209.32 0.67448 5.5005 0.0090922
-70.625 3.4108 0.00032376 38.012 38.062 0.32008 612.69 0.0016321 37.877 37.915 0.31935 1.3867 2.1349 1348.7 -0.0060904 277.34 0.14632 0.62390 1.6028 453.96 491.66 2.5598 1.0976 1.2976 209.70 0.66560 5.5273 0.0091720
-69.625 3.6187 0.00034012 40.154 40.207 0.33063 611.61 0.0016350 40.013 40.053 0.32987 1.3884 2.1382 1342.1 -0.0060624 273.72 0.14571 0.65906 1.5173 455.00 492.86 2.5547 1.1015 1.3020 210.08 0.65687 5.5540 0.0092520
-68.625 3.8367 0.00035706 42.299 42.356 0.34114 610.53 0.0016379 42.152 42.195 0.34036 1.3902 2.1415 1335.5 -0.0060339 270.17 0.14510 0.69577 1.4372 456.04 494.06 2.5497 1.1054 1.3064 210.45 0.64827 5.5807 0.0093324
-67.625 4.0652 0.00037460 44.448 44.509 0.35163 609.44 0.0016409 44.294 44.340 0.35080 1.3919 2.1449 1328.8 -0.0060051 266.69 0.14449 0.73408 1.3622 457.08 495.26 2.5448 1.1093 1.3109 210.82 0.63981 5.6074 0.0094130
-66.625 4.3046 0.00039274 46.601 46.665 0.36207 608.35 0.0016438 46.439 46.488 0.36122 1.3937 2.1483 1322.2 -0.0059760 263.28 0.14388 0.77404 1.2919 458.12 496.46 2.5400 1.1133 1.3154 211.18 0.63150 5.6341 0.0094939
-65.625 4.5551 0.00041149 48.757 48.825 0.37249 607.26 0.0016467 48.588 48.640 0.37160 1.3955 2.1518 1315.6 -0.0059464 259.93 0.14327 0.81570 1.2259 459.16 497.67 2.5353 1.1172 1.3200 211.54 0.62332 5.6608 0.0095750
-64.625 4.8173 0.00043086 50.917 50.988 0.38287 606.16 0.0016497 50.740 50.795 0.38195 1.3974 2.1553 1308.9 -0.0059164 256.65 0.14266 0.85910 1.1640 460.21 498.87 2.5307 1.1212 1.3246 211.89 0.61527 5.6874 0.0096564
-63.625 5.0915 0.00045086 53.080 53.156 0.39322 605.07 0.0016527 52.896 52.954 0.39226 1.3993 2.1588 1302.3 -0.0058861 253.42 0.14205 0.90429 1.1058 461.25 500.07 2.5262 1.1252 1.3293 212.24 0.60736 5.7140 0.0097382
-62.625 5.3781 0.00047149 55.247 55.327 0.40354 603.97 0.0016557 55.055 55.117 0.40254 1.4012 2.1624 1295.7 -0.0058553 250.26 0.14144 0.95134 1.0511 462.30 501.28 2.5218 1.1293 1.3340 212.58 0.59958 5.7406 0.0098201
-61.625 5.6774 0.00049276 57.418 57.502 0.41383 602.87 0.0016587 57.218 57.283 0.41279 1.4031 2.1660 1289.1 -0.0058241 247.16 0.14084 1.0003 0.99972 463.35 502.48 2.5175 1.1333 1.3387 212.92 0.59194 5.7672 0.0099024
-60.625 5.9899 0.00051468 59.593 59.682 0.42408 601.77 0.0016618 59.385 59.453 0.42301 1.4051 2.1697 1282.5 -0.0057925 244.12 0.14023 1.0512 0.95131 464.40 503.68 2.5133 1.1374 1.3435 213.26 0.58442 5.7938 0.0099850
-59.625 6.3160 0.00053725 61.771 61.865 0.43431 600.66 0.0016648 61.554 61.627 0.43320 1.4071 2.1734 1275.9 -0.0057605 241.13 0.13962 1.1041 0.90573 465.45 504.89 2.5091 1.1415 1.3483 213.58 0.57704 5.8203 0.010068
-58.625 6.6561 0.00056048 63.954 64.053 0.44451 599.55 0.0016679 63.728 63.805 0.44335 1.4091 2.1772 1269.3 -0.0057280 238.19 0.13902 1.1591 0.86277 466.50 506.09 2.5051 1.1457 1.3532 213.90 0.56978 5.8468 0.010151
-57.625 7.0107 0.00058437 66.140 66.244 0.45468 598.44 0.0016710 65.905 65.986 0.45348 1.4111 2.1810 1262.7 -0.0056951 235.31 0.13842 1.2161 0.82228 467.55 507.30 2.5011 1.1498 1.3581 214.22 0.56265 5.8733 0.010234
-56.625 7.3801 0.00060893 68.330 68.440 0.46481 597.33 0.0016741 68.086 68.172 0.46358 1.4132 2.1848 1256.1 -0.0056617 232.48 0.13781 1.2754 0.78408 468.60 508.50 2.4972 1.1540 1.3631 214.53 0.55564 5.8998 0.010318
-55.625 7.7648 0.00063416 70.525 70.640 0.47492 596.22 0.0016772 70.271 70.361 0.47364 1.4153 2.1887 1249.5 -0.0056279 229.69 0.13721 1.3369 0.74802 469.66 509.71 2.4934 1.1582 1.3681 214.84 0.54875 5.9263 0.010402
-54.625 8.1652 0.00066006 72.723 72.844 0.48501 595.10 0.0016804 72.460 72.554 0.48368 1.4174 2.1927 1242.9 -0.0055937 226.96 0.13661 1.4006 0.71396 470.72 510.91 2.4897 1.1624 1.3731 215.14 0.54199 5.9527 0.010486
-53.625 8.5819 0.00068663 74.925 75.052 0.49506 593.98 0.0016836 74.652 74.752 0.49369 1.4196 2.1967 1236.3 -0.0055589 224.27 0.13601 1.4667 0.68178 471.77 512.11 2.4860 1.1667 1.3782 215.43 0.53535 5.9792 0.010571
-52.625 9.0151 0.00071388 77.131 77.265 0.50509 592.86 0.0016867 76.849 76.954 0.50368 1.4218 2.2007 1229.8 -0.0055237 221.63 0.13541 1.5353 0.65136 472.83 513.32 2.4824 1.1710 1.3834 215.72 0.52882 6.0056 0.010656
-51.625 9.4655 0.00074181 79.342 79.482 0.51509 591.73 0.0016900 79.049 79.159 0.51363 1.4240 2.2048 1223.2 -0.0054880 219.04 0.13482 1.6062 0.62258 473.89 514.52 2.4789 1.1752 1.3886 216.00 0.52241 6.0320 0.010741
-50.625 9.9335 0.00077042 81.557 81.704 0.52507 590.60 0.0016932 81.253 81.369 0.52356 1.4262 2.2089 1216.6 -0.0054519 216.48 0.13422 1.6797 0.59534 474.95 515.73 2.4755 1.1796 1.3938 216.28 0.51612 6.0584 0.010827
-49.625 10.419 0.00079970 83.776 83.930 0.53502 589.47 0.0016964 83.462 83.584 0.53347 1.4285 2.2131 1210.1 -0.0054152 213.98 0.13363 1.7558 0.56954 476.01 516.93 2.4722 1.1839 1.3991 216.55 0.50994 6.0848 0.010913
-48.625 10.924 0.00082965 85.999 86.161 0.54494 588.34 0.0016997 85.674 85.802 0.54334 1.4308 2.2173 1203.5 -0.0053780 211.51 0.13303 1.8345 0.54510 477.07 518.13 2.4689 1.1883 1.4044 216.82 0.50387 6.1112 0.010999
-47.625 11.448 0.00086028 88.226 88.396 0.55484 587.20 0.0017030 87.891 88.025 0.55319 1.4331 2.2216 1196.9 -0.0053403 209.08 0.13244 1.9159 0.52194 478.14 519.33 2.4657 1.1927 1.4098 217.08 0.49792 6.1375 0.011085
-46.625 11.991 0.00089157 90.458 90.636 0.56471 586.06 0.0017063 90.111 90.252 0.56302 1.4354 2.2259 1190.4 -0.0053020 206.69 0.13185 2.0001 0.49997 479.20 520.53 2.4625 1.1971 1.4153 217.33 0.49207 6.1639 0.011172
-45.625 12.554 0.00092353 92.694 92.881 0.57456 584.92 0.0017096 92.336 92.484 0.57282 1.4378 2.2303 1183.8 -0.0052633 204.34 0.13126 2.0872 0.47912 480.27 521.74 2.4594 1.2015 1.4207 217.58 0.48633 6.1902 0.011259
-44.625 13.137 0.00095614 94.935 95.130 0.58439 583.77 0.0017130 94.565 94.720 0.58260 1.4402 2.2347 1177.3 -0.0052240 202.03 0.13067 2.1771 0.45933 481.33 522.94 2.4564 1.2060 1.4263 217.82 0.48069 6.2165 0.011347
-43.625 13.741 0.00098941 97.180 97.384 0.59419 582.62 0.0017164 96.799 96.961 0.59235 1.4426 2.2392 1170.7 -0.0051841 199.75 0.13008 2.2700 0.44053 482.40 524.14 2.4535 1.2104 1.4319 218.05 0.47516 6.2429 0.011435
-42.625 14.367 0.0010233 99.430 99.643 0.60397 581.47 0.0017198 99.036 99.207 0.60208 1.4450 2.2437 1164.2 -0.0051437 197.51 0.12949 2.3659 0.42267 483.46 525.33 2.4506 1.2149 1.4375 218.28 0.46973 6.2692 0.011523
-41.625 15.015 0.0010579 101.68 101.91 0.61373 580.32 0.0017232 101.28 101.46 0.61179 1.4475 2.2483 1157.7 -0.0051027 195.30 0.12891 2.4649 0.40569 484.53 526.53 2.4478 1.2195 1.4432 218.50 0.46440 6.2955 0.011612
-40.625 15.686 0.0010930 103.94 104.18 0.62346 579.16 0.0017266 103.52 103.71 0.62147 1.4500 2.2529 1151.1 -0.0050611 193.13 0.12832 2.5671 0.38954 485.60 527.73 2.4450 1.2240 1.4489 218.72 0.45917 6.3218 0.011701
-39.625 16.380 0.0011288 106.21 106.45 0.63318 578.00 0.0017301 105.78 105.97 0.63113 1.4525 2.2576 1144.6 -0.0050189 190.99 0.12774 2.6725 0.37418 486.67 528.93 2.4423 1.2286 1.4547 218.93 0.45403 6.3481 0.011790
-38.625 17.097 0.0011652 108.47 108.73 0.64287 576.83 0.0017336 108.03 108.24 0.64077 1.4550 2.2623 1138.0 -0.0049761 188.88 0.12716 2.7813 0.35955 487.74 530.12 2.4397 1.2332 1.4606 219.13 0.44900 6.3744 0.011880
-37.625 17.838 0.0012022 110.75 111.01 0.65254 575.66 0.0017371 110.29 110.51 0.65039 1.4576 2.2671 1131.5 -0.0049327 186.81 0.12658 2.8934 0.34562 488.81 531.32 2.4371 1.2378 1.4665 219.33 0.44405 6.4007 0.011970
-36.625 18.604 0.0012398 113.02 113.30 0.66219 574.49 0.0017407 112.56 112.78 0.65999 1.4602 2.2719 1125.0 -0.0048887 184.76 0.12600 3.0089 0.33235 489.88 532.51 2.4346 1.2424 1.4724 219.52 0.43920 6.4270 0.012060
-35.625 19.395 0.0012779 115.31 115.59 0.67181 573.32 0.0017442 114.83 115.06 0.66956 1.4628 2.2768 1118.5 -0.0048440 182.75 0.12542 3.1280 0.31969 490.95 533.70 2.4321 1.2471 1.4784 219.70 0.43444 6.4533 0.012151
-34.625 20.212 0.0013166 117.59 117.89 0.68142 572.14 0.0017478 117.10 117.34 0.67912 1.4654 2.2818 1111.9 -0.0047987 180.76 0.12485 3.2506 0.30763 492.02 534.89 2.4297 1.2517 1.4845 219.88 0.42977 6.4797 0.012243
-33.625 21.056 0.0013557 119.88 120.20 0.69101 570.96 0.0017514 119.38 119.63 0.68865 1.4681 2.2868 1105.4 -0.0047527 178.80 0.12427 3.3770 0.29612 493.09 536.08 2.4273 1.2564 1.4906 220.05 0.42519 6.5060 0.012334
-32.625 21.926 0.0013954 122.18 122.51 0.70058 569.77 0.0017551 121.66 121.93 0.69817 1.4708 2.2918 1098.9 -0.0047061 176.87 0.12370 3.5071 0.28514 494.17 537.27 2.4250 1.2611 1.4968 220.21 0.42070 6.5323 0.012426
-31.625 22.823 0.0014356 124.48 124.82 0.71013 568.58 0.0017588 123.95 124.23 0.70767 1.4735 2.2970 1092.3 -0.0046587 174.97 0.12313 3.6410 0.27465 495.24 538.46 2.4227 1.2659 1.5031 220.36 0.41629 6.5587 0.012519
-30.625 23.749 0.0014763 126.79 127.14 0.71966 567.39 0.0017625 126.24 126.53 0.71714 1.4762 2.3021 1085.8 -0.0046107 173.09 0.12256 3.7787 0.26464 496.31 539.64 2.4205 1.2706 1.5094 220.51 0.41196 6.5850 0.012612
-29.625 24.703 0.0015173 129.10 129.47 0.72917 566.19 0.0017662 128.54 128.84 0.72660 1.4790 2.3074 1079.3 -0.0045619 171.24 0.12200 3.9205 0.25507 497.38 540.83 2.4184 1.2754 1.5157 220.65 0.40772 6.6114 0.012706
-28.625 25.687 0.0015588 131.42 131.80 0.73866 564.99 0.0017699 130.84 131.16 0.73604 1.4818 2.3126 1072.8 -0.0045124 169.42 0.12143 4.0663 0.24592 498.46 542.01 2.4162 1.2802 1.5222 220.79 0.40356 6.6378 0.012800
-27.625 26.700 0.0016007 133.74 134.13 0.74814 563.78 0.0017737 133.15 133.48 0.74547 1.4846 2.3180 1066.2 -0.0044621 167.62 0.12087 4.2163 0.23717 499.53 543.19 2.4142 1.2850 1.5286 220.91 0.39947 6.6642 0.012894
-26.625 27.743 0.0016429 136.07 136.48 0.75759 562.57 0.0017775 135.47 135.81 0.75487 1.4874 2.3234 1059.7 -0.0044111 165.84 0.12031 4.3705 0.22881 500.60 544.37 2.4122 1.2899 1.5352 221.03 0.39547 6.6906 0.012989
-25.625 28.817 0.0016854 138.40 138.82 0.76703 561.36 0.0017814 137.78 138.14 0.76426 1.4902 2.3289 1053.2 -0.0043593 164.09 0.11975 4.5290 0.22080 501.68 545.55 2.4102 1.2947 1.5418 221.14 0.39154 6.7171 0.013084
-24.625 29.923 0.0017283 140.73 141.18 0.77645 560.14 0.0017853 140.11 140.48 0.77363 1.4931 2.3344 1046.7 -0.0043067 162.36 0.11919 4.6918 0.21314 502.75 546.72 2.4083 1.2996 1.5485 221.25 0.38768 6.7436 0.013180
-23.625 31.061 0.0017713 143.08 143.54 0.78586 558.92 0.0017892 142.44 142.82 0.78298 1.4960 2.3400 1040.1 -0.0042533 160.65 0.11863 4.8592 0.20580 503.82 547.90 2.4064 1.3045 1.5552 221.35 0.38391 6.7701 0.013277
-22.625 32.232 0.0018146 145.42 145.90 0.79525 557.69 0.0017931 144.77 145.17 0.79232 1.4990 2.3457 1033.6 -0.0041990 158.97 0.11807 5.0311 0.19877 504.90 549.07 2.4045 1.3095 1.5621 221.44 0.38020 6.7967 0.013374
-21.625 33.435 0.0018581 147.78 148.27 0.80462 556.46 0.0017971 147.11 147.52 0.80164 1.5019 2.3514 1027.1 -0.0041439 157.30 0.11752 5.2076 0.19203 505.97 550.24 2.4027 1.3144 1.5690 221.52 0.37656 6.8232 0.013471
-20.625 34.673 0.0019017 150.13 150.65 0.81398 555.23 0.0018011 149.45 149.88 0.81095 1.5049 2.3572 1020.6 -0.0040879 155.66 0.11697 5.3889 0.18557 507.04 551.40 2.4010 1.3194 1.5759 221.59 0.37300 6.8499 0.013569
-19.625 35.946 0.0019454 152.50 153.03 0.82331 553.99 0.0018051 151.80 152.25 0.82024 1.5079 2.3630 1014.0 -0.0040311 154.04 0.11642 5.5750 0.17937 508.11 552.57 2.3992 1.3244 1.5829 221.66 0.36950 6.8765 0.013668
-18.625 37.253 0.0019891 154.87 155.42 0.83264 552.74 0.0018092 154.16 154.62 0.82952 1.5109 2.3689 1007.5 -0.0039733 152.44 0.11587 5.7660 0.17343 509.19 553.73 2.3976 1.3294 1.5901 221.72 0.36608 6.9032 0.013767
-17.625 38.596 0.0020328 157.24 157.81 0.84195 551.49 0.0018133 156.52 157.00 0.83878 1.5140 2.3749 1001.0 -0.0039145 150.86 0.11532 5.9621 0.16773 510.26 554.89 2.3959 1.3345 1.5972 221.77 0.36272 6.9300 0.013867
-16.625 39.976 0.0020765 159.62 160.21 0.85124 550.24 0.0018174 158.89 159.39 0.84803 1.5171 2.3810 994.44 -0.0038549 149.29 0.11478 6.1632 0.16225 511.33 556.05 2.3943 1.3395 1.6045 221.81 0.35942 6.9568 0.013968
-15.625 41.392 0.0021200 162.00 162.62 0.86052 548.98 0.0018216 161.26 161.78 0.85726 1.5202 2.3871 987.91 -0.0037942 147.75 0.11423 6.3696 0.15700 512.40 557.20 2.3927 1.3446 1.6119 221.85 0.35619 6.9836 0.014069
-14.625 42.846 0.0021633 164.39 165.03 0.86978 547.71 0.0018258 163.64 164.18 0.86649 1.5233 2.3933 981.37 -0.0037325 146.22 0.11369 6.5812 0.15195 513.47 558.36 2.3912 1.3497 1.6193 221.87 0.35302 7.0105 0.014170
-13.625 44.338 0.0022065 166.79 167.45 0.87903 546.44 0.0018300 166.02 166.58 0.87569 1.5264 2.3996 974.83 -0.0036698 144.72 0.11315 6.7983 0.14710 514.54 559.51 2.3897 1.3549 1.6268 221.89 0.34992 7.0375 0.014273
-12.625 45.870 0.0022493 169.19 169.87 0.88827 545.17 0.0018343 168.41 168.99 0.88489 1.5296 2.4059 968.29 -0.0036061 143.23 0.11261 7.0208 0.14243 515.61 560.65 2.3883 1.3600 1.6344 221.90 0.34688 7.0646 0.014376
-11.625 47.440 0.0022917 171.60 172.30 0.89749 543.89 0.0018386 170.81 171.41 0.89407 1.5328 2.4124 961.75 -0.0035413 141.76 0.11208 7.2490 0.13795 516.68 561.80 2.3868 1.3652 1.6421 221.91 0.34389 7.0917 0.014479
-10.625 49.051 0.0023337 174.01 174.74 0.90670 542.60 0.0018430 173.21 173.83 0.90324 1.5360 2.4189 955.20 -0.0034753 140.30 0.11154 7.4829 0.13364 517.75 562.94 2.3854 1.3704 1.6498 221.90 0.34097 7.1188 0.014584
-9.6250 50.703 0.0023752 176.43 177.18 0.91589 541.31 0.0018474 175.61 176.26 0.91240 1.5393 2.4255 948.65 -0.0034082 138.86 0.11101 7.7226 0.12949 518.81 564.08 2.3841 1.3757 1.6577 221.88 0.33810 7.1461 0.014689
-8.6250 52.396 0.0024162 178.85 179.63 0.92508 540.02 0.0018518 178.03 178.70 0.92154 1.5426 2.4321 942.10 -0.0033400 137.44 0.11048 7.9683 0.12550 519.88 565.21 2.3827 1.3809 1.6657 221.86 0.33529 7.1734 0.014795
-7.6250 54.131 0.0024564 181.28 182.09 0.93424 538.72 0.0018563 180.45 181.14 0.93068 1.5459 2.4389 935.55 -0.0032705 136.03 0.10995 8.2200 0.12165 520.94 566.35 2.3814 1.3862 1.6737 221.83 0.33254 7.2008 0.014902
-6.6250 55.909 0.0024959 183.72 184.55 0.94340 537.41 0.0018608 182.87 183.59 0.93980 1.5492 2.4457 928.99 -0.0031998 134.64 0.10942 8.4779 0.11795 522.01 567.48 2.3801 1.3915 1.6819 221.79 0.32984 7.2284 0.015009
-5.6250 57.730 0.0025345 186.16 187.02 0.95254 536.10 0.0018653 185.30 186.05 0.94892 1.5525 2.4526 922.43 -0.0031279 133.27 0.10889 8.7420 0.11439 523.07 568.60 2.3789 1.3969 1.6902 221.74 0.32720 7.2560 0.015117
-4.6250 59.595 0.0025722 188.61 189.49 0.96167 534.78 0.0018699 187.74 188.51 0.95802 1.5559 2.4596 915.87 -0.0030546 131.91 0.10837 9.0126 0.11096 524.13 569.72 2.3777 1.4022 1.6985 221.68 0.32461 7.2837 0.015226
-3.6250 61.505 0.0026089 191.06 191.97 0.97079 533.45 0.0018746 190.19 190.98 0.96711 1.5593 2.4667 909.30 -0.0029800 130.56 0.10785 9.2896 0.10765 525.19 570.84 2.3765 1.4076 1.7070 221.62 0.32207 7.3115 0.015336
-2.6250 63.461 0.0026444 193.52 194.46 0.97990 532.12 0.0018793 192.64 193.46 0.97620 1.5627 2.4739 902.73 -0.0029041 129.23 0.10733 9.5733 0.10446 526.25 571.96 2.3753 1.4131 1.7156 221.54 0.31958 7.3394 0.015447
-1.6250 65.462 0.0026787 195.99 196.96 0.98899 530.78 0.0018840 195.10 195.95 0.98527 1.5662 2.4811 896.16 -0.0028267 127.91 0.10681 9.8638 0.10138 527.31 573.07 2.3742 1.4185 1.7243 221.45 0.31715 7.3674 0.015559
-0.62500 67.510 0.0027116 198.46 199.46 0.99808 529.44 0.0018888 197.56 198.44 0.99434 1.5696 2.4885 889.58 -0.0027478 126.61 0.10629 10.161 0.098414 528.37 574.18 2.3731 1.4240 1.7331 221.36 0.31476 7.3956 0.015671
0.37500 69.606 0.0027430 200.93 201.97 1.0071 528.09 0.0018936 200.03 200.94 1.0034 1.5731 2.4960 883.00 -0.0026675 125.32 0.10578 10.466 0.095552 529.42 575.28 2.3720 1.4295 1.7421 221.26 0.31242 7.4239 0.015785
1.3750 71.749 0.0027729 203.42 204.48 1.0162 526.73 0.0018985 202.51 203.45 1.0124 1.5767 2.5035 876.42 -0.0025856 124.04 0.10527 10.777 0.092790 530.48 576.38 2.3709 1.4350 1.7512 221.14 0.31013 7.4523 0.015899
2.3750 73.941 0.0028010 205.91 207.00 1.0253 525.37 0.0019034 204.99 205.96 1.0215 1.5802 2.5112 869.83 -0.0025022 122.78 0.10476 11.096 0.090123 531.53 577.47 2.3699 1.4406 1.7604 221.02 0.30789 7.4808 0.016015
3.3750 76.183 0.0028272 208.40 209.53 1.0343 523.99 0.0019084 207.48 208.48 1.0305 1.5838 2.5190 863.24 -0.0024171 121.53 0.10425 11.422 0.087549 532.58 578.56 2.3688 1.4462 1.7697 220.89 0.30569 7.5095 0.016131
4.3750 78.475 0.0028514 210.90 212.07 1.0433 522.62 0.0019134 209.98 211.01 1.0395 1.5874 2.5268 856.64 -0.0023303 120.29 0.10374 11.756 0.085062 533.63 579.65 2.3678 1.4518 1.7792 220.75 0.30354 7.5384 0.016249
5.3750 80.817 0.0028734 213.41 214.61 1.0523 521.23 0.0019185 212.48 213.55 1.0486 1.5910 2.5348 850.04 -0.0022417 119.06 0.10324 12.098 0.082660 534.67 580.73 2.3669 1.4575 1.7888 220.60 0.30144 7.5674 0.016368
6.3750 83.211 0.0028931 215.92 217.16 1.0614 519.84 0.0019237 215.00 216.10 1.0576 1.5946 2.5429 843.43 -0.0021514 117.85 0.10273 12.447 0.080340 535.72 581.81 2.3659 1.4632 1.7986 220.44 0.29938 7.5966 0.016487
7.3750 85.657 0.0029103 218.44 219.71 1.0704 518.44 0.0019289 217.51 218.65 1.0666 1.5983 2.5511 836.82 -0.0020593 116.65 0.10223 12.805 0.078096 536.76 582.88 2.3650 1.4689 1.8085 220.27 0.29736 7.6259 0.016608
8.3750 88.156 0.0029248 220.97 222.28 1.0793 517.03 0.0019341 220.04 221.22 1.0756 1.6020 2.5595 830.20 -0.0019652 115.46 0.10173 13.170 0.075928 537.80 583.95 2.3640 1.4746 1.8186 220.08 0.29538 7.6555 0.016730
9.3750 90.708 0.0029365 223.50 224.85 1.0883 515.62 0.0019394 222.57 223.79 1.0846 1.6057 2.5679 823.58 -0.0018691 114.28 0.10124 13.545 0.073830 538.84 585.01 2.3631 1.4804 1.8288 219.89 0.29345 7.6852 0.016853
10.375 93.315 0.0029452 226.04 227.42 1.0973 514.19 0.0019448 225.11 226.37 1.0936 1.6095 2.5765 816.96 -0.0017710 113.11 0.10074 13.927 0.071802 539.87 586.07 2.3622 1.4863 1.8392 219.69 0.29156 7.7151 0.016978
11.375 95.977 0.0029506 228.59 230.01 1.1063 512.76 0.0019502 227.66 228.95 1.1025 1.6132 2.5852 810.32 -0.0016708 111.95 0.10025 14.319 0.069840 540.90 587.12 2.3614 1.4921 1.8498 219.48 0.28971 7.7452 0.017103
12.375 98.694 0.0029525 231.14 232.60 1.1152 511.32 0.0019557 230.22 231.55 1.1115 1.6170 2.5940 803.68 -0.0015685 110.80 0.099756 14.719 0.067941 541.93 588.17 2.3605 1.4980 1.8605 219.26 0.28790 7.7756 0.017230
13.375 101.47 0.0029508 233.70 235.20 1.1242 509.87 0.0019613 232.78 234.15 1.1205 1.6208 2.6030 797.04 -0.0014639 109.67 0.099267 15.128 0.066103 542.96 589.21 2.3597 1.5040 1.8715 219.03 0.28612 7.8061 0.017359
14.375 104.30 0.0029452 236.26 237.81 1.1331 508.42 0.0019669 235.35 236.77 1.1295 1.6247 2.6121 790.39 -0.0013569 108.54 0.098779 15.547 0.064323 543.99 590.24 2.3588 1.5099 1.8826 218.79 0.28439 7.8369 0.017488
15.375 107.19 0.0029354 238.83 240.42 1.1420 506.95 0.0019726 237.93 239.39 1.1384 1.6286 2.6214 783.73 -0.0012476 107.43 0.098294 15.974 0.062600 545.01 591.27 2.3580 1.5159 1.8940 218.53 0.28270 7.8680 0.017619
16.375 110.13 0.0029212 241.41 243.04 1.1509 505.48 0.0019783 240.52 242.02 1.1474 1.6324 2.6308 777.07 -0.0011357 106.32 0.097810 16.412 0.060931 546.03 592.29 2.3572 1.5220 1.9055 218.27 0.28104 7.8993 0.017752
17.375 113.14 0.0029024 243.99 245.67 1.1598 504.00 0.0019841 243.11 244.66 1.1564 1.6364 2.6403 770.40 -0.0010213 105.22 0.097328 16.859 0.059314 547.04 593.31 2.3564 1.5281 1.9172 217.99 0.27942 7.9308 0.017886
18.375 116.21 0.0028786 246.59 248.31 1.1688 502.50 0.0019900 245.72 247.31 1.1653 1.6403 2.6501 763.72 -0.00090422 104.14 0.096848 17.317 0.057747 548.05 594.32 2.3557 1.5342 1.9292 217.71 0.27783 7.9626 0.018021
19.375 119.33 0.0028495 249.18 250.95 1.1776 501.00 0.0019960 248.33 249.97 1.1743 1.6443 2.6599 757.04 -0.00078435 103.06 0.096371 17.785 0.056228 549.06 595.33 2.3549 1.5404 1.9414 217.41 0.27628 7.9947 0.018159
20.375 122.52 0.0028148 251.79 253.60 1.1865 499.49 0.0020020 250.95 252.64 1.1832 1.6483 2.6700 750.35 -0.00066161 101.99 0.095895 18.263 0.054756 550.07 596.32 2.3541 1.5466 1.9538 217.10 0.27477 8.0272 0.018297
21.375 125.77 0.0027742 254.40 256.26 1.1954 497.97 0.0020082 253.57 255.32 1.1922 1.6523 2.6802 743.64 -0.00053589 100.93 0.095420 18.752 0.053328 551.07 597.31 2.3534 1.5528 1.9665 216.78 0.27329 8.0599 0.018438
22.375 129.08 0.0027274 257.02 258.93 1.2043 496.43 0.0020144 256.21 258.00 1.2012 1.6563 2.6906 736.94 -0.00040708 99.877 0.094948 19.252 0.051943 552.07 598.30 2.3526 1.5591 1.9795 216.45 0.27184 8.0929 0.018580
23.375 132.46 0.0026739 259.64 261.61 1.2132 494.89 0.0020206 258.86 260.70 1.2101 1.6604 2.7012 730.22 -0.00027505 98.834 0.094478 19.763 0.050600 553.06 599.27 2.3519 1.5655 1.9927 216.11 0.27043 8.1263 0.018724
24.375 135.90 0.0026134 262.27 264.29 1.2220 493.34 0.0020270 261.51 263.41 1.2191 1.6645 2.7120 723.49 -0.00013968 97.800 0.094009 20.285 0.049297 554.05 600.24 2.3512 1.5718 2.0061 215.75 0.26906 8.1600 0.018870
25.375 139.41 0.0025455 264.91 266.98 1.2309 491.77 0.0020335 264.17 266.13 1.2280 1.6686 2.7230 716.76 -8.3775e-07 96.773 0.093543 20.820 0.048032 555.03 601.20 2.3504 1.5783 2.0199 215.39 0.26771 8.1941 0.019017
26.375 142.98 0.0024697 267.56 269.68 1.2397 490.20 0.0020400 266.84 268.85 1.2370 1.6728 2.7342 710.01 0.00014161 95.755 0.093078 21.366 0.046804 556.01 602.15 2.3497 1.5847 2.0340 215.01 0.26640 8.2286 0.019167
27.375 146.62 0.0023856 270.21 272.38 1.2486 488.61 0.0020466 269.52 271.59 1.2459 1.6770 2.7456 703.26 0.00028782 94.745 0.092615 21.924 0.045612 556.99 603.10 2.3490 1.5913 2.0484 214.62 0.26512 8.2634 0.019319
28.375 150.33 0.0022927 272.87 275.10 1.2574 487.01 0.0020533 272.21 274.34 1.2549 1.6812 2.7573 696.49 0.00043793 93.742 0.092154 22.495 0.044454 557.96 604.03 2.3483 1.5978 2.0631 214.21 0.26387 8.2987 0.019472
29.375 154.10 0.0021904 275.54 277.82 1.2662 485.40 0.0020601 274.91 277.10 1.2638 1.6854 2.7691 689.72 0.00059212 92.747 0.091695 23.079 0.043329 558.92 604.96 2.3476 1.6044 2.0781 213.80 0.26265 8.3344 0.019628
30.375 157.94 0.0020783 278.21 280.55 1.2750 483.78 0.0020671 277.62 279.87 1.2728 1.6897 2.7813 682.93 0.00075055 91.760 0.091238 23.676 0.042237 559.88 605.88 2.3469 1.6111 2.0935 213.37 0.26147 8.3705 0.019786
31.375 161.86 0.0019558 280.89 283.29 1.2839 482.15 0.0020741 280.34 282.66 1.2818 1.6939 2.7936 676.13 0.00091340 90.779 0.090782 24.287 0.041175 560.84 606.79 2.3462 1.6178 2.1092 212.93 0.26031 8.4071 0.019947
32.375 165.84 0.0018222 283.58 286.04 1.2927 480.50 0.0020812 283.07 285.45 1.2908 1.6983 2.8063 669.32 0.0010809 89.806 0.090328 24.911 0.040143 561.79 607.69 2.3455 1.6246 2.1254 212.48 0.25919 8.4442 0.020110
33.375 169.90 0.0016770 286.27 288.79 1.3015 478.83 0.0020884 285.81 288.26 1.2997 1.7026 2.8192 662.50 0.0012532 88.840 0.089876 25.549 0.039140 562.73 608.58 2.3448 1.6314 2.1419 212.01 0.25809 8.4818 0.020275
34.375 174.02 0.0015193 288.98 291.56 1.3103 477.16 0.0020957 288.56 291.07 1.3087 1.7070 2.8324 655.67 0.0014305 87.880 0.089426 26.202 0.038164 563.67 609.46 2.3440 1.6383 2.1589 211.53 0.25702 8.5199 0.020443
35.375 178.22 0.0013486 291.69 294.33 1.3191 475.47 0.0021032 291.32 293.90 1.3177 1.7114 2.8459 648.82 0.0016131 86.927 0.088977 26.870 0.037216 564.60 610.33 2.3433 1.6452 2.1763 211.04 0.25599 8.5586 0.020613
36.375 182.50 0.0011640 294.40 297.11 1.3279 473.77 0.0021107 294.09 296.74 1.3267 1.7158 2.8597 641.96 0.0018012 85.980 0.088531 27.553 0.036293 565.52 611.19 2.3426 1.6522 2.1942 210.53 0.25498 8.5978 0.020786
37.375 186.84 0.00096472 297.13 299.90 1.3367 472.05 0.0021184 296.87 299.60 1.3357 1.7203 2.8739 635.08 0.0019950 85.040 0.088085 28.252 0.035395 566.44 612.04 2.3419 1.6592 2.2125 210.01 0.25400 8.6376 0.020962
38.375 191.27 0.00074985 299.86 302.70 1.3454 470.31 0.0021262 299.66 302.46 1.3447 1.7248 2.8884 628.19 0.0021949 84.105 0.087642 28.967 0.034522 567.35 612.88 2.3411 1.6663 2.2314 209.47 0.25305 8.6780 0.021141
39.375 195.77 0.00051848 302.60 305.50 1.3542 468.56 0.0021342 302.46 305.34 1.3537 1.7293 2.9033 621.29 0.0024011 83.177 0.087200 29.699 0.033671 568.26 613.70 2.3404 1.6734 2.2508 208.92 0.25213 8.7190 0.021323
40.375 200.34 0.00026961 305.35 308.32 1.3630 466.80 0.0021423 305.27 308.23 1.3627 1.7339 2.9185 614.37 0.0026140 82.254 0.086760 30.447 0.032844 569.15 614.52 2.3396 1.6806 2.2708 208.36 0.25123 8.7608 0.021508
41.375 205.00 2.1849e-06 308.10 311.14 1.3718 465.01 0.0021505 308.10 311.14 1.3718 1.7385 2.9342 607.43 0.0028338 81.338 0.086322 31.214 0.032037 570.04 615.32 2.3389 1.6879 2.2913 207.78 0.25037 8.8032 0.021696
42.375 266.06 undefined 309.85 313.79 1.3773 465.00 0.0021505 309.85 313.79 1.3773 1.7418 2.9254 610.66 0.0027089 81.346 0.086410 465.00 0.0021505 309.85 313.79 1.3773 1.7418 2.9254 610.66 0.0027089 81.346 0.086410
43.375 327.65 undefined 311.59 316.45 1.3828 465.00 0.0021505 311.59 316.45 1.3828 1.7451 2.9169 613.92 0.0025848 81.363 0.086504 465.00 0.0021505 311.59 316.45 1.3828 1.7451 2.9169 613.92 0.0025848 81.363 0.086504
44.375 389.30 undefined 313.34 319.11 1.3884 465.00 0.0021505 313.34 319.11 1.3884 1.7485 2.9088 617.14 0.0024641 81.379 0.086598 465.00 0.0021505 313.34 319.11 1.3884 1.7485 2.9088 617.14 0.0024641 81.379 0.086598
45.375 451.02 undefined 315.09 321.78 1.3939 465.00 0.0021505 315.09 321.78 1.3939 1.7519 2.9010 620.30 0.0023467 81.395 0.086692 465.00 0.0021505 315.09 321.78 1.3939 1.7519 2.9010 620.30 0.0023467 81.395 0.086692
46.375 512.80 undefined 316.84 324.45 1.3994 465.00 0.0021505 316.84 324.45 1.3994 1.7553 2.8936 623.41 0.0022324 81.412 0.086787 465.00 0.0021505 316.84 324.45 1.3994 1.7553 2.8936 623.41 0.0022324 81.412 0.086787
47.375 574.63 undefined 318.60 327.12 1.4048 465.00 0.0021505 318.60 327.12 1.4048 1.7588 2.8865 626.49 0.0021211 81.428 0.086882 465.00 0.0021505 318.60 327.12 1.4048 1.7588 2.8865 626.49 0.0021211 81.428 0.086882
48.375 636.52 undefined 320.36 329.80 1.4103 465.00 0.0021505 320.36 329.80 1.4103 1.7623 2.8797 629.51 0.0020126 81.445 0.086978 465.00 0.0021505 320.36 329.80 1.4103 1.7623 2.8797 629.51 0.0020126 81.445 0.086978
49.375 698.46 undefined 322.12 332.48 1.4158 465.00 0.0021505 322.12 332.48 1.4158 1.7658 2.8732 632.50 0.0019069 81.461 0.087074 465.00 0.0021505 322.12 332.48 1.4158 1.7658 2.8732 632.50 0.0019069 81.461 0.087074
50.375 760.45 undefined 323.89 335.17 1.4213 465.00 0.0021505 323.89 335.17 1.4213 1.7694 2.8671 635.44 0.0018038 81.478 0.087170 465.00 0.0021505 323.89 335.17 1.4213 1.7694 2.8671 635.44 0.0018038 81.478 0.087170
51.375 822.49 undefined 325.66 337.86 1.4267 465.00 0.0021505 325.66 337.86 1.4267 1.7730 2.8611 638.34 0.0017032 81.495 0.087267 465.00 0.0021505 325.66 337.86 1.4267 1.7730 2.8611 638.34 0.0017032 81.495 0.087267
52.375 884.57 undefined 327.44 340.55 1.4322 465.00 0.0021505 327.44 340.55 1.4322 1.7766 2.8555 641.21 0.0016050 81.511 0.087364 465.00 0.0021505 327.44 340.55 1.4322 1.7766 2.8555 641.21 0.0016050 81.511 0.087364
53.375 946.68 undefined 329.22 343.25 1.4377 465.00 0.0021505 329.22 343.25 1.4377 1.7802 2.8501 644.04 0.0015092 81.528 0.087462 465.00 0.0021505 329.22 343.25 1.4377 1.7802 2.8501 644.04 0.0015092 81.528 0.087462
54.375 1008.8 undefined 331.00 345.96 1.4431 465.00 0.0021505 331.00 345.96 1.4431 1.7839 2.8449 646.83 0.0014155 81.545 0.087560 465.00 0.0021505 331.00 345.96 1.4431 1.7839 2.8449 646.83 0.0014155 81.545 0.087560
55.375 1071.0 undefined 332.78 348.67 1.4486 465.00 0.0021505 332.78 348.67 1.4486 1.7876 2.8400 649.59 0.0013241 81.561 0.087658 465.00 0.0021505 332.78 348.67 1.4486 1.7876 2.8400 649.59 0.0013241 81.561 0.087658
56.375 1133.3 undefined 334.57 351.38 1.4540 465.00 0.0021505 334.57 351.38 1.4540 1.7913 2.8353 652.32 0.0012346 81.578 0.087757 465.00 0.0021505 334.57 351.38 1.4540 1.7913 2.8353 652.32 0.0012346 81.578 0.087757
57.375 1195.5 undefined 336.37 354.09 1.4594 465.00 0.0021505 336.37 354.09 1.4594 1.7951 2.8308 655.02 0.0011472 81.595 0.087856 465.00 0.0021505 336.37 354.09 1.4594 1.7951 2.8308 655.02 0.0011472 81.595 0.087856
58.375 1257.8 undefined 338.16 356.81 1.4649 465.00 0.0021505 338.16 356.81 1.4649 1.7989 2.8265 657.68 0.0010617 81.612 0.087956 465.00 0.0021505 338.16 356.81 1.4649 1.7989 2.8265 657.68 0.0010617 81.612 0.087956
59.375 1320.1 undefined 339.97 359.54 1.4703 465.00 0.0021505 339.97 359.54 1.4703 1.8027 2.8224 660.31 0.00097812 81.629 0.088055 465.00 0.0021505 339.97 359.54 1.4703 1.8027 2.8224 660.31 0.00097812 81.629 0.088055
60.375 1382.4 undefined 341.77 362.27 1.4757 465.00 0.0021505 341.77 362.27 1.4757 1.8065 2.8185 662.92 0.00089629 81.646 0.088156 465.00 0.0021505 341.77 362.27 1.4757 1.8065 2.8185 662.92 0.00089629 81.646 0.088156
61.375 1444.8 undefined 343.58 365.00 1.4811 465.00 0.0021505 343.58 365.00 1.4811 1.8103 2.8147 665.50 0.00081621 81.663 0.088256 465.00 0.0021505 343.58 365.00 1.4811 1.8103 2.8147 665.50 0.00081621 81.663 0.088256
62.375 1507.2 undefined 345.39 367.74 1.4865 465.00 0.0021505 345.39 367.74 1.4865 1.8142 2.8112 668.05 0.00073782 81.680 0.088357 465.00 0.0021505 345.39 367.74 1.4865 1.8142 2.8112 668.05 0.00073782 81.680 0.088357
63.375 1569.6 undefined 347.21 370.48 1.4919 465.00 0.0021505 347.21 370.48 1.4919 1.8181 2.8078 670.57 0.00066106 81.697 0.088459 465.00 0.0021505 347.21 370.48 1.4919 1.8181 2.8078 670.57 0.00066106 81.697 0.088459
64.375 1632.0 undefined 349.03 373.23 1.4973 465.00 0.0021505 349.03 373.23 1.4973 1.8220 2.8046 673.07 0.00058588 81.714 0.088560 465.00 0.0021505 349.03 373.23 1.4973 1.8220 2.8046 673.07 0.00058588 81.714 0.088560
65.375 1694.4 undefined 350.85 375.97 1.5027 465.00 0.0021505 350.85 375.97 1.5027 1.8259 2.8015 675.55 0.00051224 81.731 0.088662 465.00 0.0021505 350.85 375.97 1.5027 1.8259 2.8015 675.55 0.00051224 81.731 0.088662
66.375 1756.9 undefined 352.68 378.73 1.5081 465.00 0.0021505 352.68 378.73 1.5081 1.8298 2.7986 678.00 0.00044008 81.748 0.088765 465.00 0.0021505 352.68 378.73 1.5081 1.8298 2.7986 678.00 0.00044008 81.748 0.088765
67.375 1819.4 undefined 354.51 381.49 1.5135 465.00 0.0021505 354.51 381.49 1.5135 1.8338 2.7959 680.43 0.00036938 81.765 0.088867 465.00 0.0021505 354.51 381.49 1.5135 1.8338 2.7959 680.43 0.00036938 81.765 0.088867
68.375 1881.8 undefined 356.35 384.25 1.5189 465.00 0.0021505 356.35 384.25 1.5189 1.8378 2.7933 682.83 0.00030007 81.783 0.088970 465.00 0.0021505 356.35 384.25 1.5189 1.8378 2.7933 682.83 0.00030007 81.783 0.088970
69.375 1944.3 undefined 358.19 387.01 1.5243 465.00 0.0021505 358.19 387.01 1.5243 1.8417 2.7908 685.22 0.00023214 81.800 0.089074 465.00 0.0021505 358.19 387.01 1.5243 1.8417 2.7908 685.22 0.00023214 81.800 0.089074
70.375 2006.8 undefined 360.03 389.79 1.5296 465.00 0.0021505 360.03 389.79 1.5296 1.8457 2.7885 687.58 0.00016552 81.817 0.089178 465.00 0.0021505 360.03 389.79 1.5296 1.8457 2.7885 687.58 0.00016552 81.817 0.089178
71.375 2069.3 undefined 361.88 392.56 1.5350 465.00 0.0021505 361.88 392.56 1.5350 1.8498 2.7863 689.92 0.00010020 81.835 0.089282 465.00 0.0021505 361.88 392.56 1.5350 1.8498 2.7863 689.92 0.00010020 81.835 0.089282
72.375 2131.8 undefined 363.73 395.34 1.5404 465.00 0.0021505 363.73 395.34 1.5404 1.8538 2.7842 692.25 3.6137e-05 81.852 0.089386 465.00 0.0021505 363.73 395.34 1.5404 1.8538 2.7842 692.25 3.6137e-05 81.852 0.089386
73.375 2194.3 undefined 365.58 398.12 1.5457 465.00 0.0021505 365.58 398.12 1.5457 1.8578 2.7822 694.55 -2.6706e-05 81.869 0.089491 465.00 0.0021505 365.58 398.12 1.5457 1.8578 2.7822 694.55 -2.6706e-05 81.869 0.089491
74.375 2256.9 undefined 367.44 400.91 1.5511 465.00 0.0021505 367.44 400.91 1.5511 1.8619 2.7804 696.84 -8.8358e-05 81.887 0.089596 465.00 0.0021505 367.44 400.91 1.5511 1.8619 2.7804 696.84 -8.8358e-05 81.887 0.089596
75.375 2319.4 undefined 369.31 403.70 1.5565 465.00 0.0021505 369.31 403.70 1.5565 1.8659 2.7787 699.10 -0.00014885 81.904 0.089701 465.00 0.0021505 369.31 403.70 1.5565 1.8659 2.7787 699.10 -0.00014885 81.904 0.089701
76.375 2381.9 undefined 371.18 406.49 1.5618 465.00 0.0021505 371.18 406.49 1.5618 1.8700 2.7771 701.35 -0.00020821 81.922 0.089807 465.00 0.0021505 371.18 406.49 1.5618 1.8700 2.7771 701.35 -0.00020821 81.922 0.089807
77.375 2444.4 undefined 373.05 409.29 1.5672 465.00 0.0021505 373.05 409.29 1.5672 1.8741 2.7756 703.58 -0.00026648 81.939 0.089913 465.00 0.0021505 373.05 409.29 1.5672 1.8741 2.7756 703.58 -0.00026648 81.939 0.089913
78.375 2507.0 undefined 374.92 412.10 1.5725 465.00 0.0021505 374.92 412.10 1.5725 1.8782 2.7742 705.80 -0.00032366 81.957 0.090020 465.00 0.0021505 374.92 412.10 1.5725 1.8782 2.7742 705.80 -0.00032366 81.957 0.090020
79.375 2569.5 undefined 376.80 414.90 1.5778 465.00 0.0021505 376.80 414.90 1.5778 1.8823 2.7729 708.00 -0.00037980 81.974 0.090126 465.00 0.0021505 376.80 414.90 1.5778 1.8823 2.7729 708.00 -0.00037980 81.974 0.090126
80.375 2632.0 undefined 378.69 417.72 1.5832 465.00 0.0021505 378.69 417.72 1.5832 1.8864 2.7717 710.18 -0.00043492 81.992 0.090233 465.00 0.0021505 378.69 417.72 1.5832 1.8864 2.7717 710.18 -0.00043492 81.992 0.090233
81.375 2694.6 undefined 380.58 420.53 1.5885 465.00 0.0021505 380.58 420.53 1.5885 1.8905 2.7706 712.35 -0.00048904 82.010 0.090341 465.00 0.0021505 380.58 420.53 1.5885 1.8905 2.7706 712.35 -0.00048904 82.010 0.090341
82.375 2757.1 undefined 382.47 423.35 1.5938 465.00 0.0021505 382.47 423.35 1.5938 1.8946 2.7695 714.50 -0.00054219 82.027 0.090449 465.00 0.0021505 382.47 423.35 1.5938 1.8946 2.7695 714.50 -0.00054219 82.027 0.090449
83.375 2819.6 undefined 384.37 426.17 1.5992 465.00 0.0021505 384.37 426.17 1.5992 1.8988 2.7686 716.64 -0.00059438 82.045 0.090557 465.00 0.0021505 384.37 426.17 1.5992 1.8988 2.7686 716.64 -0.00059438 82.045 0.090557
84.375 2882.1 undefined 386.27 429.00 1.6045 465.00 0.0021505 386.27 429.00 1.6045 1.9029 2.7678 718.76 -0.00064565 82.063 0.090665 465.00 0.0021505 386.27 429.00 1.6045 1.9029 2.7678 718.76 -0.00064565 82.063 0.090665
85.375 2944.6 undefined 388.17 431.83 1.6098 465.00 0.0021505 388.17 431.83 1.6098 1.9071 2.7671 720.87 -0.00069601 82.080 0.090774 465.00 0.0021505 388.17 431.83 1.6098 1.9071 2.7671 720.87 -0.00069601 82.080 0.090774
86.375 3007.1 undefined 390.08 434.67 1.6151 465.00 0.0021505 390.08 434.67 1.6151 1.9112 2.7664 722.97 -0.00074548 82.098 0.090883 465.00 0.0021505 390.08 434.67 1.6151 1.9112 2.7664 722.97 -0.00074548 82.098 0.090883
87.375 3069.6 undefined 392.00 437.51 1.6204 465.00 0.0021505 392.00 437.51 1.6204 1.9154 2.7658 725.05 -0.00079409 82.116 0.090992 465.00 0.0021505 392.00 437.51 1.6204 1.9154 2.7658 725.05 -0.00079409 82.116 0.090992
88.375 3132.1 undefined 393.91 440.35 1.6258 465.00 0.0021505 393.91 440.35 1.6258 1.9195 2.7653 727.12 -0.00084184 82.134 0.091102 465.00 0.0021505 393.91 440.35 1.6258 1.9195 2.7653 727.12 -0.00084184 82.134 0.091102
89.375 3194.6 undefined 395.83 443.20 1.6311 465.00 0.0021505 395.83 443.20 1.6311 1.9237 2.7649 729.18 -0.00088877 82.152 0.091212 465.00 0.0021505 395.83 443.20 1.6311 1.9237 2.7649 729.18 -0.00088877 82.152 0.091212
90.375 3257.1 undefined 397.76 446.05 1.6364 465.00 0.0021505 397.76 446.05 1.6364 1.9279 2.7646 731.22 -0.00093489 82.170 0.091322 465.00 0.0021505 397.76 446.05 1.6364 1.9279 2.7646 731.22 -0.00093489 82.170 0.091322
91.375 3319.6 undefined 399.69 448.91 1.6417 465.00 0.0021505 399.69 448.91 1.6417 1.9321 2.7643 733.25 -0.00098022 82.188 0.091432 465.00 0.0021505 399.69 448.91 1.6417 1.9321 2.7643 733.25 -0.00098022 82.188 0.091432
92.375 3382.0 undefined 401.62 451.77 1.6470 465.00 0.0021505 401.62 451.77 1.6470 1.9362 2.7641 735.27 -0.0010248 82.206 0.091543 465.00 0.0021505 401.62 451.77 1.6470 1.9362 2.7641 735.27 -0.0010248 82.206 0.091543
93.375 3444.5 undefined 403.56 454.64 1.6523 465.00 0.0021505 403.56 454.64 1.6523 1.9404 2.7639 737.28 -0.0010686 82.223 0.091654 465.00 0.0021505 403.56 454.64 1.6523 1.9404 2.7639 737.28 -0.0010686 82.223 0.091654
94.375 3506.9 undefined 405.51 457.50 1.6576 465.00 0.0021505 405.51 457.50 1.6576 1.9446 2.7639 739.27 -0.0011116 82.242 0.091766 465.00 0.0021505 405.51 457.50 1.6576 1.9446 2.7639 739.27 -0.0011116 82.242 0.091766
95.375 3569.4 undefined 407.45 460.38 1.6628 465.00 0.0021505 407.45 460.38 1.6628 1.9488 2.7639 741.26 -0.0011539 82.260 0.091878 465.00 0.0021505 407.45 460.38 1.6628 1.9488 2.7639 741.26 -0.0011539 82.260 0.091878
96.375 3631.8 undefined 409.40 463.25 1.6681 465.00 0.0021505 409.40 463.25 1.6681 1.9530 2.7639 743.23 -0.0011956 82.278 0.091990 465.00 0.0021505 409.40 463.25 1.6681 1.9530 2.7639 743.23 -0.0011956 82.278 0.091990
97.375 3694.2 undefined 411.36 466.13 1.6734 465.00 0.0021505 411.36 466.13 1.6734 1.9572 2.7641 745.20 -0.0012365 82.296 0.092102 465.00 0.0021505 411.36 466.13 1.6734 1.9572 2.7641 745.20 -0.0012365 82.296 0.092102
98.375 3756.6 undefined 413.32 469.02 1.6787 465.00 0.0021505 413.32 469.02 1.6787 1.9614 2.7642 747.15 -0.0012767 82.314 0.092215 465.00 0.0021505 413.32 469.02 1.6787 1.9614 2.7642 747.15 -0.0012767 82.314 0.092215
99.375 3819.0 undefined 415.28 471.91 1.6840 465.00 0.0021505 415.28 471.91 1.6840 1.9656 2.7645 749.09 -0.0013163 82.332 0.092328 465.00 0.0021505 415.28 471.91 1.6840 1.9656 2.7645 749.09 -0.0013163 82.332 0.092328
100.38 3881.4 undefined 417.25 474.80 1.6893 465.00 0.0021505 417.25 474.80 1.6893 1.9698 2.7648 751.02 -0.0013552 82.350 0.092442 465.00 0.0021505 417.25 474.80 1.6893 1.9698 2.7648 751.02 -0.0013552 82.350 0.092442
101.38 3943.8 undefined 419.22 477.70 1.6945 465.00 0.0021505 419.22 477.70 1.6945 1.9740 2.7651 752.94 -0.0013935 82.368 0.092555 465.00 0.0021505 419.22 477.70 1.6945 1.9740 2.7651 752.94 -0.0013935 82.368 0.092555
102.38 4006.1 undefined 421.20 480.60 1.6998 465.00 0.0021505 421.20 480.60 1.6998 1.9782 2.7656 754.85 -0.0014311 82.386 0.092669 465.00 0.0021505 421.20 480.60 1.6998 1.9782 2.7656 754.85 -0.0014311 82.386 0.092669
103.38 4068.4 undefined 423.18 483.50 1.7051 465.00 0.0021505 423.18 483.50 1.7051 1.9824 2.7660 756.75 -0.0014682 82.405 0.092784 465.00 0.0021505 423.18 483.50 1.7051 1.9824 2.7660 756.75 -0.0014682 82.405 0.092784
104.38 4130.8 undefined 425.16 486.41 1.7103 465.00 0.0021505 425.16 486.41 1.7103 1.9866 2.7665 758.64 -0.0015046 82.423 0.092898 465.00 0.0021505 425.16 486.41 1.7103 1.9866 2.7665 758.64 -0.0015046 82.423 0.092898
105.38 4193.1 undefined 427.15 489.32 1.7156 465.00 0.0021505 427.15 489.32 1.7156 1.9908 2.7671 760.53 -0.0015404 82.441 0.093013 465.00 0.0021505 427.15 489.32 1.7156 1.9908 2.7671 760.53 -0.0015404 82.441 0.093013
106.38 4255.4 undefined 429.14 492.24 1.7208 465.00 0.0021505 429.14 492.24 1.7208 1.9951 2.7677 762.40 -0.0015757 82.459 0.093129 465.00 0.0021505 429.14 492.24 1.7208 1.9951 2.7677 762.40 -0.0015757 82.459 0.093129
107.38 4317.7 undefined 431.14 495.16 1.7261 465.00 0.0021505 431.14 495.16 1.7261 1.9993 2.7684 764.26 -0.0016104 82.478 0.093244 465.00 0.0021505 431.14 495.16 1.7261 1.9993 2.7684 764.26 -0.0016104 82.478 0.093244
108.38 4379.9 undefined 433.14 498.08 1.7313 465.00 0.0021505 433.14 498.08 1.7313 2.0035 2.7691 766.12 -0.0016445 82.496 0.093360 465.00 0.0021505 433.14 498.08 1.7313 2.0035 2.7691 766.12 -0.0016445 82.496 0.093360
109.38 4442.2 undefined 435.15 501.01 1.7366 465.00 0.0021505 435.15 501.01 1.7366 2.0077 2.7699 767.96 -0.0016781 82.514 0.093476 465.00 0.0021505 435.15 501.01 1.7366 2.0077 2.7699 767.96 -0.0016781 82.514 0.093476
110.38 4504.4 undefined 437.16 503.95 1.7418 465.00 0.0021505 437.16 503.95 1.7418 2.0119 2.7707 769.80 -0.0017112 82.533 0.093593 465.00 0.0021505 437.16 503.95 1.7418 2.0119 2.7707 769.80 -0.0017112 82.533 0.093593
111.38 4566.6 undefined 439.17 506.88 1.7471 465.00 0.0021505 439.17 506.88 1.7471 2.0161 2.7715 771.63 -0.0017437 82.551 0.093709 465.00 0.0021505 439.17 506.88 1.7471 2.0161 2.7715 771.63 -0.0017437 82.551 0.093709
112.38 4628.8 undefined 441.19 509.82 1.7523 465.00 0.0021505 441.19 509.82 1.7523 2.0203 2.7724 773.45 -0.0017757 82.570 0.093826 465.00 0.0021505 441.19 509.82 1.7523 2.0203 2.7724 773.45 -0.0017757 82.570 0.093826
113.38 4691.0 undefined 443.21 512.77 1.7576 465.00 0.0021505 443.21 512.77 1.7576 2.0245 2.7733 775.26 -0.0018073 82.588 0.093944 465.00 0.0021505 443.21 512.77 1.7576 2.0245 2.7733 775.26 -0.0018073 82.588 0.093944
114.38 4753.2 undefined 445.24 515.72 1.7628 465.00 0.0021505 445.24 515.72 1.7628 2.0287 2.7743 777.06 -0.0018383 82.607 0.094061 465.00 0.0021505 445.24 515.72 1.7628 2.0287 2.7743 777.06 -0.0018383 82.607 0.094061
115.38 4815.3 undefined 447.27 518.67 1.7680 465.00 0.0021505 447.27 518.67 1.7680 2.0329 2.7753 778.85 -0.0018688 82.625 0.094179 465.00 0.0021505 447.27 518.67 1.7680 2.0329 2.7753 778.85 -0.0018688 82.625 0.094179
116.38 4877.5 undefined 449.30 521.62 1.7733 465.00 0.0021505 449.30 521.62 1.7733 2.0372 2.7764 780.64 -0.0018989 82.644 0.094298 465.00 0.0021505 449.30 521.62 1.7733 2.0372 2.7764 780.64 -0.0018989 82.644 0.094298
117.38 4939.6 undefined 451.34 524.58 1.7785 465.00 0.0021505 451.34 524.58 1.7785 2.0414 2.7775 782.42 -0.0019285 82.662 0.094416 465.00 0.0021505 451.34 524.58 1.7785 2.0414 2.7775 782.42 -0.0019285 82.662 0.094416
118.38 5001.7 undefined 453.39 527.55 1.7837 465.00 0.0021505 453.39 527.55 1.7837 2.0456 2.7786 784.19 -0.0019576 82.681 0.094535 465.00 0.0021505 453.39 527.55 1.7837 2.0456 2.7786 784.19 -0.0019576 82.681 0.094535
119.38 5063.8 undefined 455.43 530.52 1.7890 465.00 0.0021505 455.43 530.52 1.7890 2.0498 2.7797 785.95 -0.0019863 82.699 0.094654 465.00 0.0021505 455.43 530.52 1.7890 2.0498 2.7797 785.95 -0.0019863 82.699 0.094654
120.38 5125.8 undefined 457.49 533.49 1.7942 465.00 0.0021505 457.49 533.49 1.7942 2.0540 2.7809 787.71 -0.0020145 82.718 0.094774 465.00 0.0021505 457.49 533.49 1.7942 2.0540 2.7809 787.71 -0.0020145 82.718 0.094774
121.38 5187.9 undefined 459.54 536.47 1.7994 465.00 0.0021505 459.54 536.47 1.7994 2.0582 2.7822 789.46 -0.0020423 82.736 0.094894 465.00 0.0021505 459.54 536.47 1.7994 2.0582 2.7822 789.46 -0.0020423 82.736 0.094894
122.38 5249.9 undefined 461.60 539.45 1.8046 465.00 0.0021505 461.60 539.45 1.8046 2.0624 2.7834 791.20 -0.0020697 82.755 0.095014 465.00 0.0021505 461.60 539.45 1.8046 2.0624 2.7834 791.20 -0.0020697 82.755 0.095014
123.38 5311.9 undefined 463.67 542.43 1.8098 465.00 0.0021505 463.67 542.43 1.8098 2.0666 2.7847 792.93 -0.0020967 82.774 0.095134 465.00 0.0021505 463.67 542.43 1.8098 2.0666 2.7847 792.93 -0.0020967 82.774 0.095134
124.38 5373.9 undefined 465.74 545.42 1.8150 465.00 0.0021505 465.74 545.42 1.8150 2.0708 2.7861 794.66 -0.0021232 82.792 0.095255 465.00 0.0021505 465.74 545.42 1.8150 2.0708 2.7861 794.66 -0.0021232 82.792 0.095255
125.38 5435.9 undefined 467.81 548.41 1.8202 465.00 0.0021505 467.81 548.41 1.8202 2.0750 2.7874 796.38 -0.0021494 82.811 0.095376 465.00 0.0021505 467.81 548.41 1.8202 2.0750 2.7874 796.38 -0.0021494 82.811 0.095376
126.38 5497.8 undefined 469.89 551.40 1.8254 465.00 0.0021505 469.89 551.40 1.8254 2.0791 2.7888 798.09 -0.0021752 82.830 0.095497 465.00 0.0021505 469.89 551.40 1.8254 2.0791 2.7888 798.09 -0.0021752 82.830 0.095497
127.38 5559.8 undefined 471.97 554.40 1.8306 465.00 0.0021505 471.97 554.40 1.8306 2.0833 2.7902 799.80 -0.0022005 82.848 0.095619 465.00 0.0021505 471.97 554.40 1.8306 2.0833 2.7902 799.80 -0.0022005 82.848 0.095619
128.38 5621.7 undefined 474.05 557.41 1.8358 465.00 0.0021505 474.05 557.41 1.8358 2.0875 2.7917 801.50 -0.0022255 82.867 0.095741 465.00 0.0021505 474.05 557.41 1.8358 2.0875 2.7917 801.50 -0.0022255 82.867 0.095741
129.38 5683.6 undefined 476.14 560.41 1.8410 465.00 0.0021505 476.14 560.41 1.8410 2.0917 2.7932 803.19 -0.0022501 82.886 0.095863 465.00 0.0021505 476.14 560.41 1.8410 2.0917 2.7932 803.19 -0.0022501 82.886 0.095863
130.38 5745.4 undefined 478.24 563.43 1.8462 465.00 0.0021505 478.24 563.43 1.8462 2.0959 2.7947 804.87 -0.0022744 82.905 0.095985 465.00 0.0021505 478.24 563.43 1.8462 2.0959 2.7947 804.87 -0.0022744 82.905 0.095985
131.38 5807.3 undefined 480.33 566.44 1.8514 465.00 0.0021505 480.33 566.44 1.8514 2.1001 2.7962 806.55 -0.0022983 82.923 0.096108 465.00 0.0021505 480.33 566.44 1.8514 2.1001 2.7962 806.55 -0.0022983 82.923 0.096108
132.38 5869.1 undefined 482.44 569.46 1.8566 465.00 0.0021505 482.44 569.46 1.8566 2.1042 2.7978 808.22 -0.0023218 82.942 0.096231 465.00 0.0021505 482.44 569.46 1.8566 2.1042 2.7978 808.22 -0.0023218 82.942 0.096231
133.38 5930.9 undefined 484.54 572.48 1.8618 465.00 0.0021505 484.54 572.48 1.8618 2.1084 2.7994 809.89 -0.0023450 82.961 0.096354 465.00 0.0021505 484.54 572.48 1.8618 2.1084 2.7994 809.89 -0.0023450 82.961 0.096354
134.38 5992.7 undefined 486.65 575.51 1.8670 465.00 0.0021505 486.65 575.51 1.8670 2.1126 2.8010 811.55 -0.0023678 82.980 0.096478 465.00 0.0021505 486.65 575.51 1.8670 2.1126 2.8010 811.55 -0.0023678 82.980 0.096478
135.38 6054.5 undefined 488.77 578.54 1.8722 465.00 0.0021505 488.77 578.54 1.8722 2.1168 2.8026 813.20 -0.0023903 82.999 0.096602 465.00 0.0021505 488.77 578.54 1.8722 2.1168 2.8026 813.20 -0.0023903 82.999 0.096602
136.38 6116.2 undefined 490.89 581.57 1.8774 465.00 0.0021505 490.89 581.57 1.8774 2.1209 2.8043 814.85 -0.0024125 83.018 0.096726 465.00 0.0021505 490.89 581.57 1.8774 2.1209 2.8043 814.85 -0.0024125 83.018 0.096726
137.38 6178.0 undefined 493.01 584.61 1.8825 465.00 0.0021505 493.01 584.61 1.8825 2.1251 2.8060 816.49 -0.0024343 83.036 0.096851 465.00 0.0021505 493.01 584.61 1.8825 2.1251 2.8060 816.49 -0.0024343 83.036 0.096851
138.38 6239.7 undefined 495.14 587.65 1.8877 465.00 0.0021505 495.14 587.65 1.8877 2.1293 2.8077 818.12 -0.0024559 83.055 0.096976 465.00 0.0021505 495.14 587.65 1.8877 2.1293 2.8077 818.12 -0.0024559 83.055 0.096976
139.38 6301.3 undefined 497.27 590.70 1.8929 465.00 0.0021505 497.27 590.70 1.8929 2.1334 2.8094 819.75 -0.0024771 83.074 0.097101 465.00 0.0021505 497.27 590.70 1.8929 2.1334 2.8094 819.75 -0.0024771 83.074 0.097101
140.38 6363.0 undefined 499.40 593.75 1.8981 465.00 0.0021505 499.40 593.75 1.8981 2.1376 2.8112 821.37 -0.0024980 83.093 0.097226 465.00 0.0021505 499.40 593.75 1.8981 2.1376 2.8112 821.37 -0.0024980 83.093 0.097226
141.38 6424.6 undefined 501.54 596.80 1.9032 465.00 0.0021505 501.54 596.80 1.9032 2.1417 2.8130 822.99 -0.0025186 83.112 0.097352 465.00 0.0021505 501.54 596.80 1.9032 2.1417 2.8130 822.99 -0.0025186 83.112 0.097352
142.38 6486.3 undefined 503.69 599.86 1.9084 465.00 0.0021505 503.69 599.86 1.9084 2.1459 2.8148 824.60 -0.0025389 83.131 0.097478 465.00 0.0021505 503.69 599.86 1.9084 2.1459 2.8148 824.60 -0.0025389 83.131 0.097478
143.38 6547.9 undefined 505.83 602.92 1.9135 465.00 0.0021505 505.83 602.92 1.9135 2.1500 2.8166 826.20 -0.0025589 83.150 0.097605 465.00 0.0021505 505.83 602.92 1.9135 2.1500 2.8166 826.20 -0.0025589 83.150 0.097605
144.38 6609.4 undefined 507.99 605.99 1.9187 465.00 0.0021505 507.99 605.99 1.9187 2.1542 2.8184 827.80 -0.0025786 83.169 0.097731 465.00 0.0021505 507.99 605.99 1.9187 2.1542 2.8184 827.80 -0.0025786 83.169 0.097731
145.38 6671.0 undefined 510.14 609.06 1.9239 465.00 0.0021505 510.14 609.06 1.9239 2.1583 2.8203 829.39 -0.0025981 83.188 0.097858 465.00 0.0021505 510.14 609.06 1.9239 2.1583 2.8203 829.39 -0.0025981 83.188 0.097858
146.38 6732.5 undefined 512.30 612.13 1.9290 465.00 0.0021505 512.30 612.13 1.9290 2.1624 2.8222 830.98 -0.0026172 83.207 0.097985 465.00 0.0021505 512.30 612.13 1.9290 2.1624 2.8222 830.98 -0.0026172 83.207 0.097985
147.38 6794.0 undefined 514.47 615.21 1.9342 465.00 0.0021505 514.47 615.21 1.9342 2.1666 2.8241 832.56 -0.0026361 83.226 0.098113 465.00 0.0021505 514.47 615.21 1.9342 2.1666 2.8241 832.56 -0.0026361 83.226 0.098113
148.38 6855.5 undefined 516.64 618.29 1.9393 465.00 0.0021505 516.64 618.29 1.9393 2.1707 2.8260 834.14 -0.0026547 83.245 0.098241 465.00 0.0021505 516.64 618.29 1.9393 2.1707 2.8260 834.14 -0.0026547 83.245 0.098241
149.38 6917.0 undefined 518.81 621.37 1.9445 465.00 0.0021505 518.81 621.37 1.9445 2.1748 2.8279 835.71 -0.0026731 83.264 0.098369 465.00 0.0021505 518.81 621.37 1.9445 2.1748 2.8279 835.71 -0.0026731 83.264 0.098369
150.38 6978.4 undefined 520.99 624.46 1.9496 465.00 0.0021505 520.99 624.46 1.9496 2.1790 2.8299 837.28 -0.0026911 83.283 0.098497 465.00 0.0021505 520.99 624.46 1.9496 2.1790 2.8299 837.28 -0.0026911 83.283 0.098497
151.38 7039.8 undefined 523.17 627.55 1.9548 465.00 0.0021505 523.17 627.55 1.9548 2.1831 2.8319 838.84 -0.0027090 83.302 0.098626 465.00 0.0021505 523.17 627.55 1.9548 2.1831 2.8319 838.84 -0.0027090 83.302 0.098626
152.38 7101.2 undefined 525.35 630.65 1.9599 465.00 0.0021505 525.35 630.65 1.9599 2.1872 2.8339 840.39 -0.0027265 83.321 0.098755 465.00 0.0021505 525.35 630.65 1.9599 2.1872 2.8339 840.39 -0.0027265 83.321 0.098755
153.38 7162.6 undefined 527.54 633.74 1.9650 465.00 0.0021505 527.54 633.74 1.9650 2.1913 2.8359 841.94 -0.0027439 83.340 0.098884 465.00 0.0021505 527.54 633.74 1.9650 2.1913 2.8359 841.94 -0.0027439 83.340 0.098884
154.38 7223.9 undefined 529.74 636.85 1.9702 465.00 0.0021505 529.74 636.85 1.9702 2.1954 2.8379 843.49 -0.0027610 83.359 0.099014 465.00 0.0021505 529.74 636.85 1.9702 2.1954 2.8379 843.49 -0.0027610 83.359 0.099014
155.38 7285.3 undefined 531.93 639.95 1.9753 465.00 0.0021505 531.93 639.95 1.9753 2.1995 2.8399 845.02 -0.0027778 83.379 0.099144 465.00 0.0021505 531.93 639.95 1.9753 2.1995 2.8399 845.02 -0.0027778 83.379 0.099144
156.38 7346.6 undefined 534.13 643.07 1.9804 465.00 0.0021505 534.13 643.07 1.9804 2.2036 2.8420 846.56 -0.0027944 83.398 0.099274 465.00 0.0021505 534.13 643.07 1.9804 2.2036 2.8420 846.56 -0.0027944 83.398 0.099274
157.38 7407.8 undefined 536.34 646.18 1.9856 465.00 0.0021505 536.34 646.18 1.9856 2.2077 2.8441 848.09 -0.0028108 83.417 0.099404 465.00 0.0021505 536.34 646.18 1.9856 2.2077 2.8441 848.09 -0.0028108 83.417 0.099404
158.38 7469.1 undefined 538.55 649.30 1.9907 465.00 0.0021505 538.55 649.30 1.9907 2.2118 2.8462 849.61 -0.0028269 83.436 0.099535 465.00 0.0021505 538.55 649.30 1.9907 2.2118 2.8462 849.61 -0.0028269 83.436 0.099535
159.38 7530.3 undefined 540.76 652.42 1.9958 465.00 0.0021505 540.76 652.42 1.9958 2.2159 2.8483 851.13 -0.0028429 83.455 0.099666 465.00 0.0021505 540.76 652.42 1.9958 2.2159 2.8483 851.13 -0.0028429 83.455 0.099666
160.38 7591.5 undefined 542.98 655.54 2.0010 465.00 0.0021505 542.98 655.54 2.0010 2.2200 2.8504 852.65 -0.0028586 83.474 0.099797 465.00 0.0021505 542.98 655.54 2.0010 2.2200 2.8504 852.65 -0.0028586 83.474 0.099797
161.38 7652.7 undefined 545.20 658.67 2.0061 465.00 0.0021505 545.20 658.67 2.0061 2.2241 2.8525 854.16 -0.0028740 83.493 0.099929 465.00 0.0021505 545.20 658.67 2.0061 2.2241 2.8525 854.16 -0.0028740 83.493 0.099929
162.38 7713.9 undefined 547.43 661.81 2.0112 465.00 0.0021505 547.43 661.81 2.0112 2.2282 2.8546 855.66 -0.0028893 83.513 0.10006 465.00 0.0021505 547.43 661.81 2.0112 2.2282 2.8546 855.66 -0.0028893 83.513 0.10006
163.38 7775.0 undefined 549.66 664.94 2.0163 465.00 0.0021505 549.66 664.94 2.0163 2.2323 2.8568 857.16 -0.0029044 83.532 0.10019 465.00 0.0021505 549.66 664.94 2.0163 2.2323 2.8568 857.16 -0.0029044 83.532 0.10019
164.38 7836.1 undefined 551.89 668.08 2.0214 465.00 0.0021505 551.89 668.08 2.0214 2.2363 2.8590 858.66 -0.0029192 83.551 0.10033 465.00 0.0021505 551.89 668.08 2.0214 2.2363 2.8590 858.66 -0.0029192 83.551 0.10033
165.38 7897.2 undefined 554.13 671.23 2.0265 465.00 0.0021505 554.13 671.23 2.0265 2.2404 2.8612 860.15 -0.0029338 83.570 0.10046 465.00 0.0021505 554.13 671.23 2.0265 2.2404 2.8612 860.15 -0.0029338 83.570 0.10046
166.38 7958.3 undefined 556.38 674.38 2.0316 465.00 0.0021505 556.38 674.38 2.0316 2.2445 2.8634 861.63 -0.0029483 83.590 0.10059 465.00 0.0021505 556.38 674.38 2.0316 2.2445 2.8634 861.63 -0.0029483 83.590 0.10059
167.38 8019.3 undefined 558.62 677.53 2.0367 465.00 0.0021505 558.62 677.53 2.0367 2.2485 2.8656 863.11 -0.0029625 83.609 0.10073 465.00 0.0021505 558.62 677.53 2.0367 2.2485 2.8656 863.11 -0.0029625 83.609 0.10073
168.38 8080.3 undefined 560.87 680.68 2.0418 465.00 0.0021505 560.87 680.68 2.0418 2.2526 2.8678 864.59 -0.0029766 83.628 0.10086 465.00 0.0021505 560.87 680.68 2.0418 2.2526 2.8678 864.59 -0.0029766 83.628 0.10086
169.38 8141.3 undefined 563.13 683.84 2.0469 465.00 0.0021505 563.13 683.84 2.0469 2.2566 2.8700 866.06 -0.0029904 83.647 0.10099 465.00 0.0021505 563.13 683.84 2.0469 2.2566 2.8700 866.06 -0.0029904 83.647 0.10099
170.38 8202.3 undefined 565.39 687.00 2.0520 465.00 0.0021505 565.39 687.00 2.0520 2.2607 2.8723 867.53 -0.0030041 83.667 0.10113 465.00 0.0021505 565.39 687.00 2.0520 2.2607 2.8723 867.53 -0.0030041 83.667 0.10113
171.38 8263.2 undefined 567.65 690.17 2.0571 465.00 0.0021505 567.65 690.17 2.0571 2.2647 2.8745 868.99 -0.0030175 83.686 0.10127 465.00 0.0021505 567.65 690.17 2.0571 2.2647 2.8745 868.99 -0.0030175 83.686 0.10127
172.38 8324.1 undefined 569.91 693.34 2.0622 465.00 0.0021505 569.91 693.34 2.0622 2.2688 2.8768 870.45 -0.0030308 83.705 0.10140 465.00 0.0021505 569.91 693.34 2.0622 2.2688 2.8768 870.45 -0.0030308 83.705 0.10140
173.38 8385.0 undefined 572.19 696.51 2.0673 465.00 0.0021505 572.19 696.51 2.0673 2.2728 2.8791 871.91 -0.0030439 83.724 0.10154 465.00 0.0021505 572.19 696.51 2.0673 2.2728 2.8791 871.91 -0.0030439 83.724 0.10154
174.38 8445.9 undefined 574.46 699.69 2.0724 465.00 0.0021505 574.46 699.69 2.0724 2.2768 2.8814 873.36 -0.0030569 83.744 0.10168 465.00 0.0021505 574.46 699.69 2.0724 2.2768 2.8814 873.36 -0.0030569 83.744 0.10168
175.38 8506.7 undefined 576.74 702.87 2.0775 465.00 0.0021505 576.74 702.87 2.0775 2.2809 2.8837 874.80 -0.0030696 83.763 0.10182 465.00 0.0021505 576.74 702.87 2.0775 2.2809 2.8837 874.80 -0.0030696 83.763 0.10182
176.38 8567.6 undefined 579.02 706.06 2.0826 465.00 0.0021505 579.02 706.06 2.0826 2.2849 2.8860 876.24 -0.0030822 83.782 0.10195 465.00 0.0021505 579.02 706.06 2.0826 2.2849 2.8860 876.24 -0.0030822 83.782 0.10195
177.38 8628.4 undefined 581.31 709.25 2.0877 465.00 0.0021505 581.31 709.25 2.0877 2.2889 2.8883 877.68 -0.0030946 83.802 0.10209 465.00 0.0021505 581.31 709.25 2.0877 2.2889 2.8883 877.68 -0.0030946 83.802 0.10209
178.38 8689.1 undefined 583.60 712.44 2.0927 465.00 0.0021505 583.60 712.44 2.0927 2.2929 2.8906 879.11 -0.0031069 83.821 0.10223 465.00 0.0021505 583.60 712.44 2.0927 2.2929 2.8906 879.11 -0.0031069 83.821 0.10223
179.38 8749.9 undefined 585.89 715.63 2.0978 465.00 0.0021505 585.89 715.63 2.0978 2.2969 2.8930 880.54 -0.0031189 83.840 0.10237 465.00 0.0021505 585.89 715.63 2.0978 2.2969 2.8930 880.54 -0.0031189 83.840 0.10237
180.38 8810.6 undefined 588.19 718.83 2.1029 465.00 0.0021505 588.19 718.83 2.1029 2.3009 2.8953 881.97 -0.0031308 83.860 0.10251 465.00 0.0021505 588.19 718.83 2.1029 2.3009 2.8953 881.97 -0.0031308 83.860 0.10251
181.38 8871.3 undefined 590.50 722.04 2.1080 465.00 0.0021505 590.50 722.04 2.1080 2.3049 2.8977 883.39 -0.0031426 83.879 0.10265 465.00 0.0021505 590.50 722.04 2.1080 2.3049 2.8977 883.39 -0.0031426 83.879 0.10265
182.38 8931.9 undefined 592.80 725.24 2.1130 465.00 0.0021505 592.80 725.24 2.1130 2.3089 2.9001 884.81 -0.0031542 83.898 0.10279 465.00 0.0021505 592.80 725.24 2.1130 2.3089 2.9001 884.81 -0.0031542 83.898 0.10279
183.38 8992.6 undefined 595.11 728.45 2.1181 465.00 0.0021505 595.11 728.45 2.1181 2.3129 2.9024 886.22 -0.0031656 83.918 0.10293 465.00 0.0021505 595.11 728.45 2.1181 2.3129 2.9024 886.22 -0.0031656 83.918 0.10293
184.38 9053.2 undefined 597.43 731.67 2.1232 465.00 0.0021505 597.43 731.67 2.1232 2.3169 2.9048 887.63 -0.0031769 83.937 0.10307 465.00 0.0021505 597.43 731.67 2.1232 2.3169 2.9048 887.63 -0.0031769 83.937 0.10307
185.38 9113.8 undefined 599.75 734.88 2.1282 465.00 0.0021505 599.75 734.88 2.1282 2.3209 2.9072 889.03 -0.0031880 83.956 0.10321 465.00 0.0021505 599.75 734.88 2.1282 2.3209 2.9072 889.03 -0.0031880 83.956 0.10321
186.38 9174.4 undefined 602.07 738.10 2.1333 465.00 0.0021505 602.07 738.10 2.1333 2.3249 2.9096 890.43 -0.0031990 83.976 0.10335 465.00 0.0021505 602.07 738.10 2.1333 2.3249 2.9096 890.43 -0.0031990 83.976 0.10335
187.38 9234.9 undefined 604.40 741.33 2.1383 465.00 0.0021505 604.40 741.33 2.1383 2.3289 2.9120 891.83 -0.0032099 83.995 0.10349 465.00 0.0021505 604.40 741.33 2.1383 2.3289 2.9120 891.83 -0.0032099 83.995 0.10349
188.38 9295.4 undefined 606.73 744.56 2.1434 465.00 0.0021505 606.73 744.56 2.1434 2.3329 2.9145 893.22 -0.0032205 84.014 0.10363 465.00 0.0021505 606.73 744.56 2.1434 2.3329 2.9145 893.22 -0.0032205 84.014 0.10363
189.38 9355.9 undefined 609.06 747.79 2.1485 465.00 0.0021505 609.06 747.79 2.1485 2.3368 2.9169 894.61 -0.0032311 84.034 0.10378 465.00 0.0021505 609.06 747.79 2.1485 2.3368 2.9169 894.61 -0.0032311 84.034 0.10378
190.38 9416.4 undefined 611.40 751.02 2.1535 465.00 0.0021505 611.40 751.02 2.1535 2.3408 2.9193 896.00 -0.0032415 84.053 0.10392 465.00 0.0021505 611.40 751.02 2.1535 2.3408 2.9193 896.00 -0.0032415 84.053 0.10392
191.38 9476.8 undefined 613.75 754.26 2.1586 465.00 0.0021505 613.75 754.26 2.1586 2.3447 2.9218 897.38 -0.0032518 84.073 0.10406 465.00 0.0021505 613.75 754.26 2.1586 2.3447 2.9218 897.38 -0.0032518 84.073 0.10406
192.38 9537.2 undefined 616.09 757.50 2.1636 465.00 0.0021505 616.09 757.50 2.1636 2.3487 2.9242 898.76 -0.0032619 84.092 0.10420 465.00 0.0021505 616.09 757.50 2.1636 2.3487 2.9242 898.76 -0.0032619 84.092 0.10420
193.38 9597.6 undefined 618.44 760.75 2.1686 465.00 0.0021505 618.44 760.75 2.1686 2.3526 2.9267 900.13 -0.0032719 84.111 0.10435 465.00 0.0021505 618.44 760.75 2.1686 2.3526 2.9267 900.13 -0.0032719 84.111 0.10435
194.38 9658.0 undefined 620.80 764.00 2.1737 465.00 0.0021505 620.80 764.00 2.1737 2.3566 2.9291 901.50 -0.0032817 84.131 0.10449 465.00 0.0021505 620.80 764.00 2.1737 2.3566 2.9291 901.50 -0.0032817 84.131 0.10449
195.38 9718.3 undefined 623.16 767.25 2.1787 465.00 0.0021505 623.16 767.25 2.1787 2.3605 2.9316 902.87 -0.0032915 84.150 0.10463 465.00 0.0021505 623.16 767.25 2.1787 2.3605 2.9316 902.87 -0.0032915 84.150 0.10463
196.38 9778.6 undefined 625.52 770.51 2.1838 465.00 0.0021505 625.52 770.51 2.1838 2.3645 2.9341 904.23 -0.0033011 84.170 0.10478 465.00 0.0021505 625.52 770.51 2.1838 2.3645 2.9341 904.23 -0.0033011 84.170 0.10478
197.38 9838.9 undefined 627.89 773.77 2.1888 465.00 0.0021505 627.89 773.77 2.1888 2.3684 2.9366 905.59 -0.0033106 84.189 0.10492 465.00 0.0021505 627.89 773.77 2.1888 2.3684 2.9366 905.59 -0.0033106 84.189 0.10492
198.38 9899.2 undefined 630.26 777.03 2.1938 465.00 0.0021505 630.26 777.03 2.1938 2.3723 2.9391 906.95 -0.0033199 84.209 0.10507 465.00 0.0021505 630.26 777.03 2.1938 2.3723 2.9391 906.95 -0.0033199 84.209 0.10507
199.38 9959.4 undefined 632.63 780.30 2.1989 465.00 0.0021505 632.63 780.30 2.1989 2.3763 2.9415 908.30 -0.0033291 84.228 0.10521 465.00 0.0021505 632.63 780.30 2.1989 2.3763 2.9415 908.30 -0.0033291 84.228 0.10521
200.38 10020. undefined 635.01 783.57 2.2039 465.00 0.0021505 635.01 783.57 2.2039 2.3802 2.9440 909.65 -0.0033382 84.248 0.10536 465.00 0.0021505 635.01 783.57 2.2039 2.3802 2.9440 909.65 -0.0033382 84.248 0.10536
201.38 10080. undefined 637.39 786.85 2.2089 465.00 0.0021505 637.39 786.85 2.2089 2.3841 2.9466 910.99 -0.0033472 84.267 0.10550 465.00 0.0021505 637.39 786.85 2.2089 2.3841 2.9466 910.99 -0.0033472 84.267 0.10550
202.38 10140. undefined 639.78 790.13 2.2139 465.00 0.0021505 639.78 790.13 2.2139 2.3880 2.9491 912.33 -0.0033561 84.286 0.10565 465.00 0.0021505 639.78 790.13 2.2139 2.3880 2.9491 912.33 -0.0033561 84.286 0.10565
203.38 10200. undefined 642.17 793.41 2.2190 465.00 0.0021505 642.17 793.41 2.2190 2.3919 2.9516 913.67 -0.0033648 84.306 0.10580 465.00 0.0021505 642.17 793.41 2.2190 2.3919 2.9516 913.67 -0.0033648 84.306 0.10580
204.38 10260. undefined 644.56 796.69 2.2240 465.00 0.0021505 644.56 796.69 2.2240 2.3958 2.9541 915.01 -0.0033734 84.325 0.10594 465.00 0.0021505 644.56 796.69 2.2240 2.3958 2.9541 915.01 -0.0033734 84.325 0.10594
205.38 10320. undefined 646.96 799.98 2.2290 465.00 0.0021505 646.96 799.98 2.2290 2.3997 2.9566 916.34 -0.0033819 84.345 0.10609 465.00 0.0021505 646.96 799.98 2.2290 2.3997 2.9566 916.34 -0.0033819 84.345 0.10609
206.38 10380. undefined 649.36 803.27 2.2340 465.00 0.0021505 649.36 803.27 2.2340 2.4036 2.9592 917.67 -0.0033903 84.364 0.10624 465.00 0.0021505 649.36 803.27 2.2340 2.4036 2.9592 917.67 -0.0033903 84.364 0.10624
207.38 10440. undefined 651.76 806.57 2.2390 465.00 0.0021505 651.76 806.57 2.2390 2.4075 2.9617 918.99 -0.0033986 84.384 0.10638 465.00 0.0021505 651.76 806.57 2.2390 2.4075 2.9617 918.99 -0.0033986 84.384 0.10638
208.38 10500. undefined 654.17 809.87 2.2440 465.00 0.0021505 654.17 809.87 2.2440 2.4114 2.9643 920.31 -0.0034068 84.403 0.10653 465.00 0.0021505 654.17 809.87 2.2440 2.4114 2.9643 920.31 -0.0034068 84.403 0.10653
209.38 10560. undefined 656.59 813.17 2.2490 465.00 0.0021505 656.59 813.17 2.2490 2.4152 2.9668 921.63 -0.0034149 84.423 0.10668 465.00 0.0021505 656.59 813.17 2.2490 2.4152 2.9668 921.63 -0.0034149 84.423 0.10668
210.38 10620. undefined 659.00 816.48 2.2540 465.00 0.0021505 659.00 816.48 2.2540 2.4191 2.9694 922.95 -0.0034228 84.442 0.10683 465.00 0.0021505 659.00 816.48 2.2540 2.4191 2.9694 922.95 -0.0034228 84.442 0.10683
211.38 10680. undefined 661.43 819.79 2.2590 465.00 0.0021505 661.43 819.79 2.2590 2.4230 2.9719 924.26 -0.0034307 84.462 0.10698 465.00 0.0021505 661.43 819.79 2.2590 2.4230 2.9719 924.26 -0.0034307 84.462 0.10698
212.38 10740. undefined 663.85 823.10 2.2640 465.00 0.0021505 663.85 823.10 2.2640 2.4268 2.9745 925.57 -0.0034385 84.481 0.10712 465.00 0.0021505 663.85 823.10 2.2640 2.4268 2.9745 925.57 -0.0034385 84.481 0.10712
213.38 10800. undefined 666.28 826.42 2.2690 465.00 0.0021505 666.28 826.42 2.2690 2.4307 2.9771 926.87 -0.0034461 84.501 0.10727 465.00 0.0021505 666.28 826.42 2.2690 2.4307 2.9771 926.87 -0.0034461 84.501 0.10727
214.38 10860. undefined 668.71 829.74 2.2740 465.00 0.0021505 668.71 829.74 2.2740 2.4346 2.9796 928.18 -0.0034537 84.520 0.10742 465.00 0.0021505 668.71 829.74 2.2740 2.4346 2.9796 928.18 -0.0034537 84.520 0.10742
215.38 10920. undefined 671.15 833.06 2.2790 465.00 0.0021505 671.15 833.06 2.2790 2.4384 2.9822 929.47 -0.0034611 84.539 0.10757 465.00 0.0021505 671.15 833.06 2.2790 2.4384 2.9822 929.47 -0.0034611 84.539 0.10757
216.38 10979. undefined 673.59 836.39 2.2840 465.00 0.0021505 673.59 836.39 2.2840 2.4422 2.9848 930.77 -0.0034685 84.559 0.10772 465.00 0.0021505 673.59 836.39 2.2840 2.4422 2.9848 930.77 -0.0034685 84.559 0.10772
217.38 11039. undefined 676.03 839.72 2.2890 465.00 0.0021505 676.03 839.72 2.2890 2.4461 2.9874 932.06 -0.0034757 84.578 0.10787 465.00 0.0021505 676.03 839.72 2.2890 2.4461 2.9874 932.06 -0.0034757 84.578 0.10787
218.38 11099. undefined 678.48 843.05 2.2940 465.00 0.0021505 678.48 843.05 2.2940 2.4499 2.9900 933.35 -0.0034829 84.598 0.10802 465.00 0.0021505 678.48 843.05 2.2940 2.4499 2.9900 933.35 -0.0034829 84.598 0.10802
219.38 11159. undefined 680.93 846.39 2.2990 465.00 0.0021505 680.93 846.39 2.2990 2.4537 2.9926 934.64 -0.0034900 84.617 0.10817 465.00 0.0021505 680.93 846.39 2.2990 2.4537 2.9926 934.64 -0.0034900 84.617 0.10817
220.38 11218. undefined 683.39 849.73 2.3040 465.00 0.0021505 683.39 849.73 2.3040 2.4576 2.9952 935.92 -0.0034969 84.637 0.10832 465.00 0.0021505 683.39 849.73 2.3040 2.4576 2.9952 935.92 -0.0034969 84.637 0.10832
221.38 11278. undefined 685.85 853.07 2.3089 465.00 0.0021505 685.85 853.07 2.3089 2.4614 2.9978 937.20 -0.0035038 84.656 0.10848 465.00 0.0021505 685.85 853.07 2.3089 2.4614 2.9978 937.20 -0.0035038 84.656 0.10848
222.38 11338. undefined 688.31 856.42 2.3139 465.00 0.0021505 688.31 856.42 2.3139 2.4652 3.0004 938.48 -0.0035106 84.676 0.10863 465.00 0.0021505 688.31 856.42 2.3139 2.4652 3.0004 938.48 -0.0035106 84.676 0.10863
223.38 11397. undefined 690.78 859.77 2.3189 465.00 0.0021505 690.78 859.77 2.3189 2.4690 3.0030 939.75 -0.0035173 84.695 0.10878 465.00 0.0021505 690.78 859.77 2.3189 2.4690 3.0030 939.75 -0.0035173 84.695 0.10878
224.38 11457. undefined 693.25 863.12 2.3239 465.00 0.0021505 693.25 863.12 2.3239 2.4728 3.0056 941.02 -0.0035239 84.715 0.10893 465.00 0.0021505 693.25 863.12 2.3239 2.4728 3.0056 941.02 -0.0035239 84.715 0.10893
225.38 11516. undefined 695.72 866.48 2.3288 465.00 0.0021505 695.72 866.48 2.3288 2.4766 3.0082 942.29 -0.0035304 84.734 0.10908 465.00 0.0021505 695.72 866.48 2.3288 2.4766 3.0082 942.29 -0.0035304 84.734 0.10908
226.38 11576. undefined 698.20 869.84 2.3338 465.00 0.0021505 698.20 869.84 2.3338 2.4804 3.0108 943.56 -0.0035369 84.754 0.10924 465.00 0.0021505 698.20 869.84 2.3338 2.4804 3.0108 943.56 -0.0035369 84.754 0.10924
227.38 11635. undefined 700.69 873.21 2.3388 465.00 0.0021505 700.69 873.21 2.3388 2.4842 3.0134 944.82 -0.0035432 84.773 0.10939 465.00 0.0021505 700.69 873.21 2.3388 2.4842 3.0134 944.82 -0.0035432 84.773 0.10939
228.38 11695. undefined 703.17 876.58 2.3437 465.00 0.0021505 703.17 876.58 2.3437 2.4880 3.0160 946.08 -0.0035495 84.793 0.10954 465.00 0.0021505 703.17 876.58 2.3437 2.4880 3.0160 946.08 -0.0035495 84.793 0.10954
229.38 11754. undefined 705.66 879.95 2.3487 465.00 0.0021505 705.66 879.95 2.3487 2.4918 3.0187 947.34 -0.0035557 84.812 0.10970 465.00 0.0021505 705.66 879.95 2.3487 2.4918 3.0187 947.34 -0.0035557 84.812 0.10970
230.38 11814. undefined 708.15 883.32 2.3536 465.00 0.0021505 708.15 883.32 2.3536 2.4956 3.0213 948.59 -0.0035618 84.832 0.10985 465.00 0.0021505 708.15 883.32 2.3536 2.4956 3.0213 948.59 -0.0035618 84.832 0.10985
231.38 11873. undefined 710.65 886.70 2.3586 465.00 0.0021505 710.65 886.70 2.3586 2.4993 3.0239 949.84 -0.0035678 84.851 0.11001 465.00 0.0021505 710.65 886.70 2.3586 2.4993 3.0239 949.84 -0.0035678 84.851 0.11001
232.38 11933. undefined 713.15 890.08 2.3635 465.00 0.0021505 713.15 890.08 2.3635 2.5031 3.0266 951.09 -0.0035738 84.871 0.11016 465.00 0.0021505 713.15 890.08 2.3635 2.5031 3.0266 951.09 -0.0035738 84.871 0.11016
233.38 11992. undefined 715.66 893.47 2.3685 465.00 0.0021505 715.66 893.47 2.3685 2.5069 3.0292 952.33 -0.0035796 84.890 0.11032 465.00 0.0021505 715.66 893.47 2.3685 2.5069 3.0292 952.33 -0.0035796 84.890 0.11032
234.38 12051. undefined 718.17 896.86 2.3734 465.00 0.0021505 718.17 896.86 2.3734 2.5106 3.0318 953.58 -0.0035854 84.910 0.11047 465.00 0.0021505 718.17 896.86 2.3734 2.5106 3.0318 953.58 -0.0035854 84.910 0.11047
235.38 12110. undefined 720.68 900.25 2.3784 465.00 0.0021505 720.68 900.25 2.3784 2.5144 3.0345 954.82 -0.0035911 84.929 0.11063 465.00 0.0021505 720.68 900.25 2.3784 2.5144 3.0345 954.82 -0.0035911 84.929 0.11063
236.38 12170. undefined 723.20 903.64 2.3833 465.00 0.0021505 723.20 903.64 2.3833 2.5181 3.0371 956.05 -0.0035968 84.949 0.11078 465.00 0.0021505 723.20 903.64 2.3833 2.5181 3.0371 956.05 -0.0035968 84.949 0.11078
237.38 12229. undefined 725.72 907.04 2.3883 465.00 0.0021505 725.72 907.04 2.3883 2.5219 3.0398 957.29 -0.0036023 84.968 0.11094 465.00 0.0021505 725.72 907.04 2.3883 2.5219 3.0398 957.29 -0.0036023 84.968 0.11094
238.38 12288. undefined 728.24 910.44 2.3932 465.00 0.0021505 728.24 910.44 2.3932 2.5256 3.0424 958.52 -0.0036078 84.988 0.11109 465.00 0.0021505 728.24 910.44 2.3932 2.5256 3.0424 958.52 -0.0036078 84.988 0.11109
239.38 12347. undefined 730.77 913.85 2.3981 465.00 0.0021505 730.77 913.85 2.3981 2.5293 3.0451 959.75 -0.0036132 85.007 0.11125 465.00 0.0021505 730.77 913.85 2.3981 2.5293 3.0451 959.75 -0.0036132 85.007 0.11125
240.38 12407. undefined 733.30 917.26 2.4031 465.00 0.0021505 733.30 917.26 2.4031 2.5331 3.0477 960.97 -0.0036186 85.027 0.11141 465.00 0.0021505 733.30 917.26 2.4031 2.5331 3.0477 960.97 -0.0036186 85.027 0.11141
241.38 12466. undefined 735.83 920.67 2.4080 465.00 0.0021505 735.83 920.67 2.4080 2.5368 3.0504 962.20 -0.0036238 85.046 0.11156 465.00 0.0021505 735.83 920.67 2.4080 2.5368 3.0504 962.20 -0.0036238 85.046 0.11156
242.38 12525. undefined 738.37 924.08 2.4129 465.00 0.0021505 738.37 924.08 2.4129 2.5405 3.0530 963.42 -0.0036290 85.066 0.11172 465.00 0.0021505 738.37 924.08 2.4129 2.5405 3.0530 963.42 -0.0036290 85.066 0.11172
243.38 12584. undefined 740.91 927.50 2.4179 465.00 0.0021505 740.91 927.50 2.4179 2.5442 3.0557 964.64 -0.0036342 85.085 0.11188 465.00 0.0021505 740.91 927.50 2.4179 2.5442 3.0557 964.64 -0.0036342 85.085 0.11188
244.38 12643. undefined 743.46 930.92 2.4228 465.00 0.0021505 743.46 930.92 2.4228 2.5479 3.0583 965.85 -0.0036392 85.105 0.11204 465.00 0.0021505 743.46 930.92 2.4228 2.5479 3.0583 965.85 -0.0036392 85.105 0.11204
245.38 12702. undefined 746.01 934.35 2.4277 465.00 0.0021505 746.01 934.35 2.4277 2.5517 3.0610 967.06 -0.0036442 85.124 0.11220 465.00 0.0021505 746.01 934.35 2.4277 2.5517 3.0610 967.06 -0.0036442 85.124 0.11220
246.38 12761. undefined 748.56 937.78 2.4326 465.00 0.0021505 748.56 937.78 2.4326 2.5554 3.0637 968.27 -0.0036492 85.143 0.11236 465.00 0.0021505 748.56 937.78 2.4326 2.5554 3.0637 968.27 -0.0036492 85.143 0.11236
247.38 12820. undefined 751.12 941.21 2.4375 465.00 0.0021505 751.12 941.21 2.4375 2.5590 3.0663 969.48 -0.0036540 85.163 0.11251 465.00 0.0021505 751.12 941.21 2.4375 2.5590 3.0663 969.48 -0.0036540 85.163 0.11251
248.38 12879. undefined 753.68 944.64 2.4425 465.00 0.0021505 753.68 944.64 2.4425 2.5627 3.0690 970.69 -0.0036588 85.182 0.11267 465.00 0.0021505 753.68 944.64 2.4425 2.5627 3.0690 970.69 -0.0036588 85.182 0.11267
249.38 12938. undefined 756.25 948.08 2.4474 465.00 0.0021505 756.25 948.08 2.4474 2.5664 3.0717 971.89 -0.0036636 85.202 0.11283 465.00 0.0021505 756.25 948.08 2.4474 2.5664 3.0717 971.89 -0.0036636 85.202 0.11283
250.38 12997. undefined 758.81 951.52 2.4523 465.00 0.0021505 758.81 951.52 2.4523 2.5701 3.0743 973.09 -0.0036682 85.221 0.11299 465.00 0.0021505 758.81 951.52 2.4523 2.5701 3.0743 973.09 -0.0036682 85.221 0.11299
251.38 13056. undefined 761.39 954.97 2.4572 465.00 0.0021505 761.39 954.97 2.4572 2.5738 3.0770 974.28 -0.0036728 85.241 0.11315 465.00 0.0021505 761.39 954.97 2.4572 2.5738 3.0770 974.28 -0.0036728 85.241 0.11315
252.38 13114. undefined 763.96 958.42 2.4621 465.00 0.0021505 763.96 958.42 2.4621 2.5775 3.0797 975.48 -0.0036774 85.260 0.11331 465.00 0.0021505 763.96 958.42 2.4621 2.5775 3.0797 975.48 -0.0036774 85.260 0.11331
253.38 13173. undefined 766.54 961.87 2.4670 465.00 0.0021505 766.54 961.87 2.4670 2.5811 3.0823 976.67 -0.0036819 85.280 0.11347 465.00 0.0021505 766.54 961.87 2.4670 2.5811 3.0823 976.67 -0.0036819 85.280 0.11347
254.38 13232. undefined 769.12 965.32 2.4719 465.00 0.0021505 769.12 965.32 2.4719 2.5848 3.0850 977.86 -0.0036863 85.299 0.11364 465.00 0.0021505 769.12 965.32 2.4719 2.5848 3.0850 977.86 -0.0036863 85.299 0.11364
255.38 13291. undefined 771.71 968.78 2.4768 465.00 0.0021505 771.71 968.78 2.4768 2.5884 3.0877 979.05 -0.0036906 85.319 0.11380 465.00 0.0021505 771.71 968.78 2.4768 2.5884 3.0877 979.05 -0.0036906 85.319 0.11380
256.38 13350. undefined 774.30 972.24 2.4817 465.00 0.0021505 774.30 972.24 2.4817 2.5921 3.0904 980.23 -0.0036950 85.338 0.11396 465.00 0.0021505 774.30 972.24 2.4817 2.5921 3.0904 980.23 -0.0036950 85.338 0.11396
257.38 13408. undefined 776.90 975.71 2.4866 465.00 0.0021505 776.90 975.71 2.4866 2.5957 3.0930 981.42 -0.0036992 85.357 0.11412 465.00 0.0021505 776.90 975.71 2.4866 2.5957 3.0930 981.42 -0.0036992 85.357 0.11412
258.38 13467. undefined 779.49 979.17 2.4915 465.00 0.0021505 779.49 979.17 2.4915 2.5994 3.0957 982.60 -0.0037034 85.377 0.11428 465.00 0.0021505 779.49 979.17 2.4915 2.5994 3.0957 982.60 -0.0037034 85.377 0.11428
259.38 13526. undefined 782.09 982.64 2.4964 465.00 0.0021505 782.09 982.64 2.4964 2.6030 3.0984 983.77 -0.0037075 85.396 0.11444 465.00 0.0021505 782.09 982.64 2.4964 2.6030 3.0984 983.77 -0.0037075 85.396 0.11444
260.38 13584. undefined 784.70 986.12 2.5013 465.00 0.0021505 784.70 986.12 2.5013 2.6067 3.1011 984.95 -0.0037116 85.416 0.11461 465.00 0.0021505 784.70 986.12 2.5013 2.6067 3.1011 984.95 -0.0037116 85.416 0.11461
261.38 13643. undefined 787.31 989.60 2.5061 465.00 0.0021505 787.31 989.60 2.5061 2.6103 3.1037 986.12 -0.0037156 85.435 0.11477 465.00 0.0021505 787.31 989.60 2.5061 2.6103 3.1037 986.12 -0.0037156 85.435 0.11477
262.38 13701. undefined 789.92 993.08 2.5110 465.00 0.0021505 789.92 993.08 2.5110 2.6139 3.1064 987.29 -0.0037196 85.455 0.11493 465.00 0.0021505 789.92 993.08 2.5110 2.6139 3.1064 987.29 -0.0037196 85.455 0.11493
263.38 13760. undefined 792.54 996.56 2.5159 465.00 0.0021505 792.54 996.56 2.5159 2.6175 3.1091 988.46 -0.0037235 85.474 0.11510 465.00 0.0021505 792.54 996.56 2.5159 2.6175 3.1091 988.46 -0.0037235 85.474 0.11510
264.38 13819. undefined 795.15 1000.0 2.5208 465.00 0.0021505 795.15 1000.0 2.5208 2.6211 3.1118 989.62 -0.0037273 85.493 0.11526 465.00 0.0021505 795.15 1000.0 2.5208 2.6211 3.1118 989.62 -0.0037273 85.493 0.11526
265.38 13877. undefined 797.78 1003.5 2.5257 465.00 0.0021505 797.78 1003.5 2.5257 2.6247 3.1145 990.79 -0.0037311 85.513 0.11543 465.00 0.0021505 797.78 1003.5 2.5257 2.6247 3.1145 990.79 -0.0037311 85.513 0.11543
266.38 13936. undefined 800.40 1007.0 2.5305 465.00 0.0021505 800.40 1007.0 2.5305 2.6283 3.1171 991.95 -0.0037349 85.532 0.11559 465.00 0.0021505 800.40 1007.0 2.5305 2.6283 3.1171 991.95 -0.0037349 85.532 0.11559
267.38 13994. undefined 803.03 1010.5 2.5354 465.00 0.0021505 803.03 1010.5 2.5354 2.6319 3.1198 993.11 -0.0037386 85.552 0.11576 465.00 0.0021505 803.03 1010.5 2.5354 2.6319 3.1198 993.11 -0.0037386 85.552 0.11576
268.38 14052. undefined 805.67 1014.0 2.5403 465.00 0.0021505 805.67 1014.0 2.5403 2.6355 3.1225 994.26 -0.0037422 85.571 0.11592 465.00 0.0021505 805.67 1014.0 2.5403 2.6355 3.1225 994.26 -0.0037422 85.571 0.11592
269.38 14111. undefined 808.31 1017.5 2.5451 465.00 0.0021505 808.31 1017.5 2.5451 2.6391 3.1252 995.42 -0.0037458 85.590 0.11609 465.00 0.0021505 808.31 1017.5 2.5451 2.6391 3.1252 995.42 -0.0037458 85.590 0.11609
270.38 14169. undefined 810.95 1021.0 2.5500 465.00 0.0021505 810.95 1021.0 2.5500 2.6427 3.1279 996.57 -0.0037494 85.610 0.11625 465.00 0.0021505 810.95 1021.0 2.5500 2.6427 3.1279 996.57 -0.0037494 85.610 0.11625
271.38 14228. undefined 813.59 1024.5 2.5549 465.00 0.0021505 813.59 1024.5 2.5549 2.6463 3.1306 997.72 -0.0037529 85.629 0.11642 465.00 0.0021505 813.59 1024.5 2.5549 2.6463 3.1306 997.72 -0.0037529 85.629 0.11642
272.38 14286. undefined 816.24 1028.1 2.5597 465.00 0.0021505 816.24 1028.1 2.5597 2.6499 3.1332 998.86 -0.0037563 85.649 0.11658 465.00 0.0021505 816.24 1028.1 2.5597 2.6499 3.1332 998.86 -0.0037563 85.649 0.11658
273.38 14344. undefined 818.89 1031.6 2.5646 465.00 0.0021505 818.89 1031.6 2.5646 2.6534 3.1359 1000.0 -0.0037597 85.668 0.11675 465.00 0.0021505 818.89 1031.6 2.5646 2.6534 3.1359 1000.0 -0.0037597 85.668 0.11675
274.38 14403. undefined 821.55 1035.1 2.5694 465.00 0.0021505 821.55 1035.1 2.5694 2.6570 3.1386 1001.2 -0.0037631 85.687 0.11692 465.00 0.0021505 821.55 1035.1 2.5694 2.6570 3.1386 1001.2 -0.0037631 85.687 0.11692
275.38 14461. undefined 824.20 1038.6 2.5743 465.00 0.0021505 824.20 1038.6 2.5743 2.6606 3.1413 1002.3 -0.0037664 85.707 0.11708 465.00 0.0021505 824.20 1038.6 2.5743 2.6606 3.1413 1002.3 -0.0037664 85.707 0.11708
276.38 14519. undefined 826.87 1042.1 2.5791 465.00 0.0021505 826.87 1042.1 2.5791 2.6641 3.1440 1003.4 -0.0037697 85.726 0.11725 465.00 0.0021505 826.87 1042.1 2.5791 2.6641 3.1440 1003.4 -0.0037697 85.726 0.11725
277.38 14577. undefined 829.53 1045.7 2.5840 465.00 0.0021505 829.53 1045.7 2.5840 2.6677 3.1467 1004.6 -0.0037729 85.745 0.11742 465.00 0.0021505 829.53 1045.7 2.5840 2.6677 3.1467 1004.6 -0.0037729 85.745 0.11742
278.38 14635. undefined 832.20 1049.2 2.5888 465.00 0.0021505 832.20 1049.2 2.5888 2.6712 3.1493 1005.7 -0.0037760 85.765 0.11759 465.00 0.0021505 832.20 1049.2 2.5888 2.6712 3.1493 1005.7 -0.0037760 85.765 0.11759
279.38 14694. undefined 834.88 1052.7 2.5937 465.00 0.0021505 834.88 1052.7 2.5937 2.6748 3.1520 1006.8 -0.0037792 85.784 0.11776 465.00 0.0021505 834.88 1052.7 2.5937 2.6748 3.1520 1006.8 -0.0037792 85.784 0.11776
280.38 14752. undefined 837.55 1056.3 2.5985 465.00 0.0021505 837.55 1056.3 2.5985 2.6783 3.1547 1008.0 -0.0037823 85.803 0.11792 465.00 0.0021505 837.55 1056.3 2.5985 2.6783 3.1547 1008.0 -0.0037823 85.803 0.11792
281.38 14810. undefined 840.23 1059.8 2.6033 465.00 0.0021505 840.23 1059.8 2.6033 2.6818 3.1574 1009.1 -0.0037853 85.823 0.11809 465.00 0.0021505 840.23 1059.8 2.6033 2.6818 3.1574 1009.1 -0.0037853 85.823 0.11809
282.38 14868. undefined 842.92 1063.4 2.6082 465.00 0.0021505 842.92 1063.4 2.6082 2.6854 3.1601 1010.2 -0.0037883 85.842 0.11790 465.00 0.0021505 842.92 1063.4 2.6082 2.6854 3.1601 1010.2 -0.0037883 85.842 0.11790
283.38 14926. undefined 845.60 1066.9 2.6130 465.00 0.0021505 845.60 1066.9 2.6130 2.6889 3.1628 1011.3 -0.0037912 85.861 0.11807 465.00 0.0021505 845.60 1066.9 2.6130 2.6889 3.1628 1011.3 -0.0037912 85.861 0.11807
284.38 14984. undefined 848.29 1070.5 2.6178 465.00 0.0021505 848.29 1070.5 2.6178 2.6924 3.1655 1012.5 -0.0037941 85.881 0.11824 465.00 0.0021505 848.29 1070.5 2.6178 2.6924 3.1655 1012.5 -0.0037941 85.881 0.11824
285.38 15042. undefined 850.99 1074.0 2.6227 465.00 0.0021505 850.99 1074.0 2.6227 2.6959 3.1681 1013.6 -0.0037970 85.900 0.11841 465.00 0.0021505 850.99 1074.0 2.6227 2.6959 3.1681 1013.6 -0.0037970 85.900 0.11841
286.38 15100. undefined 853.68 1077.6 2.6275 465.00 0.0021505 853.68 1077.6 2.6275 2.6994 3.1708 1014.7 -0.0037998 85.919 0.11858 465.00 0.0021505 853.68 1077.6 2.6275 2.6994 3.1708 1014.7 -0.0037998 85.919 0.11858
287.38 15158. undefined 856.39 1081.1 2.6323 465.00 0.0021505 856.39 1081.1 2.6323 2.7029 3.1735 1015.8 -0.0038026 85.939 0.11875 465.00 0.0021505 856.39 1081.1 2.6323 2.7029 3.1735 1015.8 -0.0038026 85.939 0.11875
288.38 15216. undefined 859.09 1084.7 2.6371 465.00 0.0021505 859.09 1084.7 2.6371 2.7064 3.1762 1016.9 -0.0038054 85.958 0.11892 465.00 0.0021505 859.09 1084.7 2.6371 2.7064 3.1762 1016.9 -0.0038054 85.958 0.11892
289.38 15274. undefined 861.80 1088.3 2.6420 465.00 0.0021505 861.80 1088.3 2.6420 2.7099 3.1789 1018.0 -0.0038081 85.977 0.11909 465.00 0.0021505 861.80 1088.3 2.6420 2.7099 3.1789 1018.0 -0.0038081 85.977 0.11909
290.38 15331. undefined 864.51 1091.8 2.6468 465.00 0.0021505 864.51 1091.8 2.6468 2.7134 3.1816 1019.1 -0.0038107 85.997 0.11926 465.00 0.0021505 864.51 1091.8 2.6468 2.7134 3.1816 1019.1 -0.0038107 85.997 0.11926
291.38 15389. undefined 867.23 1095.4 2.6516 465.00 0.0021505 867.23 1095.4 2.6516 2.7169 3.1842 1020.2 -0.0038133 86.016 0.11943 465.00 0.0021505 867.23 1095.4 2.6516 2.7169 3.1842 1020.2 -0.0038133 86.016 0.11943
292.38 15447. undefined 869.94 1099.0 2.6564 465.00 0.0021505 869.94 1099.0 2.6564 2.7204 3.1869 1021.3 -0.0038159 86.035 0.11960 465.00 0.0021505 869.94 1099.0 2.6564 2.7204 3.1869 1021.3 -0.0038159 86.035 0.11960
293.38 15505. undefined 872.67 1102.6 2.6612 465.00 0.0021505 872.67 1102.6 2.6612 2.7238 3.1896 1022.5 -0.0038185 86.054 0.11977 465.00 0.0021505 872.67 1102.6 2.6612 2.7238 3.1896 1022.5 -0.0038185 86.054 0.11977
294.38 15563. undefined 875.39 1106.1 2.6660 465.00 0.0021505 875.39 1106.1 2.6660 2.7273 3.1923 1023.6 -0.0038210 86.074 0.11994 465.00 0.0021505 875.39 1106.1 2.6660 2.7273 3.1923 1023.6 -0.0038210 86.074 0.11994
295.38 15620. undefined 878.12 1109.7 2.6708 465.00 0.0021505 878.12 1109.7 2.6708 2.7308 3.1950 1024.6 -0.0038235 86.093 0.12012 465.00 0.0021505 878.12 1109.7 2.6708 2.7308 3.1950 1024.6 -0.0038235 86.093 0.12012
296.38 15678. undefined 880.85 1113.3 2.6756 465.00 0.0021505 880.85 1113.3 2.6756 2.7342 3.1976 1025.7 -0.0038259 86.112 0.12029 465.00 0.0021505 880.85 1113.3 2.6756 2.7342 3.1976 1025.7 -0.0038259 86.112 0.12029
297.38 15736. undefined 883.59 1116.9 2.6804 465.00 0.0021505 883.59 1116.9 2.6804 2.7377 3.2003 1026.8 -0.0038283 86.131 0.12046 465.00 0.0021505 883.59 1116.9 2.6804 2.7377 3.2003 1026.8 -0.0038283 86.131 0.12046
298.38 15794. undefined 886.33 1120.5 2.6852 465.00 0.0021505 886.33 1120.5 2.6852 2.7411 3.2030 1027.9 -0.0038307 86.151 0.12063 465.00 0.0021505 886.33 1120.5 2.6852 2.7411 3.2030 1027.9 -0.0038307 86.151 0.12063
299.38 15851. undefined 889.07 1124.1 2.6900 465.00 0.0021505 889.07 1124.1 2.6900 2.7446 3.2057 1029.0 -0.0038330 86.170 0.12081 465.00 0.0021505 889.07 1124.1 2.6900 2.7446 3.2057 1029.0 -0.0038330 86.170 0.12081
300.38 15909. undefined 891.82 1127.7 2.6948 465.00 0.0021505 891.82 1127.7 2.6948 2.7480 3.2083 1030.1 -0.0038353 86.189 0.12098 465.00 0.0021505 891.82 1127.7 2.6948 2.7480 3.2083 1030.1 -0.0038353 86.189 0.12098