Temperature (C) Pressure (psia) Quality (l+v) Internal Energy (l+v, kJ/kg) Enthalpy (l+v, kJ/kg) Entropy (l+v, J/g*K) Density (l, kg/m3) Volume (l, m3/kg) Internal Energy (l, kJ/kg) Enthalpy (l, kJ/kg) Entropy (l, J/g*K) Cv (l, J/g*K) Cp (l, J/g*K) Sound Spd. (l, m/s) Joule-Thomson (l, F/psia) Viscosity (l, uPa*s) Therm. Cond. (l, W/m*K) Density (v, kg/m3) Volume (v, m3/kg) Internal Energy (v, kJ/kg) Enthalpy (v, kJ/kg) Entropy (v, J/g*K) Cv (v, J/g*K) Cp (v, J/g*K) Sound Spd. (v, m/s) Joule-Thomson (v, F/psia) Viscosity (v, uPa*s) Therm. Cond. (v, W/m*K)
-187.62 2.4953e-08 2.1192e-09 -196.64 -196.64 -1.3959 733.13 0.0013640 -196.64 -196.64 -1.3959 1.3553 1.9158 2136.4 -0.0077592 10960. 0.20792 1.0669e-08 9.3732e+07 350.13 366.26 5.1858 0.69067 0.87923 143.28 6.1051 2.3259 0.0017061
-186.62 3.7339e-08 3.1344e-09 -194.73 -194.73 -1.3736 732.08 0.0013660 -194.73 -194.73 -1.3736 1.3539 1.9166 2129.6 -0.0077546 10073. 0.20765 1.5780e-08 6.3371e+07 350.82 367.14 5.1200 0.69462 0.88317 144.03 5.9178 2.3534 0.0017533
-185.62 5.5322e-08 4.5909e-09 -192.81 -192.81 -1.3516 731.04 0.0013679 -192.81 -192.81 -1.3516 1.3525 1.9174 2122.9 -0.0077498 9276.1 0.20737 2.3112e-08 4.3267e+07 351.52 368.02 5.0561 0.69857 0.88713 144.77 5.7383 2.3808 0.0018007
-184.62 8.1182e-08 6.6607e-09 -190.89 -190.89 -1.3298 730.00 0.0013699 -190.89 -190.89 -1.3298 1.3513 1.9182 2116.1 -0.0077448 8557.8 0.20708 3.3533e-08 2.9821e+07 352.22 368.91 4.9939 0.70253 0.89108 145.51 5.5662 2.4083 0.0018485
-183.62 1.1803e-07 9.5760e-09 -188.97 -188.97 -1.3083 728.96 0.0013718 -188.97 -188.97 -1.3083 1.3501 1.9191 2109.3 -0.0077395 7909.8 0.20678 4.8211e-08 2.0742e+07 352.92 369.81 4.9333 0.70648 0.89504 146.24 5.4011 2.4357 0.0018965
-182.62 1.7009e-07 1.3646e-08 -187.05 -187.05 -1.2869 727.92 0.0013738 -187.05 -187.05 -1.2869 1.3490 1.9201 2102.5 -0.0077340 7324.3 0.20647 6.8704e-08 1.4555e+07 353.63 370.70 4.8744 0.71043 0.89899 146.97 5.2426 2.4632 0.0019448
-181.62 2.4299e-07 1.9282e-08 -185.13 -185.13 -1.2658 726.88 0.0013757 -185.13 -185.13 -1.2658 1.3480 1.9210 2095.7 -0.0077283 6794.5 0.20616 9.7079e-08 1.0301e+07 354.35 371.60 4.8170 0.71438 0.90294 147.69 5.0904 2.4906 0.0019934
-180.62 3.4425e-07 2.7022e-08 -183.21 -183.21 -1.2450 725.85 0.0013777 -183.21 -183.21 -1.2450 1.3470 1.9220 2088.9 -0.0077225 6314.4 0.20584 1.3605e-07 7.3504e+06 355.06 372.51 4.7612 0.71833 0.90688 148.41 4.9442 2.5181 0.0020423
-179.62 4.8378e-07 3.7569e-08 -181.29 -181.29 -1.2243 724.81 0.0013797 -181.29 -181.29 -1.2243 1.3461 1.9231 2082.0 -0.0077164 5878.8 0.20551 1.8915e-07 5.2868e+06 355.78 373.42 4.7068 0.72227 0.91082 149.13 4.8038 2.5456 0.0020915
-178.62 6.7459e-07 5.1832e-08 -179.37 -179.37 -1.2038 723.78 0.0013816 -179.37 -179.37 -1.2038 1.3453 1.9241 2075.2 -0.0077102 5482.9 0.20517 2.6096e-07 3.8320e+06 356.51 374.33 4.6538 0.72620 0.91475 149.84 4.6688 2.5731 0.0021410
-177.62 9.3358e-07 7.0979e-08 -177.44 -177.44 -1.1836 722.75 0.0013836 -177.44 -177.44 -1.1836 1.3445 1.9252 2068.4 -0.0077039 5122.6 0.20483 3.5737e-07 2.7982e+06 357.23 375.25 4.6022 0.73012 0.91867 150.54 4.5390 2.6005 0.0021907
-176.62 1.2826e-06 9.6503e-08 -175.52 -175.52 -1.1635 721.72 0.0013856 -175.52 -175.52 -1.1635 1.3437 1.9263 2061.5 -0.0076973 4794.1 0.20447 4.8588e-07 2.0581e+06 357.97 376.17 4.5519 0.73403 0.92258 151.25 4.4142 2.6280 0.0022408
-175.62 1.7496e-06 1.3029e-07 -173.59 -173.59 -1.1437 720.69 0.0013876 -173.59 -173.59 -1.1437 1.3430 1.9274 2054.7 -0.0076907 4494.3 0.20411 6.5601e-07 1.5244e+06 358.70 377.09 4.5029 0.73792 0.92648 151.95 4.2941 2.6555 0.0022912
-174.62 2.3705e-06 1.7473e-07 -171.66 -171.66 -1.1240 719.66 0.0013895 -171.66 -171.66 -1.1240 1.3423 1.9286 2047.9 -0.0076838 4220.2 0.20375 8.7976e-07 1.1367e+06 359.44 378.02 4.4551 0.74181 0.93036 152.64 4.1784 2.6830 0.0023418
-173.62 3.1903e-06 2.3280e-07 -169.73 -169.73 -1.1045 718.64 0.0013915 -169.73 -169.73 -1.1045 1.3417 1.9298 2041.0 -0.0076769 3969.3 0.20338 1.1721e-06 8.5314e+05 360.19 378.95 4.4085 0.74568 0.93423 153.33 4.0671 2.7105 0.0023928
-172.62 4.2661e-06 3.0820e-07 -167.80 -167.80 -1.0852 717.61 0.0013935 -167.80 -167.80 -1.0852 1.3411 1.9310 2034.2 -0.0076698 3739.3 0.20300 1.5518e-06 6.4441e+05 360.93 379.89 4.3631 0.74953 0.93809 154.02 3.9599 2.7379 0.0024440
-171.62 5.6692e-06 4.0553e-07 -165.87 -165.87 -1.0661 716.58 0.0013955 -165.87 -165.87 -1.0661 1.3405 1.9322 2027.3 -0.0076625 3528.0 0.20261 2.0419e-06 4.8974e+05 361.69 380.83 4.3188 0.75337 0.94193 154.71 3.8566 2.7654 0.0024955
-170.62 7.4884e-06 5.3043e-07 -163.94 -163.94 -1.0472 715.56 0.0013975 -163.94 -163.94 -1.0472 1.3400 1.9334 2020.5 -0.0076552 3333.8 0.20222 2.6708e-06 3.7442e+05 362.44 381.77 4.2755 0.75720 0.94575 155.39 3.7570 2.7929 0.0025473
-169.62 9.8334e-06 6.8980e-07 -162.00 -162.00 -1.0284 714.54 0.0013995 -162.00 -162.00 -1.0284 1.3395 1.9347 2013.6 -0.0076477 3154.9 0.20182 3.4733e-06 2.8791e+05 363.20 382.72 4.2334 0.76100 0.94956 156.07 3.6609 2.8204 0.0025994
-168.62 1.2839e-05 8.9204e-07 -160.07 -160.07 -1.0098 713.52 0.0014015 -160.07 -160.07 -1.0098 1.3390 1.9359 2006.8 -0.0076401 2989.9 0.20141 4.4917e-06 2.2263e+05 363.96 383.67 4.1922 0.76479 0.95335 156.74 3.5683 2.8479 0.0026518
-167.62 1.6672e-05 1.1473e-06 -158.13 -158.13 -0.99133 712.49 0.0014035 -158.13 -158.13 -0.99134 1.3386 1.9372 2000.0 -0.0076323 2837.5 0.20100 5.7771e-06 1.7310e+05 364.73 384.63 4.1521 0.76856 0.95712 157.41 3.4790 2.8754 0.0027045
-166.62 2.1533e-05 1.4679e-06 -156.19 -156.19 -0.97305 711.47 0.0014055 -156.19 -156.19 -0.97306 1.3382 1.9385 1993.1 -0.0076245 2696.5 0.20058 7.3914e-06 1.3529e+05 365.50 385.59 4.1129 0.77232 0.96087 158.08 3.3927 2.9029 0.0027575
-165.62 2.7666e-05 1.8684e-06 -154.25 -154.25 -0.95493 710.45 0.0014075 -154.25 -154.25 -0.95494 1.3378 1.9398 1986.3 -0.0076165 2566.0 0.20016 9.4084e-06 1.0629e+05 366.27 386.55 4.0746 0.77605 0.96460 158.75 3.3095 2.9304 0.0028108
-164.62 3.5367e-05 2.3665e-06 -152.31 -152.31 -0.93697 709.44 0.0014096 -152.31 -152.31 -0.93698 1.3375 1.9411 1979.4 -0.0076084 2444.9 0.19973 1.1916e-05 83918. 367.05 387.52 4.0372 0.77976 0.96832 159.41 3.2291 2.9579 0.0028643
-163.62 4.4989e-05 2.9828e-06 -150.37 -150.37 -0.91916 708.42 0.0014116 -150.37 -150.37 -0.91917 1.3371 1.9424 1972.6 -0.0076002 2332.3 0.19930 1.5020e-05 66577. 367.83 388.49 4.0008 0.78346 0.97201 160.07 3.1514 2.9854 0.0029182
-162.62 5.6956e-05 3.7421e-06 -148.43 -148.43 -0.90149 707.40 0.0014136 -148.43 -148.43 -0.90151 1.3368 1.9437 1965.8 -0.0075919 2227.7 0.19886 1.8844e-05 53068. 368.62 389.46 3.9651 0.78713 0.97569 160.72 3.0764 3.0129 0.0029723
-161.62 7.1773e-05 4.6732e-06 -146.48 -146.48 -0.88397 706.38 0.0014157 -146.48 -146.48 -0.88400 1.3365 1.9451 1959.0 -0.0075834 2130.2 0.19841 2.3533e-05 42494. 369.41 390.44 3.9304 0.79079 0.97935 161.38 3.0038 3.0404 0.0030268
-160.62 9.0036e-05 5.8102e-06 -144.54 -144.54 -0.86660 705.37 0.0014177 -144.54 -144.54 -0.86663 1.3363 1.9465 1952.1 -0.0075748 2039.2 0.19796 2.9258e-05 34178. 370.20 391.42 3.8964 0.79443 0.98298 162.03 2.9337 3.0679 0.0030815
-159.62 0.00011245 7.1927e-06 -142.59 -142.59 -0.84937 704.35 0.0014197 -142.59 -142.59 -0.84940 1.3360 1.9478 1945.3 -0.0075661 1954.2 0.19751 3.6221e-05 27609. 371.00 392.40 3.8632 0.79805 0.98660 162.68 2.8658 3.0955 0.0031365
-158.62 0.00013985 8.8669e-06 -140.64 -140.64 -0.83227 703.34 0.0014218 -140.64 -140.64 -0.83231 1.3358 1.9492 1938.5 -0.0075573 1874.8 0.19705 4.4652e-05 22395. 371.80 393.39 3.8307 0.80164 0.99020 163.32 2.8002 3.1230 0.0031918
-157.62 0.00017320 1.0886e-05 -138.69 -138.69 -0.81531 702.32 0.0014238 -138.69 -138.69 -0.81536 1.3356 1.9506 1931.7 -0.0075484 1800.3 0.19658 5.4822e-05 18241. 372.60 394.38 3.7990 0.80522 0.99378 163.96 2.7367 3.1505 0.0032474
-156.62 0.00021364 1.3312e-05 -136.73 -136.73 -0.79848 701.31 0.0014259 -136.74 -136.74 -0.79854 1.3354 1.9520 1924.9 -0.0075393 1730.5 0.19611 6.7040e-05 14916. 373.41 395.38 3.7680 0.80878 0.99734 164.60 2.6752 3.1780 0.0033033
-155.62 0.00026248 1.6217e-05 -134.78 -134.78 -0.78178 700.30 0.0014280 -134.79 -134.79 -0.78185 1.3352 1.9534 1918.1 -0.0075302 1664.9 0.19564 8.1666e-05 12245. 374.22 396.38 3.7377 0.81232 1.0009 165.24 2.6157 3.2055 0.0033595
-154.62 0.00032125 1.9680e-05 -132.82 -132.82 -0.76521 699.29 0.0014300 -132.83 -132.83 -0.76530 1.3350 1.9548 1911.3 -0.0075209 1603.3 0.19516 9.9109e-05 10090. 375.03 397.38 3.7081 0.81585 1.0044 165.87 2.5580 3.2330 0.0034160
-153.62 0.00039171 2.3796e-05 -130.87 -130.87 -0.74876 698.27 0.0014321 -130.88 -130.88 -0.74887 1.3349 1.9563 1904.5 -0.0075114 1545.3 0.19468 0.00011984 8344.6 375.85 398.39 3.6792 0.81935 1.0079 166.50 2.5022 3.2606 0.0034727
-152.62 0.00047590 2.8670e-05 -128.91 -128.91 -0.73244 697.26 0.0014342 -128.92 -128.92 -0.73256 1.3348 1.9577 1897.8 -0.0075019 1490.6 0.19419 0.00014439 6925.9 376.67 399.40 3.6509 0.82284 1.0114 167.13 2.4481 3.2881 0.0035298
-151.62 0.00057613 3.4423e-05 -126.95 -126.95 -0.71623 696.25 0.0014363 -126.96 -126.96 -0.71638 1.3346 1.9592 1891.0 -0.0074922 1438.9 0.19370 0.00017336 5768.4 377.49 400.41 3.6232 0.82631 1.0149 167.76 2.3957 3.3156 0.0035872
-150.62 0.00069507 4.1189e-05 -124.98 -124.98 -0.70014 695.24 0.0014384 -125.00 -125.00 -0.70032 1.3345 1.9606 1884.2 -0.0074824 1390.2 0.19320 0.00020744 4820.7 378.32 401.42 3.5962 0.82976 1.0183 168.38 2.3448 3.3431 0.0036448
-149.62 0.00083574 4.9124e-05 -123.02 -123.02 -0.68417 694.23 0.0014404 -123.04 -123.04 -0.68438 1.3345 1.9621 1877.4 -0.0074724 1344.0 0.19270 0.00024740 4042.0 379.15 402.44 3.5697 0.83319 1.0218 169.00 2.2956 3.3706 0.0037027
-148.62 0.0010016 5.8399e-05 -121.05 -121.05 -0.66830 693.22 0.0014425 -121.08 -121.08 -0.66855 1.3344 1.9636 1870.7 -0.0074623 1300.3 0.19220 0.00029412 3400.0 379.99 403.47 3.5438 0.83661 1.0252 169.62 2.2478 3.3982 0.0037610
-147.62 0.0011965 6.9208e-05 -119.08 -119.08 -0.65255 692.21 0.0014447 -119.11 -119.11 -0.65284 1.3343 1.9651 1863.9 -0.0074521 1258.9 0.19169 0.00034856 2869.0 380.83 404.49 3.5185 0.84001 1.0286 170.24 2.2014 3.4257 0.0038195
-146.62 0.0014249 8.1767e-05 -117.11 -117.11 -0.63690 691.20 0.0014468 -117.15 -117.15 -0.63724 1.3343 1.9666 1857.2 -0.0074417 1219.6 0.19117 0.00041181 2428.3 381.67 405.52 3.4938 0.84340 1.0320 170.85 2.1565 3.4532 0.0038783
-145.62 0.0016917 9.6317e-05 -115.13 -115.13 -0.62136 690.19 0.0014489 -115.18 -115.18 -0.62175 1.3343 1.9682 1850.4 -0.0074312 1182.3 0.19066 0.00048510 2061.4 382.51 406.56 3.4695 0.84677 1.0353 171.46 2.1128 3.4807 0.0039374
-144.62 0.0020026 0.00011313 -113.16 -113.15 -0.60591 689.18 0.0014510 -113.21 -113.21 -0.60637 1.3343 1.9697 1843.7 -0.0074206 1146.8 0.19014 0.00056976 1755.1 383.36 407.59 3.4458 0.85012 1.0387 172.07 2.0705 3.5082 0.0039967
-143.62 0.0023637 0.00013249 -111.18 -111.17 -0.59057 688.17 0.0014531 -111.24 -111.24 -0.59110 1.3343 1.9713 1836.9 -0.0074098 1113.0 0.18962 0.00066731 1498.6 384.21 408.63 3.4226 0.85346 1.0420 172.68 2.0294 3.5358 0.0040564
-142.62 0.0027820 0.00015474 -109.19 -109.19 -0.57532 687.16 0.0014553 -109.27 -109.27 -0.57593 1.3343 1.9728 1830.2 -0.0073988 1080.8 0.18909 0.00077939 1283.1 385.07 409.68 3.3999 0.85679 1.0454 173.28 1.9896 3.5633 0.0041164
-141.62 0.0032653 0.00018025 -107.21 -107.20 -0.56016 686.15 0.0014574 -107.30 -107.30 -0.56087 1.3343 1.9744 1823.5 -0.0073878 1050.1 0.18856 0.00090784 1101.5 385.93 410.72 3.3777 0.86011 1.0487 173.88 1.9508 3.5908 0.0041766
-140.62 0.0038222 0.00020940 -105.22 -105.21 -0.54509 685.14 0.0014596 -105.32 -105.32 -0.54591 1.3344 1.9760 1816.7 -0.0073765 1020.7 0.18803 0.0010547 948.16 386.79 411.77 3.3560 0.86341 1.0520 174.48 1.9133 3.6183 0.0042372
-139.62 0.0044623 0.00024263 -103.23 -103.22 -0.53011 684.13 0.0014617 -103.34 -103.34 -0.53105 1.3344 1.9776 1810.0 -0.0073651 992.74 0.18749 0.0012221 818.26 387.65 412.83 3.3347 0.86670 1.0553 175.08 1.8768 3.6459 0.0042980
-138.62 0.0051963 0.00028044 -101.23 -101.22 -0.51521 683.12 0.0014639 -101.37 -101.37 -0.51629 1.3345 1.9792 1803.3 -0.0073536 965.97 0.18695 0.0014125 707.94 388.52 413.88 3.3139 0.86998 1.0586 175.67 1.8413 3.6734 0.0043592
-137.62 0.0060358 0.00032335 -99.228 -99.220 -0.50039 682.11 0.0014660 -99.386 -99.386 -0.50162 1.3346 1.9808 1796.6 -0.0073419 940.35 0.18641 0.0016287 614.00 389.39 414.94 3.2935 0.87325 1.0619 176.26 1.8069 3.7009 0.0044206
-136.62 0.0069938 0.00037192 -97.223 -97.213 -0.48565 681.10 0.0014682 -97.404 -97.404 -0.48705 1.3347 1.9825 1789.9 -0.0073301 915.81 0.18586 0.0018733 533.80 390.26 416.00 3.2735 0.87650 1.0651 176.85 1.7734 3.7284 0.0044823
-135.62 0.0080843 0.00042679 -95.213 -95.202 -0.47099 680.09 0.0014704 -95.421 -95.421 -0.47258 1.3348 1.9841 1783.2 -0.0073180 892.30 0.18531 0.0021497 465.17 391.14 417.07 3.2540 0.87975 1.0684 177.44 1.7409 3.7559 0.0045443
-134.62 0.0093230 0.00048863 -93.199 -93.186 -0.45639 679.08 0.0014726 -93.436 -93.436 -0.45820 1.3350 1.9858 1776.5 -0.0073059 869.75 0.18476 0.0024613 406.30 392.02 418.14 3.2348 0.88299 1.0716 178.02 1.7093 3.7834 0.0046066
-133.62 0.010727 0.00055818 -91.179 -91.164 -0.44187 678.07 0.0014748 -91.450 -91.449 -0.44391 1.3351 1.9875 1769.8 -0.0072935 848.11 0.18421 0.0028116 355.67 392.91 419.21 3.2161 0.88622 1.0749 178.61 1.6786 3.8109 0.0046691
-132.62 0.012315 0.00063624 -89.154 -89.137 -0.42740 677.06 0.0014770 -89.461 -89.461 -0.42971 1.3353 1.9892 1763.1 -0.0072810 827.32 0.18365 0.0032049 312.03 393.79 420.29 3.1977 0.88944 1.0781 179.19 1.6488 3.8385 0.0047320
-131.62 0.014106 0.00072366 -87.122 -87.103 -0.41300 676.04 0.0014792 -87.471 -87.471 -0.41560 1.3354 1.9909 1756.4 -0.0072684 807.34 0.18309 0.0036453 274.33 394.68 421.36 3.1798 0.89266 1.0813 179.76 1.6197 3.8660 0.0047951
-130.62 0.016124 0.00082138 -85.084 -85.062 -0.39865 675.03 0.0014814 -85.479 -85.479 -0.40157 1.3356 1.9926 1749.7 -0.0072555 788.12 0.18253 0.0041375 241.69 395.58 422.44 3.1622 0.89586 1.0846 180.34 1.5915 3.8935 0.0048586
-129.62 0.018392 0.00093039 -83.039 -83.014 -0.38435 674.02 0.0014836 -83.486 -83.486 -0.38763 1.3358 1.9944 1743.0 -0.0072425 769.63 0.18196 0.0046867 213.37 396.47 423.53 3.1450 0.89906 1.0878 180.91 1.5641 3.9210 0.0049223
-128.62 0.020935 0.0010518 -80.987 -80.958 -0.37010 673.01 0.0014859 -81.491 -81.490 -0.37378 1.3360 1.9961 1736.3 -0.0072294 751.83 0.18140 0.0052981 188.75 397.37 424.62 3.1281 0.90226 1.0910 181.48 1.5374 3.9485 0.0049863
-127.62 0.023783 0.0011866 -78.927 -78.894 -0.35589 672.00 0.0014881 -79.494 -79.493 -0.36001 1.3363 1.9979 1729.6 -0.0072160 734.67 0.18083 0.0059776 167.29 398.27 425.71 3.1116 0.90545 1.0942 182.05 1.5114 3.9760 0.0050506
-126.62 0.026966 0.0013363 -76.858 -76.821 -0.34172 670.98 0.0014904 -77.495 -77.495 -0.34632 1.3365 1.9997 1722.9 -0.0072025 718.14 0.18025 0.0067313 148.56 399.18 426.80 3.0954 0.90863 1.0974 182.62 1.4861 4.0035 0.0051152
-125.62 0.030515 0.0015019 -74.780 -74.738 -0.32759 669.97 0.0014926 -75.494 -75.494 -0.33272 1.3368 2.0015 1716.2 -0.0071888 702.18 0.17968 0.0075660 132.17 400.09 427.89 3.0795 0.91181 1.1006 183.18 1.4615 4.0310 0.0051800
-124.62 0.034467 0.0016850 -72.692 -72.645 -0.31349 668.95 0.0014949 -73.492 -73.492 -0.31919 1.3371 2.0033 1709.5 -0.0071749 686.79 0.17910 0.0084885 117.81 401.00 428.99 3.0640 0.91499 1.1038 183.74 1.4375 4.0584 0.0052452
-123.62 0.038859 0.0018871 -70.594 -70.541 -0.29941 667.94 0.0014971 -71.488 -71.487 -0.30574 1.3374 2.0051 1702.8 -0.0071609 671.93 0.17852 0.0095065 105.19 401.91 430.10 3.0488 0.91816 1.1070 184.30 1.4141 4.0859 0.0053106
-122.62 0.043731 0.0021097 -68.485 -68.425 -0.28535 666.92 0.0014994 -69.482 -69.481 -0.29237 1.3377 2.0070 1696.2 -0.0071466 657.57 0.17794 0.010628 94.092 402.83 431.20 3.0339 0.92134 1.1102 184.86 1.3913 4.1134 0.0053764
-121.62 0.049128 0.0023545 -66.364 -66.296 -0.27131 665.91 0.0015017 -67.474 -67.473 -0.27907 1.3380 2.0089 1689.5 -0.0071322 643.70 0.17736 0.011861 84.309 403.75 432.31 3.0193 0.92451 1.1134 185.41 1.3691 4.1409 0.0054424
-120.62 0.055096 0.0026233 -64.231 -64.155 -0.25727 664.89 0.0015040 -65.464 -65.463 -0.26585 1.3384 2.0107 1682.8 -0.0071176 630.28 0.17678 0.013215 75.669 404.67 433.42 3.0050 0.92767 1.1166 185.96 1.3475 4.1683 0.0055087
-119.62 0.061684 0.0029179 -62.084 -61.999 -0.24324 663.87 0.0015063 -63.452 -63.452 -0.25271 1.3387 2.0126 1676.1 -0.0071028 617.30 0.17619 0.014700 68.027 405.60 434.53 2.9909 0.93084 1.1198 186.51 1.3264 4.1958 0.0055752
-118.62 0.068946 0.0032405 -59.922 -59.827 -0.22921 662.86 0.0015086 -61.439 -61.438 -0.23963 1.3391 2.0146 1669.4 -0.0070878 604.74 0.17560 0.016325 61.255 406.53 435.64 2.9772 0.93401 1.1231 187.06 1.3058 4.2233 0.0056421
-117.62 0.076937 0.0035930 -57.746 -57.640 -0.21517 661.84 0.0015109 -59.423 -59.422 -0.22663 1.3395 2.0165 1662.8 -0.0070726 592.58 0.17501 0.018101 55.245 407.46 436.76 2.9638 0.93718 1.1263 187.60 1.2857 4.2507 0.0057092
-116.62 0.085718 0.0039777 -55.553 -55.435 -0.20112 660.82 0.0015133 -57.406 -57.405 -0.21370 1.3400 2.0184 1656.1 -0.0070573 580.80 0.17442 0.020040 49.901 408.39 437.88 2.9506 0.94035 1.1295 188.14 1.2660 4.2782 0.0057767
-115.62 0.095353 0.0043970 -53.343 -53.211 -0.18704 659.80 0.0015156 -55.386 -55.385 -0.20084 1.3404 2.0204 1649.4 -0.0070417 569.38 0.17383 0.022152 45.142 409.33 439.01 2.9377 0.94352 1.1327 188.68 1.2468 4.3056 0.0058444
-114.62 0.10591 0.0048533 -51.115 -50.969 -0.17294 658.78 0.0015180 -53.365 -53.364 -0.18805 1.3409 2.0224 1642.7 -0.0070260 558.32 0.17323 0.024451 40.898 410.27 440.13 2.9250 0.94669 1.1360 189.22 1.2281 4.3330 0.0059123
-113.62 0.11746 0.0053491 -48.867 -48.705 -0.15881 657.76 0.0015203 -51.342 -51.340 -0.17533 1.3413 2.0244 1636.0 -0.0070100 547.59 0.17264 0.026949 37.107 411.21 441.26 2.9126 0.94987 1.1392 189.75 1.2097 4.3604 0.0059806
-112.62 0.13008 0.0058873 -46.599 -46.420 -0.14464 656.73 0.0015227 -49.316 -49.315 -0.16267 1.3418 2.0264 1629.3 -0.0069938 537.18 0.17204 0.029661 33.715 412.16 442.39 2.9005 0.95305 1.1424 190.28 1.1918 4.3879 0.0060491
-111.62 0.14384 0.0064705 -44.310 -44.111 -0.13042 655.71 0.0015251 -47.289 -47.287 -0.15008 1.3424 2.0285 1622.7 -0.0069774 527.08 0.17144 0.032600 30.675 413.10 443.53 2.8885 0.95623 1.1457 190.81 1.1742 4.4153 0.0061180
-110.62 0.15884 0.0071019 -41.997 -41.778 -0.11614 654.69 0.0015274 -45.259 -45.258 -0.13755 1.3429 2.0305 1616.0 -0.0069609 517.28 0.17084 0.035781 27.948 414.06 444.66 2.8769 0.95942 1.1490 191.34 1.1570 4.4427 0.0061871
-109.62 0.17516 0.0077844 -39.661 -39.419 -0.10181 653.66 0.0015298 -43.228 -43.226 -0.12509 1.3435 2.0326 1609.3 -0.0069441 507.76 0.17024 0.039220 25.497 415.01 445.80 2.8654 0.96261 1.1522 191.86 1.1402 4.4701 0.0062564
-108.62 0.19290 0.0085213 -37.299 -37.033 -0.087411 652.64 0.0015322 -41.194 -41.192 -0.11269 1.3441 2.0347 1602.6 -0.0069271 498.51 0.16964 0.042933 23.292 415.96 446.94 2.8542 0.96581 1.1555 192.38 1.1236 4.4974 0.0063261
-107.62 0.21215 0.0093160 -34.909 -34.617 -0.072934 651.61 0.0015347 -39.158 -39.156 -0.10036 1.3447 2.0369 1595.9 -0.0069098 489.52 0.16903 0.046937 21.305 416.92 448.09 2.8433 0.96901 1.1588 192.90 1.1075 4.5248 0.0063960
-106.62 0.23301 0.010172 -32.492 -32.171 -0.058374 650.58 0.0015371 -37.120 -37.118 -0.088082 1.3453 2.0390 1589.2 -0.0068924 480.79 0.16843 0.051250 19.512 417.88 449.23 2.8325 0.97222 1.1621 193.41 1.0916 4.5522 0.0064662
-105.62 0.25561 0.011093 -30.045 -29.693 -0.043723 649.55 0.0015395 -35.080 -35.078 -0.075868 1.3460 2.0412 1582.6 -0.0068747 472.30 0.16782 0.055891 17.892 418.85 450.38 2.8220 0.97544 1.1655 193.93 1.0760 4.5795 0.0065367
-104.62 0.28004 0.012083 -27.567 -27.180 -0.028972 648.52 0.0015420 -33.038 -33.035 -0.063714 1.3467 2.0434 1575.9 -0.0068569 464.04 0.16721 0.060878 16.426 419.81 451.53 2.8116 0.97867 1.1688 194.44 1.0608 4.6069 0.0066074
-103.62 0.30643 0.013145 -25.055 -24.633 -0.014114 647.49 0.0015444 -30.994 -30.991 -0.051619 1.3474 2.0456 1569.2 -0.0068387 456.00 0.16660 0.066231 15.099 420.78 452.68 2.8015 0.98191 1.1722 194.94 1.0458 4.6342 0.0066785
-102.62 0.33490 0.014285 -22.509 -22.047 0.00085986 646.46 0.0015469 -28.947 -28.944 -0.039582 1.3481 2.0478 1562.5 -0.0068204 448.18 0.16600 0.071971 13.894 421.75 453.84 2.7916 0.98516 1.1755 195.44 1.0310 4.6615 0.0067498
-101.62 0.36558 0.015505 -19.927 -19.423 0.015958 645.43 0.0015494 -26.898 -26.894 -0.027602 1.3489 2.0501 1555.8 -0.0068018 440.57 0.16539 0.078120 12.801 422.73 454.99 2.7818 0.98841 1.1789 195.95 1.0166 4.6888 0.0068213
-100.62 0.39862 0.016811 -17.307 -16.757 0.031189 644.39 0.0015519 -24.847 -24.843 -0.015678 1.3497 2.0524 1549.1 -0.0067830 433.16 0.16478 0.084699 11.807 423.70 456.15 2.7723 0.99168 1.1823 196.44 1.0024 4.7161 0.0068932
-99.625 0.43414 0.018206 -14.647 -14.048 0.046562 643.36 0.0015544 -22.794 -22.789 -0.0038103 1.3505 2.0547 1542.4 -0.0067639 425.95 0.16416 0.091731 10.901 424.68 457.31 2.7630 0.99496 1.1858 196.94 0.98838 4.7434 0.0069653
-98.625 0.47230 0.019697 -11.945 -11.294 0.062085 642.32 0.0015569 -20.738 -20.733 0.0080027 1.3514 2.0570 1535.7 -0.0067447 418.92 0.16355 0.099240 10.077 425.66 458.48 2.7538 0.99825 1.1892 197.43 0.97464 4.7707 0.0070377
-97.625 0.51325 0.021286 -9.2005 -8.4928 0.077768 641.28 0.0015594 -18.680 -18.674 0.019762 1.3522 2.0594 1529.0 -0.0067251 412.07 0.16294 0.10725 9.3239 426.65 459.64 2.7448 1.0016 1.1927 197.92 0.96112 4.7979 0.0071103
-96.625 0.55714 0.022981 -6.4102 -5.6419 0.093620 640.24 0.0015619 -16.620 -16.614 0.031467 1.3531 2.0618 1522.3 -0.0067053 405.39 0.16233 0.11579 8.6365 427.63 460.81 2.7360 1.0049 1.1962 198.40 0.94783 4.8251 0.0071832
-95.625 0.60416 0.024785 -3.5725 -2.7394 0.10965 639.20 0.0015645 -14.557 -14.550 0.043120 1.3540 2.0642 1515.7 -0.0066853 398.88 0.16171 0.12488 8.0078 428.62 461.98 2.7274 1.0082 1.1997 198.88 0.93475 4.8524 0.0072564
-94.625 0.65446 0.026704 -0.68546 0.21701 0.12587 638.16 0.0015670 -12.491 -12.484 0.054721 1.3550 2.0667 1509.0 -0.0066650 392.53 0.16110 0.13455 7.4323 429.61 463.15 2.7189 1.0116 1.2032 199.36 0.92188 4.8796 0.0073299
-93.625 0.70822 0.028744 2.2531 3.2297 0.14228 637.12 0.0015696 -10.424 -10.416 0.066271 1.3560 2.0691 1502.3 -0.0066444 386.34 0.16048 0.14482 6.9050 430.60 464.32 2.7107 1.0149 1.2068 199.83 0.90921 4.9068 0.0074036
-92.625 0.76564 0.030910 5.2452 6.3009 0.15890 636.07 0.0015722 -8.3535 -8.3452 0.077771 1.3570 2.0716 1495.6 -0.0066236 380.31 0.15987 0.15573 6.4212 431.60 465.49 2.7025 1.0183 1.2104 200.30 0.89673 4.9340 0.0074776
-91.625 0.82689 0.033207 8.2930 9.4332 0.17574 635.02 0.0015747 -6.2808 -6.2719 0.089220 1.3580 2.0742 1488.9 -0.0066025 374.41 0.15925 0.16731 5.9769 432.59 466.67 2.6946 1.0217 1.2140 200.77 0.88445 4.9611 0.0075518
-90.625 0.89218 0.035643 11.399 12.629 0.19280 633.98 0.0015773 -4.2056 -4.1959 0.10062 1.3591 2.0767 1482.2 -0.0065811 368.66 0.15864 0.17958 5.5685 433.59 467.84 2.6868 1.0251 1.2177 201.24 0.87236 4.9883 0.0076263
-89.625 0.96172 0.038223 14.565 15.891 0.21010 632.93 0.0015800 -2.1279 -2.1174 0.11197 1.3602 2.0793 1475.5 -0.0065595 363.05 0.15802 0.19258 5.1928 434.59 469.02 2.6791 1.0285 1.2213 201.70 0.86045 5.0154 0.0077011
-88.625 1.0357 0.040952 17.793 19.221 0.22764 631.88 0.0015826 -0.047516 -0.036215 0.12328 1.3613 2.0819 1468.8 -0.0065375 357.56 0.15740 0.20633 4.8466 435.59 470.20 2.6717 1.0320 1.2250 202.15 0.84873 5.0425 0.0077761
-87.625 1.1144 0.043839 21.086 22.623 0.24544 630.83 0.0015852 2.0355 2.0476 0.13454 1.3625 2.0846 1462.1 -0.0065153 352.21 0.15679 0.22087 4.5276 436.60 471.39 2.6643 1.0354 1.2288 202.61 0.83718 5.0696 0.0078514
-86.625 1.1979 0.046889 24.447 26.099 0.26350 629.77 0.0015879 4.1211 4.1342 0.14575 1.3637 2.0873 1455.4 -0.0064928 346.98 0.15617 0.23623 4.2331 437.61 472.57 2.6571 1.0389 1.2325 203.06 0.82580 5.0967 0.0079270
-85.625 1.2866 0.050109 27.877 29.651 0.28184 628.72 0.0015905 6.2094 6.2235 0.15691 1.3649 2.0900 1448.8 -0.0064701 341.87 0.15555 0.25245 3.9612 438.61 473.75 2.6501 1.0424 1.2363 203.50 0.81460 5.1237 0.0080028
-84.625 1.3806 0.053506 31.379 33.283 0.30047 627.66 0.0015932 8.3004 8.3155 0.16803 1.3661 2.0927 1442.1 -0.0064470 336.87 0.15494 0.26956 3.7097 439.63 474.94 2.6432 1.0460 1.2402 203.95 0.80356 5.1508 0.0080789
-83.625 1.4803 0.057086 34.955 36.996 0.31939 626.60 0.0015959 10.394 10.410 0.17911 1.3674 2.0955 1435.4 -0.0064236 331.99 0.15432 0.28760 3.4771 440.64 476.13 2.6364 1.0495 1.2440 204.38 0.79269 5.1778 0.0081553
-82.625 1.5858 0.060859 38.609 40.796 0.33862 625.54 0.0015986 12.491 12.508 0.19014 1.3687 2.0983 1428.7 -0.0063999 327.22 0.15370 0.30659 3.2616 441.65 477.31 2.6298 1.0531 1.2479 204.82 0.78199 5.2048 0.0082319
-81.625 1.6975 0.064829 42.342 44.683 0.35816 624.48 0.0016013 14.590 14.609 0.20113 1.3700 2.1012 1422.0 -0.0063759 322.55 0.15309 0.32659 3.0619 442.67 478.50 2.6233 1.0567 1.2519 205.25 0.77144 5.2318 0.0083088
-80.625 1.8155 0.069006 46.157 48.661 0.37803 623.42 0.0016041 16.692 16.712 0.21208 1.3714 2.1041 1415.4 -0.0063516 317.99 0.15247 0.34763 2.8766 443.69 479.70 2.6169 1.0603 1.2558 205.67 0.76106 5.2587 0.0083860
-79.625 1.9402 0.073397 50.058 52.733 0.39823 622.36 0.0016068 18.797 18.819 0.22299 1.3728 2.1070 1408.7 -0.0063270 313.52 0.15186 0.36974 2.7046 444.71 480.89 2.6106 1.0639 1.2598 206.10 0.75083 5.2857 0.0084634
-78.625 2.0718 0.078010 54.045 56.902 0.41879 621.29 0.0016096 20.905 20.928 0.23385 1.3742 2.1099 1402.0 -0.0063021 309.15 0.15124 0.39296 2.5448 445.73 482.08 2.6045 1.0676 1.2639 206.51 0.74076 5.3126 0.0085411
-77.625 2.2107 0.082852 58.123 61.172 0.43970 620.22 0.0016123 23.016 23.040 0.24468 1.3757 2.1129 1395.3 -0.0062768 304.88 0.15062 0.41735 2.3961 446.75 483.27 2.5985 1.0712 1.2680 206.93 0.73084 5.3395 0.0086190
-76.625 2.3571 0.087932 62.294 65.544 0.46097 619.15 0.0016151 25.130 25.156 0.25546 1.3772 2.1159 1388.7 -0.0062512 300.69 0.15001 0.44292 2.2577 447.78 484.47 2.5926 1.0749 1.2721 207.34 0.72107 5.3664 0.0086972
-75.625 2.5113 0.093259 66.560 70.023 0.48263 618.08 0.0016179 27.247 27.275 0.26620 1.3787 2.1190 1382.0 -0.0062253 296.59 0.14939 0.46974 2.1288 448.81 485.67 2.5869 1.0787 1.2762 207.74 0.71146 5.3933 0.0087757
-74.625 2.6736 0.098840 70.925 74.612 0.50467 617.01 0.0016207 29.366 29.396 0.27691 1.3802 2.1221 1375.4 -0.0061990 292.58 0.14878 0.49783 2.0087 449.83 486.86 2.5812 1.0824 1.2804 208.14 0.70200 5.4201 0.0088544
-73.625 2.8444 0.10468 75.391 79.314 0.52711 615.93 0.0016236 31.489 31.521 0.28758 1.3818 2.1252 1368.7 -0.0061724 288.65 0.14816 0.52725 1.8966 450.86 488.06 2.5757 1.0862 1.2847 208.54 0.69268 5.4469 0.0089334
-72.625 3.0240 0.11080 79.962 84.131 0.54996 614.85 0.0016264 33.615 33.649 0.29821 1.3834 2.1284 1362.0 -0.0061454 284.81 0.14755 0.55804 1.7920 451.90 489.26 2.5703 1.0900 1.2889 208.93 0.68351 5.4737 0.0090126
-71.625 3.2127 0.11720 84.638 89.069 0.57322 613.78 0.0016293 35.745 35.781 0.30880 1.3851 2.1316 1355.4 -0.0061181 281.03 0.14694 0.59024 1.6942 452.93 490.46 2.5650 1.0938 1.2932 209.32 0.67448 5.5005 0.0090922
-70.625 3.4108 0.12389 89.425 94.129 0.59691 612.69 0.0016321 37.877 37.915 0.31935 1.3867 2.1349 1348.7 -0.0060904 277.34 0.14632 0.62390 1.6028 453.96 491.66 2.5598 1.0976 1.2976 209.70 0.66560 5.5273 0.0091720
-69.625 3.6187 0.13088 94.325 99.315 0.62105 611.61 0.0016350 40.013 40.053 0.32987 1.3884 2.1382 1342.1 -0.0060624 273.72 0.14571 0.65906 1.5173 455.00 492.86 2.5547 1.1015 1.3020 210.08 0.65687 5.5540 0.0092520
-68.625 3.8367 0.13817 99.340 104.63 0.64563 610.53 0.0016379 42.152 42.195 0.34036 1.3902 2.1415 1335.5 -0.0060339 270.17 0.14510 0.69577 1.4372 456.04 494.06 2.5497 1.1054 1.3064 210.45 0.64827 5.5807 0.0093324
-67.625 4.0652 0.14579 104.47 110.08 0.67066 609.44 0.0016409 44.294 44.340 0.35080 1.3919 2.1449 1328.8 -0.0060051 266.69 0.14449 0.73408 1.3622 457.08 495.26 2.5448 1.1093 1.3109 210.82 0.63981 5.6074 0.0094130
-66.625 4.3046 0.15373 109.73 115.66 0.69617 608.35 0.0016438 46.439 46.488 0.36122 1.3937 2.1483 1322.2 -0.0059760 263.28 0.14388 0.77404 1.2919 458.12 496.46 2.5400 1.1133 1.3154 211.18 0.63150 5.6341 0.0094939
-65.625 4.5551 0.16201 115.11 121.39 0.72215 607.26 0.0016467 48.588 48.640 0.37160 1.3955 2.1518 1315.6 -0.0059464 259.93 0.14327 0.81570 1.2259 459.16 497.67 2.5353 1.1172 1.3200 211.54 0.62332 5.6608 0.0095750
-64.625 4.8173 0.17064 120.61 127.26 0.74862 606.16 0.0016497 50.740 50.795 0.38195 1.3974 2.1553 1308.9 -0.0059164 256.65 0.14266 0.85910 1.1640 460.21 498.87 2.5307 1.1212 1.3246 211.89 0.61527 5.6874 0.0096564
-63.625 5.0915 0.17963 126.25 133.27 0.77559 605.07 0.0016527 52.896 52.954 0.39226 1.3993 2.1588 1302.3 -0.0058861 253.42 0.14205 0.90429 1.1058 461.25 500.07 2.5262 1.1252 1.3293 212.24 0.60736 5.7140 0.0097382
-62.625 5.3781 0.18899 132.02 139.44 0.80306 603.97 0.0016557 55.055 55.117 0.40254 1.4012 2.1624 1295.7 -0.0058553 250.26 0.14144 0.95134 1.0511 462.30 501.28 2.5218 1.1293 1.3340 212.58 0.59958 5.7406 0.0098201
-61.625 5.6774 0.19873 137.93 145.76 0.83105 602.87 0.0016587 57.218 57.283 0.41279 1.4031 2.1660 1289.1 -0.0058241 247.16 0.14084 1.0003 0.99972 463.35 502.48 2.5175 1.1333 1.3387 212.92 0.59194 5.7672 0.0099024
-60.625 5.9899 0.20885 143.97 152.23 0.85957 601.77 0.0016618 59.385 59.453 0.42301 1.4051 2.1697 1282.5 -0.0057925 244.12 0.14023 1.0512 0.95131 464.40 503.68 2.5133 1.1374 1.3435 213.26 0.58442 5.7938 0.0099850
-59.625 6.3160 0.21938 150.16 158.87 0.88862 600.66 0.0016648 61.554 61.627 0.43320 1.4071 2.1734 1275.9 -0.0057605 241.13 0.13962 1.1041 0.90573 465.45 504.89 2.5091 1.1415 1.3483 213.58 0.57704 5.8203 0.010068
-58.625 6.6561 0.23032 156.50 165.67 0.91821 599.55 0.0016679 63.728 63.805 0.44335 1.4091 2.1772 1269.3 -0.0057280 238.19 0.13902 1.1591 0.86277 466.50 506.09 2.5051 1.1457 1.3532 213.90 0.56978 5.8468 0.010151
-57.625 7.0107 0.24169 162.98 172.64 0.94836 598.44 0.0016710 65.905 65.986 0.45348 1.4111 2.1810 1262.7 -0.0056951 235.31 0.13842 1.2161 0.82228 467.55 507.30 2.5011 1.1498 1.3581 214.22 0.56265 5.8733 0.010234
-56.625 7.3801 0.25348 169.61 179.79 0.97907 597.33 0.0016741 68.086 68.172 0.46358 1.4132 2.1848 1256.1 -0.0056617 232.48 0.13781 1.2754 0.78408 468.60 508.50 2.4972 1.1540 1.3631 214.53 0.55564 5.8998 0.010318
-55.625 7.7648 0.26573 176.40 187.11 1.0103 596.22 0.0016772 70.271 70.361 0.47364 1.4153 2.1887 1249.5 -0.0056279 229.69 0.13721 1.3369 0.74802 469.66 509.71 2.4934 1.1582 1.3681 214.84 0.54875 5.9263 0.010402
-54.625 8.1652 0.27843 183.35 194.61 1.0422 595.10 0.0016804 72.460 72.554 0.48368 1.4174 2.1927 1242.9 -0.0055937 226.96 0.13661 1.4006 0.71396 470.72 510.91 2.4897 1.1624 1.3731 215.14 0.54199 5.9527 0.010486
-53.625 8.5819 0.29160 190.45 202.29 1.0747 593.98 0.0016836 74.652 74.752 0.49369 1.4196 2.1967 1236.3 -0.0055589 224.27 0.13601 1.4667 0.68178 471.77 512.11 2.4860 1.1667 1.3782 215.43 0.53535 5.9792 0.010571
-52.625 9.0151 0.30525 197.72 210.15 1.1077 592.86 0.0016867 76.849 76.954 0.50368 1.4218 2.2007 1229.8 -0.0055237 221.63 0.13541 1.5353 0.65136 472.83 513.32 2.4824 1.1710 1.3834 215.72 0.52882 6.0056 0.010656
-51.625 9.4655 0.31940 205.16 218.21 1.1413 591.73 0.0016900 79.049 79.159 0.51363 1.4240 2.2048 1223.2 -0.0054880 219.04 0.13482 1.6062 0.62258 473.89 514.52 2.4789 1.1752 1.3886 216.00 0.52241 6.0320 0.010741
-50.625 9.9335 0.33405 212.77 226.47 1.1756 590.60 0.0016932 81.253 81.369 0.52356 1.4262 2.2089 1216.6 -0.0054519 216.48 0.13422 1.6797 0.59534 474.95 515.73 2.4755 1.1796 1.3938 216.28 0.51612 6.0584 0.010827
-49.625 10.419 0.34922 220.55 234.92 1.2105 589.47 0.0016964 83.462 83.584 0.53347 1.4285 2.2131 1210.1 -0.0054152 213.98 0.13363 1.7558 0.56954 476.01 516.93 2.4722 1.1839 1.3991 216.55 0.50994 6.0848 0.010913
-48.625 10.924 0.36492 228.50 243.57 1.2460 588.34 0.0016997 85.674 85.802 0.54334 1.4308 2.2173 1203.5 -0.0053780 211.51 0.13303 1.8345 0.54510 477.07 518.13 2.4689 1.1883 1.4044 216.82 0.50387 6.1112 0.010999
-47.625 11.448 0.38117 236.64 252.43 1.2822 587.20 0.0017030 87.891 88.025 0.55319 1.4331 2.2216 1196.9 -0.0053403 209.08 0.13244 1.9159 0.52194 478.14 519.33 2.4657 1.1927 1.4098 217.08 0.49792 6.1375 0.011085
-46.625 11.991 0.39797 244.96 261.49 1.3190 586.06 0.0017063 90.111 90.252 0.56302 1.4354 2.2259 1190.4 -0.0053020 206.69 0.13185 2.0001 0.49997 479.20 520.53 2.4625 1.1971 1.4153 217.33 0.49207 6.1639 0.011172
-45.625 12.554 0.41535 253.46 270.77 1.3564 584.92 0.0017096 92.336 92.484 0.57282 1.4378 2.2303 1183.8 -0.0052633 204.34 0.13126 2.0872 0.47912 480.27 521.74 2.4594 1.2015 1.4207 217.58 0.48633 6.1902 0.011259
-44.625 13.137 0.43330 262.15 280.27 1.3945 583.77 0.0017130 94.565 94.720 0.58260 1.4402 2.2347 1177.3 -0.0052240 202.03 0.13067 2.1771 0.45933 481.33 522.94 2.4564 1.2060 1.4263 217.82 0.48069 6.2165 0.011347
-43.625 13.741 0.45186 271.04 289.98 1.4333 582.62 0.0017164 96.799 96.961 0.59235 1.4426 2.2392 1170.7 -0.0051841 199.75 0.13008 2.2700 0.44053 482.40 524.14 2.4535 1.2104 1.4319 218.05 0.47516 6.2429 0.011435
-42.625 14.367 0.47103 280.11 299.93 1.4728 581.47 0.0017198 99.036 99.207 0.60208 1.4450 2.2437 1164.2 -0.0051437 197.51 0.12949 2.3659 0.42267 483.46 525.33 2.4506 1.2149 1.4375 218.28 0.46973 6.2692 0.011523
-41.625 15.015 0.49082 289.39 310.09 1.5129 580.32 0.0017232 101.28 101.46 0.61179 1.4475 2.2483 1157.7 -0.0051027 195.30 0.12891 2.4649 0.40569 484.53 526.53 2.4478 1.2195 1.4432 218.50 0.46440 6.2955 0.011612
-40.625 15.686 0.51126 298.86 320.49 1.5538 579.16 0.0017266 103.52 103.71 0.62147 1.4500 2.2529 1151.1 -0.0050611 193.13 0.12832 2.5671 0.38954 485.60 527.73 2.4450 1.2240 1.4489 218.72 0.45917 6.3218 0.011701
-39.625 16.380 0.53234 308.54 331.13 1.5953 578.00 0.0017301 105.78 105.97 0.63113 1.4525 2.2576 1144.6 -0.0050189 190.99 0.12774 2.6725 0.37418 486.67 528.93 2.4423 1.2286 1.4547 218.93 0.45403 6.3481 0.011790
-38.625 17.097 0.55410 318.43 342.00 1.6375 576.83 0.0017336 108.03 108.24 0.64077 1.4550 2.2623 1138.0 -0.0049761 188.88 0.12716 2.7813 0.35955 487.74 530.12 2.4397 1.2332 1.4606 219.13 0.44900 6.3744 0.011880
-37.625 17.838 0.57654 328.52 353.12 1.6805 575.66 0.0017371 110.29 110.51 0.65039 1.4576 2.2671 1131.5 -0.0049327 186.81 0.12658 2.8934 0.34562 488.81 531.32 2.4371 1.2378 1.4665 219.33 0.44405 6.4007 0.011970
-36.625 18.604 0.59969 338.83 364.49 1.7242 574.49 0.0017407 112.56 112.78 0.65999 1.4602 2.2719 1125.0 -0.0048887 184.76 0.12600 3.0089 0.33235 489.88 532.51 2.4346 1.2424 1.4724 219.52 0.43920 6.4270 0.012060
-35.625 19.395 0.62354 349.36 376.10 1.7686 573.32 0.0017442 114.83 115.06 0.66956 1.4628 2.2768 1118.5 -0.0048440 182.75 0.12542 3.1280 0.31969 490.95 533.70 2.4321 1.2471 1.4784 219.70 0.43444 6.4533 0.012151
-34.625 20.212 0.64813 360.10 387.97 1.8137 572.14 0.0017478 117.10 117.34 0.67912 1.4654 2.2818 1111.9 -0.0047987 180.76 0.12485 3.2506 0.30763 492.02 534.89 2.4297 1.2517 1.4845 219.88 0.42977 6.4797 0.012243
-33.625 21.056 0.67346 371.06 400.10 1.8596 570.96 0.0017514 119.38 119.63 0.68865 1.4681 2.2868 1105.4 -0.0047527 178.80 0.12427 3.3770 0.29612 493.09 536.08 2.4273 1.2564 1.4906 220.05 0.42519 6.5060 0.012334
-32.625 21.926 0.69956 382.25 412.49 1.9062 569.77 0.0017551 121.66 121.93 0.69817 1.4708 2.2918 1098.9 -0.0047061 176.87 0.12370 3.5071 0.28514 494.17 537.27 2.4250 1.2611 1.4968 220.21 0.42070 6.5323 0.012426
-31.625 22.823 0.72644 393.67 425.14 1.9536 568.58 0.0017588 123.95 124.23 0.70767 1.4735 2.2970 1092.3 -0.0046587 174.97 0.12313 3.6410 0.27465 495.24 538.46 2.4227 1.2659 1.5031 220.36 0.41629 6.5587 0.012519
-30.625 23.749 0.75411 405.32 438.06 2.0017 567.39 0.0017625 126.24 126.53 0.71714 1.4762 2.3021 1085.8 -0.0046107 173.09 0.12256 3.7787 0.26464 496.31 539.64 2.4205 1.2706 1.5094 220.51 0.41196 6.5850 0.012612
-29.625 24.703 0.78260 417.20 451.26 2.0506 566.19 0.0017662 128.54 128.84 0.72660 1.4790 2.3074 1079.3 -0.0045619 171.24 0.12200 3.9205 0.25507 497.38 540.83 2.4184 1.2754 1.5157 220.65 0.40772 6.6114 0.012706
-28.625 25.687 0.81191 429.31 464.73 2.1002 564.99 0.0017699 130.84 131.16 0.73604 1.4818 2.3126 1072.8 -0.0045124 169.42 0.12143 4.0663 0.24592 498.46 542.01 2.4162 1.2802 1.5222 220.79 0.40356 6.6378 0.012800
-27.625 26.700 0.84208 441.67 478.49 2.1507 563.78 0.0017737 133.15 133.48 0.74547 1.4846 2.3180 1066.2 -0.0044621 167.62 0.12087 4.2163 0.23717 499.53 543.19 2.4142 1.2850 1.5286 220.91 0.39947 6.6642 0.012894
-26.625 27.743 0.87311 454.27 492.53 2.2019 562.57 0.0017775 135.47 135.81 0.75487 1.4874 2.3234 1059.7 -0.0044111 165.84 0.12031 4.3705 0.22881 500.60 544.37 2.4122 1.2899 1.5352 221.03 0.39547 6.6906 0.012989
-25.625 28.817 0.90503 467.12 506.85 2.2539 561.36 0.0017814 137.78 138.14 0.76426 1.4902 2.3289 1053.2 -0.0043593 164.09 0.11975 4.5290 0.22080 501.68 545.55 2.4102 1.2947 1.5418 221.14 0.39154 6.7171 0.013084
-24.625 29.923 0.93784 480.21 521.47 2.3067 560.14 0.0017853 140.11 140.48 0.77363 1.4931 2.3344 1046.7 -0.0043067 162.36 0.11919 4.6918 0.21314 502.75 546.72 2.4083 1.2996 1.5485 221.25 0.38768 6.7436 0.013180
-23.625 31.061 0.97159 493.55 536.39 2.3602 558.92 0.0017892 142.44 142.82 0.78298 1.4960 2.3400 1040.1 -0.0042533 160.65 0.11863 4.8592 0.20580 503.82 547.90 2.4064 1.3045 1.5552 221.35 0.38391 6.7701 0.013277
-22.625 32.046 undefined 504.94 549.13 2.4058 5.0000 0.20000 504.94 549.13 2.4058 1.3092 1.5614 221.51 0.37999 6.7969 0.013374 5.0000 0.20000 504.94 549.13 2.4058 1.3092 1.5614 221.51 0.37999 6.7969 0.013374
-21.625 32.194 undefined 506.25 550.64 2.4110 5.0000 0.20000 506.25 550.64 2.4110 1.3128 1.5642 222.00 0.37521 6.8250 0.013472 5.0000 0.20000 506.25 550.64 2.4110 1.3128 1.5642 222.00 0.37521 6.8250 0.013472
-20.625 32.341 undefined 507.56 552.16 2.4162 5.0000 0.20000 507.56 552.16 2.4162 1.3164 1.5671 222.48 0.37051 6.8530 0.013570 5.0000 0.20000 507.56 552.16 2.4162 1.3164 1.5671 222.48 0.37051 6.8530 0.013570
-19.625 32.489 undefined 508.88 553.68 2.4214 5.0000 0.20000 508.88 553.68 2.4214 1.3201 1.5701 222.97 0.36589 6.8810 0.013668 5.0000 0.20000 508.88 553.68 2.4214 1.3201 1.5701 222.97 0.36589 6.8810 0.013668
-18.625 32.636 undefined 510.20 555.21 2.4266 5.0000 0.20000 510.20 555.21 2.4266 1.3237 1.5730 223.45 0.36134 6.9090 0.013767 5.0000 0.20000 510.20 555.21 2.4266 1.3237 1.5730 223.45 0.36134 6.9090 0.013767
-17.625 32.783 undefined 511.53 556.73 2.4318 5.0000 0.20000 511.53 556.73 2.4318 1.3274 1.5760 223.93 0.35688 6.9370 0.013866 5.0000 0.20000 511.53 556.73 2.4318 1.3274 1.5760 223.93 0.35688 6.9370 0.013866
-16.625 32.930 undefined 512.86 558.27 2.4370 5.0000 0.20000 512.86 558.27 2.4370 1.3310 1.5791 224.41 0.35248 6.9650 0.013965 5.0000 0.20000 512.86 558.27 2.4370 1.3310 1.5791 224.41 0.35248 6.9650 0.013965
-15.625 33.077 undefined 514.19 559.80 2.4422 5.0000 0.20000 514.19 559.80 2.4422 1.3347 1.5821 224.89 0.34816 6.9930 0.014065 5.0000 0.20000 514.19 559.80 2.4422 1.3347 1.5821 224.89 0.34816 6.9930 0.014065
-14.625 33.223 undefined 515.53 561.34 2.4474 5.0000 0.20000 515.53 561.34 2.4474 1.3384 1.5852 225.37 0.34391 7.0209 0.014165 5.0000 0.20000 515.53 561.34 2.4474 1.3384 1.5852 225.37 0.34391 7.0209 0.014165
-13.625 33.370 undefined 516.87 562.88 2.4526 5.0000 0.20000 516.87 562.88 2.4526 1.3422 1.5883 225.84 0.33973 7.0489 0.014265 5.0000 0.20000 516.87 562.88 2.4526 1.3422 1.5883 225.84 0.33973 7.0489 0.014265
-12.625 33.517 undefined 518.21 564.43 2.4577 5.0000 0.20000 518.21 564.43 2.4577 1.3459 1.5914 226.32 0.33562 7.0768 0.014366 5.0000 0.20000 518.21 564.43 2.4577 1.3459 1.5914 226.32 0.33562 7.0768 0.014366
-11.625 33.663 undefined 519.56 565.98 2.4629 5.0000 0.20000 519.56 565.98 2.4629 1.3497 1.5946 226.79 0.33157 7.1047 0.014466 5.0000 0.20000 519.56 565.98 2.4629 1.3497 1.5946 226.79 0.33157 7.1047 0.014466
-10.625 33.809 undefined 520.91 567.53 2.4681 5.0000 0.20000 520.91 567.53 2.4681 1.3534 1.5978 227.26 0.32759 7.1326 0.014567 5.0000 0.20000 520.91 567.53 2.4681 1.3534 1.5978 227.26 0.32759 7.1326 0.014567
-9.6250 33.956 undefined 522.27 569.09 2.4732 5.0000 0.20000 522.27 569.09 2.4732 1.3572 1.6010 227.73 0.32368 7.1605 0.014669 5.0000 0.20000 522.27 569.09 2.4732 1.3572 1.6010 227.73 0.32368 7.1605 0.014669
-8.6250 34.102 undefined 523.63 570.65 2.4784 5.0000 0.20000 523.63 570.65 2.4784 1.3610 1.6042 228.19 0.31983 7.1884 0.014770 5.0000 0.20000 523.63 570.65 2.4784 1.3610 1.6042 228.19 0.31983 7.1884 0.014770
-7.6250 34.248 undefined 524.99 572.21 2.4835 5.0000 0.20000 524.99 572.21 2.4835 1.3648 1.6075 228.66 0.31604 7.2162 0.014872 5.0000 0.20000 524.99 572.21 2.4835 1.3648 1.6075 228.66 0.31604 7.2162 0.014872
-6.6250 34.394 undefined 526.36 573.78 2.4886 5.0000 0.20000 526.36 573.78 2.4886 1.3687 1.6108 229.12 0.31231 7.2441 0.014975 5.0000 0.20000 526.36 573.78 2.4886 1.3687 1.6108 229.12 0.31231 7.2441 0.014975
-5.6250 34.540 undefined 527.73 575.35 2.4938 5.0000 0.20000 527.73 575.35 2.4938 1.3725 1.6141 229.59 0.30864 7.2719 0.015077 5.0000 0.20000 527.73 575.35 2.4938 1.3725 1.6141 229.59 0.30864 7.2719 0.015077
-4.6250 34.686 undefined 529.10 576.93 2.4989 5.0000 0.20000 529.10 576.93 2.4989 1.3764 1.6174 230.05 0.30503 7.2998 0.015180 5.0000 0.20000 529.10 576.93 2.4989 1.3764 1.6174 230.05 0.30503 7.2998 0.015180
-3.6250 34.832 undefined 530.48 578.51 2.5040 5.0000 0.20000 530.48 578.51 2.5040 1.3803 1.6208 230.51 0.30147 7.3276 0.015283 5.0000 0.20000 530.48 578.51 2.5040 1.3803 1.6208 230.51 0.30147 7.3276 0.015283
-2.6250 34.977 undefined 531.86 580.09 2.5091 5.0000 0.20000 531.86 580.09 2.5091 1.3842 1.6241 230.97 0.29797 7.3554 0.015387 5.0000 0.20000 531.86 580.09 2.5091 1.3842 1.6241 230.97 0.29797 7.3554 0.015387
-1.6250 35.123 undefined 533.25 581.68 2.5143 5.0000 0.20000 533.25 581.68 2.5143 1.3881 1.6275 231.42 0.29453 7.3832 0.015490 5.0000 0.20000 533.25 581.68 2.5143 1.3881 1.6275 231.42 0.29453 7.3832 0.015490
-0.62500 35.268 undefined 534.64 583.27 2.5194 5.0000 0.20000 534.64 583.27 2.5194 1.3920 1.6310 231.88 0.29114 7.4109 0.015594 5.0000 0.20000 534.64 583.27 2.5194 1.3920 1.6310 231.88 0.29114 7.4109 0.015594
0.37500 35.414 undefined 536.03 584.86 2.5245 5.0000 0.20000 536.03 584.86 2.5245 1.3959 1.6344 232.33 0.28780 7.4387 0.015699 5.0000 0.20000 536.03 584.86 2.5245 1.3959 1.6344 232.33 0.28780 7.4387 0.015699
1.3750 35.559 undefined 537.43 586.46 2.5296 5.0000 0.20000 537.43 586.46 2.5296 1.3999 1.6379 232.79 0.28451 7.4665 0.015803 5.0000 0.20000 537.43 586.46 2.5296 1.3999 1.6379 232.79 0.28451 7.4665 0.015803
2.3750 35.704 undefined 538.83 588.07 2.5347 5.0000 0.20000 538.83 588.07 2.5347 1.4038 1.6414 233.24 0.28128 7.4942 0.015908 5.0000 0.20000 538.83 588.07 2.5347 1.4038 1.6414 233.24 0.28128 7.4942 0.015908
3.3750 35.850 undefined 540.24 589.67 2.5398 5.0000 0.20000 540.24 589.67 2.5398 1.4078 1.6449 233.69 0.27809 7.5219 0.016014 5.0000 0.20000 540.24 589.67 2.5398 1.4078 1.6449 233.69 0.27809 7.5219 0.016014
4.3750 35.995 undefined 541.65 591.28 2.5449 5.0000 0.20000 541.65 591.28 2.5449 1.4118 1.6484 234.14 0.27496 7.5496 0.016119 5.0000 0.20000 541.65 591.28 2.5449 1.4118 1.6484 234.14 0.27496 7.5496 0.016119
5.3750 36.140 undefined 543.06 592.90 2.5499 5.0000 0.20000 543.06 592.90 2.5499 1.4158 1.6519 234.58 0.27187 7.5773 0.016225 5.0000 0.20000 543.06 592.90 2.5499 1.4158 1.6519 234.58 0.27187 7.5773 0.016225
6.3750 36.285 undefined 544.48 594.51 2.5550 5.0000 0.20000 544.48 594.51 2.5550 1.4198 1.6555 235.03 0.26882 7.6050 0.016331 5.0000 0.20000 544.48 594.51 2.5550 1.4198 1.6555 235.03 0.26882 7.6050 0.016331
7.3750 36.430 undefined 545.90 596.13 2.5601 5.0000 0.20000 545.90 596.13 2.5601 1.4238 1.6591 235.48 0.26583 7.6327 0.016437 5.0000 0.20000 545.90 596.13 2.5601 1.4238 1.6591 235.48 0.26583 7.6327 0.016437
8.3750 36.575 undefined 547.33 597.76 2.5652 5.0000 0.20000 547.33 597.76 2.5652 1.4279 1.6627 235.92 0.26288 7.6603 0.016544 5.0000 0.20000 547.33 597.76 2.5652 1.4279 1.6627 235.92 0.26288 7.6603 0.016544
9.3750 36.719 undefined 548.76 599.39 2.5702 5.0000 0.20000 548.76 599.39 2.5702 1.4319 1.6663 236.36 0.25997 7.6880 0.016651 5.0000 0.20000 548.76 599.39 2.5702 1.4319 1.6663 236.36 0.25997 7.6880 0.016651
10.375 36.864 undefined 550.19 601.02 2.5753 5.0000 0.20000 550.19 601.02 2.5753 1.4360 1.6700 236.80 0.25711 7.7156 0.016758 5.0000 0.20000 550.19 601.02 2.5753 1.4360 1.6700 236.80 0.25711 7.7156 0.016758
11.375 37.009 undefined 551.63 602.66 2.5804 5.0000 0.20000 551.63 602.66 2.5804 1.4401 1.6736 237.24 0.25429 7.7432 0.016866 5.0000 0.20000 551.63 602.66 2.5804 1.4401 1.6736 237.24 0.25429 7.7432 0.016866
12.375 37.153 undefined 553.07 604.30 2.5854 5.0000 0.20000 553.07 604.30 2.5854 1.4441 1.6773 237.68 0.25151 7.7708 0.016974 5.0000 0.20000 553.07 604.30 2.5854 1.4441 1.6773 237.68 0.25151 7.7708 0.016974
13.375 37.298 undefined 554.52 605.95 2.5905 5.0000 0.20000 554.52 605.95 2.5905 1.4482 1.6810 238.12 0.24877 7.7984 0.017082 5.0000 0.20000 554.52 605.95 2.5905 1.4482 1.6810 238.12 0.24877 7.7984 0.017082
14.375 37.442 undefined 555.97 607.60 2.5955 5.0000 0.20000 555.97 607.60 2.5955 1.4523 1.6847 238.56 0.24607 7.8260 0.017190 5.0000 0.20000 555.97 607.60 2.5955 1.4523 1.6847 238.56 0.24607 7.8260 0.017190
15.375 37.587 undefined 557.42 609.25 2.6006 5.0000 0.20000 557.42 609.25 2.6006 1.4564 1.6884 238.99 0.24342 7.8536 0.017299 5.0000 0.20000 557.42 609.25 2.6006 1.4564 1.6884 238.99 0.24342 7.8536 0.017299
16.375 37.731 undefined 558.88 610.91 2.6056 5.0000 0.20000 558.88 610.91 2.6056 1.4606 1.6922 239.43 0.24080 7.8811 0.017408 5.0000 0.20000 558.88 610.91 2.6056 1.4606 1.6922 239.43 0.24080 7.8811 0.017408
17.375 37.875 undefined 560.34 612.57 2.6107 5.0000 0.20000 560.34 612.57 2.6107 1.4647 1.6959 239.86 0.23822 7.9086 0.017517 5.0000 0.20000 560.34 612.57 2.6107 1.4647 1.6959 239.86 0.23822 7.9086 0.017517
18.375 38.019 undefined 561.81 614.23 2.6157 5.0000 0.20000 561.81 614.23 2.6157 1.4689 1.6997 240.29 0.23567 7.9362 0.017627 5.0000 0.20000 561.81 614.23 2.6157 1.4689 1.6997 240.29 0.23567 7.9362 0.017627
19.375 38.163 undefined 563.28 615.90 2.6208 5.0000 0.20000 563.28 615.90 2.6208 1.4730 1.7035 240.72 0.23317 7.9637 0.017737 5.0000 0.20000 563.28 615.90 2.6208 1.4730 1.7035 240.72 0.23317 7.9637 0.017737
20.375 38.307 undefined 564.75 617.58 2.6258 5.0000 0.20000 564.75 617.58 2.6258 1.4772 1.7073 241.15 0.23070 7.9912 0.017847 5.0000 0.20000 564.75 617.58 2.6258 1.4772 1.7073 241.15 0.23070 7.9912 0.017847
21.375 38.451 undefined 566.23 619.26 2.6308 5.0000 0.20000 566.23 619.26 2.6308 1.4813 1.7111 241.58 0.22826 8.0186 0.017957 5.0000 0.20000 566.23 619.26 2.6308 1.4813 1.7111 241.58 0.22826 8.0186 0.017957
22.375 38.595 undefined 567.72 620.94 2.6359 5.0000 0.20000 567.72 620.94 2.6359 1.4855 1.7150 242.01 0.22587 8.0461 0.018068 5.0000 0.20000 567.72 620.94 2.6359 1.4855 1.7150 242.01 0.22587 8.0461 0.018068
23.375 38.739 undefined 569.20 622.62 2.6409 5.0000 0.20000 569.20 622.62 2.6409 1.4897 1.7188 242.44 0.22350 8.0736 0.018179 5.0000 0.20000 569.20 622.62 2.6409 1.4897 1.7188 242.44 0.22350 8.0736 0.018179
24.375 38.883 undefined 570.70 624.31 2.6459 5.0000 0.20000 570.70 624.31 2.6459 1.4939 1.7227 242.86 0.22117 8.1010 0.018291 5.0000 0.20000 570.70 624.31 2.6459 1.4939 1.7227 242.86 0.22117 8.1010 0.018291
25.375 39.027 undefined 572.19 626.01 2.6509 5.0000 0.20000 572.19 626.01 2.6509 1.4981 1.7265 243.29 0.21887 8.1284 0.018402 5.0000 0.20000 572.19 626.01 2.6509 1.4981 1.7265 243.29 0.21887 8.1284 0.018402
26.375 39.171 undefined 573.69 627.71 2.6559 5.0000 0.20000 573.69 627.71 2.6559 1.5023 1.7304 243.71 0.21660 8.1558 0.018514 5.0000 0.20000 573.69 627.71 2.6559 1.5023 1.7304 243.71 0.21660 8.1558 0.018514
27.375 39.314 undefined 575.20 629.41 2.6610 5.0000 0.20000 575.20 629.41 2.6610 1.5066 1.7343 244.13 0.21437 8.1832 0.018626 5.0000 0.20000 575.20 629.41 2.6610 1.5066 1.7343 244.13 0.21437 8.1832 0.018626
28.375 39.458 undefined 576.71 631.12 2.6660 5.0000 0.20000 576.71 631.12 2.6660 1.5108 1.7382 244.55 0.21217 8.2106 0.018739 5.0000 0.20000 576.71 631.12 2.6660 1.5108 1.7382 244.55 0.21217 8.2106 0.018739
29.375 39.602 undefined 578.22 632.83 2.6710 5.0000 0.20000 578.22 632.83 2.6710 1.5150 1.7421 244.97 0.21000 8.2380 0.018852 5.0000 0.20000 578.22 632.83 2.6710 1.5150 1.7421 244.97 0.21000 8.2380 0.018852
30.375 39.745 undefined 579.74 634.54 2.6760 5.0000 0.20000 579.74 634.54 2.6760 1.5193 1.7461 245.39 0.20786 8.2654 0.018965 5.0000 0.20000 579.74 634.54 2.6760 1.5193 1.7461 245.39 0.20786 8.2654 0.018965
31.375 39.888 undefined 581.26 636.26 2.6810 5.0000 0.20000 581.26 636.26 2.6810 1.5235 1.7500 245.81 0.20574 8.2927 0.019078 5.0000 0.20000 581.26 636.26 2.6810 1.5235 1.7500 245.81 0.20574 8.2927 0.019078
32.375 40.032 undefined 582.78 637.98 2.6860 5.0000 0.20000 582.78 637.98 2.6860 1.5278 1.7540 246.23 0.20366 8.3200 0.019192 5.0000 0.20000 582.78 637.98 2.6860 1.5278 1.7540 246.23 0.20366 8.3200 0.019192
33.375 40.175 undefined 584.31 639.71 2.6910 5.0000 0.20000 584.31 639.71 2.6910 1.5321 1.7580 246.65 0.20161 8.3474 0.019306 5.0000 0.20000 584.31 639.71 2.6910 1.5321 1.7580 246.65 0.20161 8.3474 0.019306
34.375 40.319 undefined 585.85 641.44 2.6960 5.0000 0.20000 585.85 641.44 2.6960 1.5363 1.7619 247.06 0.19958 8.3747 0.019420 5.0000 0.20000 585.85 641.44 2.6960 1.5363 1.7619 247.06 0.19958 8.3747 0.019420
35.375 40.462 undefined 587.39 643.18 2.7010 5.0000 0.20000 587.39 643.18 2.7010 1.5406 1.7659 247.48 0.19759 8.4019 0.019535 5.0000 0.20000 587.39 643.18 2.7010 1.5406 1.7659 247.48 0.19759 8.4019 0.019535
36.375 40.605 undefined 588.93 644.92 2.7060 5.0000 0.20000 588.93 644.92 2.7060 1.5449 1.7699 247.89 0.19562 8.4292 0.019650 5.0000 0.20000 588.93 644.92 2.7060 1.5449 1.7699 247.89 0.19562 8.4292 0.019650
37.375 40.748 undefined 590.48 646.67 2.7110 5.0000 0.20000 590.48 646.67 2.7110 1.5492 1.7739 248.30 0.19367 8.4565 0.019765 5.0000 0.20000 590.48 646.67 2.7110 1.5492 1.7739 248.30 0.19367 8.4565 0.019765
38.375 40.891 undefined 592.03 648.41 2.7159 5.0000 0.20000 592.03 648.41 2.7159 1.5535 1.7779 248.72 0.19176 8.4837 0.019880 5.0000 0.20000 592.03 648.41 2.7159 1.5535 1.7779 248.72 0.19176 8.4837 0.019880
39.375 41.034 undefined 593.58 650.17 2.7209 5.0000 0.20000 593.58 650.17 2.7209 1.5578 1.7820 249.13 0.18987 8.5110 0.019996 5.0000 0.20000 593.58 650.17 2.7209 1.5578 1.7820 249.13 0.18987 8.5110 0.019996
40.375 41.177 undefined 595.14 651.92 2.7259 5.0000 0.20000 595.14 651.92 2.7259 1.5621 1.7860 249.54 0.18800 8.5382 0.020112 5.0000 0.20000 595.14 651.92 2.7259 1.5621 1.7860 249.54 0.18800 8.5382 0.020112
41.375 41.320 undefined 596.71 653.69 2.7309 5.0000 0.20000 596.71 653.69 2.7309 1.5664 1.7901 249.95 0.18616 8.5654 0.020229 5.0000 0.20000 596.71 653.69 2.7309 1.5664 1.7901 249.95 0.18616 8.5654 0.020229
42.375 41.463 undefined 598.28 655.45 2.7359 5.0000 0.20000 598.28 655.45 2.7359 1.5708 1.7941 250.35 0.18435 8.5926 0.020345 5.0000 0.20000 598.28 655.45 2.7359 1.5708 1.7941 250.35 0.18435 8.5926 0.020345
43.375 41.606 undefined 599.85 657.22 2.7409 5.0000 0.20000 599.85 657.22 2.7409 1.5751 1.7982 250.76 0.18256 8.6197 0.020462 5.0000 0.20000 599.85 657.22 2.7409 1.5751 1.7982 250.76 0.18256 8.6197 0.020462
44.375 41.749 undefined 601.43 659.00 2.7458 5.0000 0.20000 601.43 659.00 2.7458 1.5794 1.8022 251.17 0.18079 8.6469 0.020579 5.0000 0.20000 601.43 659.00 2.7458 1.5794 1.8022 251.17 0.18079 8.6469 0.020579
45.375 41.892 undefined 603.01 660.77 2.7508 5.0000 0.20000 603.01 660.77 2.7508 1.5838 1.8063 251.57 0.17905 8.6741 0.020697 5.0000 0.20000 603.01 660.77 2.7508 1.5838 1.8063 251.57 0.17905 8.6741 0.020697
46.375 42.035 undefined 604.59 662.56 2.7558 5.0000 0.20000 604.59 662.56 2.7558 1.5881 1.8104 251.98 0.17733 8.7012 0.020815 5.0000 0.20000 604.59 662.56 2.7558 1.5881 1.8104 251.98 0.17733 8.7012 0.020815
47.375 42.178 undefined 606.18 664.34 2.7607 5.0000 0.20000 606.18 664.34 2.7607 1.5925 1.8145 252.38 0.17563 8.7283 0.020933 5.0000 0.20000 606.18 664.34 2.7607 1.5925 1.8145 252.38 0.17563 8.7283 0.020933
48.375 42.320 undefined 607.78 666.14 2.7657 5.0000 0.20000 607.78 666.14 2.7657 1.5968 1.8186 252.79 0.17396 8.7554 0.021051 5.0000 0.20000 607.78 666.14 2.7657 1.5968 1.8186 252.79 0.17396 8.7554 0.021051
49.375 42.463 undefined 609.38 667.93 2.7707 5.0000 0.20000 609.38 667.93 2.7707 1.6012 1.8227 253.19 0.17230 8.7825 0.021170 5.0000 0.20000 609.38 667.93 2.7707 1.6012 1.8227 253.19 0.17230 8.7825 0.021170
50.375 42.605 undefined 610.98 669.73 2.7756 5.0000 0.20000 610.98 669.73 2.7756 1.6055 1.8269 253.59 0.17067 8.8096 0.021289 5.0000 0.20000 610.98 669.73 2.7756 1.6055 1.8269 253.59 0.17067 8.8096 0.021289
51.375 42.748 undefined 612.59 671.54 2.7806 5.0000 0.20000 612.59 671.54 2.7806 1.6099 1.8310 253.99 0.16906 8.8366 0.021408 5.0000 0.20000 612.59 671.54 2.7806 1.6099 1.8310 253.99 0.16906 8.8366 0.021408
52.375 42.891 undefined 614.20 673.34 2.7856 5.0000 0.20000 614.20 673.34 2.7856 1.6143 1.8351 254.39 0.16747 8.8637 0.021528 5.0000 0.20000 614.20 673.34 2.7856 1.6143 1.8351 254.39 0.16747 8.8637 0.021528
53.375 43.033 undefined 615.82 675.16 2.7905 5.0000 0.20000 615.82 675.16 2.7905 1.6186 1.8393 254.79 0.16591 8.8907 0.021647 5.0000 0.20000 615.82 675.16 2.7905 1.6186 1.8393 254.79 0.16591 8.8907 0.021647
54.375 43.176 undefined 617.44 676.97 2.7955 5.0000 0.20000 617.44 676.97 2.7955 1.6230 1.8434 255.19 0.16436 8.9177 0.021768 5.0000 0.20000 617.44 676.97 2.7955 1.6230 1.8434 255.19 0.16436 8.9177 0.021768
55.375 43.318 undefined 619.06 678.80 2.8004 5.0000 0.20000 619.06 678.80 2.8004 1.6274 1.8475 255.58 0.16283 8.9447 0.021888 5.0000 0.20000 619.06 678.80 2.8004 1.6274 1.8475 255.58 0.16283 8.9447 0.021888
56.375 43.460 undefined 620.69 680.62 2.8054 5.0000 0.20000 620.69 680.62 2.8054 1.6318 1.8517 255.98 0.16133 8.9717 0.022009 5.0000 0.20000 620.69 680.62 2.8054 1.6318 1.8517 255.98 0.16133 8.9717 0.022009
57.375 43.603 undefined 622.33 682.45 2.8103 5.0000 0.20000 622.33 682.45 2.8103 1.6361 1.8559 256.38 0.15984 8.9987 0.022130 5.0000 0.20000 622.33 682.45 2.8103 1.6361 1.8559 256.38 0.15984 8.9987 0.022130
58.375 43.745 undefined 623.96 684.29 2.8153 5.0000 0.20000 623.96 684.29 2.8153 1.6405 1.8600 256.77 0.15837 9.0257 0.022251 5.0000 0.20000 623.96 684.29 2.8153 1.6405 1.8600 256.77 0.15837 9.0257 0.022251
59.375 43.887 undefined 625.61 686.13 2.8202 5.0000 0.20000 625.61 686.13 2.8202 1.6449 1.8642 257.17 0.15692 9.0526 0.022373 5.0000 0.20000 625.61 686.13 2.8202 1.6449 1.8642 257.17 0.15692 9.0526 0.022373
60.375 44.030 undefined 627.25 687.97 2.8252 5.0000 0.20000 627.25 687.97 2.8252 1.6493 1.8684 257.56 0.15549 9.0795 0.022495 5.0000 0.20000 627.25 687.97 2.8252 1.6493 1.8684 257.56 0.15549 9.0795 0.022495
61.375 44.172 undefined 628.91 689.82 2.8301 5.0000 0.20000 628.91 689.82 2.8301 1.6537 1.8726 257.95 0.15407 9.1064 0.022617 5.0000 0.20000 628.91 689.82 2.8301 1.6537 1.8726 257.95 0.15407 9.1064 0.022617
62.375 44.314 undefined 630.56 691.67 2.8351 5.0000 0.20000 630.56 691.67 2.8351 1.6581 1.8768 258.34 0.15268 9.1333 0.022739 5.0000 0.20000 630.56 691.67 2.8351 1.6581 1.8768 258.34 0.15268 9.1333 0.022739
63.375 44.456 undefined 632.22 693.52 2.8400 5.0000 0.20000 632.22 693.52 2.8400 1.6625 1.8810 258.74 0.15130 9.1602 0.022862 5.0000 0.20000 632.22 693.52 2.8400 1.6625 1.8810 258.74 0.15130 9.1602 0.022862
64.375 44.598 undefined 633.89 695.39 2.8449 5.0000 0.20000 633.89 695.39 2.8449 1.6669 1.8852 259.13 0.14994 9.1871 0.022985 5.0000 0.20000 633.89 695.39 2.8449 1.6669 1.8852 259.13 0.14994 9.1871 0.022985
65.375 44.740 undefined 635.56 697.25 2.8499 5.0000 0.20000 635.56 697.25 2.8499 1.6713 1.8894 259.52 0.14860 9.2140 0.023108 5.0000 0.20000 635.56 697.25 2.8499 1.6713 1.8894 259.52 0.14860 9.2140 0.023108
66.375 44.882 undefined 637.23 699.12 2.8548 5.0000 0.20000 637.23 699.12 2.8548 1.6757 1.8936 259.91 0.14727 9.2408 0.023232 5.0000 0.20000 637.23 699.12 2.8548 1.6757 1.8936 259.91 0.14727 9.2408 0.023232
67.375 45.024 undefined 638.91 700.99 2.8598 5.0000 0.20000 638.91 700.99 2.8598 1.6802 1.8978 260.29 0.14596 9.2676 0.023356 5.0000 0.20000 638.91 700.99 2.8598 1.6802 1.8978 260.29 0.14596 9.2676 0.023356
68.375 45.166 undefined 640.59 702.87 2.8647 5.0000 0.20000 640.59 702.87 2.8647 1.6846 1.9020 260.68 0.14467 9.2944 0.023480 5.0000 0.20000 640.59 702.87 2.8647 1.6846 1.9020 260.68 0.14467 9.2944 0.023480
69.375 45.308 undefined 642.28 704.75 2.8696 5.0000 0.20000 642.28 704.75 2.8696 1.6890 1.9063 261.07 0.14340 9.3212 0.023605 5.0000 0.20000 642.28 704.75 2.8696 1.6890 1.9063 261.07 0.14340 9.3212 0.023605
70.375 45.450 undefined 643.97 706.64 2.8745 5.0000 0.20000 643.97 706.64 2.8745 1.6934 1.9105 261.46 0.14213 9.3480 0.023729 5.0000 0.20000 643.97 706.64 2.8745 1.6934 1.9105 261.46 0.14213 9.3480 0.023729
71.375 45.592 undefined 645.66 708.53 2.8795 5.0000 0.20000 645.66 708.53 2.8795 1.6978 1.9147 261.84 0.14089 9.3748 0.023855 5.0000 0.20000 645.66 708.53 2.8795 1.6978 1.9147 261.84 0.14089 9.3748 0.023855
72.375 45.734 undefined 647.36 710.43 2.8844 5.0000 0.20000 647.36 710.43 2.8844 1.7022 1.9189 262.23 0.13966 9.4015 0.023980 5.0000 0.20000 647.36 710.43 2.8844 1.7022 1.9189 262.23 0.13966 9.4015 0.023980
73.375 45.876 undefined 649.07 712.33 2.8893 5.0000 0.20000 649.07 712.33 2.8893 1.7067 1.9232 262.61 0.13845 9.4283 0.024106 5.0000 0.20000 649.07 712.33 2.8893 1.7067 1.9232 262.61 0.13845 9.4283 0.024106
74.375 46.018 undefined 650.78 714.23 2.8943 5.0000 0.20000 650.78 714.23 2.8943 1.7111 1.9274 262.99 0.13725 9.4550 0.024232 5.0000 0.20000 650.78 714.23 2.8943 1.7111 1.9274 262.99 0.13725 9.4550 0.024232
75.375 46.159 undefined 652.49 716.14 2.8992 5.0000 0.20000 652.49 716.14 2.8992 1.7155 1.9317 263.38 0.13606 9.4817 0.024358 5.0000 0.20000 652.49 716.14 2.8992 1.7155 1.9317 263.38 0.13606 9.4817 0.024358
76.375 46.301 undefined 654.21 718.05 2.9041 5.0000 0.20000 654.21 718.05 2.9041 1.7199 1.9359 263.76 0.13489 9.5084 0.024484 5.0000 0.20000 654.21 718.05 2.9041 1.7199 1.9359 263.76 0.13489 9.5084 0.024484
77.375 46.443 undefined 655.93 719.97 2.9090 5.0000 0.20000 655.93 719.97 2.9090 1.7244 1.9402 264.14 0.13373 9.5351 0.024611 5.0000 0.20000 655.93 719.97 2.9090 1.7244 1.9402 264.14 0.13373 9.5351 0.024611
78.375 46.584 undefined 657.66 721.89 2.9139 5.0000 0.20000 657.66 721.89 2.9139 1.7288 1.9444 264.52 0.13259 9.5617 0.024738 5.0000 0.20000 657.66 721.89 2.9139 1.7288 1.9444 264.52 0.13259 9.5617 0.024738
79.375 46.726 undefined 659.39 723.82 2.9189 5.0000 0.20000 659.39 723.82 2.9189 1.7332 1.9487 264.90 0.13146 9.5884 0.024866 5.0000 0.20000 659.39 723.82 2.9189 1.7332 1.9487 264.90 0.13146 9.5884 0.024866
80.375 46.868 undefined 661.12 725.75 2.9238 5.0000 0.20000 661.12 725.75 2.9238 1.7376 1.9529 265.28 0.13035 9.6150 0.024994 5.0000 0.20000 661.12 725.75 2.9238 1.7376 1.9529 265.28 0.13035 9.6150 0.024994
81.375 47.009 undefined 662.86 727.69 2.9287 5.0000 0.20000 662.86 727.69 2.9287 1.7421 1.9572 265.66 0.12925 9.6416 0.025122 5.0000 0.20000 662.86 727.69 2.9287 1.7421 1.9572 265.66 0.12925 9.6416 0.025122
82.375 47.151 undefined 664.61 729.63 2.9336 5.0000 0.20000 664.61 729.63 2.9336 1.7465 1.9615 266.04 0.12816 9.6682 0.025250 5.0000 0.20000 664.61 729.63 2.9336 1.7465 1.9615 266.04 0.12816 9.6682 0.025250
83.375 47.293 undefined 666.36 731.57 2.9385 5.0000 0.20000 666.36 731.57 2.9385 1.7509 1.9657 266.42 0.12709 9.6948 0.025379 5.0000 0.20000 666.36 731.57 2.9385 1.7509 1.9657 266.42 0.12709 9.6948 0.025379
84.375 47.434 undefined 668.11 733.52 2.9434 5.0000 0.20000 668.11 733.52 2.9434 1.7554 1.9700 266.79 0.12603 9.7214 0.025507 5.0000 0.20000 668.11 733.52 2.9434 1.7554 1.9700 266.79 0.12603 9.7214 0.025507
85.375 47.576 undefined 669.87 735.47 2.9483 5.0000 0.20000 669.87 735.47 2.9483 1.7598 1.9743 267.17 0.12498 9.7479 0.025637 5.0000 0.20000 669.87 735.47 2.9483 1.7598 1.9743 267.17 0.12498 9.7479 0.025637
86.375 47.717 undefined 671.63 737.43 2.9532 5.0000 0.20000 671.63 737.43 2.9532 1.7642 1.9786 267.55 0.12394 9.7745 0.025766 5.0000 0.20000 671.63 737.43 2.9532 1.7642 1.9786 267.55 0.12394 9.7745 0.025766
87.375 47.858 undefined 673.39 739.39 2.9581 5.0000 0.20000 673.39 739.39 2.9581 1.7686 1.9828 267.92 0.12292 9.8010 0.025896 5.0000 0.20000 673.39 739.39 2.9581 1.7686 1.9828 267.92 0.12292 9.8010 0.025896
88.375 48.000 undefined 675.17 741.35 2.9630 5.0000 0.20000 675.17 741.35 2.9630 1.7731 1.9871 268.30 0.12191 9.8275 0.026026 5.0000 0.20000 675.17 741.35 2.9630 1.7731 1.9871 268.30 0.12191 9.8275 0.026026
89.375 48.141 undefined 676.94 743.33 2.9680 5.0000 0.20000 676.94 743.33 2.9680 1.7775 1.9914 268.67 0.12091 9.8540 0.026156 5.0000 0.20000 676.94 743.33 2.9680 1.7775 1.9914 268.67 0.12091 9.8540 0.026156
90.375 48.283 undefined 678.72 745.30 2.9729 5.0000 0.20000 678.72 745.30 2.9729 1.7819 1.9957 269.04 0.11992 9.8805 0.026287 5.0000 0.20000 678.72 745.30 2.9729 1.7819 1.9957 269.04 0.11992 9.8805 0.026287
91.375 48.424 undefined 680.50 747.28 2.9778 5.0000 0.20000 680.50 747.28 2.9778 1.7864 1.9999 269.42 0.11894 9.9069 0.026418 5.0000 0.20000 680.50 747.28 2.9778 1.7864 1.9999 269.42 0.11894 9.9069 0.026418
92.375 48.565 undefined 682.29 749.26 2.9827 5.0000 0.20000 682.29 749.26 2.9827 1.7908 2.0042 269.79 0.11798 9.9334 0.026549 5.0000 0.20000 682.29 749.26 2.9827 1.7908 2.0042 269.79 0.11798 9.9334 0.026549
93.375 48.707 undefined 684.09 751.25 2.9876 5.0000 0.20000 684.09 751.25 2.9876 1.7952 2.0085 270.16 0.11702 9.9598 0.026681 5.0000 0.20000 684.09 751.25 2.9876 1.7952 2.0085 270.16 0.11702 9.9598 0.026681
94.375 48.848 undefined 685.88 753.24 2.9925 5.0000 0.20000 685.88 753.24 2.9925 1.7996 2.0128 270.53 0.11608 9.9862 0.026812 5.0000 0.20000 685.88 753.24 2.9925 1.7996 2.0128 270.53 0.11608 9.9862 0.026812
95.375 48.989 undefined 687.69 755.24 2.9973 5.0000 0.20000 687.69 755.24 2.9973 1.8041 2.0171 270.90 0.11515 10.013 0.026945 5.0000 0.20000 687.69 755.24 2.9973 1.8041 2.0171 270.90 0.11515 10.013 0.026945
96.375 49.130 undefined 689.49 757.24 3.0022 5.0000 0.20000 689.49 757.24 3.0022 1.8085 2.0214 271.27 0.11423 10.039 0.027077 5.0000 0.20000 689.49 757.24 3.0022 1.8085 2.0214 271.27 0.11423 10.039 0.027077
97.375 49.272 undefined 691.30 759.25 3.0071 5.0000 0.20000 691.30 759.25 3.0071 1.8129 2.0256 271.64 0.11332 10.065 0.027210 5.0000 0.20000 691.30 759.25 3.0071 1.8129 2.0256 271.64 0.11332 10.065 0.027210
98.375 49.413 undefined 693.12 761.26 3.0120 5.0000 0.20000 693.12 761.26 3.0120 1.8173 2.0299 272.01 0.11242 10.092 0.027343 5.0000 0.20000 693.12 761.26 3.0120 1.8173 2.0299 272.01 0.11242 10.092 0.027343
99.375 49.554 undefined 694.94 763.27 3.0169 5.0000 0.20000 694.94 763.27 3.0169 1.8218 2.0342 272.38 0.11153 10.118 0.027476 5.0000 0.20000 694.94 763.27 3.0169 1.8218 2.0342 272.38 0.11153 10.118 0.027476
100.38 49.695 undefined 696.76 765.29 3.0218 5.0000 0.20000 696.76 765.29 3.0218 1.8262 2.0385 272.75 0.11065 10.144 0.027609 5.0000 0.20000 696.76 765.29 3.0218 1.8262 2.0385 272.75 0.11065 10.144 0.027609
101.38 49.836 undefined 698.59 767.31 3.0267 5.0000 0.20000 698.59 767.31 3.0267 1.8306 2.0428 273.11 0.10978 10.171 0.027743 5.0000 0.20000 698.59 767.31 3.0267 1.8306 2.0428 273.11 0.10978 10.171 0.027743
102.38 49.977 undefined 700.42 769.34 3.0316 5.0000 0.20000 700.42 769.34 3.0316 1.8350 2.0471 273.48 0.10892 10.197 0.027877 5.0000 0.20000 700.42 769.34 3.0316 1.8350 2.0471 273.48 0.10892 10.197 0.027877
103.38 50.119 undefined 702.26 771.37 3.0365 5.0000 0.20000 702.26 771.37 3.0365 1.8395 2.0514 273.85 0.10807 10.223 0.028012 5.0000 0.20000 702.26 771.37 3.0365 1.8395 2.0514 273.85 0.10807 10.223 0.028012
104.38 50.260 undefined 704.10 773.41 3.0414 5.0000 0.20000 704.10 773.41 3.0414 1.8439 2.0557 274.21 0.10723 10.250 0.028147 5.0000 0.20000 704.10 773.41 3.0414 1.8439 2.0557 274.21 0.10723 10.250 0.028147
105.38 50.401 undefined 705.95 775.45 3.0462 5.0000 0.20000 705.95 775.45 3.0462 1.8483 2.0600 274.58 0.10640 10.276 0.028282 5.0000 0.20000 705.95 775.45 3.0462 1.8483 2.0600 274.58 0.10640 10.276 0.028282
106.38 50.542 undefined 707.80 777.49 3.0511 5.0000 0.20000 707.80 777.49 3.0511 1.8527 2.0642 274.94 0.10558 10.302 0.028417 5.0000 0.20000 707.80 777.49 3.0511 1.8527 2.0642 274.94 0.10558 10.302 0.028417
107.38 50.683 undefined 709.65 779.54 3.0560 5.0000 0.20000 709.65 779.54 3.0560 1.8571 2.0685 275.30 0.10477 10.328 0.028553 5.0000 0.20000 709.65 779.54 3.0560 1.8571 2.0685 275.30 0.10477 10.328 0.028553
108.38 50.824 undefined 711.51 781.60 3.0609 5.0000 0.20000 711.51 781.60 3.0609 1.8615 2.0728 275.67 0.10397 10.354 0.028688 5.0000 0.20000 711.51 781.60 3.0609 1.8615 2.0728 275.67 0.10397 10.354 0.028688
109.38 50.965 undefined 713.38 783.65 3.0658 5.0000 0.20000 713.38 783.65 3.0658 1.8659 2.0771 276.03 0.10318 10.381 0.028825 5.0000 0.20000 713.38 783.65 3.0658 1.8659 2.0771 276.03 0.10318 10.381 0.028825
110.38 51.106 undefined 715.24 785.72 3.0706 5.0000 0.20000 715.24 785.72 3.0706 1.8703 2.0814 276.39 0.10239 10.407 0.028961 5.0000 0.20000 715.24 785.72 3.0706 1.8703 2.0814 276.39 0.10239 10.407 0.028961
111.38 51.247 undefined 717.12 787.78 3.0755 5.0000 0.20000 717.12 787.78 3.0755 1.8747 2.0857 276.75 0.10161 10.433 0.029098 5.0000 0.20000 717.12 787.78 3.0755 1.8747 2.0857 276.75 0.10161 10.433 0.029098
112.38 51.387 undefined 718.99 789.85 3.0804 5.0000 0.20000 718.99 789.85 3.0804 1.8792 2.0900 277.12 0.10085 10.459 0.029235 5.0000 0.20000 718.99 789.85 3.0804 1.8792 2.0900 277.12 0.10085 10.459 0.029235
113.38 51.528 undefined 720.87 791.93 3.0853 5.0000 0.20000 720.87 791.93 3.0853 1.8836 2.0942 277.48 0.10009 10.485 0.029372 5.0000 0.20000 720.87 791.93 3.0853 1.8836 2.0942 277.48 0.10009 10.485 0.029372
114.38 51.669 undefined 722.76 794.01 3.0901 5.0000 0.20000 722.76 794.01 3.0901 1.8880 2.0985 277.84 0.099339 10.511 0.029510 5.0000 0.20000 722.76 794.01 3.0901 1.8880 2.0985 277.84 0.099339 10.511 0.029510
115.38 51.810 undefined 724.65 796.09 3.0950 5.0000 0.20000 724.65 796.09 3.0950 1.8924 2.1028 278.20 0.098597 10.537 0.029648 5.0000 0.20000 724.65 796.09 3.0950 1.8924 2.1028 278.20 0.098597 10.537 0.029648
116.38 51.951 undefined 726.55 798.18 3.0999 5.0000 0.20000 726.55 798.18 3.0999 1.8968 2.1071 278.56 0.097863 10.563 0.029786 5.0000 0.20000 726.55 798.18 3.0999 1.8968 2.1071 278.56 0.097863 10.563 0.029786
117.38 52.092 undefined 728.44 800.28 3.1047 5.0000 0.20000 728.44 800.28 3.1047 1.9011 2.1114 278.91 0.097137 10.589 0.029925 5.0000 0.20000 728.44 800.28 3.1047 1.9011 2.1114 278.91 0.097137 10.589 0.029925
118.38 52.233 undefined 730.35 802.37 3.1096 5.0000 0.20000 730.35 802.37 3.1096 1.9055 2.1157 279.27 0.096419 10.616 0.030063 5.0000 0.20000 730.35 802.37 3.1096 1.9055 2.1157 279.27 0.096419 10.616 0.030063
119.38 52.373 undefined 732.26 804.48 3.1145 5.0000 0.20000 732.26 804.48 3.1145 1.9099 2.1199 279.63 0.095709 10.642 0.030203 5.0000 0.20000 732.26 804.48 3.1145 1.9099 2.1199 279.63 0.095709 10.642 0.030203
120.38 52.514 undefined 734.17 806.58 3.1193 5.0000 0.20000 734.17 806.58 3.1193 1.9143 2.1242 279.99 0.095006 10.668 0.030342 5.0000 0.20000 734.17 806.58 3.1193 1.9143 2.1242 279.99 0.095006 10.668 0.030342
121.38 52.655 undefined 736.08 808.69 3.1242 5.0000 0.20000 736.08 808.69 3.1242 1.9187 2.1285 280.34 0.094312 10.694 0.030482 5.0000 0.20000 736.08 808.69 3.1242 1.9187 2.1285 280.34 0.094312 10.694 0.030482
122.38 52.796 undefined 738.00 810.81 3.1291 5.0000 0.20000 738.00 810.81 3.1291 1.9231 2.1328 280.70 0.093624 10.719 0.030622 5.0000 0.20000 738.00 810.81 3.1291 1.9231 2.1328 280.70 0.093624 10.719 0.030622
123.38 52.936 undefined 739.93 812.93 3.1339 5.0000 0.20000 739.93 812.93 3.1339 1.9275 2.1370 281.05 0.092944 10.745 0.030762 5.0000 0.20000 739.93 812.93 3.1339 1.9275 2.1370 281.05 0.092944 10.745 0.030762
124.38 53.077 undefined 741.86 815.05 3.1388 5.0000 0.20000 741.86 815.05 3.1388 1.9318 2.1413 281.41 0.092271 10.771 0.030903 5.0000 0.20000 741.86 815.05 3.1388 1.9318 2.1413 281.41 0.092271 10.771 0.030903
125.38 53.218 undefined 743.79 817.18 3.1436 5.0000 0.20000 743.79 817.18 3.1436 1.9362 2.1456 281.76 0.091606 10.797 0.031043 5.0000 0.20000 743.79 817.18 3.1436 1.9362 2.1456 281.76 0.091606 10.797 0.031043
126.38 53.359 undefined 745.73 819.31 3.1485 5.0000 0.20000 745.73 819.31 3.1485 1.9406 2.1498 282.12 0.090948 10.823 0.031185 5.0000 0.20000 745.73 819.31 3.1485 1.9406 2.1498 282.12 0.090948 10.823 0.031185
127.38 53.499 undefined 747.67 821.45 3.1534 5.0000 0.20000 747.67 821.45 3.1534 1.9449 2.1541 282.47 0.090296 10.849 0.031326 5.0000 0.20000 747.67 821.45 3.1534 1.9449 2.1541 282.47 0.090296 10.849 0.031326
128.38 53.640 undefined 749.62 823.59 3.1582 5.0000 0.20000 749.62 823.59 3.1582 1.9493 2.1584 282.83 0.089652 10.875 0.031468 5.0000 0.20000 749.62 823.59 3.1582 1.9493 2.1584 282.83 0.089652 10.875 0.031468
129.38 53.780 undefined 751.57 825.73 3.1631 5.0000 0.20000 751.57 825.73 3.1631 1.9537 2.1626 283.18 0.089014 10.901 0.031610 5.0000 0.20000 751.57 825.73 3.1631 1.9537 2.1626 283.18 0.089014 10.901 0.031610
130.38 53.921 undefined 753.53 827.88 3.1679 5.0000 0.20000 753.53 827.88 3.1679 1.9580 2.1669 283.53 0.088383 10.927 0.031752 5.0000 0.20000 753.53 827.88 3.1679 1.9580 2.1669 283.53 0.088383 10.927 0.031752
131.38 54.062 undefined 755.49 830.04 3.1728 5.0000 0.20000 755.49 830.04 3.1728 1.9624 2.1712 283.88 0.087759 10.952 0.031895 5.0000 0.20000 755.49 830.04 3.1728 1.9624 2.1712 283.88 0.087759 10.952 0.031895
132.38 54.202 undefined 757.45 832.20 3.1776 5.0000 0.20000 757.45 832.20 3.1776 1.9667 2.1754 284.23 0.087141 10.978 0.032038 5.0000 0.20000 757.45 832.20 3.1776 1.9667 2.1754 284.23 0.087141 10.978 0.032038
133.38 54.343 undefined 759.42 834.36 3.1825 5.0000 0.20000 759.42 834.36 3.1825 1.9711 2.1797 284.58 0.086529 11.004 0.032181 5.0000 0.20000 759.42 834.36 3.1825 1.9711 2.1797 284.58 0.086529 11.004 0.032181
134.38 54.483 undefined 761.40 836.53 3.1873 5.0000 0.20000 761.40 836.53 3.1873 1.9754 2.1839 284.93 0.085924 11.030 0.032324 5.0000 0.20000 761.40 836.53 3.1873 1.9754 2.1839 284.93 0.085924 11.030 0.032324
135.38 54.624 undefined 763.37 838.70 3.1922 5.0000 0.20000 763.37 838.70 3.1922 1.9798 2.1882 285.28 0.085325 11.056 0.032468 5.0000 0.20000 763.37 838.70 3.1922 1.9798 2.1882 285.28 0.085325 11.056 0.032468
136.38 54.765 undefined 765.36 840.87 3.1970 5.0000 0.20000 765.36 840.87 3.1970 1.9841 2.1924 285.63 0.084733 11.081 0.032612 5.0000 0.20000 765.36 840.87 3.1970 1.9841 2.1924 285.63 0.084733 11.081 0.032612
137.38 54.905 undefined 767.34 843.05 3.2019 5.0000 0.20000 767.34 843.05 3.2019 1.9885 2.1967 285.98 0.084146 11.107 0.032756 5.0000 0.20000 767.34 843.05 3.2019 1.9885 2.1967 285.98 0.084146 11.107 0.032756
138.38 55.046 undefined 769.33 845.24 3.2067 5.0000 0.20000 769.33 845.24 3.2067 1.9928 2.2009 286.33 0.083566 11.133 0.032901 5.0000 0.20000 769.33 845.24 3.2067 1.9928 2.2009 286.33 0.083566 11.133 0.032901
139.38 55.186 undefined 771.33 847.43 3.2115 5.0000 0.20000 771.33 847.43 3.2115 1.9971 2.2051 286.68 0.082991 11.158 0.033046 5.0000 0.20000 771.33 847.43 3.2115 1.9971 2.2051 286.68 0.082991 11.158 0.033046
140.38 55.327 undefined 773.33 849.62 3.2164 5.0000 0.20000 773.33 849.62 3.2164 2.0015 2.2094 287.03 0.082423 11.184 0.033191 5.0000 0.20000 773.33 849.62 3.2164 2.0015 2.2094 287.03 0.082423 11.184 0.033191
141.38 55.467 undefined 775.33 851.82 3.2212 5.0000 0.20000 775.33 851.82 3.2212 2.0058 2.2136 287.37 0.081860 11.210 0.033337 5.0000 0.20000 775.33 851.82 3.2212 2.0058 2.2136 287.37 0.081860 11.210 0.033337
142.38 55.608 undefined 777.34 854.02 3.2261 5.0000 0.20000 777.34 854.02 3.2261 2.0101 2.2178 287.72 0.081303 11.235 0.033483 5.0000 0.20000 777.34 854.02 3.2261 2.0101 2.2178 287.72 0.081303 11.235 0.033483
143.38 55.748 undefined 779.35 856.22 3.2309 5.0000 0.20000 779.35 856.22 3.2309 2.0144 2.2221 288.07 0.080751 11.261 0.033629 5.0000 0.20000 779.35 856.22 3.2309 2.0144 2.2221 288.07 0.080751 11.261 0.033629
144.38 55.888 undefined 781.37 858.43 3.2357 5.0000 0.20000 781.37 858.43 3.2357 2.0187 2.2263 288.41 0.080205 11.287 0.033775 5.0000 0.20000 781.37 858.43 3.2357 2.0187 2.2263 288.41 0.080205 11.287 0.033775
145.38 56.029 undefined 783.39 860.65 3.2406 5.0000 0.20000 783.39 860.65 3.2406 2.0230 2.2305 288.76 0.079665 11.312 0.033922 5.0000 0.20000 783.39 860.65 3.2406 2.0230 2.2305 288.76 0.079665 11.312 0.033922
146.38 56.169 undefined 785.41 862.87 3.2454 5.0000 0.20000 785.41 862.87 3.2454 2.0273 2.2347 289.10 0.079130 11.338 0.034069 5.0000 0.20000 785.41 862.87 3.2454 2.0273 2.2347 289.10 0.079130 11.338 0.034069
147.38 56.310 undefined 787.44 865.09 3.2502 5.0000 0.20000 787.44 865.09 3.2502 2.0316 2.2390 289.45 0.078600 11.363 0.034216 5.0000 0.20000 787.44 865.09 3.2502 2.0316 2.2390 289.45 0.078600 11.363 0.034216
148.38 56.450 undefined 789.48 867.32 3.2551 5.0000 0.20000 789.48 867.32 3.2551 2.0359 2.2432 289.79 0.078076 11.389 0.034364 5.0000 0.20000 789.48 867.32 3.2551 2.0359 2.2432 289.79 0.078076 11.389 0.034364
149.38 56.590 undefined 791.51 869.55 3.2599 5.0000 0.20000 791.51 869.55 3.2599 2.0402 2.2474 290.14 0.077556 11.414 0.034511 5.0000 0.20000 791.51 869.55 3.2599 2.0402 2.2474 290.14 0.077556 11.414 0.034511
150.38 56.731 undefined 793.56 871.79 3.2647 5.0000 0.20000 793.56 871.79 3.2647 2.0445 2.2516 290.48 0.077042 11.440 0.034660 5.0000 0.20000 793.56 871.79 3.2647 2.0445 2.2516 290.48 0.077042 11.440 0.034660
151.38 56.871 undefined 795.60 874.03 3.2696 5.0000 0.20000 795.60 874.03 3.2696 2.0488 2.2558 290.82 0.076533 11.465 0.034808 5.0000 0.20000 795.60 874.03 3.2696 2.0488 2.2558 290.82 0.076533 11.465 0.034808
152.38 57.011 undefined 797.65 876.27 3.2744 5.0000 0.20000 797.65 876.27 3.2744 2.0531 2.2600 291.16 0.076029 11.491 0.034957 5.0000 0.20000 797.65 876.27 3.2744 2.0531 2.2600 291.16 0.076029 11.491 0.034957
153.38 57.152 undefined 799.71 878.52 3.2792 5.0000 0.20000 799.71 878.52 3.2792 2.0574 2.2642 291.51 0.075530 11.516 0.035106 5.0000 0.20000 799.71 878.52 3.2792 2.0574 2.2642 291.51 0.075530 11.516 0.035106
154.38 57.292 undefined 801.77 880.77 3.2840 5.0000 0.20000 801.77 880.77 3.2840 2.0616 2.2684 291.85 0.075036 11.542 0.035255 5.0000 0.20000 801.77 880.77 3.2840 2.0616 2.2684 291.85 0.075036 11.542 0.035255
155.38 57.432 undefined 803.83 883.03 3.2888 5.0000 0.20000 803.83 883.03 3.2888 2.0659 2.2726 292.19 0.074547 11.567 0.035405 5.0000 0.20000 803.83 883.03 3.2888 2.0659 2.2726 292.19 0.074547 11.567 0.035405
156.38 57.573 undefined 805.90 885.29 3.2937 5.0000 0.20000 805.90 885.29 3.2937 2.0702 2.2768 292.53 0.074062 11.593 0.035555 5.0000 0.20000 805.90 885.29 3.2937 2.0702 2.2768 292.53 0.074062 11.593 0.035555
157.38 57.713 undefined 807.97 887.56 3.2985 5.0000 0.20000 807.97 887.56 3.2985 2.0744 2.2810 292.87 0.073582 11.618 0.035705 5.0000 0.20000 807.97 887.56 3.2985 2.0744 2.2810 292.87 0.073582 11.618 0.035705
158.38 57.853 undefined 810.05 889.83 3.3033 5.0000 0.20000 810.05 889.83 3.3033 2.0787 2.2851 293.21 0.073107 11.643 0.035855 5.0000 0.20000 810.05 889.83 3.3033 2.0787 2.2851 293.21 0.073107 11.643 0.035855
159.38 57.994 undefined 812.13 892.10 3.3081 5.0000 0.20000 812.13 892.10 3.3081 2.0829 2.2893 293.55 0.072636 11.669 0.036006 5.0000 0.20000 812.13 892.10 3.3081 2.0829 2.2893 293.55 0.072636 11.669 0.036006
160.38 58.134 undefined 814.22 894.38 3.3129 5.0000 0.20000 814.22 894.38 3.3129 2.0872 2.2935 293.89 0.072170 11.694 0.036157 5.0000 0.20000 814.22 894.38 3.3129 2.0872 2.2935 293.89 0.072170 11.694 0.036157
161.38 58.274 undefined 816.31 896.66 3.3177 5.0000 0.20000 816.31 896.66 3.3177 2.0914 2.2977 294.23 0.071708 11.719 0.036308 5.0000 0.20000 816.31 896.66 3.3177 2.0914 2.2977 294.23 0.071708 11.719 0.036308
162.38 58.414 undefined 818.40 898.95 3.3226 5.0000 0.20000 818.40 898.95 3.3226 2.0957 2.3018 294.57 0.071251 11.745 0.036460 5.0000 0.20000 818.40 898.95 3.3226 2.0957 2.3018 294.57 0.071251 11.745 0.036460
163.38 58.555 undefined 820.50 901.24 3.3274 5.0000 0.20000 820.50 901.24 3.3274 2.0999 2.3060 294.90 0.070798 11.770 0.036612 5.0000 0.20000 820.50 901.24 3.3274 2.0999 2.3060 294.90 0.070798 11.770 0.036612
164.38 58.695 undefined 822.60 903.54 3.3322 5.0000 0.20000 822.60 903.54 3.3322 2.1041 2.3102 295.24 0.070349 11.795 0.036764 5.0000 0.20000 822.60 903.54 3.3322 2.1041 2.3102 295.24 0.070349 11.795 0.036764
165.38 58.835 undefined 824.70 905.84 3.3370 5.0000 0.20000 824.70 905.84 3.3370 2.1084 2.3143 295.58 0.069905 11.820 0.036917 5.0000 0.20000 824.70 905.84 3.3370 2.1084 2.3143 295.58 0.069905 11.820 0.036917
166.38 58.975 undefined 826.82 908.14 3.3418 5.0000 0.20000 826.82 908.14 3.3418 2.1126 2.3185 295.92 0.069464 11.846 0.037070 5.0000 0.20000 826.82 908.14 3.3418 2.1126 2.3185 295.92 0.069464 11.846 0.037070
167.38 59.115 undefined 828.93 910.45 3.3466 5.0000 0.20000 828.93 910.45 3.3466 2.1168 2.3226 296.25 0.069028 11.871 0.037223 5.0000 0.20000 828.93 910.45 3.3466 2.1168 2.3226 296.25 0.069028 11.871 0.037223
168.38 59.256 undefined 831.05 912.76 3.3514 5.0000 0.20000 831.05 912.76 3.3514 2.1210 2.3268 296.59 0.068596 11.896 0.037376 5.0000 0.20000 831.05 912.76 3.3514 2.1210 2.3268 296.59 0.068596 11.896 0.037376
169.38 59.396 undefined 833.17 915.08 3.3562 5.0000 0.20000 833.17 915.08 3.3562 2.1252 2.3309 296.92 0.068168 11.921 0.037530 5.0000 0.20000 833.17 915.08 3.3562 2.1252 2.3309 296.92 0.068168 11.921 0.037530
170.38 59.536 undefined 835.30 917.40 3.3610 5.0000 0.20000 835.30 917.40 3.3610 2.1294 2.3350 297.26 0.067744 11.946 0.037684 5.0000 0.20000 835.30 917.40 3.3610 2.1294 2.3350 297.26 0.067744 11.946 0.037684
171.38 59.676 undefined 837.43 919.72 3.3658 5.0000 0.20000 837.43 919.72 3.3658 2.1336 2.3392 297.59 0.067324 11.972 0.037838 5.0000 0.20000 837.43 919.72 3.3658 2.1336 2.3392 297.59 0.067324 11.972 0.037838
172.38 59.816 undefined 839.57 922.05 3.3706 5.0000 0.20000 839.57 922.05 3.3706 2.1378 2.3433 297.93 0.066907 11.997 0.037993 5.0000 0.20000 839.57 922.05 3.3706 2.1378 2.3433 297.93 0.066907 11.997 0.037993
173.38 59.956 undefined 841.71 924.38 3.3754 5.0000 0.20000 841.71 924.38 3.3754 2.1420 2.3474 298.26 0.066495 12.022 0.038147 5.0000 0.20000 841.71 924.38 3.3754 2.1420 2.3474 298.26 0.066495 12.022 0.038147
174.38 60.096 undefined 843.85 926.72 3.3802 5.0000 0.20000 843.85 926.72 3.3802 2.1462 2.3515 298.60 0.066086 12.047 0.038303 5.0000 0.20000 843.85 926.72 3.3802 2.1462 2.3515 298.60 0.066086 12.047 0.038303
175.38 60.236 undefined 846.00 929.06 3.3850 5.0000 0.20000 846.00 929.06 3.3850 2.1504 2.3556 298.93 0.065681 12.072 0.038458 5.0000 0.20000 846.00 929.06 3.3850 2.1504 2.3556 298.93 0.065681 12.072 0.038458
176.38 60.377 undefined 848.15 931.41 3.3898 5.0000 0.20000 848.15 931.41 3.3898 2.1546 2.3598 299.26 0.065280 12.097 0.038614 5.0000 0.20000 848.15 931.41 3.3898 2.1546 2.3598 299.26 0.065280 12.097 0.038614
177.38 60.517 undefined 850.31 933.76 3.3946 5.0000 0.20000 850.31 933.76 3.3946 2.1587 2.3639 299.59 0.064883 12.122 0.038770 5.0000 0.20000 850.31 933.76 3.3946 2.1587 2.3639 299.59 0.064883 12.122 0.038770
178.38 60.657 undefined 852.47 936.11 3.3994 5.0000 0.20000 852.47 936.11 3.3994 2.1629 2.3680 299.93 0.064489 12.147 0.038926 5.0000 0.20000 852.47 936.11 3.3994 2.1629 2.3680 299.93 0.064489 12.147 0.038926
179.38 60.797 undefined 854.63 938.47 3.4042 5.0000 0.20000 854.63 938.47 3.4042 2.1671 2.3721 300.26 0.064098 12.172 0.039083 5.0000 0.20000 854.63 938.47 3.4042 2.1671 2.3721 300.26 0.064098 12.172 0.039083
180.38 60.937 undefined 856.80 940.83 3.4090 5.0000 0.20000 856.80 940.83 3.4090 2.1712 2.3762 300.59 0.063711 12.197 0.039240 5.0000 0.20000 856.80 940.83 3.4090 2.1712 2.3762 300.59 0.063711 12.197 0.039240
181.38 61.077 undefined 858.98 943.20 3.4137 5.0000 0.20000 858.98 943.20 3.4137 2.1754 2.3802 300.92 0.063328 12.222 0.039397 5.0000 0.20000 858.98 943.20 3.4137 2.1754 2.3802 300.92 0.063328 12.222 0.039397
182.38 61.217 undefined 861.15 945.57 3.4185 5.0000 0.20000 861.15 945.57 3.4185 2.1795 2.3843 301.25 0.062948 12.247 0.039554 5.0000 0.20000 861.15 945.57 3.4185 2.1795 2.3843 301.25 0.062948 12.247 0.039554
183.38 61.357 undefined 863.34 947.94 3.4233 5.0000 0.20000 863.34 947.94 3.4233 2.1837 2.3884 301.58 0.062571 12.272 0.039712 5.0000 0.20000 863.34 947.94 3.4233 2.1837 2.3884 301.58 0.062571 12.272 0.039712
184.38 61.497 undefined 865.52 950.32 3.4281 5.0000 0.20000 865.52 950.32 3.4281 2.1878 2.3925 301.91 0.062198 12.297 0.039870 5.0000 0.20000 865.52 950.32 3.4281 2.1878 2.3925 301.91 0.062198 12.297 0.039870
185.38 61.637 undefined 867.71 952.71 3.4329 5.0000 0.20000 867.71 952.71 3.4329 2.1919 2.3966 302.24 0.061828 12.322 0.040028 5.0000 0.20000 867.71 952.71 3.4329 2.1919 2.3966 302.24 0.061828 12.322 0.040028
186.38 61.777 undefined 869.91 955.09 3.4377 5.0000 0.20000 869.91 955.09 3.4377 2.1961 2.4006 302.57 0.061461 12.347 0.040187 5.0000 0.20000 869.91 955.09 3.4377 2.1961 2.4006 302.57 0.061461 12.347 0.040187
187.38 61.917 undefined 872.10 957.48 3.4424 5.0000 0.20000 872.10 957.48 3.4424 2.2002 2.4047 302.90 0.061098 12.372 0.040346 5.0000 0.20000 872.10 957.48 3.4424 2.2002 2.4047 302.90 0.061098 12.372 0.040346
188.38 62.057 undefined 874.31 959.88 3.4472 5.0000 0.20000 874.31 959.88 3.4472 2.2043 2.4088 303.23 0.060738 12.396 0.040505 5.0000 0.20000 874.31 959.88 3.4472 2.2043 2.4088 303.23 0.060738 12.396 0.040505
189.38 62.197 undefined 876.51 962.28 3.4520 5.0000 0.20000 876.51 962.28 3.4520 2.2084 2.4128 303.55 0.060380 12.421 0.040665 5.0000 0.20000 876.51 962.28 3.4520 2.2084 2.4128 303.55 0.060380 12.421 0.040665
190.38 62.337 undefined 878.72 964.68 3.4568 5.0000 0.20000 878.72 964.68 3.4568 2.2125 2.4169 303.88 0.060026 12.446 0.040825 5.0000 0.20000 878.72 964.68 3.4568 2.2125 2.4169 303.88 0.060026 12.446 0.040825
191.38 62.477 undefined 880.94 967.09 3.4615 5.0000 0.20000 880.94 967.09 3.4615 2.2166 2.4209 304.21 0.059676 12.471 0.040985 5.0000 0.20000 880.94 967.09 3.4615 2.2166 2.4209 304.21 0.059676 12.471 0.040985
192.38 62.617 undefined 883.16 969.50 3.4663 5.0000 0.20000 883.16 969.50 3.4663 2.2207 2.4249 304.54 0.059328 12.496 0.041145 5.0000 0.20000 883.16 969.50 3.4663 2.2207 2.4249 304.54 0.059328 12.496 0.041145
193.38 62.757 undefined 885.38 971.92 3.4711 5.0000 0.20000 885.38 971.92 3.4711 2.2248 2.4290 304.86 0.058983 12.520 0.041306 5.0000 0.20000 885.38 971.92 3.4711 2.2248 2.4290 304.86 0.058983 12.520 0.041306
194.38 62.897 undefined 887.61 974.34 3.4758 5.0000 0.20000 887.61 974.34 3.4758 2.2289 2.4330 305.19 0.058641 12.545 0.041467 5.0000 0.20000 887.61 974.34 3.4758 2.2289 2.4330 305.19 0.058641 12.545 0.041467
195.38 63.037 undefined 889.84 976.76 3.4806 5.0000 0.20000 889.84 976.76 3.4806 2.2330 2.4370 305.51 0.058302 12.570 0.041628 5.0000 0.20000 889.84 976.76 3.4806 2.2330 2.4370 305.51 0.058302 12.570 0.041628
196.38 63.177 undefined 892.07 979.19 3.4854 5.0000 0.20000 892.07 979.19 3.4854 2.2371 2.4411 305.84 0.057966 12.595 0.041790 5.0000 0.20000 892.07 979.19 3.4854 2.2371 2.4411 305.84 0.057966 12.595 0.041790
197.38 63.317 undefined 894.31 981.62 3.4901 5.0000 0.20000 894.31 981.62 3.4901 2.2412 2.4451 306.17 0.057633 12.619 0.041951 5.0000 0.20000 894.31 981.62 3.4901 2.2412 2.4451 306.17 0.057633 12.619 0.041951
198.38 63.457 undefined 896.55 984.06 3.4949 5.0000 0.20000 896.55 984.06 3.4949 2.2452 2.4491 306.49 0.057302 12.644 0.042114 5.0000 0.20000 896.55 984.06 3.4949 2.2452 2.4491 306.49 0.057302 12.644 0.042114
199.38 63.597 undefined 898.80 986.50 3.4997 5.0000 0.20000 898.80 986.50 3.4997 2.2493 2.4531 306.81 0.056975 12.669 0.042276 5.0000 0.20000 898.80 986.50 3.4997 2.2493 2.4531 306.81 0.056975 12.669 0.042276
200.38 63.737 undefined 901.05 988.94 3.5044 5.0000 0.20000 901.05 988.94 3.5044 2.2533 2.4571 307.14 0.056650 12.693 0.042439 5.0000 0.20000 901.05 988.94 3.5044 2.2533 2.4571 307.14 0.056650 12.693 0.042439
201.38 63.877 undefined 903.31 991.39 3.5092 5.0000 0.20000 903.31 991.39 3.5092 2.2574 2.4611 307.46 0.056328 12.718 0.042602 5.0000 0.20000 903.31 991.39 3.5092 2.2574 2.4611 307.46 0.056328 12.718 0.042602
202.38 64.017 undefined 905.57 993.84 3.5139 5.0000 0.20000 905.57 993.84 3.5139 2.2614 2.4651 307.79 0.056008 12.742 0.042765 5.0000 0.20000 905.57 993.84 3.5139 2.2614 2.4651 307.79 0.056008 12.742 0.042765
203.38 64.156 undefined 907.83 996.30 3.5187 5.0000 0.20000 907.83 996.30 3.5187 2.2655 2.4691 308.11 0.055692 12.767 0.042929 5.0000 0.20000 907.83 996.30 3.5187 2.2655 2.4691 308.11 0.055692 12.767 0.042929
204.38 64.296 undefined 910.10 998.76 3.5234 5.0000 0.20000 910.10 998.76 3.5234 2.2695 2.4731 308.43 0.055378 12.791 0.043093 5.0000 0.20000 910.10 998.76 3.5234 2.2695 2.4731 308.43 0.055378 12.791 0.043093
205.38 64.436 undefined 912.37 1001.2 3.5282 5.0000 0.20000 912.37 1001.2 3.5282 2.2736 2.4771 308.75 0.055066 12.816 0.043257 5.0000 0.20000 912.37 1001.2 3.5282 2.2736 2.4771 308.75 0.055066 12.816 0.043257
206.38 64.576 undefined 914.65 1003.7 3.5329 5.0000 0.20000 914.65 1003.7 3.5329 2.2776 2.4810 309.08 0.054757 12.841 0.043421 5.0000 0.20000 914.65 1003.7 3.5329 2.2776 2.4810 309.08 0.054757 12.841 0.043421
207.38 64.716 undefined 916.92 1006.2 3.5377 5.0000 0.20000 916.92 1006.2 3.5377 2.2816 2.4850 309.40 0.054451 12.865 0.043586 5.0000 0.20000 916.92 1006.2 3.5377 2.2816 2.4850 309.40 0.054451 12.865 0.043586
208.38 64.856 undefined 919.21 1008.6 3.5424 5.0000 0.20000 919.21 1008.6 3.5424 2.2856 2.4890 309.72 0.054147 12.890 0.043751 5.0000 0.20000 919.21 1008.6 3.5424 2.2856 2.4890 309.72 0.054147 12.890 0.043751
209.38 64.996 undefined 921.50 1011.1 3.5472 5.0000 0.20000 921.50 1011.1 3.5472 2.2896 2.4929 310.04 0.053846 12.914 0.043916 5.0000 0.20000 921.50 1011.1 3.5472 2.2896 2.4929 310.04 0.053846 12.914 0.043916
210.38 65.136 undefined 923.79 1013.6 3.5519 5.0000 0.20000 923.79 1013.6 3.5519 2.2936 2.4969 310.36 0.053547 12.938 0.044082 5.0000 0.20000 923.79 1013.6 3.5519 2.2936 2.4969 310.36 0.053547 12.938 0.044082
211.38 65.275 undefined 926.08 1016.1 3.5567 5.0000 0.20000 926.08 1016.1 3.5567 2.2976 2.5008 310.68 0.053251 12.963 0.044248 5.0000 0.20000 926.08 1016.1 3.5567 2.2976 2.5008 310.68 0.053251 12.963 0.044248
212.38 65.415 undefined 928.38 1018.6 3.5614 5.0000 0.20000 928.38 1018.6 3.5614 2.3016 2.5048 311.00 0.052957 12.987 0.044414 5.0000 0.20000 928.38 1018.6 3.5614 2.3016 2.5048 311.00 0.052957 12.987 0.044414
213.38 65.555 undefined 930.69 1021.1 3.5662 5.0000 0.20000 930.69 1021.1 3.5662 2.3056 2.5087 311.32 0.052665 13.012 0.044581 5.0000 0.20000 930.69 1021.1 3.5662 2.3056 2.5087 311.32 0.052665 13.012 0.044581
214.38 65.695 undefined 932.99 1023.6 3.5709 5.0000 0.20000 932.99 1023.6 3.5709 2.3096 2.5126 311.64 0.052376 13.036 0.044747 5.0000 0.20000 932.99 1023.6 3.5709 2.3096 2.5126 311.64 0.052376 13.036 0.044747
215.38 65.835 undefined 935.31 1026.1 3.5756 5.0000 0.20000 935.31 1026.1 3.5756 2.3136 2.5166 311.96 0.052089 13.060 0.044915 5.0000 0.20000 935.31 1026.1 3.5756 2.3136 2.5166 311.96 0.052089 13.060 0.044915
216.38 65.975 undefined 937.62 1028.6 3.5804 5.0000 0.20000 937.62 1028.6 3.5804 2.3176 2.5205 312.28 0.051805 13.085 0.045082 5.0000 0.20000 937.62 1028.6 3.5804 2.3176 2.5205 312.28 0.051805 13.085 0.045082
217.38 66.114 undefined 939.94 1031.1 3.5851 5.0000 0.20000 939.94 1031.1 3.5851 2.3215 2.5244 312.60 0.051522 13.109 0.045250 5.0000 0.20000 939.94 1031.1 3.5851 2.3215 2.5244 312.60 0.051522 13.109 0.045250
218.38 66.254 undefined 942.26 1033.6 3.5898 5.0000 0.20000 942.26 1033.6 3.5898 2.3255 2.5283 312.92 0.051242 13.133 0.045418 5.0000 0.20000 942.26 1033.6 3.5898 2.3255 2.5283 312.92 0.051242 13.133 0.045418
219.38 66.394 undefined 944.59 1036.1 3.5946 5.0000 0.20000 944.59 1036.1 3.5946 2.3294 2.5323 313.23 0.050964 13.158 0.045586 5.0000 0.20000 944.59 1036.1 3.5946 2.3294 2.5323 313.23 0.050964 13.158 0.045586
220.38 66.534 undefined 946.92 1038.7 3.5993 5.0000 0.20000 946.92 1038.7 3.5993 2.3334 2.5362 313.55 0.050689 13.182 0.045754 5.0000 0.20000 946.92 1038.7 3.5993 2.3334 2.5362 313.55 0.050689 13.182 0.045754
221.38 66.674 undefined 949.26 1041.2 3.6040 5.0000 0.20000 949.26 1041.2 3.6040 2.3373 2.5401 313.87 0.050415 13.206 0.045923 5.0000 0.20000 949.26 1041.2 3.6040 2.3373 2.5401 313.87 0.050415 13.206 0.045923
222.38 66.813 undefined 951.60 1043.7 3.6087 5.0000 0.20000 951.60 1043.7 3.6087 2.3413 2.5440 314.18 0.050144 13.230 0.046092 5.0000 0.20000 951.60 1043.7 3.6087 2.3413 2.5440 314.18 0.050144 13.230 0.046092
223.38 66.953 undefined 953.94 1046.3 3.6135 5.0000 0.20000 953.94 1046.3 3.6135 2.3452 2.5478 314.50 0.049875 13.255 0.046262 5.0000 0.20000 953.94 1046.3 3.6135 2.3452 2.5478 314.50 0.049875 13.255 0.046262
224.38 67.093 undefined 956.29 1048.8 3.6182 5.0000 0.20000 956.29 1048.8 3.6182 2.3492 2.5517 314.82 0.049608 13.279 0.046432 5.0000 0.20000 956.29 1048.8 3.6182 2.3492 2.5517 314.82 0.049608 13.279 0.046432
225.38 67.233 undefined 958.64 1051.4 3.6229 5.0000 0.20000 958.64 1051.4 3.6229 2.3531 2.5556 315.13 0.049343 13.303 0.046602 5.0000 0.20000 958.64 1051.4 3.6229 2.3531 2.5556 315.13 0.049343 13.303 0.046602
226.38 67.373 undefined 960.99 1053.9 3.6276 5.0000 0.20000 960.99 1053.9 3.6276 2.3570 2.5595 315.45 0.049080 13.327 0.046772 5.0000 0.20000 960.99 1053.9 3.6276 2.3570 2.5595 315.45 0.049080 13.327 0.046772
227.38 67.512 undefined 963.35 1056.4 3.6323 5.0000 0.20000 963.35 1056.4 3.6323 2.3609 2.5634 315.76 0.048819 13.351 0.046943 5.0000 0.20000 963.35 1056.4 3.6323 2.3609 2.5634 315.76 0.048819 13.351 0.046943
228.38 67.652 undefined 965.72 1059.0 3.6371 5.0000 0.20000 965.72 1059.0 3.6371 2.3648 2.5672 316.08 0.048561 13.375 0.047113 5.0000 0.20000 965.72 1059.0 3.6371 2.3648 2.5672 316.08 0.048561 13.375 0.047113
229.38 67.792 undefined 968.08 1061.6 3.6418 5.0000 0.20000 968.08 1061.6 3.6418 2.3687 2.5711 316.39 0.048304 13.399 0.047285 5.0000 0.20000 968.08 1061.6 3.6418 2.3687 2.5711 316.39 0.048304 13.399 0.047285
230.38 67.932 undefined 970.45 1064.1 3.6465 5.0000 0.20000 970.45 1064.1 3.6465 2.3726 2.5749 316.71 0.048049 13.424 0.047456 5.0000 0.20000 970.45 1064.1 3.6465 2.3726 2.5749 316.71 0.048049 13.424 0.047456
231.38 68.071 undefined 972.83 1066.7 3.6512 5.0000 0.20000 972.83 1066.7 3.6512 2.3765 2.5788 317.02 0.047796 13.448 0.047628 5.0000 0.20000 972.83 1066.7 3.6512 2.3765 2.5788 317.02 0.047796 13.448 0.047628
232.38 68.211 undefined 975.21 1069.3 3.6559 5.0000 0.20000 975.21 1069.3 3.6559 2.3804 2.5826 317.34 0.047545 13.472 0.047800 5.0000 0.20000 975.21 1069.3 3.6559 2.3804 2.5826 317.34 0.047545 13.472 0.047800
233.38 68.351 undefined 977.59 1071.8 3.6606 5.0000 0.20000 977.59 1071.8 3.6606 2.3843 2.5865 317.65 0.047296 13.496 0.047972 5.0000 0.20000 977.59 1071.8 3.6606 2.3843 2.5865 317.65 0.047296 13.496 0.047972
234.38 68.491 undefined 979.98 1074.4 3.6653 5.0000 0.20000 979.98 1074.4 3.6653 2.3882 2.5903 317.96 0.047049 13.520 0.048145 5.0000 0.20000 979.98 1074.4 3.6653 2.3882 2.5903 317.96 0.047049 13.520 0.048145
235.38 68.630 undefined 982.37 1077.0 3.6700 5.0000 0.20000 982.37 1077.0 3.6700 2.3920 2.5941 318.27 0.046804 13.544 0.048318 5.0000 0.20000 982.37 1077.0 3.6700 2.3920 2.5941 318.27 0.046804 13.544 0.048318
236.38 68.770 undefined 984.76 1079.6 3.6747 5.0000 0.20000 984.76 1079.6 3.6747 2.3959 2.5980 318.59 0.046561 13.568 0.048491 5.0000 0.20000 984.76 1079.6 3.6747 2.3959 2.5980 318.59 0.046561 13.568 0.048491
237.38 68.910 undefined 987.16 1082.2 3.6794 5.0000 0.20000 987.16 1082.2 3.6794 2.3998 2.6018 318.90 0.046319 13.592 0.048665 5.0000 0.20000 987.16 1082.2 3.6794 2.3998 2.6018 318.90 0.046319 13.592 0.048665
238.38 69.049 undefined 989.56 1084.8 3.6841 5.0000 0.20000 989.56 1084.8 3.6841 2.4036 2.6056 319.21 0.046079 13.616 0.048838 5.0000 0.20000 989.56 1084.8 3.6841 2.4036 2.6056 319.21 0.046079 13.616 0.048838
239.38 69.189 undefined 991.96 1087.4 3.6888 5.0000 0.20000 991.96 1087.4 3.6888 2.4075 2.6094 319.52 0.045841 13.639 0.049012 5.0000 0.20000 991.96 1087.4 3.6888 2.4075 2.6094 319.52 0.045841 13.639 0.049012
240.38 69.329 undefined 994.37 1090.0 3.6935 5.0000 0.20000 994.37 1090.0 3.6935 2.4113 2.6132 319.83 0.045605 13.663 0.049187 5.0000 0.20000 994.37 1090.0 3.6935 2.4113 2.6132 319.83 0.045605 13.663 0.049187
241.38 69.469 undefined 996.79 1092.6 3.6982 5.0000 0.20000 996.79 1092.6 3.6982 2.4152 2.6170 320.14 0.045371 13.687 0.049361 5.0000 0.20000 996.79 1092.6 3.6982 2.4152 2.6170 320.14 0.045371 13.687 0.049361
242.38 69.608 undefined 999.20 1095.2 3.7029 5.0000 0.20000 999.20 1095.2 3.7029 2.4190 2.6208 320.46 0.045138 13.711 0.049536 5.0000 0.20000 999.20 1095.2 3.7029 2.4190 2.6208 320.46 0.045138 13.711 0.049536
243.38 69.748 undefined 1001.6 1097.8 3.7076 5.0000 0.20000 1001.6 1097.8 3.7076 2.4228 2.6246 320.77 0.044907 13.735 0.049712 5.0000 0.20000 1001.6 1097.8 3.7076 2.4228 2.6246 320.77 0.044907 13.735 0.049712
244.38 69.888 undefined 1004.1 1100.4 3.7123 5.0000 0.20000 1004.1 1100.4 3.7123 2.4266 2.6284 321.08 0.044678 13.759 0.049887 5.0000 0.20000 1004.1 1100.4 3.7123 2.4266 2.6284 321.08 0.044678 13.759 0.049887
245.38 70.027 undefined 1006.5 1103.0 3.7170 5.0000 0.20000 1006.5 1103.0 3.7170 2.4305 2.6321 321.39 0.044450 13.783 0.050063 5.0000 0.20000 1006.5 1103.0 3.7170 2.4305 2.6321 321.39 0.044450 13.783 0.050063
246.38 70.167 undefined 1008.9 1105.7 3.7217 5.0000 0.20000 1008.9 1105.7 3.7217 2.4343 2.6359 321.69 0.044225 13.806 0.050239 5.0000 0.20000 1008.9 1105.7 3.7217 2.4343 2.6359 321.69 0.044225 13.806 0.050239
247.38 70.307 undefined 1011.3 1108.3 3.7264 5.0000 0.20000 1011.3 1108.3 3.7264 2.4381 2.6397 322.00 0.044000 13.830 0.050416 5.0000 0.20000 1011.3 1108.3 3.7264 2.4381 2.6397 322.00 0.044000 13.830 0.050416
248.38 70.446 undefined 1013.8 1110.9 3.7310 5.0000 0.20000 1013.8 1110.9 3.7310 2.4419 2.6434 322.31 0.043778 13.854 0.050592 5.0000 0.20000 1013.8 1110.9 3.7310 2.4419 2.6434 322.31 0.043778 13.854 0.050592
249.38 70.586 undefined 1016.2 1113.6 3.7357 5.0000 0.20000 1016.2 1113.6 3.7357 2.4457 2.6472 322.62 0.043557 13.878 0.050769 5.0000 0.20000 1016.2 1113.6 3.7357 2.4457 2.6472 322.62 0.043557 13.878 0.050769
250.38 70.726 undefined 1018.7 1116.2 3.7404 5.0000 0.20000 1018.7 1116.2 3.7404 2.4495 2.6509 322.93 0.043338 13.901 0.050947 5.0000 0.20000 1018.7 1116.2 3.7404 2.4495 2.6509 322.93 0.043338 13.901 0.050947
251.38 70.865 undefined 1021.1 1118.8 3.7451 5.0000 0.20000 1021.1 1118.8 3.7451 2.4532 2.6547 323.24 0.043120 13.925 0.051124 5.0000 0.20000 1021.1 1118.8 3.7451 2.4532 2.6547 323.24 0.043120 13.925 0.051124
252.38 71.005 undefined 1023.6 1121.5 3.7498 5.0000 0.20000 1023.6 1121.5 3.7498 2.4570 2.6584 323.54 0.042904 13.949 0.051302 5.0000 0.20000 1023.6 1121.5 3.7498 2.4570 2.6584 323.54 0.042904 13.949 0.051302
253.38 71.144 undefined 1026.0 1124.1 3.7544 5.0000 0.20000 1026.0 1124.1 3.7544 2.4608 2.6622 323.85 0.042689 13.972 0.051480 5.0000 0.20000 1026.0 1124.1 3.7544 2.4608 2.6622 323.85 0.042689 13.972 0.051480
254.38 71.284 undefined 1028.5 1126.8 3.7591 5.0000 0.20000 1028.5 1126.8 3.7591 2.4646 2.6659 324.16 0.042476 13.996 0.051659 5.0000 0.20000 1028.5 1126.8 3.7591 2.4646 2.6659 324.16 0.042476 13.996 0.051659
255.38 71.424 undefined 1031.0 1129.5 3.7638 5.0000 0.20000 1031.0 1129.5 3.7638 2.4683 2.6696 324.47 0.042264 14.019 0.051838 5.0000 0.20000 1031.0 1129.5 3.7638 2.4683 2.6696 324.47 0.042264 14.019 0.051838
256.38 71.563 undefined 1033.4 1132.1 3.7684 5.0000 0.20000 1033.4 1132.1 3.7684 2.4721 2.6734 324.77 0.042054 14.043 0.052017 5.0000 0.20000 1033.4 1132.1 3.7684 2.4721 2.6734 324.77 0.042054 14.043 0.052017
257.38 71.703 undefined 1035.9 1134.8 3.7731 5.0000 0.20000 1035.9 1134.8 3.7731 2.4758 2.6771 325.08 0.041846 14.067 0.052196 5.0000 0.20000 1035.9 1134.8 3.7731 2.4758 2.6771 325.08 0.041846 14.067 0.052196
258.38 71.843 undefined 1038.4 1137.5 3.7778 5.0000 0.20000 1038.4 1137.5 3.7778 2.4796 2.6808 325.38 0.041639 14.090 0.052376 5.0000 0.20000 1038.4 1137.5 3.7778 2.4796 2.6808 325.38 0.041639 14.090 0.052376
259.38 71.982 undefined 1040.9 1140.1 3.7824 5.0000 0.20000 1040.9 1140.1 3.7824 2.4833 2.6845 325.69 0.041433 14.114 0.052555 5.0000 0.20000 1040.9 1140.1 3.7824 2.4833 2.6845 325.69 0.041433 14.114 0.052555
260.38 72.122 undefined 1043.4 1142.8 3.7871 5.0000 0.20000 1043.4 1142.8 3.7871 2.4871 2.6882 326.00 0.041229 14.137 0.052736 5.0000 0.20000 1043.4 1142.8 3.7871 2.4871 2.6882 326.00 0.041229 14.137 0.052736
261.38 72.261 undefined 1045.9 1145.5 3.7918 5.0000 0.20000 1045.9 1145.5 3.7918 2.4908 2.6919 326.30 0.041026 14.161 0.052916 5.0000 0.20000 1045.9 1145.5 3.7918 2.4908 2.6919 326.30 0.041026 14.161 0.052916
262.38 72.401 undefined 1048.3 1148.2 3.7964 5.0000 0.20000 1048.3 1148.2 3.7964 2.4945 2.6956 326.61 0.040825 14.184 0.053097 5.0000 0.20000 1048.3 1148.2 3.7964 2.4945 2.6956 326.61 0.040825 14.184 0.053097
263.38 72.541 undefined 1050.8 1150.9 3.8011 5.0000 0.20000 1050.8 1150.9 3.8011 2.4982 2.6993 326.91 0.040625 14.208 0.053278 5.0000 0.20000 1050.8 1150.9 3.8011 2.4982 2.6993 326.91 0.040625 14.208 0.053278
264.38 72.680 undefined 1053.3 1153.6 3.8057 5.0000 0.20000 1053.3 1153.6 3.8057 2.5020 2.7029 327.21 0.040427 14.231 0.053459 5.0000 0.20000 1053.3 1153.6 3.8057 2.5020 2.7029 327.21 0.040427 14.231 0.053459
265.38 72.820 undefined 1055.8 1156.3 3.8104 5.0000 0.20000 1055.8 1156.3 3.8104 2.5057 2.7066 327.52 0.040230 14.255 0.053641 5.0000 0.20000 1055.8 1156.3 3.8104 2.5057 2.7066 327.52 0.040230 14.255 0.053641
266.38 72.959 undefined 1058.4 1159.0 3.8150 5.0000 0.20000 1058.4 1159.0 3.8150 2.5094 2.7103 327.82 0.040034 14.278 0.053823 5.0000 0.20000 1058.4 1159.0 3.8150 2.5094 2.7103 327.82 0.040034 14.278 0.053823
267.38 73.099 undefined 1060.9 1161.7 3.8197 5.0000 0.20000 1060.9 1161.7 3.8197 2.5131 2.7139 328.12 0.039839 14.301 0.054005 5.0000 0.20000 1060.9 1161.7 3.8197 2.5131 2.7139 328.12 0.039839 14.301 0.054005
268.38 73.239 undefined 1063.4 1164.4 3.8243 5.0000 0.20000 1063.4 1164.4 3.8243 2.5168 2.7176 328.43 0.039646 14.325 0.054188 5.0000 0.20000 1063.4 1164.4 3.8243 2.5168 2.7176 328.43 0.039646 14.325 0.054188
269.38 73.378 undefined 1065.9 1167.1 3.8290 5.0000 0.20000 1065.9 1167.1 3.8290 2.5205 2.7212 328.73 0.039455 14.348 0.054371 5.0000 0.20000 1065.9 1167.1 3.8290 2.5205 2.7212 328.73 0.039455 14.348 0.054371
270.38 73.518 undefined 1068.4 1169.8 3.8336 5.0000 0.20000 1068.4 1169.8 3.8336 2.5241 2.7249 329.03 0.039264 14.371 0.054554 5.0000 0.20000 1068.4 1169.8 3.8336 2.5241 2.7249 329.03 0.039264 14.371 0.054554
271.38 73.657 undefined 1070.9 1172.5 3.8383 5.0000 0.20000 1070.9 1172.5 3.8383 2.5278 2.7285 329.34 0.039075 14.395 0.054737 5.0000 0.20000 1070.9 1172.5 3.8383 2.5278 2.7285 329.34 0.039075 14.395 0.054737
272.38 73.797 undefined 1073.5 1175.2 3.8429 5.0000 0.20000 1073.5 1175.2 3.8429 2.5315 2.7322 329.64 0.038887 14.418 0.054921 5.0000 0.20000 1073.5 1175.2 3.8429 2.5315 2.7322 329.64 0.038887 14.418 0.054921
273.38 73.936 undefined 1076.0 1178.0 3.8476 5.0000 0.20000 1076.0 1178.0 3.8476 2.5352 2.7358 329.94 0.038701 14.441 0.055105 5.0000 0.20000 1076.0 1178.0 3.8476 2.5352 2.7358 329.94 0.038701 14.441 0.055105
274.38 74.076 undefined 1078.5 1180.7 3.8522 5.0000 0.20000 1078.5 1180.7 3.8522 2.5388 2.7394 330.24 0.038516 14.464 0.055289 5.0000 0.20000 1078.5 1180.7 3.8522 2.5388 2.7394 330.24 0.038516 14.464 0.055289
275.38 74.216 undefined 1081.1 1183.4 3.8568 5.0000 0.20000 1081.1 1183.4 3.8568 2.5425 2.7431 330.54 0.038332 14.488 0.055474 5.0000 0.20000 1081.1 1183.4 3.8568 2.5425 2.7431 330.54 0.038332 14.488 0.055474
276.38 74.355 undefined 1083.6 1186.2 3.8615 5.0000 0.20000 1083.6 1186.2 3.8615 2.5461 2.7467 330.84 0.038149 14.511 0.055659 5.0000 0.20000 1083.6 1186.2 3.8615 2.5461 2.7467 330.84 0.038149 14.511 0.055659
277.38 74.495 undefined 1086.2 1188.9 3.8661 5.0000 0.20000 1086.2 1188.9 3.8661 2.5498 2.7503 331.14 0.037967 14.534 0.055844 5.0000 0.20000 1086.2 1188.9 3.8661 2.5498 2.7503 331.14 0.037967 14.534 0.055844
278.38 74.634 undefined 1088.7 1191.6 3.8707 5.0000 0.20000 1088.7 1191.6 3.8707 2.5534 2.7539 331.44 0.037787 14.557 0.056029 5.0000 0.20000 1088.7 1191.6 3.8707 2.5534 2.7539 331.44 0.037787 14.557 0.056029
279.38 74.774 undefined 1091.3 1194.4 3.8754 5.0000 0.20000 1091.3 1194.4 3.8754 2.5570 2.7575 331.74 0.037608 14.580 0.056215 5.0000 0.20000 1091.3 1194.4 3.8754 2.5570 2.7575 331.74 0.037608 14.580 0.056215
280.38 74.913 undefined 1093.8 1197.1 3.8800 5.0000 0.20000 1093.8 1197.1 3.8800 2.5607 2.7611 332.04 0.037430 14.604 0.056401 5.0000 0.20000 1093.8 1197.1 3.8800 2.5607 2.7611 332.04 0.037430 14.604 0.056401
281.38 75.053 undefined 1096.4 1199.9 3.8846 5.0000 0.20000 1096.4 1199.9 3.8846 2.5643 2.7647 332.34 0.037253 14.627 0.056587 5.0000 0.20000 1096.4 1199.9 3.8846 2.5643 2.7647 332.34 0.037253 14.627 0.056587
282.38 75.192 undefined 1099.0 1202.7 3.8892 5.0000 0.20000 1099.0 1202.7 3.8892 2.5679 2.7683 332.64 0.037078 14.650 0.056774 5.0000 0.20000 1099.0 1202.7 3.8892 2.5679 2.7683 332.64 0.037078 14.650 0.056774
283.38 75.332 undefined 1101.5 1205.4 3.8939 5.0000 0.20000 1101.5 1205.4 3.8939 2.5715 2.7719 332.94 0.036904 14.673 0.056961 5.0000 0.20000 1101.5 1205.4 3.8939 2.5715 2.7719 332.94 0.036904 14.673 0.056961
284.38 75.471 undefined 1104.1 1208.2 3.8985 5.0000 0.20000 1104.1 1208.2 3.8985 2.5751 2.7754 333.24 0.036730 14.696 0.057148 5.0000 0.20000 1104.1 1208.2 3.8985 2.5751 2.7754 333.24 0.036730 14.696 0.057148
285.38 75.611 undefined 1106.7 1211.0 3.9031 5.0000 0.20000 1106.7 1211.0 3.9031 2.5787 2.7790 333.54 0.036558 14.719 0.057335 5.0000 0.20000 1106.7 1211.0 3.9031 2.5787 2.7790 333.54 0.036558 14.719 0.057335
286.38 75.751 undefined 1109.3 1213.7 3.9077 5.0000 0.20000 1109.3 1213.7 3.9077 2.5823 2.7826 333.84 0.036387 14.742 0.057523 5.0000 0.20000 1109.3 1213.7 3.9077 2.5823 2.7826 333.84 0.036387 14.742 0.057523
287.38 75.890 undefined 1111.9 1216.5 3.9123 5.0000 0.20000 1111.9 1216.5 3.9123 2.5859 2.7861 334.13 0.036217 14.765 0.057711 5.0000 0.20000 1111.9 1216.5 3.9123 2.5859 2.7861 334.13 0.036217 14.765 0.057711
288.38 76.030 undefined 1114.4 1219.3 3.9169 5.0000 0.20000 1114.4 1219.3 3.9169 2.5895 2.7897 334.43 0.036049 14.788 0.057900 5.0000 0.20000 1114.4 1219.3 3.9169 2.5895 2.7897 334.43 0.036049 14.788 0.057900
289.38 76.169 undefined 1117.0 1222.1 3.9215 5.0000 0.20000 1117.0 1222.1 3.9215 2.5931 2.7932 334.73 0.035881 14.811 0.058088 5.0000 0.20000 1117.0 1222.1 3.9215 2.5931 2.7932 334.73 0.035881 14.811 0.058088
290.38 76.309 undefined 1119.6 1224.9 3.9262 5.0000 0.20000 1119.6 1224.9 3.9262 2.5967 2.7968 335.03 0.035715 14.834 0.058277 5.0000 0.20000 1119.6 1224.9 3.9262 2.5967 2.7968 335.03 0.035715 14.834 0.058277
291.38 76.448 undefined 1122.2 1227.6 3.9308 5.0000 0.20000 1122.2 1227.6 3.9308 2.6002 2.8003 335.32 0.035549 14.857 0.058467 5.0000 0.20000 1122.2 1227.6 3.9308 2.6002 2.8003 335.32 0.035549 14.857 0.058467
292.38 76.588 undefined 1124.8 1230.4 3.9354 5.0000 0.20000 1124.8 1230.4 3.9354 2.6038 2.8039 335.62 0.035385 14.880 0.058656 5.0000 0.20000 1124.8 1230.4 3.9354 2.6038 2.8039 335.62 0.035385 14.880 0.058656
293.38 76.727 undefined 1127.4 1233.2 3.9400 5.0000 0.20000 1127.4 1233.2 3.9400 2.6074 2.8074 335.92 0.035221 14.902 0.058846 5.0000 0.20000 1127.4 1233.2 3.9400 2.6074 2.8074 335.92 0.035221 14.902 0.058846
294.38 76.867 undefined 1130.0 1236.0 3.9446 5.0000 0.20000 1130.0 1236.0 3.9446 2.6109 2.8109 336.21 0.035059 14.925 0.059036 5.0000 0.20000 1130.0 1236.0 3.9446 2.6109 2.8109 336.21 0.035059 14.925 0.059036
295.38 77.006 undefined 1132.7 1238.8 3.9492 5.0000 0.20000 1132.7 1238.8 3.9492 2.6145 2.8144 336.51 0.034898 14.948 0.059227 5.0000 0.20000 1132.7 1238.8 3.9492 2.6145 2.8144 336.51 0.034898 14.948 0.059227
296.38 77.146 undefined 1135.3 1241.7 3.9538 5.0000 0.20000 1135.3 1241.7 3.9538 2.6180 2.8180 336.80 0.034738 14.971 0.059417 5.0000 0.20000 1135.3 1241.7 3.9538 2.6180 2.8180 336.80 0.034738 14.971 0.059417
297.38 77.285 undefined 1137.9 1244.5 3.9584 5.0000 0.20000 1137.9 1244.5 3.9584 2.6216 2.8215 337.10 0.034579 14.994 0.059608 5.0000 0.20000 1137.9 1244.5 3.9584 2.6216 2.8215 337.10 0.034579 14.994 0.059608
298.38 77.424 undefined 1140.5 1247.3 3.9630 5.0000 0.20000 1140.5 1247.3 3.9630 2.6251 2.8250 337.39 0.034421 15.017 0.059800 5.0000 0.20000 1140.5 1247.3 3.9630 2.6251 2.8250 337.39 0.034421 15.017 0.059800
299.38 77.564 undefined 1143.1 1250.1 3.9676 5.0000 0.20000 1143.1 1250.1 3.9676 2.6286 2.8285 337.69 0.034263 15.039 0.059991 5.0000 0.20000 1143.1 1250.1 3.9676 2.6286 2.8285 337.69 0.034263 15.039 0.059991
300.38 77.703 undefined 1145.8 1252.9 3.9721 5.0000 0.20000 1145.8 1252.9 3.9721 2.6322 2.8320 337.98 0.034107 15.062 0.060183 5.0000 0.20000 1145.8 1252.9 3.9721 2.6322 2.8320 337.98 0.034107 15.062 0.060183