Temperature (C) Pressure (psia) Quality (l+v) Internal Energy (l+v, kJ/kg) Enthalpy (l+v, kJ/kg) Entropy (l+v, J/g*K) Density (l, kg/m3) Volume (l, m3/kg) Internal Energy (l, kJ/kg) Enthalpy (l, kJ/kg) Entropy (l, J/g*K) Cv (l, J/g*K) Cp (l, J/g*K) Sound Spd. (l, m/s) Joule-Thomson (l, F/psia) Viscosity (l, uPa*s) Therm. Cond. (l, W/m*K) Density (v, kg/m3) Volume (v, m3/kg) Internal Energy (v, kJ/kg) Enthalpy (v, kJ/kg) Entropy (v, J/g*K) Cv (v, J/g*K) Cp (v, J/g*K) Sound Spd. (v, m/s) Joule-Thomson (v, F/psia) Viscosity (v, uPa*s) Therm. Cond. (v, W/m*K)
-187.62 2.4953e-08 1.9882e-10 -196.64 -196.64 -1.3959 733.13 0.0013640 -196.64 -196.64 -1.3959 1.3553 1.9158 2136.4 -0.0077592 10960. 0.20792 1.0669e-08 9.3732e+07 350.13 366.26 5.1858 0.69067 0.87923 143.28 6.1051 2.3259 0.0017061
-186.62 3.7339e-08 2.9404e-10 -194.73 -194.73 -1.3736 732.08 0.0013660 -194.73 -194.73 -1.3736 1.3539 1.9166 2129.6 -0.0077546 10073. 0.20765 1.5780e-08 6.3371e+07 350.82 367.14 5.1200 0.69462 0.88317 144.03 5.9178 2.3534 0.0017533
-185.62 5.5322e-08 4.3063e-10 -192.81 -192.81 -1.3516 731.04 0.0013679 -192.81 -192.81 -1.3516 1.3525 1.9174 2122.9 -0.0077498 9276.1 0.20737 2.3112e-08 4.3267e+07 351.52 368.02 5.0561 0.69857 0.88713 144.77 5.7383 2.3808 0.0018007
-184.62 8.1182e-08 6.2473e-10 -190.89 -190.89 -1.3298 730.00 0.0013699 -190.89 -190.89 -1.3298 1.3513 1.9182 2116.1 -0.0077448 8557.8 0.20708 3.3533e-08 2.9821e+07 352.22 368.91 4.9939 0.70253 0.89108 145.51 5.5662 2.4083 0.0018485
-183.62 1.1803e-07 8.9808e-10 -188.97 -188.97 -1.3083 728.96 0.0013718 -188.97 -188.97 -1.3083 1.3501 1.9191 2109.3 -0.0077395 7909.8 0.20678 4.8211e-08 2.0742e+07 352.92 369.81 4.9333 0.70648 0.89504 146.24 5.4011 2.4357 0.0018965
-182.62 1.7009e-07 1.2797e-09 -187.05 -187.05 -1.2869 727.92 0.0013738 -187.05 -187.05 -1.2869 1.3490 1.9201 2102.5 -0.0077340 7324.3 0.20647 6.8704e-08 1.4555e+07 353.63 370.70 4.8744 0.71043 0.89899 146.97 5.2426 2.4632 0.0019448
-181.62 2.4299e-07 1.8080e-09 -185.13 -185.13 -1.2658 726.88 0.0013757 -185.13 -185.13 -1.2658 1.3480 1.9210 2095.7 -0.0077283 6794.5 0.20616 9.7079e-08 1.0301e+07 354.35 371.60 4.8170 0.71438 0.90294 147.69 5.0904 2.4906 0.0019934
-180.62 3.4425e-07 2.5335e-09 -183.21 -183.21 -1.2450 725.85 0.0013777 -183.21 -183.21 -1.2450 1.3470 1.9220 2088.9 -0.0077225 6314.4 0.20584 1.3605e-07 7.3504e+06 355.06 372.51 4.7612 0.71833 0.90688 148.41 4.9442 2.5181 0.0020423
-179.62 4.8378e-07 3.5220e-09 -181.29 -181.29 -1.2243 724.81 0.0013797 -181.29 -181.29 -1.2243 1.3461 1.9231 2082.0 -0.0077164 5878.8 0.20551 1.8915e-07 5.2868e+06 355.78 373.42 4.7068 0.72227 0.91082 149.13 4.8038 2.5456 0.0020915
-178.62 6.7459e-07 4.8587e-09 -179.37 -179.37 -1.2038 723.78 0.0013816 -179.37 -179.37 -1.2038 1.3453 1.9241 2075.2 -0.0077102 5482.9 0.20517 2.6096e-07 3.8320e+06 356.51 374.33 4.6538 0.72620 0.91475 149.84 4.6688 2.5731 0.0021410
-177.62 9.3358e-07 6.6529e-09 -177.44 -177.44 -1.1836 722.75 0.0013836 -177.44 -177.44 -1.1836 1.3445 1.9252 2068.4 -0.0077039 5122.6 0.20483 3.5737e-07 2.7982e+06 357.23 375.25 4.6022 0.73012 0.91867 150.54 4.5390 2.6005 0.0021907
-176.62 1.2826e-06 9.0444e-09 -175.52 -175.52 -1.1635 721.72 0.0013856 -175.52 -175.52 -1.1635 1.3437 1.9263 2061.5 -0.0076973 4794.1 0.20447 4.8588e-07 2.0581e+06 357.97 376.17 4.5519 0.73403 0.92258 151.25 4.4142 2.6280 0.0022408
-175.62 1.7496e-06 1.2210e-08 -173.59 -173.59 -1.1437 720.69 0.0013876 -173.59 -173.59 -1.1437 1.3430 1.9274 2054.7 -0.0076907 4494.3 0.20411 6.5601e-07 1.5244e+06 358.70 377.09 4.5029 0.73792 0.92648 151.95 4.2941 2.6555 0.0022912
-174.62 2.3705e-06 1.6373e-08 -171.66 -171.66 -1.1240 719.66 0.0013895 -171.66 -171.66 -1.1240 1.3423 1.9286 2047.9 -0.0076838 4220.2 0.20375 8.7976e-07 1.1367e+06 359.44 378.02 4.4551 0.74181 0.93036 152.64 4.1784 2.6830 0.0023418
-173.62 3.1903e-06 2.1812e-08 -169.73 -169.73 -1.1045 718.64 0.0013915 -169.73 -169.73 -1.1045 1.3417 1.9298 2041.0 -0.0076769 3969.3 0.20338 1.1721e-06 8.5314e+05 360.19 378.95 4.4085 0.74568 0.93423 153.33 4.0671 2.7105 0.0023928
-172.62 4.2661e-06 2.8874e-08 -167.80 -167.80 -1.0852 717.61 0.0013935 -167.80 -167.80 -1.0852 1.3411 1.9310 2034.2 -0.0076698 3739.3 0.20300 1.5518e-06 6.4441e+05 360.93 379.89 4.3631 0.74953 0.93809 154.02 3.9599 2.7379 0.0024440
-171.62 5.6692e-06 3.7988e-08 -165.87 -165.87 -1.0661 716.58 0.0013955 -165.87 -165.87 -1.0661 1.3405 1.9322 2027.3 -0.0076625 3528.0 0.20261 2.0419e-06 4.8974e+05 361.69 380.83 4.3188 0.75337 0.94193 154.71 3.8566 2.7654 0.0024955
-170.62 7.4884e-06 4.9683e-08 -163.94 -163.94 -1.0472 715.56 0.0013975 -163.94 -163.94 -1.0472 1.3400 1.9334 2020.5 -0.0076552 3333.8 0.20222 2.6708e-06 3.7442e+05 362.44 381.77 4.2755 0.75720 0.94575 155.39 3.7570 2.7929 0.0025473
-169.62 9.8334e-06 6.4605e-08 -162.00 -162.00 -1.0284 714.54 0.0013995 -162.00 -162.00 -1.0284 1.3395 1.9347 2013.6 -0.0076477 3154.9 0.20182 3.4733e-06 2.8791e+05 363.20 382.72 4.2334 0.76100 0.94956 156.07 3.6609 2.8204 0.0025994
-168.62 1.2839e-05 8.3538e-08 -160.07 -160.07 -1.0098 713.52 0.0014015 -160.07 -160.07 -1.0098 1.3390 1.9359 2006.8 -0.0076401 2989.9 0.20141 4.4917e-06 2.2263e+05 363.96 383.67 4.1922 0.76479 0.95335 156.74 3.5683 2.8479 0.0026518
-167.62 1.6672e-05 1.0743e-07 -158.13 -158.13 -0.99134 712.49 0.0014035 -158.13 -158.13 -0.99134 1.3386 1.9372 2000.0 -0.0076323 2837.5 0.20100 5.7771e-06 1.7310e+05 364.73 384.63 4.1521 0.76856 0.95712 157.41 3.4790 2.8754 0.0027045
-166.62 2.1533e-05 1.3744e-07 -156.19 -156.19 -0.97306 711.47 0.0014055 -156.19 -156.19 -0.97306 1.3382 1.9385 1993.1 -0.0076245 2696.5 0.20058 7.3914e-06 1.3529e+05 365.50 385.59 4.1129 0.77232 0.96087 158.08 3.3927 2.9029 0.0027575
-165.62 2.7666e-05 1.7493e-07 -154.25 -154.25 -0.95494 710.45 0.0014075 -154.25 -154.25 -0.95494 1.3378 1.9398 1986.3 -0.0076165 2566.0 0.20016 9.4084e-06 1.0629e+05 366.27 386.55 4.0746 0.77605 0.96460 158.75 3.3095 2.9304 0.0028108
-164.62 3.5367e-05 2.2153e-07 -152.31 -152.31 -0.93698 709.44 0.0014096 -152.31 -152.31 -0.93698 1.3375 1.9411 1979.4 -0.0076084 2444.9 0.19973 1.1916e-05 83918. 367.05 387.52 4.0372 0.77976 0.96832 159.41 3.2291 2.9579 0.0028643
-163.62 4.4989e-05 2.7920e-07 -150.37 -150.37 -0.91917 708.42 0.0014116 -150.37 -150.37 -0.91917 1.3371 1.9424 1972.6 -0.0076002 2332.3 0.19930 1.5020e-05 66577. 367.83 388.49 4.0008 0.78346 0.97201 160.07 3.1514 2.9854 0.0029182
-162.62 5.6956e-05 3.5023e-07 -148.43 -148.43 -0.90151 707.40 0.0014136 -148.43 -148.43 -0.90151 1.3368 1.9437 1965.8 -0.0075919 2227.7 0.19886 1.8844e-05 53068. 368.62 389.46 3.9651 0.78713 0.97569 160.72 3.0764 3.0129 0.0029723
-161.62 7.1773e-05 4.3734e-07 -146.48 -146.48 -0.88399 706.38 0.0014157 -146.48 -146.48 -0.88400 1.3365 1.9451 1959.0 -0.0075834 2130.2 0.19841 2.3533e-05 42494. 369.41 390.44 3.9304 0.79079 0.97935 161.38 3.0038 3.0404 0.0030268
-160.62 9.0036e-05 5.4369e-07 -144.54 -144.54 -0.86662 705.37 0.0014177 -144.54 -144.54 -0.86663 1.3363 1.9465 1952.1 -0.0075748 2039.2 0.19796 2.9258e-05 34178. 370.20 391.42 3.8964 0.79443 0.98298 162.03 2.9337 3.0679 0.0030815
-159.62 0.00011245 6.7299e-07 -142.59 -142.59 -0.84940 704.35 0.0014197 -142.59 -142.59 -0.84940 1.3360 1.9478 1945.3 -0.0075661 1954.2 0.19751 3.6221e-05 27609. 371.00 392.40 3.8632 0.79805 0.98660 162.68 2.8658 3.0955 0.0031365
-158.62 0.00013985 8.2955e-07 -140.64 -140.64 -0.83231 703.34 0.0014218 -140.64 -140.64 -0.83231 1.3358 1.9492 1938.5 -0.0075573 1874.8 0.19705 4.4652e-05 22395. 371.80 393.39 3.8307 0.80164 0.99020 163.32 2.8002 3.1230 0.0031918
-157.62 0.00017320 1.0184e-06 -138.69 -138.69 -0.81535 702.32 0.0014238 -138.69 -138.69 -0.81536 1.3356 1.9506 1931.7 -0.0075484 1800.3 0.19658 5.4822e-05 18241. 372.60 394.38 3.7990 0.80522 0.99378 163.96 2.7367 3.1505 0.0032474
-156.62 0.00021364 1.2452e-06 -136.74 -136.74 -0.79854 701.31 0.0014259 -136.74 -136.74 -0.79854 1.3354 1.9520 1924.9 -0.0075393 1730.5 0.19611 6.7040e-05 14916. 373.41 395.38 3.7680 0.80878 0.99734 164.60 2.6752 3.1780 0.0033033
-155.62 0.00026248 1.5167e-06 -134.79 -134.79 -0.78185 700.30 0.0014280 -134.79 -134.79 -0.78185 1.3352 1.9534 1918.1 -0.0075302 1664.9 0.19564 8.1666e-05 12245. 374.22 396.38 3.7377 0.81232 1.0009 165.24 2.6157 3.2055 0.0033595
-154.62 0.00032125 1.8405e-06 -132.83 -132.83 -0.76529 699.29 0.0014300 -132.83 -132.83 -0.76530 1.3350 1.9548 1911.3 -0.0075209 1603.3 0.19516 9.9109e-05 10090. 375.03 397.38 3.7081 0.81585 1.0044 165.87 2.5580 3.2330 0.0034160
-153.62 0.00039171 2.2251e-06 -130.88 -130.88 -0.74886 698.27 0.0014321 -130.88 -130.88 -0.74887 1.3349 1.9563 1904.5 -0.0075114 1545.3 0.19468 0.00011984 8344.6 375.85 398.39 3.6792 0.81935 1.0079 166.50 2.5022 3.2606 0.0034727
-152.62 0.00047590 2.6806e-06 -128.92 -128.92 -0.73255 697.26 0.0014342 -128.92 -128.92 -0.73256 1.3348 1.9577 1897.8 -0.0075019 1490.6 0.19419 0.00014439 6925.9 376.67 399.40 3.6509 0.82284 1.0114 167.13 2.4481 3.2881 0.0035298
-151.62 0.00057613 3.2182e-06 -126.96 -126.96 -0.71637 696.25 0.0014363 -126.96 -126.96 -0.71638 1.3346 1.9592 1891.0 -0.0074922 1438.9 0.19370 0.00017336 5768.4 377.49 400.41 3.6232 0.82631 1.0149 167.76 2.3957 3.3156 0.0035872
-150.62 0.00069507 3.8504e-06 -125.00 -125.00 -0.70030 695.24 0.0014384 -125.00 -125.00 -0.70032 1.3345 1.9606 1884.2 -0.0074824 1390.2 0.19320 0.00020744 4820.7 378.32 401.42 3.5962 0.82976 1.0183 168.38 2.3448 3.3431 0.0036448
-149.62 0.00083574 4.5917e-06 -123.04 -123.04 -0.68436 694.23 0.0014404 -123.04 -123.04 -0.68438 1.3345 1.9621 1877.4 -0.0074724 1344.0 0.19270 0.00024740 4042.0 379.15 402.44 3.5697 0.83319 1.0218 169.00 2.2956 3.3706 0.0037027
-148.62 0.0010016 5.4581e-06 -121.08 -121.08 -0.66853 693.22 0.0014425 -121.08 -121.08 -0.66855 1.3344 1.9636 1870.7 -0.0074623 1300.3 0.19220 0.00029412 3400.0 379.99 403.47 3.5438 0.83661 1.0252 169.62 2.2478 3.3982 0.0037610
-147.62 0.0011965 6.4676e-06 -119.11 -119.11 -0.65281 692.21 0.0014447 -119.11 -119.11 -0.65284 1.3343 1.9651 1863.9 -0.0074521 1258.9 0.19169 0.00034856 2869.0 380.83 404.49 3.5185 0.84001 1.0286 170.24 2.2014 3.4257 0.0038195
-146.62 0.0014249 7.6405e-06 -117.15 -117.14 -0.63721 691.20 0.0014468 -117.15 -117.15 -0.63724 1.3343 1.9666 1857.2 -0.0074417 1219.6 0.19117 0.00041181 2428.3 381.67 405.52 3.4938 0.84340 1.0320 170.85 2.1565 3.4532 0.0038783
-145.62 0.0016917 8.9991e-06 -115.18 -115.18 -0.62171 690.19 0.0014489 -115.18 -115.18 -0.62175 1.3343 1.9682 1850.4 -0.0074312 1182.3 0.19066 0.00048510 2061.4 382.51 406.56 3.4695 0.84677 1.0353 171.46 2.1128 3.4807 0.0039374
-144.62 0.0020026 1.0569e-05 -113.21 -113.21 -0.60633 689.18 0.0014510 -113.21 -113.21 -0.60637 1.3343 1.9697 1843.7 -0.0074206 1146.8 0.19014 0.00056976 1755.1 383.36 407.59 3.4458 0.85012 1.0387 172.07 2.0705 3.5082 0.0039967
-143.62 0.0023637 1.2376e-05 -111.24 -111.24 -0.59105 688.17 0.0014531 -111.24 -111.24 -0.59110 1.3343 1.9713 1836.9 -0.0074098 1113.0 0.18962 0.00066731 1498.6 384.21 408.63 3.4226 0.85346 1.0420 172.68 2.0294 3.5358 0.0040564
-142.62 0.0027820 1.4454e-05 -109.26 -109.26 -0.57587 687.16 0.0014553 -109.27 -109.27 -0.57593 1.3343 1.9728 1830.2 -0.0073988 1080.8 0.18909 0.00077939 1283.1 385.07 409.68 3.3999 0.85679 1.0454 173.28 1.9896 3.5633 0.0041164
-141.62 0.0032653 1.6834e-05 -107.29 -107.29 -0.56080 686.15 0.0014574 -107.30 -107.30 -0.56087 1.3343 1.9744 1823.5 -0.0073878 1050.1 0.18856 0.00090784 1101.5 385.93 410.72 3.3777 0.86011 1.0487 173.88 1.9508 3.5908 0.0041766
-140.62 0.0038222 1.9554e-05 -105.31 -105.31 -0.54583 685.14 0.0014596 -105.32 -105.32 -0.54591 1.3344 1.9760 1816.7 -0.0073765 1020.7 0.18803 0.0010547 948.16 386.79 411.77 3.3560 0.86341 1.0520 174.48 1.9133 3.6183 0.0042372
-139.62 0.0044623 2.2656e-05 -103.33 -103.33 -0.53096 684.13 0.0014617 -103.34 -103.34 -0.53105 1.3344 1.9776 1810.0 -0.0073651 992.74 0.18749 0.0012221 818.26 387.65 412.83 3.3347 0.86670 1.0553 175.08 1.8768 3.6459 0.0042980
-138.62 0.0051963 2.6183e-05 -101.35 -101.35 -0.51619 683.12 0.0014639 -101.37 -101.37 -0.51629 1.3345 1.9792 1803.3 -0.0073536 965.97 0.18695 0.0014125 707.94 388.52 413.88 3.3139 0.86998 1.0586 175.67 1.8413 3.6734 0.0043592
-137.62 0.0060358 3.0186e-05 -99.371 -99.371 -0.50151 682.11 0.0014660 -99.386 -99.386 -0.50162 1.3346 1.9808 1796.6 -0.0073419 940.35 0.18641 0.0016287 614.00 389.39 414.94 3.2935 0.87325 1.0619 176.26 1.8069 3.7009 0.0044206
-136.62 0.0069938 3.4717e-05 -97.388 -97.387 -0.48692 681.10 0.0014682 -97.404 -97.404 -0.48705 1.3347 1.9825 1789.9 -0.0073301 915.81 0.18586 0.0018733 533.80 390.26 416.00 3.2735 0.87650 1.0651 176.85 1.7734 3.7284 0.0044823
-135.62 0.0080843 3.9834e-05 -95.402 -95.401 -0.47243 680.09 0.0014704 -95.421 -95.421 -0.47258 1.3348 1.9841 1783.2 -0.0073180 892.30 0.18531 0.0021497 465.17 391.14 417.07 3.2540 0.87975 1.0684 177.44 1.7409 3.7559 0.0045443
-134.62 0.0093230 4.5601e-05 -93.414 -93.413 -0.45803 679.08 0.0014726 -93.436 -93.436 -0.45820 1.3350 1.9858 1776.5 -0.0073059 869.75 0.18476 0.0024613 406.30 392.02 418.14 3.2348 0.88299 1.0716 178.02 1.7093 3.7834 0.0046066
-133.62 0.010727 5.2086e-05 -91.424 -91.423 -0.44372 678.07 0.0014748 -91.450 -91.449 -0.44391 1.3351 1.9875 1769.8 -0.0072935 848.11 0.18421 0.0028116 355.67 392.91 419.21 3.2161 0.88622 1.0749 178.61 1.6786 3.8109 0.0046691
-132.62 0.012315 5.9364e-05 -89.433 -89.431 -0.42949 677.06 0.0014770 -89.461 -89.461 -0.42971 1.3353 1.9892 1763.1 -0.0072810 827.32 0.18365 0.0032049 312.03 393.79 420.29 3.1977 0.88944 1.0781 179.19 1.6488 3.8385 0.0047320
-131.62 0.014106 6.7514e-05 -87.439 -87.437 -0.41535 676.04 0.0014792 -87.471 -87.471 -0.41560 1.3354 1.9909 1756.4 -0.0072684 807.34 0.18309 0.0036453 274.33 394.68 421.36 3.1798 0.89266 1.0813 179.76 1.6197 3.8660 0.0047951
-130.62 0.016124 7.6622e-05 -85.443 -85.440 -0.40130 675.03 0.0014814 -85.479 -85.479 -0.40157 1.3356 1.9926 1749.7 -0.0072555 788.12 0.18253 0.0041375 241.69 395.58 422.44 3.1622 0.89586 1.0846 180.34 1.5915 3.8935 0.0048586
-129.62 0.018392 8.6781e-05 -83.444 -83.442 -0.38733 674.02 0.0014836 -83.486 -83.486 -0.38763 1.3358 1.9944 1743.0 -0.0072425 769.63 0.18196 0.0046867 213.37 396.47 423.53 3.1450 0.89906 1.0878 180.91 1.5641 3.9210 0.0049223
-128.62 0.020935 9.8091e-05 -81.444 -81.441 -0.37344 673.01 0.0014859 -81.491 -81.490 -0.37378 1.3360 1.9961 1736.3 -0.0072294 751.83 0.18140 0.0052981 188.75 397.37 424.62 3.1281 0.90226 1.0910 181.48 1.5374 3.9485 0.0049863
-127.62 0.023783 0.00011066 -79.441 -79.437 -0.35963 672.00 0.0014881 -79.494 -79.493 -0.36001 1.3363 1.9979 1729.6 -0.0072160 734.67 0.18083 0.0059776 167.29 398.27 425.71 3.1116 0.90545 1.0942 182.05 1.5114 3.9760 0.0050506
-126.62 0.026966 0.00012460 -77.435 -77.432 -0.34589 670.98 0.0014904 -77.495 -77.495 -0.34632 1.3365 1.9997 1722.9 -0.0072025 718.14 0.18025 0.0067313 148.56 399.18 426.80 3.0954 0.90863 1.0974 182.62 1.4861 4.0035 0.0051152
-125.62 0.030515 0.00014003 -75.428 -75.423 -0.33224 669.97 0.0014926 -75.494 -75.494 -0.33272 1.3368 2.0015 1716.2 -0.0071888 702.18 0.17968 0.0075660 132.17 400.09 427.89 3.0795 0.91181 1.1006 183.18 1.4615 4.0310 0.0051800
-124.62 0.034467 0.00015708 -73.417 -73.413 -0.31866 668.95 0.0014949 -73.492 -73.492 -0.31919 1.3371 2.0033 1709.5 -0.0071749 686.79 0.17910 0.0084885 117.81 401.00 428.99 3.0640 0.91499 1.1038 183.74 1.4375 4.0584 0.0052452
-123.62 0.038859 0.00017590 -71.404 -71.399 -0.30515 667.94 0.0014971 -71.488 -71.487 -0.30574 1.3374 2.0051 1702.8 -0.0071609 671.93 0.17852 0.0095065 105.19 401.91 430.10 3.0488 0.91816 1.1070 184.30 1.4141 4.0859 0.0053106
-122.62 0.043731 0.00019663 -69.389 -69.383 -0.29171 666.92 0.0014994 -69.482 -69.481 -0.29237 1.3377 2.0070 1696.2 -0.0071466 657.57 0.17794 0.010628 94.092 402.83 431.20 3.0339 0.92134 1.1102 184.86 1.3913 4.1134 0.0053764
-121.62 0.049128 0.00021942 -67.370 -67.364 -0.27835 665.91 0.0015017 -67.474 -67.473 -0.27907 1.3380 2.0089 1689.5 -0.0071322 643.70 0.17736 0.011861 84.309 403.75 432.31 3.0193 0.92451 1.1134 185.41 1.3691 4.1409 0.0054424
-120.62 0.055096 0.00024444 -65.349 -65.341 -0.26505 664.89 0.0015040 -65.464 -65.463 -0.26585 1.3384 2.0107 1682.8 -0.0071176 630.28 0.17678 0.013215 75.669 404.67 433.42 3.0050 0.92767 1.1166 185.96 1.3475 4.1683 0.0055087
-119.62 0.061684 0.00027186 -63.325 -63.316 -0.25182 663.87 0.0015063 -63.452 -63.452 -0.25271 1.3387 2.0126 1676.1 -0.0071028 617.30 0.17619 0.014700 68.027 405.60 434.53 2.9909 0.93084 1.1198 186.51 1.3264 4.1958 0.0055752
-118.62 0.068946 0.00030188 -61.297 -61.288 -0.23866 662.86 0.0015086 -61.439 -61.438 -0.23963 1.3391 2.0146 1669.4 -0.0070878 604.74 0.17560 0.016325 61.255 406.53 435.64 2.9772 0.93401 1.1231 187.06 1.3058 4.2233 0.0056421
-117.62 0.076937 0.00033468 -59.267 -59.256 -0.22556 661.84 0.0015109 -59.423 -59.422 -0.22663 1.3395 2.0165 1662.8 -0.0070726 592.58 0.17501 0.018101 55.245 407.46 436.76 2.9638 0.93718 1.1263 187.60 1.2857 4.2507 0.0057092
-116.62 0.085718 0.00037048 -57.233 -57.221 -0.21253 660.82 0.0015133 -57.406 -57.405 -0.21370 1.3400 2.0184 1656.1 -0.0070573 580.80 0.17442 0.020040 49.901 408.39 437.88 2.9506 0.94035 1.1295 188.14 1.2660 4.2782 0.0057767
-115.62 0.095353 0.00040948 -55.196 -55.183 -0.19956 659.80 0.0015156 -55.386 -55.385 -0.20084 1.3404 2.0204 1649.4 -0.0070417 569.38 0.17383 0.022152 45.142 409.33 439.01 2.9377 0.94352 1.1327 188.68 1.2468 4.3056 0.0058444
-114.62 0.10591 0.00045192 -53.155 -53.141 -0.18664 658.78 0.0015180 -53.365 -53.364 -0.18805 1.3409 2.0224 1642.7 -0.0070260 558.32 0.17323 0.024451 40.898 410.27 440.13 2.9250 0.94669 1.1360 189.22 1.2281 4.3330 0.0059123
-113.62 0.11746 0.00049804 -51.111 -51.095 -0.17379 657.76 0.0015203 -51.342 -51.340 -0.17533 1.3413 2.0244 1636.0 -0.0070100 547.59 0.17264 0.026949 37.107 411.21 441.26 2.9126 0.94987 1.1392 189.75 1.2097 4.3604 0.0059806
-112.62 0.13008 0.00054808 -49.063 -49.045 -0.16099 656.73 0.0015227 -49.316 -49.315 -0.16267 1.3418 2.0264 1629.3 -0.0069938 537.18 0.17204 0.029661 33.715 412.16 442.39 2.9005 0.95305 1.1424 190.28 1.1918 4.3879 0.0060491
-111.62 0.14384 0.00060230 -47.011 -46.992 -0.14825 655.71 0.0015251 -47.289 -47.287 -0.15008 1.3424 2.0285 1622.7 -0.0069774 527.08 0.17144 0.032600 30.675 413.10 443.53 2.8885 0.95623 1.1457 190.81 1.1742 4.4153 0.0061180
-110.62 0.15884 0.00066099 -44.956 -44.934 -0.13556 654.69 0.0015274 -45.259 -45.258 -0.13755 1.3429 2.0305 1616.0 -0.0069609 517.28 0.17084 0.035781 27.948 414.06 444.66 2.8769 0.95942 1.1490 191.34 1.1570 4.4427 0.0061871
-109.62 0.17516 0.00072443 -42.896 -42.872 -0.12292 653.66 0.0015298 -43.228 -43.226 -0.12509 1.3435 2.0326 1609.3 -0.0069441 507.76 0.17024 0.039220 25.497 415.01 445.80 2.8654 0.96261 1.1522 191.86 1.1402 4.4701 0.0062564
-108.62 0.19290 0.00079292 -40.832 -40.805 -0.11034 652.64 0.0015322 -41.194 -41.192 -0.11269 1.3441 2.0347 1602.6 -0.0069271 498.51 0.16964 0.042933 23.292 415.96 446.94 2.8542 0.96581 1.1555 192.38 1.1236 4.4974 0.0063261
-107.62 0.21215 0.00086677 -38.763 -38.734 -0.097806 651.61 0.0015347 -39.158 -39.156 -0.10036 1.3447 2.0369 1595.9 -0.0069098 489.52 0.16903 0.046937 21.305 416.92 448.09 2.8433 0.96901 1.1588 192.90 1.1075 4.5248 0.0063960
-106.62 0.23301 0.00094630 -36.690 -36.658 -0.085319 650.58 0.0015371 -37.120 -37.118 -0.088082 1.3453 2.0390 1589.2 -0.0068924 480.79 0.16843 0.051250 19.512 417.88 449.23 2.8325 0.97222 1.1621 193.41 1.0916 4.5522 0.0064662
-105.62 0.25561 0.0010319 -34.612 -34.577 -0.072878 649.55 0.0015395 -35.080 -35.078 -0.075868 1.3460 2.0412 1582.6 -0.0068747 472.30 0.16782 0.055891 17.892 418.85 450.38 2.8220 0.97544 1.1655 193.93 1.0760 4.5795 0.0065367
-104.62 0.28004 0.0011238 -32.529 -32.491 -0.060483 648.52 0.0015420 -33.038 -33.035 -0.063714 1.3467 2.0434 1575.9 -0.0068569 464.04 0.16721 0.060878 16.426 419.81 451.53 2.8116 0.97867 1.1688 194.44 1.0608 4.6069 0.0066074
-103.62 0.30643 0.0012225 -30.442 -30.399 -0.048131 647.49 0.0015444 -30.994 -30.991 -0.051619 1.3474 2.0456 1569.2 -0.0068387 456.00 0.16660 0.066231 15.099 420.78 452.68 2.8015 0.98191 1.1722 194.94 1.0458 4.6342 0.0066785
-102.62 0.33490 0.0013282 -28.349 -28.302 -0.035821 646.46 0.0015469 -28.947 -28.944 -0.039582 1.3481 2.0478 1562.5 -0.0068204 448.18 0.16600 0.071971 13.894 421.75 453.84 2.7916 0.98516 1.1755 195.44 1.0310 4.6615 0.0067498
-101.62 0.36558 0.0014415 -26.250 -26.200 -0.023552 645.43 0.0015494 -26.898 -26.894 -0.027602 1.3489 2.0501 1555.8 -0.0068018 440.57 0.16539 0.078120 12.801 422.73 454.99 2.7818 0.98841 1.1789 195.95 1.0166 4.6888 0.0068213
-100.62 0.39862 0.0015627 -24.146 -24.091 -0.011321 644.39 0.0015519 -24.847 -24.843 -0.015678 1.3497 2.0524 1549.1 -0.0067830 433.16 0.16478 0.084699 11.807 423.70 456.15 2.7723 0.99168 1.1823 196.44 1.0024 4.7161 0.0068932
-99.625 0.43414 0.0016923 -22.037 -21.977 0.00087189 643.36 0.0015544 -22.794 -22.789 -0.0038103 1.3505 2.0547 1542.4 -0.0067639 425.95 0.16416 0.091731 10.901 424.68 457.31 2.7630 0.99496 1.1858 196.94 0.98838 4.7434 0.0069653
-98.625 0.47230 0.0018306 -19.921 -19.856 0.013029 642.32 0.0015569 -20.738 -20.733 0.0080027 1.3514 2.0570 1535.7 -0.0067447 418.92 0.16355 0.099240 10.077 425.66 458.48 2.7538 0.99825 1.1892 197.43 0.97464 4.7707 0.0070377
-97.625 0.51325 0.0019781 -17.799 -17.728 0.025152 641.28 0.0015594 -18.680 -18.674 0.019762 1.3522 2.0594 1529.0 -0.0067251 412.07 0.16294 0.10725 9.3239 426.65 459.64 2.7448 1.0016 1.1927 197.92 0.96112 4.7979 0.0071103
-96.625 0.55714 0.0021353 -15.671 -15.594 0.037242 640.24 0.0015619 -16.620 -16.614 0.031467 1.3531 2.0618 1522.3 -0.0067053 405.39 0.16233 0.11579 8.6365 427.63 460.81 2.7360 1.0049 1.1962 198.40 0.94783 4.8251 0.0071832
-95.625 0.60416 0.0023026 -13.536 -13.453 0.049301 639.20 0.0015645 -14.557 -14.550 0.043120 1.3540 2.0642 1515.7 -0.0066853 398.88 0.16171 0.12488 8.0078 428.62 461.98 2.7274 1.0082 1.1997 198.88 0.93475 4.8524 0.0072564
-94.625 0.65446 0.0024806 -11.395 -11.304 0.061330 638.16 0.0015670 -12.491 -12.484 0.054721 1.3550 2.0667 1509.0 -0.0066650 392.53 0.16110 0.13455 7.4323 429.61 463.15 2.7189 1.0116 1.2032 199.36 0.92188 4.8796 0.0073299
-93.625 0.70822 0.0026698 -9.2463 -9.1486 0.073331 637.12 0.0015696 -10.424 -10.416 0.066271 1.3560 2.0691 1502.3 -0.0066444 386.34 0.16048 0.14482 6.9050 430.60 464.32 2.7107 1.0149 1.2068 199.83 0.90921 4.9068 0.0074036
-92.625 0.76564 0.0028706 -7.0906 -6.9850 0.085305 636.07 0.0015722 -8.3535 -8.3452 0.077771 1.3570 2.0716 1495.6 -0.0066236 380.31 0.15987 0.15573 6.4212 431.60 465.49 2.7025 1.0183 1.2104 200.30 0.89673 4.9340 0.0074776
-91.625 0.82689 0.0030836 -4.9276 -4.8135 0.097254 635.02 0.0015747 -6.2808 -6.2719 0.089220 1.3580 2.0742 1488.9 -0.0066025 374.41 0.15925 0.16731 5.9769 432.59 466.67 2.6946 1.0217 1.2140 200.77 0.88445 4.9611 0.0075518
-90.625 0.89218 0.0033093 -2.7568 -2.6338 0.10918 633.98 0.0015773 -4.2056 -4.1959 0.10062 1.3591 2.0767 1482.2 -0.0065811 368.66 0.15864 0.17958 5.5685 433.59 467.84 2.6868 1.0251 1.2177 201.24 0.87236 4.9883 0.0076263
-89.625 0.96172 0.0035483 -0.57824 -0.44562 0.12108 632.93 0.0015800 -2.1279 -2.1174 0.11197 1.3602 2.0793 1475.5 -0.0065595 363.05 0.15802 0.19258 5.1928 434.59 469.02 2.6791 1.0285 1.2213 201.70 0.86045 5.0154 0.0077011
-88.625 1.0357 0.0038013 1.6085 1.7513 0.13297 631.88 0.0015826 -0.047516 -0.036215 0.12328 1.3613 2.0819 1468.8 -0.0065375 357.56 0.15740 0.20633 4.8466 435.59 470.20 2.6717 1.0320 1.2250 202.15 0.84873 5.0425 0.0077761
-87.625 1.1144 0.0040687 3.8036 3.9572 0.14483 630.83 0.0015852 2.0355 2.0476 0.13454 1.3625 2.0846 1462.1 -0.0065153 352.21 0.15679 0.22087 4.5276 436.60 471.39 2.6643 1.0354 1.2288 202.61 0.83718 5.0696 0.0078514
-86.625 1.1979 0.0043512 6.0072 6.1724 0.15668 629.77 0.0015879 4.1211 4.1342 0.14575 1.3637 2.0873 1455.4 -0.0064928 346.98 0.15617 0.23623 4.2331 437.61 472.57 2.6571 1.0389 1.2325 203.06 0.82580 5.0967 0.0079270
-85.625 1.2866 0.0046494 8.2198 8.3972 0.16851 628.72 0.0015905 6.2094 6.2235 0.15691 1.3649 2.0900 1448.8 -0.0064701 341.87 0.15555 0.25245 3.9612 438.61 473.75 2.6501 1.0424 1.2363 203.50 0.81460 5.1237 0.0080028
-84.625 1.3806 0.0049639 10.441 10.632 0.18032 627.66 0.0015932 8.3004 8.3155 0.16803 1.3661 2.0927 1442.1 -0.0064470 336.87 0.15494 0.26956 3.7097 439.63 474.94 2.6432 1.0460 1.2402 203.95 0.80356 5.1508 0.0080789
-83.625 1.4803 0.0052954 12.672 12.877 0.19212 626.60 0.0015959 10.394 10.410 0.17911 1.3674 2.0955 1435.4 -0.0064236 331.99 0.15432 0.28760 3.4771 440.64 476.13 2.6364 1.0495 1.2440 204.38 0.79269 5.1778 0.0081553
-82.625 1.5858 0.0056445 14.913 15.132 0.20391 625.54 0.0015986 12.491 12.508 0.19014 1.3687 2.0983 1428.7 -0.0063999 327.22 0.15370 0.30659 3.2616 441.65 477.31 2.6298 1.0531 1.2479 204.82 0.78199 5.2048 0.0082319
-81.625 1.6975 0.0060120 17.164 17.398 0.21570 624.48 0.0016013 14.590 14.609 0.20113 1.3700 2.1012 1422.0 -0.0063759 322.55 0.15309 0.32659 3.0619 442.67 478.50 2.6233 1.0567 1.2519 205.25 0.77144 5.2318 0.0083088
-80.625 1.8155 0.0063985 19.424 19.675 0.22747 623.42 0.0016041 16.692 16.712 0.21208 1.3714 2.1041 1415.4 -0.0063516 317.99 0.15247 0.34763 2.8766 443.69 479.70 2.6169 1.0603 1.2558 205.67 0.76106 5.2587 0.0083860
-79.625 1.9402 0.0068047 21.695 21.963 0.23923 622.36 0.0016068 18.797 18.819 0.22299 1.3728 2.1070 1408.7 -0.0063270 313.52 0.15186 0.36974 2.7046 444.71 480.89 2.6106 1.0639 1.2598 206.10 0.75083 5.2857 0.0084634
-78.625 2.0718 0.0072314 23.977 24.263 0.25099 621.29 0.0016096 20.905 20.928 0.23385 1.3742 2.1099 1402.0 -0.0063021 309.15 0.15124 0.39296 2.5448 445.73 482.08 2.6045 1.0676 1.2639 206.51 0.74076 5.3126 0.0085411
-77.625 2.2107 0.0076792 26.270 26.575 0.26275 620.22 0.0016123 23.016 23.040 0.24468 1.3757 2.1129 1395.3 -0.0062768 304.88 0.15062 0.41735 2.3961 446.75 483.27 2.5985 1.0712 1.2680 206.93 0.73084 5.3395 0.0086190
-76.625 2.3571 0.0081489 28.574 28.899 0.27450 619.15 0.0016151 25.130 25.156 0.25546 1.3772 2.1159 1388.7 -0.0062512 300.69 0.15001 0.44292 2.2577 447.78 484.47 2.5926 1.0749 1.2721 207.34 0.72107 5.3664 0.0086972
-75.625 2.5113 0.0086413 30.889 31.236 0.28626 618.08 0.0016179 27.247 27.275 0.26620 1.3787 2.1190 1382.0 -0.0062253 296.59 0.14939 0.46974 2.1288 448.81 485.67 2.5869 1.0787 1.2762 207.74 0.71146 5.3933 0.0087757
-74.625 2.6736 0.0091572 33.217 33.585 0.29801 617.01 0.0016207 29.366 29.396 0.27691 1.3802 2.1221 1375.4 -0.0061990 292.58 0.14878 0.49783 2.0087 449.83 486.86 2.5812 1.0824 1.2804 208.14 0.70200 5.4201 0.0088544
-73.625 2.8444 0.0096974 35.556 35.948 0.30976 615.93 0.0016236 31.489 31.521 0.28758 1.3818 2.1252 1368.7 -0.0061724 288.65 0.14816 0.52725 1.8966 450.86 488.06 2.5757 1.0862 1.2847 208.54 0.69268 5.4469 0.0089334
-72.625 3.0240 0.010263 37.908 38.325 0.32152 614.85 0.0016264 33.615 33.649 0.29821 1.3834 2.1284 1362.0 -0.0061454 284.81 0.14755 0.55804 1.7920 451.90 489.26 2.5703 1.0900 1.2889 208.93 0.68351 5.4737 0.0090126
-71.625 3.2127 0.010854 40.273 40.716 0.33329 613.78 0.0016293 35.745 35.781 0.30880 1.3851 2.1316 1355.4 -0.0061181 281.03 0.14694 0.59024 1.6942 452.93 490.46 2.5650 1.0938 1.2932 209.32 0.67448 5.5005 0.0090922
-70.625 3.4108 0.011471 42.650 43.120 0.34505 612.69 0.0016321 37.877 37.915 0.31935 1.3867 2.1349 1348.7 -0.0060904 277.34 0.14632 0.62390 1.6028 453.96 491.66 2.5598 1.0976 1.2976 209.70 0.66560 5.5273 0.0091720
-69.625 3.6187 0.012117 45.041 45.540 0.35683 611.61 0.0016350 40.013 40.053 0.32987 1.3884 2.1382 1342.1 -0.0060624 273.72 0.14571 0.65906 1.5173 455.00 492.86 2.5547 1.1015 1.3020 210.08 0.65687 5.5540 0.0092520
-68.625 3.8367 0.012790 47.445 47.974 0.36861 610.53 0.0016379 42.152 42.195 0.34036 1.3902 2.1415 1335.5 -0.0060339 270.17 0.14510 0.69577 1.4372 456.04 494.06 2.5497 1.1054 1.3064 210.45 0.64827 5.5807 0.0093324
-67.625 4.0652 0.013493 49.864 50.424 0.38041 609.44 0.0016409 44.294 44.340 0.35080 1.3919 2.1449 1328.8 -0.0060051 266.69 0.14449 0.73408 1.3622 457.08 495.26 2.5448 1.1093 1.3109 210.82 0.63981 5.6074 0.0094130
-66.625 4.3046 0.014227 52.296 52.890 0.39222 608.35 0.0016438 46.439 46.488 0.36122 1.3937 2.1483 1322.2 -0.0059760 263.28 0.14388 0.77404 1.2919 458.12 496.46 2.5400 1.1133 1.3154 211.18 0.63150 5.6341 0.0094939
-65.625 4.5551 0.014991 54.743 55.371 0.40404 607.26 0.0016467 48.588 48.640 0.37160 1.3955 2.1518 1315.6 -0.0059464 259.93 0.14327 0.81570 1.2259 459.16 497.67 2.5353 1.1172 1.3200 211.54 0.62332 5.6608 0.0095750
-64.625 4.8173 0.015787 57.205 57.869 0.41587 606.16 0.0016497 50.740 50.795 0.38195 1.3974 2.1553 1308.9 -0.0059164 256.65 0.14266 0.85910 1.1640 460.21 498.87 2.5307 1.1212 1.3246 211.89 0.61527 5.6874 0.0096564
-63.625 5.0915 0.016616 59.681 60.384 0.42772 605.07 0.0016527 52.896 52.954 0.39226 1.3993 2.1588 1302.3 -0.0058861 253.42 0.14205 0.90429 1.1058 461.25 500.07 2.5262 1.1252 1.3293 212.24 0.60736 5.7140 0.0097382
-62.625 5.3781 0.017479 62.174 62.915 0.43958 603.97 0.0016557 55.055 55.117 0.40254 1.4012 2.1624 1295.7 -0.0058553 250.26 0.14144 0.95134 1.0511 462.30 501.28 2.5218 1.1293 1.3340 212.58 0.59958 5.7406 0.0098201
-61.625 5.6774 0.018377 64.682 65.464 0.45147 602.87 0.0016587 57.218 57.283 0.41279 1.4031 2.1660 1289.1 -0.0058241 247.16 0.14084 1.0003 0.99972 463.35 502.48 2.5175 1.1333 1.3387 212.92 0.59194 5.7672 0.0099024
-60.625 5.9899 0.019311 67.206 68.032 0.46337 601.77 0.0016618 59.385 59.453 0.42301 1.4051 2.1697 1282.5 -0.0057925 244.12 0.14023 1.0512 0.95131 464.40 503.68 2.5133 1.1374 1.3435 213.26 0.58442 5.7938 0.0099850
-59.625 6.3160 0.020281 69.746 70.617 0.47530 600.66 0.0016648 61.554 61.627 0.43320 1.4071 2.1734 1275.9 -0.0057605 241.13 0.13962 1.1041 0.90573 465.45 504.89 2.5091 1.1415 1.3483 213.58 0.57704 5.8203 0.010068
-58.625 6.6561 0.021289 72.303 73.221 0.48724 599.55 0.0016679 63.728 63.805 0.44335 1.4091 2.1772 1269.3 -0.0057280 238.19 0.13902 1.1591 0.86277 466.50 506.09 2.5051 1.1457 1.3532 213.90 0.56978 5.8468 0.010151
-57.625 7.0107 0.022336 74.877 75.843 0.49921 598.44 0.0016710 65.905 65.986 0.45348 1.4111 2.1810 1262.7 -0.0056951 235.31 0.13842 1.2161 0.82228 467.55 507.30 2.5011 1.1498 1.3581 214.22 0.56265 5.8733 0.010234
-56.625 7.3801 0.023423 77.468 78.485 0.51121 597.33 0.0016741 68.086 68.172 0.46358 1.4132 2.1848 1256.1 -0.0056617 232.48 0.13781 1.2754 0.78408 468.60 508.50 2.4972 1.1540 1.3631 214.53 0.55564 5.8998 0.010318
-55.625 7.7648 0.024550 80.076 81.147 0.52323 596.22 0.0016772 70.271 70.361 0.47364 1.4153 2.1887 1249.5 -0.0056279 229.69 0.13721 1.3369 0.74802 469.66 509.71 2.4934 1.1582 1.3681 214.84 0.54875 5.9263 0.010402
-54.625 8.1652 0.025720 82.703 83.829 0.53528 595.10 0.0016804 72.460 72.554 0.48368 1.4174 2.1927 1242.9 -0.0055937 226.96 0.13661 1.4006 0.71396 470.72 510.91 2.4897 1.1624 1.3731 215.14 0.54199 5.9527 0.010486
-53.625 8.5819 0.026932 85.348 86.531 0.54735 593.98 0.0016836 74.652 74.752 0.49369 1.4196 2.1967 1236.3 -0.0055589 224.27 0.13601 1.4667 0.68178 471.77 512.11 2.4860 1.1667 1.3782 215.43 0.53535 5.9792 0.010571
-52.625 9.0151 0.028188 88.011 89.254 0.55946 592.86 0.0016867 76.849 76.954 0.50368 1.4218 2.2007 1229.8 -0.0055237 221.63 0.13541 1.5353 0.65136 472.83 513.32 2.4824 1.1710 1.3834 215.72 0.52882 6.0056 0.010656
-51.625 9.4655 0.029490 90.693 91.998 0.57159 591.73 0.0016900 79.049 79.159 0.51363 1.4240 2.2048 1223.2 -0.0054880 219.04 0.13482 1.6062 0.62258 473.89 514.52 2.4789 1.1752 1.3886 216.00 0.52241 6.0320 0.010741
-50.625 9.9335 0.030838 93.394 94.764 0.58376 590.60 0.0016932 81.253 81.369 0.52356 1.4262 2.2089 1216.6 -0.0054519 216.48 0.13422 1.6797 0.59534 474.95 515.73 2.4755 1.1796 1.3938 216.28 0.51612 6.0584 0.010827
-49.625 10.419 0.032233 96.115 97.552 0.59596 589.47 0.0016964 83.462 83.584 0.53347 1.4285 2.2131 1210.1 -0.0054152 213.98 0.13363 1.7558 0.56954 476.01 516.93 2.4722 1.1839 1.3991 216.55 0.50994 6.0848 0.010913
-48.625 10.924 0.033677 98.855 100.36 0.60819 588.34 0.0016997 85.674 85.802 0.54334 1.4308 2.2173 1203.5 -0.0053780 211.51 0.13303 1.8345 0.54510 477.07 518.13 2.4689 1.1883 1.4044 216.82 0.50387 6.1112 0.010999
-47.625 11.448 0.035171 101.62 103.19 0.62046 587.20 0.0017030 87.891 88.025 0.55319 1.4331 2.2216 1196.9 -0.0053403 209.08 0.13244 1.9159 0.52194 478.14 519.33 2.4657 1.1927 1.4098 217.08 0.49792 6.1375 0.011085
-46.625 11.991 0.036715 104.40 106.05 0.63276 586.06 0.0017063 90.111 90.252 0.56302 1.4354 2.2259 1190.4 -0.0053020 206.69 0.13185 2.0001 0.49997 479.20 520.53 2.4625 1.1971 1.4153 217.33 0.49207 6.1639 0.011172
-45.625 12.554 0.038312 107.20 108.93 0.64510 584.92 0.0017096 92.336 92.484 0.57282 1.4378 2.2303 1183.8 -0.0052633 204.34 0.13126 2.0872 0.47912 480.27 521.74 2.4594 1.2015 1.4207 217.58 0.48633 6.1902 0.011259
-44.625 13.137 0.039962 110.02 111.83 0.65748 583.77 0.0017130 94.565 94.720 0.58260 1.4402 2.2347 1177.3 -0.0052240 202.03 0.13067 2.1771 0.45933 481.33 522.94 2.4564 1.2060 1.4263 217.82 0.48069 6.2165 0.011347
-43.625 13.741 0.041666 112.86 114.76 0.66990 582.62 0.0017164 96.799 96.961 0.59235 1.4426 2.2392 1170.7 -0.0051841 199.75 0.13008 2.2700 0.44053 482.40 524.14 2.4535 1.2104 1.4319 218.05 0.47516 6.2429 0.011435
-42.625 14.367 0.043426 115.73 117.71 0.68235 581.47 0.0017198 99.036 99.207 0.60208 1.4450 2.2437 1164.2 -0.0051437 197.51 0.12949 2.3659 0.42267 483.46 525.33 2.4506 1.2149 1.4375 218.28 0.46973 6.2692 0.011523
-41.625 15.015 0.045243 118.62 120.69 0.69485 580.32 0.0017232 101.28 101.46 0.61179 1.4475 2.2483 1157.7 -0.0051027 195.30 0.12891 2.4649 0.40569 484.53 526.53 2.4478 1.2195 1.4432 218.50 0.46440 6.2955 0.011612
-40.625 15.686 0.047119 121.53 123.69 0.70739 579.16 0.0017266 103.52 103.71 0.62147 1.4500 2.2529 1151.1 -0.0050611 193.13 0.12832 2.5671 0.38954 485.60 527.73 2.4450 1.2240 1.4489 218.72 0.45917 6.3218 0.011701
-39.625 16.380 0.049054 124.46 126.72 0.71998 578.00 0.0017301 105.78 105.97 0.63113 1.4525 2.2576 1144.6 -0.0050189 190.99 0.12774 2.6725 0.37418 486.67 528.93 2.4423 1.2286 1.4547 218.93 0.45403 6.3481 0.011790
-38.625 17.097 0.051050 127.42 129.77 0.73261 576.83 0.0017336 108.03 108.24 0.64077 1.4550 2.2623 1138.0 -0.0049761 188.88 0.12716 2.7813 0.35955 487.74 530.12 2.4397 1.2332 1.4606 219.13 0.44900 6.3744 0.011880
-37.625 17.838 0.053108 130.39 132.85 0.74528 575.66 0.0017371 110.29 110.51 0.65039 1.4576 2.2671 1131.5 -0.0049327 186.81 0.12658 2.8934 0.34562 488.81 531.32 2.4371 1.2378 1.4665 219.33 0.44405 6.4007 0.011970
-36.625 18.604 0.055230 133.40 135.96 0.75800 574.49 0.0017407 112.56 112.78 0.65999 1.4602 2.2719 1125.0 -0.0048887 184.76 0.12600 3.0089 0.33235 489.88 532.51 2.4346 1.2424 1.4724 219.52 0.43920 6.4270 0.012060
-35.625 19.395 0.057417 136.42 139.10 0.77076 573.32 0.0017442 114.83 115.06 0.66956 1.4628 2.2768 1118.5 -0.0048440 182.75 0.12542 3.1280 0.31969 490.95 533.70 2.4321 1.2471 1.4784 219.70 0.43444 6.4533 0.012151
-34.625 20.212 0.059670 139.47 142.26 0.78357 572.14 0.0017478 117.10 117.34 0.67912 1.4654 2.2818 1111.9 -0.0047987 180.76 0.12485 3.2506 0.30763 492.02 534.89 2.4297 1.2517 1.4845 219.88 0.42977 6.4797 0.012243
-33.625 21.056 0.061992 142.55 145.45 0.79644 570.96 0.0017514 119.38 119.63 0.68865 1.4681 2.2868 1105.4 -0.0047527 178.80 0.12427 3.3770 0.29612 493.09 536.08 2.4273 1.2564 1.4906 220.05 0.42519 6.5060 0.012334
-32.625 21.926 0.064382 145.64 148.67 0.80935 569.77 0.0017551 121.66 121.93 0.69817 1.4708 2.2918 1098.9 -0.0047061 176.87 0.12370 3.5071 0.28514 494.17 537.27 2.4250 1.2611 1.4968 220.21 0.42070 6.5323 0.012426
-31.625 22.823 0.066843 148.77 151.92 0.82231 568.58 0.0017588 123.95 124.23 0.70767 1.4735 2.2970 1092.3 -0.0046587 174.97 0.12313 3.6410 0.27465 495.24 538.46 2.4227 1.2659 1.5031 220.36 0.41629 6.5587 0.012519
-30.625 23.749 0.069377 151.92 155.19 0.83532 567.39 0.0017625 126.24 126.53 0.71714 1.4762 2.3021 1085.8 -0.0046107 173.09 0.12256 3.7787 0.26464 496.31 539.64 2.4205 1.2706 1.5094 220.51 0.41196 6.5850 0.012612
-29.625 24.703 0.071984 155.09 158.50 0.84838 566.19 0.0017662 128.54 128.84 0.72660 1.4790 2.3074 1079.3 -0.0045619 171.24 0.12200 3.9205 0.25507 497.38 540.83 2.4184 1.2754 1.5157 220.65 0.40772 6.6114 0.012706
-28.625 25.687 0.074667 158.29 161.83 0.86150 564.99 0.0017699 130.84 131.16 0.73604 1.4818 2.3126 1072.8 -0.0045124 169.42 0.12143 4.0663 0.24592 498.46 542.01 2.4162 1.2802 1.5222 220.79 0.40356 6.6378 0.012800
-27.625 26.700 0.077426 161.52 165.20 0.87467 563.78 0.0017737 133.15 133.48 0.74547 1.4846 2.3180 1066.2 -0.0044621 167.62 0.12087 4.2163 0.23717 499.53 543.19 2.4142 1.2850 1.5286 220.91 0.39947 6.6642 0.012894
-26.625 27.743 0.080264 164.77 168.60 0.88789 562.57 0.0017775 135.47 135.81 0.75487 1.4874 2.3234 1059.7 -0.0044111 165.84 0.12031 4.3705 0.22881 500.60 544.37 2.4122 1.2899 1.5352 221.03 0.39547 6.6906 0.012989
-25.625 28.817 0.083182 168.05 172.03 0.90117 561.36 0.0017814 137.78 138.14 0.76426 1.4902 2.3289 1053.2 -0.0043593 164.09 0.11975 4.5290 0.22080 501.68 545.55 2.4102 1.2947 1.5418 221.14 0.39154 6.7171 0.013084
-24.625 29.923 0.086182 171.36 175.49 0.91451 560.14 0.0017853 140.11 140.48 0.77363 1.4931 2.3344 1046.7 -0.0043067 162.36 0.11919 4.6918 0.21314 502.75 546.72 2.4083 1.2996 1.5485 221.25 0.38768 6.7436 0.013180
-23.625 31.061 0.089265 174.70 178.98 0.92790 558.92 0.0017892 142.44 142.82 0.78298 1.4960 2.3400 1040.1 -0.0042533 160.65 0.11863 4.8592 0.20580 503.82 547.90 2.4064 1.3045 1.5552 221.35 0.38391 6.7701 0.013277
-22.625 32.232 0.092434 178.06 182.50 0.94134 557.69 0.0017931 144.77 145.17 0.79232 1.4990 2.3457 1033.6 -0.0041990 158.97 0.11807 5.0311 0.19877 504.90 549.07 2.4045 1.3095 1.5621 221.44 0.38020 6.7967 0.013374
-21.625 33.435 0.095689 181.45 186.06 0.95485 556.46 0.0017971 147.11 147.52 0.80164 1.5019 2.3514 1027.1 -0.0041439 157.30 0.11752 5.2076 0.19203 505.97 550.24 2.4027 1.3144 1.5690 221.52 0.37656 6.8232 0.013471
-20.625 34.673 0.099033 184.87 189.65 0.96842 555.23 0.0018011 149.45 149.88 0.81095 1.5049 2.3572 1020.6 -0.0040879 155.66 0.11697 5.3889 0.18557 507.04 551.40 2.4010 1.3194 1.5759 221.59 0.37300 6.8499 0.013569
-19.625 35.946 0.10247 188.31 193.27 0.98204 553.99 0.0018051 151.80 152.25 0.82024 1.5079 2.3630 1014.0 -0.0040311 154.04 0.11642 5.5750 0.17937 508.11 552.57 2.3992 1.3244 1.5829 221.66 0.36950 6.8765 0.013668
-18.625 37.253 0.10599 191.79 196.93 0.99572 552.74 0.0018092 154.16 154.62 0.82952 1.5109 2.3689 1007.5 -0.0039733 152.44 0.11587 5.7660 0.17343 509.19 553.73 2.3976 1.3294 1.5901 221.72 0.36608 6.9032 0.013767
-17.625 38.596 0.10962 195.30 200.62 1.0095 551.49 0.0018133 156.52 157.00 0.83878 1.5140 2.3749 1001.0 -0.0039145 150.86 0.11532 5.9621 0.16773 510.26 554.89 2.3959 1.3345 1.5972 221.77 0.36272 6.9300 0.013867
-16.625 39.976 0.11333 198.83 204.34 1.0233 550.24 0.0018174 158.89 159.39 0.84803 1.5171 2.3810 994.44 -0.0038549 149.29 0.11478 6.1632 0.16225 511.33 556.05 2.3943 1.3395 1.6045 221.81 0.35942 6.9568 0.013968
-15.625 41.392 0.11715 202.39 208.10 1.0371 548.98 0.0018216 161.26 161.78 0.85726 1.5202 2.3871 987.91 -0.0037942 147.75 0.11423 6.3696 0.15700 512.40 557.20 2.3927 1.3446 1.6119 221.85 0.35619 6.9836 0.014069
-14.625 42.846 0.12106 205.99 211.90 1.0511 547.71 0.0018258 163.64 164.18 0.86649 1.5233 2.3933 981.37 -0.0037325 146.22 0.11369 6.5812 0.15195 513.47 558.36 2.3912 1.3497 1.6193 221.87 0.35302 7.0105 0.014170
-13.625 44.338 0.12508 209.61 215.73 1.0651 546.44 0.0018300 166.02 166.58 0.87569 1.5264 2.3996 974.83 -0.0036698 144.72 0.11315 6.7983 0.14710 514.54 559.51 2.3897 1.3549 1.6268 221.89 0.34992 7.0375 0.014273
-12.625 45.870 0.12920 213.27 219.59 1.0791 545.17 0.0018343 168.41 168.99 0.88489 1.5296 2.4059 968.29 -0.0036061 143.23 0.11261 7.0208 0.14243 515.61 560.65 2.3883 1.3600 1.6344 221.90 0.34688 7.0646 0.014376
-11.625 47.440 0.13343 216.96 223.50 1.0932 543.89 0.0018386 170.81 171.41 0.89407 1.5328 2.4124 961.75 -0.0035413 141.76 0.11208 7.2490 0.13795 516.68 561.80 2.3868 1.3652 1.6421 221.91 0.34389 7.0917 0.014479
-10.625 49.051 0.13777 220.67 227.44 1.1074 542.60 0.0018430 173.21 173.83 0.90324 1.5360 2.4189 955.20 -0.0034753 140.30 0.11154 7.4829 0.13364 517.75 562.94 2.3854 1.3704 1.6498 221.90 0.34097 7.1188 0.014584
-9.6250 50.703 0.14222 224.42 231.41 1.1217 541.31 0.0018474 175.61 176.26 0.91240 1.5393 2.4255 948.65 -0.0034082 138.86 0.11101 7.7226 0.12949 518.81 564.08 2.3841 1.3757 1.6577 221.88 0.33810 7.1461 0.014689
-8.6250 52.396 0.14678 228.20 235.43 1.1360 540.02 0.0018518 178.03 178.70 0.92154 1.5426 2.4321 942.10 -0.0033400 137.44 0.11048 7.9683 0.12550 519.88 565.21 2.3827 1.3809 1.6657 221.86 0.33529 7.1734 0.014795
-7.6250 54.131 0.15145 232.02 239.48 1.1504 538.72 0.0018563 180.45 181.14 0.93068 1.5459 2.4389 935.55 -0.0032705 136.03 0.10995 8.2200 0.12165 520.94 566.35 2.3814 1.3862 1.6737 221.83 0.33254 7.2008 0.014902
-6.6250 55.909 0.15625 235.86 243.57 1.1649 537.41 0.0018608 182.87 183.59 0.93980 1.5492 2.4457 928.99 -0.0031998 134.64 0.10942 8.4779 0.11795 522.01 567.48 2.3801 1.3915 1.6819 221.79 0.32984 7.2284 0.015009
-5.6250 57.730 0.16116 239.74 247.70 1.1794 536.10 0.0018653 185.30 186.05 0.94892 1.5525 2.4526 922.43 -0.0031279 133.27 0.10889 8.7420 0.11439 523.07 568.60 2.3789 1.3969 1.6902 221.74 0.32720 7.2560 0.015117
-4.6250 59.595 0.16620 243.65 251.87 1.1940 534.78 0.0018699 187.74 188.51 0.95802 1.5559 2.4596 915.87 -0.0030546 131.91 0.10837 9.0126 0.11096 524.13 569.72 2.3777 1.4022 1.6985 221.68 0.32461 7.2837 0.015226
-3.6250 61.505 0.17136 247.59 256.08 1.2086 533.45 0.0018746 190.19 190.98 0.96711 1.5593 2.4667 909.30 -0.0029800 130.56 0.10785 9.2896 0.10765 525.19 570.84 2.3765 1.4076 1.7070 221.62 0.32207 7.3115 0.015336
-2.6250 63.461 0.17665 251.57 260.32 1.2234 532.12 0.0018793 192.64 193.46 0.97620 1.5627 2.4739 902.73 -0.0029041 129.23 0.10733 9.5733 0.10446 526.25 571.96 2.3753 1.4131 1.7156 221.54 0.31958 7.3394 0.015447
-1.6250 65.462 0.18208 255.58 264.61 1.2382 530.78 0.0018840 195.10 195.95 0.98527 1.5662 2.4811 896.16 -0.0028267 127.91 0.10681 9.8638 0.10138 527.31 573.07 2.3742 1.4185 1.7243 221.45 0.31715 7.3674 0.015559
-0.62500 67.510 0.18763 259.63 268.94 1.2530 529.44 0.0018888 197.56 198.44 0.99434 1.5696 2.4885 889.58 -0.0027478 126.61 0.10629 10.161 0.098414 528.37 574.18 2.3731 1.4240 1.7331 221.36 0.31476 7.3956 0.015671
0.37500 69.606 0.19332 263.71 273.31 1.2680 528.09 0.0018936 200.03 200.94 1.0034 1.5731 2.4960 883.00 -0.0026675 125.32 0.10578 10.466 0.095552 529.42 575.28 2.3720 1.4295 1.7421 221.26 0.31242 7.4239 0.015785
1.3750 71.749 0.19916 267.82 277.72 1.2830 526.73 0.0018985 202.51 203.45 1.0124 1.5767 2.5035 876.42 -0.0025856 124.04 0.10527 10.777 0.092790 530.48 576.38 2.3709 1.4350 1.7512 221.14 0.31013 7.4523 0.015899
2.3750 73.941 0.20513 271.97 282.17 1.2981 525.37 0.0019034 204.99 205.96 1.0215 1.5802 2.5112 869.83 -0.0025022 122.78 0.10476 11.096 0.090123 531.53 577.47 2.3699 1.4406 1.7604 221.02 0.30789 7.4808 0.016015
3.3750 76.183 0.21125 276.16 286.66 1.3132 523.99 0.0019084 207.48 208.48 1.0305 1.5838 2.5190 863.24 -0.0024171 121.53 0.10425 11.422 0.087549 532.58 578.56 2.3688 1.4462 1.7697 220.89 0.30569 7.5095 0.016131
4.3750 78.475 0.21752 280.38 291.20 1.3285 522.62 0.0019134 209.98 211.01 1.0395 1.5874 2.5268 856.64 -0.0023303 120.29 0.10374 11.756 0.085062 533.63 579.65 2.3678 1.4518 1.7792 220.75 0.30354 7.5384 0.016249
5.3750 80.817 0.22394 284.64 295.78 1.3438 521.23 0.0019185 212.48 213.55 1.0486 1.5910 2.5348 850.04 -0.0022417 119.06 0.10324 12.098 0.082660 534.67 580.73 2.3669 1.4575 1.7888 220.60 0.30144 7.5674 0.016368
6.3750 83.211 0.23052 288.93 300.40 1.3592 519.84 0.0019237 215.00 216.10 1.0576 1.5946 2.5429 843.43 -0.0021514 117.85 0.10273 12.447 0.080340 535.72 581.81 2.3659 1.4632 1.7986 220.44 0.29938 7.5966 0.016487
7.3750 85.657 0.23726 293.26 305.07 1.3746 518.44 0.0019289 217.51 218.65 1.0666 1.5983 2.5511 836.82 -0.0020593 116.65 0.10223 12.805 0.078096 536.76 582.88 2.3650 1.4689 1.8085 220.27 0.29736 7.6259 0.016608
8.3750 88.156 0.24416 297.62 309.78 1.3902 517.03 0.0019341 220.04 221.22 1.0756 1.6020 2.5595 830.20 -0.0019652 115.46 0.10173 13.170 0.075928 537.80 583.95 2.3640 1.4746 1.8186 220.08 0.29538 7.6555 0.016730
9.3750 90.708 0.25122 302.03 314.53 1.4058 515.62 0.0019394 222.57 223.79 1.0846 1.6057 2.5679 823.58 -0.0018691 114.28 0.10124 13.545 0.073830 538.84 585.01 2.3631 1.4804 1.8288 219.89 0.29345 7.6852 0.016853
10.375 93.315 0.25846 306.47 319.33 1.4215 514.19 0.0019448 225.11 226.37 1.0936 1.6095 2.5765 816.96 -0.0017710 113.11 0.10074 13.927 0.071802 539.87 586.07 2.3622 1.4863 1.8392 219.69 0.29156 7.7151 0.016978
11.375 95.977 0.26587 310.94 324.18 1.4372 512.76 0.0019502 227.66 228.95 1.1025 1.6132 2.5852 810.32 -0.0016708 111.95 0.10025 14.319 0.069840 540.90 587.12 2.3614 1.4921 1.8498 219.48 0.28971 7.7452 0.017103
12.375 98.694 0.27346 315.46 329.07 1.4531 511.32 0.0019557 230.22 231.55 1.1115 1.6170 2.5940 803.68 -0.0015685 110.80 0.099756 14.719 0.067941 541.93 588.17 2.3605 1.4980 1.8605 219.26 0.28790 7.7756 0.017230
13.375 101.47 0.28123 320.01 334.01 1.4690 509.87 0.0019613 232.78 234.15 1.1205 1.6208 2.6030 797.04 -0.0014639 109.67 0.099267 15.128 0.066103 542.96 589.21 2.3597 1.5040 1.8715 219.03 0.28612 7.8061 0.017359
14.375 104.30 0.28920 324.61 338.99 1.4850 508.42 0.0019669 235.35 236.77 1.1295 1.6247 2.6121 790.39 -0.0013569 108.54 0.098779 15.547 0.064323 543.99 590.24 2.3588 1.5099 1.8826 218.79 0.28439 7.8369 0.017488
15.375 107.19 0.29735 329.24 344.02 1.5011 506.95 0.0019726 237.93 239.39 1.1384 1.6286 2.6214 783.73 -0.0012476 107.43 0.098294 15.974 0.062600 545.01 591.27 2.3580 1.5159 1.8940 218.53 0.28270 7.8680 0.017619
16.375 110.13 0.30570 333.91 349.10 1.5172 505.48 0.0019783 240.52 242.02 1.1474 1.6324 2.6308 777.07 -0.0011357 106.32 0.097810 16.412 0.060931 546.03 592.29 2.3572 1.5220 1.9055 218.27 0.28104 7.8993 0.017752
17.375 113.14 0.31425 338.62 354.22 1.5335 504.00 0.0019841 243.11 244.66 1.1564 1.6364 2.6403 770.40 -0.0010213 105.22 0.097328 16.859 0.059314 547.04 593.31 2.3564 1.5281 1.9172 217.99 0.27942 7.9308 0.017886
18.375 116.21 0.32301 343.37 359.40 1.5498 502.50 0.0019900 245.72 247.31 1.1653 1.6403 2.6501 763.72 -0.00090422 104.14 0.096848 17.317 0.057747 548.05 594.32 2.3557 1.5342 1.9292 217.71 0.27783 7.9626 0.018021
19.375 119.33 0.33198 348.16 364.62 1.5662 501.00 0.0019960 248.33 249.97 1.1743 1.6443 2.6599 757.04 -0.00078435 103.06 0.096371 17.785 0.056228 549.06 595.33 2.3549 1.5404 1.9414 217.41 0.27628 7.9947 0.018159
20.375 122.52 0.34117 353.00 369.89 1.5827 499.49 0.0020020 250.95 252.64 1.1832 1.6483 2.6700 750.35 -0.00066161 101.99 0.095895 18.263 0.054756 550.07 596.32 2.3541 1.5466 1.9538 217.10 0.27477 8.0272 0.018297
21.375 125.77 0.35058 357.87 375.21 1.5993 497.97 0.0020082 253.57 255.32 1.1922 1.6523 2.6802 743.64 -0.00053589 100.93 0.095420 18.752 0.053328 551.07 597.31 2.3534 1.5528 1.9665 216.78 0.27329 8.0599 0.018438
22.375 129.08 0.36022 362.78 380.58 1.6159 496.43 0.0020144 256.21 258.00 1.2012 1.6563 2.6906 736.94 -0.00040708 99.877 0.094948 19.252 0.051943 552.07 598.30 2.3526 1.5591 1.9795 216.45 0.27184 8.0929 0.018580
23.375 132.46 0.37010 367.74 386.01 1.6327 494.89 0.0020206 258.86 260.70 1.2101 1.6604 2.7012 730.22 -0.00027505 98.834 0.094478 19.763 0.050600 553.06 599.27 2.3519 1.5655 1.9927 216.11 0.27043 8.1263 0.018724
24.375 135.90 0.38022 372.74 391.48 1.6495 493.34 0.0020270 261.51 263.41 1.2191 1.6645 2.7120 723.49 -0.00013968 97.800 0.094009 20.285 0.049297 554.05 600.24 2.3512 1.5718 2.0061 215.75 0.26906 8.1600 0.018870
25.375 139.41 0.39059 377.78 397.00 1.6664 491.77 0.0020335 264.17 266.13 1.2280 1.6686 2.7230 716.76 -8.3775e-07 96.773 0.093543 20.820 0.048032 555.03 601.20 2.3504 1.5783 2.0199 215.39 0.26771 8.1941 0.019017
26.375 142.98 0.40122 382.86 402.58 1.6834 490.20 0.0020400 266.84 268.85 1.2370 1.6728 2.7342 710.01 0.00014161 95.755 0.093078 21.366 0.046804 556.01 602.15 2.3497 1.5847 2.0340 215.01 0.26640 8.2286 0.019167
27.375 146.62 0.41211 387.99 408.21 1.7005 488.61 0.0020466 269.52 271.59 1.2459 1.6770 2.7456 703.26 0.00028782 94.745 0.092615 21.924 0.045612 556.99 603.10 2.3490 1.5913 2.0484 214.62 0.26512 8.2634 0.019319
28.375 150.33 0.42327 393.16 413.89 1.7177 487.01 0.0020533 272.21 274.34 1.2549 1.6812 2.7573 696.49 0.00043793 93.742 0.092154 22.495 0.044454 557.96 604.03 2.3483 1.5978 2.0631 214.21 0.26387 8.2987 0.019472
29.375 154.10 0.43471 398.37 419.62 1.7350 485.40 0.0020601 274.91 277.10 1.2638 1.6854 2.7691 689.72 0.00059212 92.747 0.091695 23.079 0.043329 558.92 604.96 2.3476 1.6044 2.0781 213.80 0.26265 8.3344 0.019628
30.375 157.94 0.44643 403.63 425.41 1.7523 483.78 0.0020671 277.62 279.87 1.2728 1.6897 2.7813 682.93 0.00075055 91.760 0.091238 23.676 0.042237 559.88 605.88 2.3469 1.6111 2.0935 213.37 0.26147 8.3705 0.019786
31.375 161.86 0.45845 408.94 431.26 1.7698 482.15 0.0020741 280.34 282.66 1.2818 1.6939 2.7936 676.13 0.00091340 90.779 0.090782 24.287 0.041175 560.84 606.79 2.3462 1.6178 2.1092 212.93 0.26031 8.4071 0.019947
32.375 165.84 0.47078 414.29 437.15 1.7873 480.50 0.0020812 283.07 285.45 1.2908 1.6983 2.8063 669.32 0.0010809 89.806 0.090328 24.911 0.040143 561.79 607.69 2.3455 1.6246 2.1254 212.48 0.25919 8.4442 0.020110
33.375 169.90 0.48343 419.68 443.11 1.8049 478.83 0.0020884 285.81 288.26 1.2997 1.7026 2.8192 662.50 0.0012532 88.840 0.089876 25.549 0.039140 562.73 608.58 2.3448 1.6314 2.1419 212.01 0.25809 8.4818 0.020275
34.375 174.02 0.49639 425.12 449.12 1.8226 477.16 0.0020957 288.56 291.07 1.3087 1.7070 2.8324 655.67 0.0014305 87.880 0.089426 26.202 0.038164 563.67 609.46 2.3440 1.6383 2.1589 211.53 0.25702 8.5199 0.020443
35.375 178.22 0.50970 430.61 455.18 1.8405 475.47 0.0021032 291.32 293.90 1.3177 1.7114 2.8459 648.82 0.0016131 86.927 0.088977 26.870 0.037216 564.60 610.33 2.3433 1.6452 2.1763 211.04 0.25599 8.5586 0.020613
36.375 182.50 0.52335 436.14 461.31 1.8584 473.77 0.0021107 294.09 296.74 1.3267 1.7158 2.8597 641.96 0.0018012 85.980 0.088531 27.553 0.036293 565.52 611.19 2.3426 1.6522 2.1942 210.53 0.25498 8.5978 0.020786
37.375 186.84 0.53736 441.73 467.49 1.8764 472.05 0.0021184 296.87 299.60 1.3357 1.7203 2.8739 635.08 0.0019950 85.040 0.088085 28.252 0.035395 566.44 612.04 2.3419 1.6592 2.2125 210.01 0.25400 8.6376 0.020962
38.375 191.27 0.55174 447.36 473.73 1.8945 470.31 0.0021262 299.66 302.46 1.3447 1.7248 2.8884 628.19 0.0021949 84.105 0.087642 28.967 0.034522 567.35 612.88 2.3411 1.6663 2.2314 209.47 0.25305 8.6780 0.021141
39.375 195.77 0.56650 453.03 480.03 1.9127 468.56 0.0021342 302.46 305.34 1.3537 1.7293 2.9033 621.29 0.0024011 83.177 0.087200 29.699 0.033671 568.26 613.70 2.3404 1.6734 2.2508 208.92 0.25213 8.7190 0.021323
40.375 200.34 0.58166 458.76 486.39 1.9310 466.80 0.0021423 305.27 308.23 1.3627 1.7339 2.9185 614.37 0.0026140 82.254 0.086760 30.447 0.032844 569.15 614.52 2.3396 1.6806 2.2708 208.36 0.25123 8.7608 0.021508
41.375 205.00 0.59723 464.54 492.81 1.9494 465.01 0.0021505 308.10 311.14 1.3718 1.7385 2.9342 607.43 0.0028338 81.338 0.086322 31.214 0.032037 570.04 615.32 2.3389 1.6879 2.2913 207.78 0.25037 8.8032 0.021696
42.375 209.73 0.61324 470.37 499.29 1.9679 463.21 0.0021588 310.94 314.06 1.3808 1.7432 2.9502 600.47 0.0030609 80.426 0.085885 31.998 0.031252 570.92 616.11 2.3381 1.6952 2.3125 207.19 0.24953 8.8463 0.021888
43.375 214.54 0.62968 476.24 505.83 1.9865 461.40 0.0021673 313.79 316.99 1.3899 1.7478 2.9667 593.50 0.0032957 79.520 0.085449 32.800 0.030488 571.79 616.88 2.3373 1.7027 2.3344 206.58 0.24871 8.8902 0.022084
44.375 219.43 0.64658 482.17 512.43 2.0052 459.56 0.0021760 316.65 319.94 1.3989 1.7525 2.9837 586.51 0.0035386 78.619 0.085015 33.622 0.029742 572.65 617.65 2.3365 1.7101 2.3569 205.96 0.24793 8.9349 0.022283
45.375 224.41 0.66397 488.16 519.10 2.0240 457.71 0.0021848 319.52 322.90 1.4080 1.7573 3.0012 579.50 0.0037900 77.723 0.084583 34.463 0.029016 573.50 618.40 2.3357 1.7177 2.3802 205.32 0.24717 8.9805 0.022485
46.375 229.46 0.68185 494.19 525.83 2.0429 455.83 0.0021938 322.41 325.88 1.4171 1.7621 3.0192 572.46 0.0040504 76.832 0.084152 35.325 0.028308 574.34 619.13 2.3349 1.7253 2.4042 204.67 0.24644 9.0269 0.022692
47.375 234.60 0.70025 500.28 532.63 2.0619 453.94 0.0022029 325.31 328.87 1.4262 1.7669 3.0377 565.41 0.0043202 75.946 0.083723 36.208 0.027618 575.17 619.85 2.3340 1.7329 2.4291 204.00 0.24573 9.0742 0.022903
48.375 239.83 0.71919 506.42 539.49 2.0810 452.03 0.0022123 328.22 331.88 1.4353 1.7718 3.0569 558.34 0.0046000 75.064 0.083295 37.112 0.026945 576.00 620.55 2.3332 1.7407 2.4548 203.31 0.24505 9.1224 0.023119
49.375 245.13 0.73870 512.62 546.42 2.1003 450.09 0.0022218 331.15 334.90 1.4445 1.7767 3.0766 551.24 0.0048904 74.186 0.082868 38.039 0.026289 576.81 621.24 2.3323 1.7485 2.4815 202.61 0.24440 9.1716 0.023339
50.375 250.53 0.75879 518.87 553.41 2.1196 448.13 0.0022315 334.09 337.94 1.4536 1.7817 3.0970 544.13 0.0051920 73.313 0.082442 38.989 0.025648 577.61 621.91 2.3314 1.7564 2.5092 201.89 0.24377 9.2219 0.023564
51.375 256.01 0.77950 525.17 560.48 2.1391 446.15 0.0022414 337.04 341.00 1.4628 1.7867 3.1181 536.98 0.0055054 72.443 0.082018 39.962 0.025024 578.39 622.56 2.3304 1.7644 2.5379 201.16 0.24317 9.2733 0.023794
52.375 261.57 0.80085 531.54 567.61 2.1587 444.15 0.0022515 340.01 344.07 1.4720 1.7918 3.1400 529.82 0.0058313 71.577 0.081595 40.961 0.024414 579.17 623.20 2.3295 1.7724 2.5677 200.41 0.24260 9.3258 0.024029
53.375 267.23 0.82288 537.96 574.81 2.1784 442.12 0.0022618 343.00 347.17 1.4812 1.7969 3.1627 522.62 0.0061705 70.715 0.081174 41.985 0.023818 579.93 623.81 2.3285 1.7805 2.5987 199.63 0.24205 9.3795 0.024270
54.375 272.97 0.84561 544.45 582.09 2.1982 440.06 0.0022724 346.00 350.28 1.4904 1.8021 3.1862 515.40 0.0065239 69.856 0.080753 43.036 0.023237 580.68 624.41 2.3274 1.7887 2.6310 198.85 0.24154 9.4344 0.024516
55.375 278.81 0.86909 550.99 589.43 2.2182 437.98 0.0022832 349.02 353.40 1.4997 1.8073 3.2106 508.15 0.0068923 69.001 0.080334 44.114 0.022669 581.41 624.99 2.3264 1.7969 2.6646 198.04 0.24105 9.4907 0.024769
56.375 284.74 0.89335 557.59 596.85 2.2382 435.87 0.0022943 352.05 356.55 1.5090 1.8126 3.2360 500.87 0.0072767 68.148 0.079915 45.221 0.022114 582.13 625.54 2.3253 1.8052 2.6998 197.22 0.24059 9.5484 0.025028
57.375 290.76 0.91843 564.25 604.35 2.2584 433.73 0.0023056 355.10 359.72 1.5183 1.8179 3.2624 493.56 0.0076782 67.299 0.079498 46.358 0.021571 582.83 626.07 2.3241 1.8136 2.7365 196.37 0.24016 9.6075 0.025294
58.375 296.87 0.94438 570.98 611.92 2.2787 431.56 0.0023172 358.17 362.91 1.5276 1.8233 3.2900 486.22 0.0080980 66.451 0.079082 47.525 0.021041 583.52 626.58 2.3230 1.8220 2.7749 195.51 0.23976 9.6682 0.025568
59.375 303.08 0.97125 577.77 619.57 2.2992 429.36 0.0023290 361.25 366.12 1.5370 1.8288 3.3188 478.84 0.0085373 65.606 0.078666 48.726 0.020523 584.18 627.07 2.3218 1.8305 2.8152 194.63 0.23939 9.7305 0.025849
60.375 309.38 0.99908 584.63 627.29 2.3198 427.13 0.0023412 364.36 369.35 1.5464 1.8343 3.3489 471.43 0.0089976 64.763 0.078251 49.960 0.020016 584.83 627.53 2.3205 1.8391 2.8576 193.73 0.23905 9.7945 0.026138
61.375 311.49 undefined 586.63 629.59 2.3258 50.000 0.020000 586.63 629.59 2.3258 1.8402 2.8412 194.48 0.23562 9.8271 0.026250 50.000 0.020000 586.63 629.59 2.3258 1.8402 2.8412 194.48 0.23562 9.8271 0.026250
62.375 313.45 undefined 588.47 631.70 2.3313 50.000 0.020000 588.47 631.70 2.3313 1.8412 2.8238 195.28 0.23217 9.8587 0.026357 50.000 0.020000 588.47 631.70 2.3313 1.8412 2.8238 195.28 0.23217 9.8587 0.026357
63.375 315.41 undefined 590.32 633.81 2.3368 50.000 0.020000 590.32 633.81 2.3368 1.8423 2.8074 196.07 0.22881 9.8902 0.026466 50.000 0.020000 590.32 633.81 2.3368 1.8423 2.8074 196.07 0.22881 9.8902 0.026466
64.375 317.35 undefined 592.16 635.92 2.3422 50.000 0.020000 592.16 635.92 2.3422 1.8436 2.7919 196.86 0.22553 9.9216 0.026576 50.000 0.020000 592.16 635.92 2.3422 1.8436 2.7919 196.86 0.22553 9.9216 0.026576
65.375 319.30 undefined 594.00 638.03 2.3477 50.000 0.020000 594.00 638.03 2.3477 1.8449 2.7773 197.64 0.22233 9.9531 0.026688 50.000 0.020000 594.00 638.03 2.3477 1.8449 2.7773 197.64 0.22233 9.9531 0.026688
66.375 321.23 undefined 595.85 640.14 2.3531 50.000 0.020000 595.85 640.14 2.3531 1.8464 2.7635 198.41 0.21921 9.9844 0.026800 50.000 0.020000 595.85 640.14 2.3531 1.8464 2.7635 198.41 0.21921 9.9844 0.026800
67.375 323.16 undefined 597.70 642.26 2.3586 50.000 0.020000 597.70 642.26 2.3586 1.8480 2.7504 199.18 0.21615 10.016 0.026914 50.000 0.020000 597.70 642.26 2.3586 1.8480 2.7504 199.18 0.21615 10.016 0.026914
68.375 325.09 undefined 599.54 644.37 2.3640 50.000 0.020000 599.54 644.37 2.3640 1.8498 2.7380 199.94 0.21317 10.047 0.027029 50.000 0.020000 599.54 644.37 2.3640 1.8498 2.7380 199.94 0.21317 10.047 0.027029
69.375 327.00 undefined 601.40 646.49 2.3694 50.000 0.020000 601.40 646.49 2.3694 1.8516 2.7262 200.70 0.21025 10.078 0.027145 50.000 0.020000 601.40 646.49 2.3694 1.8516 2.7262 200.70 0.21025 10.078 0.027145
70.375 328.92 undefined 603.25 648.60 2.3748 50.000 0.020000 603.25 648.60 2.3748 1.8535 2.7151 201.45 0.20740 10.110 0.027262 50.000 0.020000 603.25 648.60 2.3748 1.8535 2.7151 201.45 0.20740 10.110 0.027262
71.375 330.83 undefined 605.10 650.72 2.3802 50.000 0.020000 605.10 650.72 2.3802 1.8555 2.7045 202.20 0.20461 10.141 0.027380 50.000 0.020000 605.10 650.72 2.3802 1.8555 2.7045 202.20 0.20461 10.141 0.027380
72.375 332.73 undefined 606.96 652.84 2.3856 50.000 0.020000 606.96 652.84 2.3856 1.8575 2.6945 202.94 0.20188 10.172 0.027499 50.000 0.020000 606.96 652.84 2.3856 1.8575 2.6945 202.94 0.20188 10.172 0.027499
73.375 334.63 undefined 608.82 654.96 2.3909 50.000 0.020000 608.82 654.96 2.3909 1.8596 2.6849 203.68 0.19922 10.203 0.027619 50.000 0.020000 608.82 654.96 2.3909 1.8596 2.6849 203.68 0.19922 10.203 0.027619
74.375 336.53 undefined 610.68 657.08 2.3963 50.000 0.020000 610.68 657.08 2.3963 1.8618 2.6758 204.41 0.19661 10.234 0.027740 50.000 0.020000 610.68 657.08 2.3963 1.8618 2.6758 204.41 0.19661 10.234 0.027740
75.375 338.42 undefined 612.54 659.21 2.4016 50.000 0.020000 612.54 659.21 2.4016 1.8640 2.6672 205.14 0.19406 10.265 0.027862 50.000 0.020000 612.54 659.21 2.4016 1.8640 2.6672 205.14 0.19406 10.265 0.027862
76.375 340.30 undefined 614.41 661.33 2.4070 50.000 0.020000 614.41 661.33 2.4070 1.8663 2.6590 205.86 0.19156 10.296 0.027984 50.000 0.020000 614.41 661.33 2.4070 1.8663 2.6590 205.86 0.19156 10.296 0.027984
77.375 342.18 undefined 616.27 663.46 2.4123 50.000 0.020000 616.27 663.46 2.4123 1.8686 2.6512 206.58 0.18912 10.327 0.028107 50.000 0.020000 616.27 663.46 2.4123 1.8686 2.6512 206.58 0.18912 10.327 0.028107
78.375 344.06 undefined 618.14 665.59 2.4177 50.000 0.020000 618.14 665.59 2.4177 1.8709 2.6438 207.30 0.18673 10.358 0.028231 50.000 0.020000 618.14 665.59 2.4177 1.8709 2.6438 207.30 0.18673 10.358 0.028231
79.375 345.93 undefined 620.02 667.72 2.4230 50.000 0.020000 620.02 667.72 2.4230 1.8733 2.6367 208.01 0.18439 10.389 0.028356 50.000 0.020000 620.02 667.72 2.4230 1.8733 2.6367 208.01 0.18439 10.389 0.028356
80.375 347.80 undefined 621.89 669.85 2.4283 50.000 0.020000 621.89 669.85 2.4283 1.8757 2.6300 208.72 0.18210 10.420 0.028482 50.000 0.020000 621.89 669.85 2.4283 1.8757 2.6300 208.72 0.18210 10.420 0.028482
81.375 349.67 undefined 623.77 671.98 2.4336 50.000 0.020000 623.77 671.98 2.4336 1.8782 2.6236 209.43 0.17985 10.451 0.028608 50.000 0.020000 623.77 671.98 2.4336 1.8782 2.6236 209.43 0.17985 10.451 0.028608
82.375 351.53 undefined 625.65 674.12 2.4389 50.000 0.020000 625.65 674.12 2.4389 1.8807 2.6176 210.13 0.17766 10.482 0.028735 50.000 0.020000 625.65 674.12 2.4389 1.8807 2.6176 210.13 0.17766 10.482 0.028735
83.375 353.39 undefined 627.53 676.26 2.4442 50.000 0.020000 627.53 676.26 2.4442 1.8833 2.6118 210.83 0.17550 10.513 0.028862 50.000 0.020000 627.53 676.26 2.4442 1.8833 2.6118 210.83 0.17550 10.513 0.028862
84.375 355.24 undefined 629.41 678.40 2.4494 50.000 0.020000 629.41 678.40 2.4494 1.8859 2.6064 211.52 0.17339 10.543 0.028991 50.000 0.020000 629.41 678.40 2.4494 1.8859 2.6064 211.52 0.17339 10.543 0.028991
85.375 357.09 undefined 631.30 680.54 2.4547 50.000 0.020000 631.30 680.54 2.4547 1.8885 2.6012 212.22 0.17132 10.574 0.029120 50.000 0.020000 631.30 680.54 2.4547 1.8885 2.6012 212.22 0.17132 10.574 0.029120
86.375 358.94 undefined 633.19 682.69 2.4600 50.000 0.020000 633.19 682.69 2.4600 1.8912 2.5963 212.90 0.16929 10.605 0.029249 50.000 0.020000 633.19 682.69 2.4600 1.8912 2.5963 212.90 0.16929 10.605 0.029249
87.375 360.78 undefined 635.08 684.83 2.4652 50.000 0.020000 635.08 684.83 2.4652 1.8939 2.5917 213.59 0.16730 10.636 0.029379 50.000 0.020000 635.08 684.83 2.4652 1.8939 2.5917 213.59 0.16730 10.636 0.029379
88.375 362.62 undefined 636.98 686.98 2.4705 50.000 0.020000 636.98 686.98 2.4705 1.8967 2.5873 214.27 0.16535 10.666 0.029510 50.000 0.020000 636.98 686.98 2.4705 1.8967 2.5873 214.27 0.16535 10.666 0.029510
89.375 364.46 undefined 638.88 689.13 2.4757 50.000 0.020000 638.88 689.13 2.4757 1.8995 2.5832 214.95 0.16343 10.697 0.029642 50.000 0.020000 638.88 689.13 2.4757 1.8995 2.5832 214.95 0.16343 10.697 0.029642
90.375 366.29 undefined 640.78 691.29 2.4810 50.000 0.020000 640.78 691.29 2.4810 1.9024 2.5793 215.62 0.16155 10.727 0.029774 50.000 0.020000 640.78 691.29 2.4810 1.9024 2.5793 215.62 0.16155 10.727 0.029774
91.375 368.13 undefined 642.68 693.44 2.4862 50.000 0.020000 642.68 693.44 2.4862 1.9052 2.5756 216.30 0.15971 10.758 0.029906 50.000 0.020000 642.68 693.44 2.4862 1.9052 2.5756 216.30 0.15971 10.758 0.029906
92.375 369.95 undefined 644.59 695.60 2.4914 50.000 0.020000 644.59 695.60 2.4914 1.9081 2.5721 216.97 0.15789 10.788 0.030039 50.000 0.020000 644.59 695.60 2.4914 1.9081 2.5721 216.97 0.15789 10.788 0.030039
93.375 371.78 undefined 646.50 697.76 2.4966 50.000 0.020000 646.50 697.76 2.4966 1.9111 2.5688 217.63 0.15611 10.819 0.030173 50.000 0.020000 646.50 697.76 2.4966 1.9111 2.5688 217.63 0.15611 10.819 0.030173
94.375 373.60 undefined 648.41 699.93 2.5018 50.000 0.020000 648.41 699.93 2.5018 1.9141 2.5658 218.30 0.15436 10.849 0.030307 50.000 0.020000 648.41 699.93 2.5018 1.9141 2.5658 218.30 0.15436 10.849 0.030307
95.375 375.42 undefined 650.33 702.09 2.5071 50.000 0.020000 650.33 702.09 2.5071 1.9171 2.5629 218.96 0.15265 10.880 0.030441 50.000 0.020000 650.33 702.09 2.5071 1.9171 2.5629 218.96 0.15265 10.880 0.030441
96.375 377.24 undefined 652.24 704.26 2.5122 50.000 0.020000 652.24 704.26 2.5122 1.9201 2.5602 219.61 0.15096 10.910 0.030577 50.000 0.020000 652.24 704.26 2.5122 1.9201 2.5602 219.61 0.15096 10.910 0.030577
97.375 379.05 undefined 654.17 706.43 2.5174 50.000 0.020000 654.17 706.43 2.5174 1.9232 2.5576 220.27 0.14930 10.940 0.030712 50.000 0.020000 654.17 706.43 2.5174 1.9232 2.5576 220.27 0.14930 10.940 0.030712
98.375 380.86 undefined 656.09 708.61 2.5226 50.000 0.020000 656.09 708.61 2.5226 1.9263 2.5553 220.92 0.14767 10.971 0.030849 50.000 0.020000 656.09 708.61 2.5226 1.9263 2.5553 220.92 0.14767 10.971 0.030849
99.375 382.67 undefined 658.02 710.79 2.5278 50.000 0.020000 658.02 710.79 2.5278 1.9294 2.5531 221.57 0.14607 11.001 0.030985 50.000 0.020000 658.02 710.79 2.5278 1.9294 2.5531 221.57 0.14607 11.001 0.030985
100.38 384.48 undefined 659.95 712.97 2.5330 50.000 0.020000 659.95 712.97 2.5330 1.9325 2.5510 222.22 0.14449 11.031 0.031122 50.000 0.020000 659.95 712.97 2.5330 1.9325 2.5510 222.22 0.14449 11.031 0.031122
101.38 386.28 undefined 661.88 715.15 2.5382 50.000 0.020000 661.88 715.15 2.5382 1.9357 2.5491 222.86 0.14294 11.061 0.031260 50.000 0.020000 661.88 715.15 2.5382 1.9357 2.5491 222.86 0.14294 11.061 0.031260
102.38 388.08 undefined 663.82 717.34 2.5433 50.000 0.020000 663.82 717.34 2.5433 1.9389 2.5473 223.50 0.14142 11.092 0.031398 50.000 0.020000 663.82 717.34 2.5433 1.9389 2.5473 223.50 0.14142 11.092 0.031398
103.38 389.88 undefined 665.76 719.52 2.5485 50.000 0.020000 665.76 719.52 2.5485 1.9421 2.5457 224.14 0.13992 11.122 0.031537 50.000 0.020000 665.76 719.52 2.5485 1.9421 2.5457 224.14 0.13992 11.122 0.031537
104.38 391.68 undefined 667.70 721.72 2.5536 50.000 0.020000 667.70 721.72 2.5536 1.9453 2.5442 224.77 0.13844 11.152 0.031676 50.000 0.020000 667.70 721.72 2.5536 1.9453 2.5442 224.77 0.13844 11.152 0.031676
105.38 393.47 undefined 669.65 723.91 2.5588 50.000 0.020000 669.65 723.91 2.5588 1.9486 2.5428 225.41 0.13699 11.182 0.031815 50.000 0.020000 669.65 723.91 2.5588 1.9486 2.5428 225.41 0.13699 11.182 0.031815
106.38 395.26 undefined 671.60 726.11 2.5639 50.000 0.020000 671.60 726.11 2.5639 1.9519 2.5415 226.04 0.13557 11.212 0.031955 50.000 0.020000 671.60 726.11 2.5639 1.9519 2.5415 226.04 0.13557 11.212 0.031955
107.38 397.05 undefined 673.56 728.31 2.5691 50.000 0.020000 673.56 728.31 2.5691 1.9552 2.5404 226.67 0.13416 11.242 0.032095 50.000 0.020000 673.56 728.31 2.5691 1.9552 2.5404 226.67 0.13416 11.242 0.032095
108.38 398.84 undefined 675.51 730.51 2.5742 50.000 0.020000 675.51 730.51 2.5742 1.9585 2.5393 227.29 0.13278 11.272 0.032236 50.000 0.020000 675.51 730.51 2.5742 1.9585 2.5393 227.29 0.13278 11.272 0.032236
109.38 400.62 undefined 677.47 732.72 2.5793 50.000 0.020000 677.47 732.72 2.5793 1.9618 2.5384 227.92 0.13142 11.302 0.032378 50.000 0.020000 677.47 732.72 2.5793 1.9618 2.5384 227.92 0.13142 11.302 0.032378
110.38 402.41 undefined 679.44 734.93 2.5845 50.000 0.020000 679.44 734.93 2.5845 1.9651 2.5376 228.54 0.13008 11.332 0.032519 50.000 0.020000 679.44 734.93 2.5845 1.9651 2.5376 228.54 0.13008 11.332 0.032519
111.38 404.19 undefined 681.40 737.14 2.5896 50.000 0.020000 681.40 737.14 2.5896 1.9685 2.5369 229.16 0.12876 11.362 0.032661 50.000 0.020000 681.40 737.14 2.5896 1.9685 2.5369 229.16 0.12876 11.362 0.032661
112.38 405.97 undefined 683.37 739.35 2.5947 50.000 0.020000 683.37 739.35 2.5947 1.9718 2.5363 229.77 0.12746 11.392 0.032804 50.000 0.020000 683.37 739.35 2.5947 1.9718 2.5363 229.77 0.12746 11.392 0.032804
113.38 407.74 undefined 685.35 741.57 2.5998 50.000 0.020000 685.35 741.57 2.5998 1.9752 2.5357 230.39 0.12618 11.421 0.032947 50.000 0.020000 685.35 741.57 2.5998 1.9752 2.5357 230.39 0.12618 11.421 0.032947
114.38 409.52 undefined 687.32 743.79 2.6049 50.000 0.020000 687.32 743.79 2.6049 1.9786 2.5353 231.00 0.12493 11.451 0.033090 50.000 0.020000 687.32 743.79 2.6049 1.9786 2.5353 231.00 0.12493 11.451 0.033090
115.38 411.29 undefined 689.30 746.02 2.6100 50.000 0.020000 689.30 746.02 2.6100 1.9820 2.5350 231.61 0.12369 11.481 0.033234 50.000 0.020000 689.30 746.02 2.6100 1.9820 2.5350 231.61 0.12369 11.481 0.033234
116.38 413.06 undefined 691.29 748.25 2.6151 50.000 0.020000 691.29 748.25 2.6151 1.9854 2.5347 232.22 0.12247 11.511 0.033378 50.000 0.020000 691.29 748.25 2.6151 1.9854 2.5347 232.22 0.12247 11.511 0.033378
117.38 414.83 undefined 693.27 750.48 2.6202 50.000 0.020000 693.27 750.48 2.6202 1.9889 2.5345 232.82 0.12126 11.540 0.033522 50.000 0.020000 693.27 750.48 2.6202 1.9889 2.5345 232.82 0.12126 11.540 0.033522
118.38 416.60 undefined 695.27 752.71 2.6253 50.000 0.020000 695.27 752.71 2.6253 1.9923 2.5344 233.43 0.12008 11.570 0.033667 50.000 0.020000 695.27 752.71 2.6253 1.9923 2.5344 233.43 0.12008 11.570 0.033667
119.38 418.36 undefined 697.26 754.95 2.6304 50.000 0.020000 697.26 754.95 2.6304 1.9958 2.5344 234.03 0.11891 11.600 0.033813 50.000 0.020000 697.26 754.95 2.6304 1.9958 2.5344 234.03 0.11891 11.600 0.033813
120.38 420.13 undefined 699.26 757.19 2.6355 50.000 0.020000 699.26 757.19 2.6355 1.9992 2.5345 234.63 0.11776 11.629 0.033958 50.000 0.020000 699.26 757.19 2.6355 1.9992 2.5345 234.63 0.11776 11.629 0.033958
121.38 421.89 undefined 701.26 759.43 2.6406 50.000 0.020000 701.26 759.43 2.6406 2.0027 2.5346 235.23 0.11663 11.659 0.034105 50.000 0.020000 701.26 759.43 2.6406 2.0027 2.5346 235.23 0.11663 11.659 0.034105
122.38 423.65 undefined 703.26 761.68 2.6456 50.000 0.020000 703.26 761.68 2.6456 2.0062 2.5349 235.82 0.11551 11.688 0.034251 50.000 0.020000 703.26 761.68 2.6456 2.0062 2.5349 235.82 0.11551 11.688 0.034251
123.38 425.40 undefined 705.27 763.93 2.6507 50.000 0.020000 705.27 763.93 2.6507 2.0097 2.5351 236.41 0.11441 11.718 0.034398 50.000 0.020000 705.27 763.93 2.6507 2.0097 2.5351 236.41 0.11441 11.718 0.034398
124.38 427.16 undefined 707.28 766.18 2.6558 50.000 0.020000 707.28 766.18 2.6558 2.0132 2.5355 237.01 0.11332 11.747 0.034545 50.000 0.020000 707.28 766.18 2.6558 2.0132 2.5355 237.01 0.11332 11.747 0.034545
125.38 428.92 undefined 709.30 768.44 2.6608 50.000 0.020000 709.30 768.44 2.6608 2.0167 2.5359 237.60 0.11225 11.777 0.034693 50.000 0.020000 709.30 768.44 2.6608 2.0167 2.5359 237.60 0.11225 11.777 0.034693
126.38 430.67 undefined 711.31 770.70 2.6659 50.000 0.020000 711.31 770.70 2.6659 2.0202 2.5364 238.18 0.11120 11.806 0.034841 50.000 0.020000 711.31 770.70 2.6659 2.0202 2.5364 238.18 0.11120 11.806 0.034841
127.38 432.42 undefined 713.34 772.97 2.6710 50.000 0.020000 713.34 772.97 2.6710 2.0238 2.5369 238.77 0.11016 11.836 0.034989 50.000 0.020000 713.34 772.97 2.6710 2.0238 2.5369 238.77 0.11016 11.836 0.034989
128.38 434.17 undefined 715.36 775.23 2.6760 50.000 0.020000 715.36 775.23 2.6760 2.0273 2.5375 239.35 0.10913 11.865 0.035138 50.000 0.020000 715.36 775.23 2.6760 2.0273 2.5375 239.35 0.10913 11.865 0.035138
129.38 435.92 undefined 717.39 777.50 2.6810 50.000 0.020000 717.39 777.50 2.6810 2.0308 2.5382 239.93 0.10812 11.894 0.035287 50.000 0.020000 717.39 777.50 2.6810 2.0308 2.5382 239.93 0.10812 11.894 0.035287
130.38 437.66 undefined 719.42 779.78 2.6861 50.000 0.020000 719.42 779.78 2.6861 2.0344 2.5389 240.51 0.10712 11.924 0.035437 50.000 0.020000 719.42 779.78 2.6861 2.0344 2.5389 240.51 0.10712 11.924 0.035437
131.38 439.41 undefined 721.46 782.05 2.6911 50.000 0.020000 721.46 782.05 2.6911 2.0380 2.5397 241.09 0.10614 11.953 0.035586 50.000 0.020000 721.46 782.05 2.6911 2.0380 2.5397 241.09 0.10614 11.953 0.035586
132.38 441.15 undefined 723.50 784.33 2.6962 50.000 0.020000 723.50 784.33 2.6962 2.0415 2.5405 241.67 0.10517 11.982 0.035737 50.000 0.020000 723.50 784.33 2.6962 2.0415 2.5405 241.67 0.10517 11.982 0.035737
133.38 442.89 undefined 725.54 786.62 2.7012 50.000 0.020000 725.54 786.62 2.7012 2.0451 2.5414 242.24 0.10422 12.011 0.035887 50.000 0.020000 725.54 786.62 2.7012 2.0451 2.5414 242.24 0.10422 12.011 0.035887
134.38 444.64 undefined 727.59 788.90 2.7062 50.000 0.020000 727.59 788.90 2.7062 2.0487 2.5424 242.81 0.10327 12.040 0.036038 50.000 0.020000 727.59 788.90 2.7062 2.0487 2.5424 242.81 0.10327 12.040 0.036038
135.38 446.37 undefined 729.64 791.19 2.7113 50.000 0.020000 729.64 791.19 2.7113 2.0523 2.5433 243.38 0.10234 12.070 0.036189 50.000 0.020000 729.64 791.19 2.7113 2.0523 2.5433 243.38 0.10234 12.070 0.036189
136.38 448.11 undefined 731.69 793.49 2.7163 50.000 0.020000 731.69 793.49 2.7163 2.0559 2.5444 243.95 0.10142 12.099 0.036341 50.000 0.020000 731.69 793.49 2.7163 2.0559 2.5444 243.95 0.10142 12.099 0.036341
137.38 449.85 undefined 733.75 795.78 2.7213 50.000 0.020000 733.75 795.78 2.7213 2.0595 2.5455 244.52 0.10052 12.128 0.036493 50.000 0.020000 733.75 795.78 2.7213 2.0595 2.5455 244.52 0.10052 12.128 0.036493
138.38 451.58 undefined 735.81 798.08 2.7263 50.000 0.020000 735.81 798.08 2.7263 2.0631 2.5466 245.09 0.099624 12.157 0.036645 50.000 0.020000 735.81 798.08 2.7263 2.0631 2.5466 245.09 0.099624 12.157 0.036645
139.38 453.32 undefined 737.88 800.39 2.7313 50.000 0.020000 737.88 800.39 2.7313 2.0667 2.5478 245.65 0.098742 12.186 0.036798 50.000 0.020000 737.88 800.39 2.7313 2.0667 2.5478 245.65 0.098742 12.186 0.036798
140.38 455.05 undefined 739.95 802.70 2.7363 50.000 0.020000 739.95 802.70 2.7363 2.0703 2.5490 246.21 0.097872 12.215 0.036951 50.000 0.020000 739.95 802.70 2.7363 2.0703 2.5490 246.21 0.097872 12.215 0.036951
141.38 456.78 undefined 742.02 805.01 2.7413 50.000 0.020000 742.02 805.01 2.7413 2.0739 2.5503 246.77 0.097013 12.244 0.037105 50.000 0.020000 742.02 805.01 2.7413 2.0739 2.5503 246.77 0.097013 12.244 0.037105
142.38 458.51 undefined 744.09 807.32 2.7463 50.000 0.020000 744.09 807.32 2.7463 2.0776 2.5516 247.33 0.096166 12.273 0.037258 50.000 0.020000 744.09 807.32 2.7463 2.0776 2.5516 247.33 0.096166 12.273 0.037258
143.38 460.24 undefined 746.17 809.64 2.7513 50.000 0.020000 746.17 809.64 2.7513 2.0812 2.5529 247.89 0.095329 12.302 0.037412 50.000 0.020000 746.17 809.64 2.7513 2.0812 2.5529 247.89 0.095329 12.302 0.037412
144.38 461.96 undefined 748.26 811.96 2.7563 50.000 0.020000 748.26 811.96 2.7563 2.0848 2.5543 248.45 0.094504 12.330 0.037567 50.000 0.020000 748.26 811.96 2.7563 2.0848 2.5543 248.45 0.094504 12.330 0.037567
145.38 463.69 undefined 750.34 814.28 2.7613 50.000 0.020000 750.34 814.28 2.7613 2.0885 2.5558 249.00 0.093689 12.359 0.037722 50.000 0.020000 750.34 814.28 2.7613 2.0885 2.5558 249.00 0.093689 12.359 0.037722
146.38 465.41 undefined 752.43 816.61 2.7663 50.000 0.020000 752.43 816.61 2.7663 2.0921 2.5572 249.55 0.092884 12.388 0.037877 50.000 0.020000 752.43 816.61 2.7663 2.0921 2.5572 249.55 0.092884 12.388 0.037877
147.38 467.13 undefined 754.53 818.94 2.7713 50.000 0.020000 754.53 818.94 2.7713 2.0958 2.5587 250.10 0.092090 12.417 0.038032 50.000 0.020000 754.53 818.94 2.7713 2.0958 2.5587 250.10 0.092090 12.417 0.038032
148.38 468.86 undefined 756.63 821.28 2.7763 50.000 0.020000 756.63 821.28 2.7763 2.0994 2.5603 250.65 0.091306 12.446 0.038188 50.000 0.020000 756.63 821.28 2.7763 2.0994 2.5603 250.65 0.091306 12.446 0.038188
149.38 470.58 undefined 758.73 823.62 2.7813 50.000 0.020000 758.73 823.62 2.7813 2.1031 2.5619 251.20 0.090532 12.474 0.038344 50.000 0.020000 758.73 823.62 2.7813 2.1031 2.5619 251.20 0.090532 12.474 0.038344
150.38 472.30 undefined 760.83 825.96 2.7862 50.000 0.020000 760.83 825.96 2.7862 2.1068 2.5635 251.75 0.089767 12.503 0.038501 50.000 0.020000 760.83 825.96 2.7862 2.1068 2.5635 251.75 0.089767 12.503 0.038501
151.38 474.01 undefined 762.94 828.30 2.7912 50.000 0.020000 762.94 828.30 2.7912 2.1104 2.5651 252.29 0.089012 12.532 0.038657 50.000 0.020000 762.94 828.30 2.7912 2.1104 2.5651 252.29 0.089012 12.532 0.038657
152.38 475.73 undefined 765.05 830.65 2.7962 50.000 0.020000 765.05 830.65 2.7962 2.1141 2.5668 252.83 0.088267 12.560 0.038815 50.000 0.020000 765.05 830.65 2.7962 2.1141 2.5668 252.83 0.088267 12.560 0.038815
153.38 477.45 undefined 767.17 833.01 2.8011 50.000 0.020000 767.17 833.01 2.8011 2.1178 2.5685 253.38 0.087531 12.589 0.038972 50.000 0.020000 767.17 833.01 2.8011 2.1178 2.5685 253.38 0.087531 12.589 0.038972
154.38 479.16 undefined 769.29 835.36 2.8061 50.000 0.020000 769.29 835.36 2.8061 2.1214 2.5703 253.92 0.086804 12.618 0.039130 50.000 0.020000 769.29 835.36 2.8061 2.1214 2.5703 253.92 0.086804 12.618 0.039130
155.38 480.88 undefined 771.41 837.72 2.8111 50.000 0.020000 771.41 837.72 2.8111 2.1251 2.5720 254.46 0.086086 12.646 0.039288 50.000 0.020000 771.41 837.72 2.8111 2.1251 2.5720 254.46 0.086086 12.646 0.039288
156.38 482.59 undefined 773.54 840.09 2.8160 50.000 0.020000 773.54 840.09 2.8160 2.1288 2.5738 254.99 0.085377 12.675 0.039446 50.000 0.020000 773.54 840.09 2.8160 2.1288 2.5738 254.99 0.085377 12.675 0.039446
157.38 484.30 undefined 775.67 842.45 2.8210 50.000 0.020000 775.67 842.45 2.8210 2.1325 2.5757 255.53 0.084676 12.703 0.039605 50.000 0.020000 775.67 842.45 2.8210 2.1325 2.5757 255.53 0.084676 12.703 0.039605
158.38 486.01 undefined 777.80 844.82 2.8259 50.000 0.020000 777.80 844.82 2.8259 2.1362 2.5775 256.06 0.083984 12.732 0.039764 50.000 0.020000 777.80 844.82 2.8259 2.1362 2.5775 256.06 0.083984 12.732 0.039764
159.38 487.72 undefined 779.94 847.20 2.8309 50.000 0.020000 779.94 847.20 2.8309 2.1399 2.5794 256.60 0.083301 12.760 0.039924 50.000 0.020000 779.94 847.20 2.8309 2.1399 2.5794 256.60 0.083301 12.760 0.039924
160.38 489.43 undefined 782.08 849.57 2.8358 50.000 0.020000 782.08 849.57 2.8358 2.1436 2.5814 257.13 0.082626 12.788 0.040084 50.000 0.020000 782.08 849.57 2.8358 2.1436 2.5814 257.13 0.082626 12.788 0.040084
161.38 491.13 undefined 784.23 851.95 2.8408 50.000 0.020000 784.23 851.95 2.8408 2.1473 2.5833 257.66 0.081958 12.817 0.040244 50.000 0.020000 784.23 851.95 2.8408 2.1473 2.5833 257.66 0.081958 12.817 0.040244
162.38 492.84 undefined 786.38 854.34 2.8457 50.000 0.020000 786.38 854.34 2.8457 2.1510 2.5853 258.19 0.081299 12.845 0.040404 50.000 0.020000 786.38 854.34 2.8457 2.1510 2.5853 258.19 0.081299 12.845 0.040404
163.38 494.54 undefined 788.53 856.73 2.8506 50.000 0.020000 788.53 856.73 2.8506 2.1547 2.5873 258.72 0.080648 12.873 0.040565 50.000 0.020000 788.53 856.73 2.8506 2.1547 2.5873 258.72 0.080648 12.873 0.040565
164.38 496.25 undefined 790.69 859.12 2.8556 50.000 0.020000 790.69 859.12 2.8556 2.1584 2.5893 259.24 0.080004 12.902 0.040726 50.000 0.020000 790.69 859.12 2.8556 2.1584 2.5893 259.24 0.080004 12.902 0.040726
165.38 497.95 undefined 792.85 861.51 2.8605 50.000 0.020000 792.85 861.51 2.8605 2.1621 2.5914 259.77 0.079369 12.930 0.040887 50.000 0.020000 792.85 861.51 2.8605 2.1621 2.5914 259.77 0.079369 12.930 0.040887
166.38 499.65 undefined 795.01 863.91 2.8654 50.000 0.020000 795.01 863.91 2.8654 2.1658 2.5934 260.29 0.078740 12.958 0.041049 50.000 0.020000 795.01 863.91 2.8654 2.1658 2.5934 260.29 0.078740 12.958 0.041049
167.38 501.35 undefined 797.18 866.31 2.8704 50.000 0.020000 797.18 866.31 2.8704 2.1695 2.5955 260.82 0.078119 12.986 0.041211 50.000 0.020000 797.18 866.31 2.8704 2.1695 2.5955 260.82 0.078119 12.986 0.041211
168.38 503.05 undefined 799.35 868.72 2.8753 50.000 0.020000 799.35 868.72 2.8753 2.1732 2.5977 261.34 0.077505 13.015 0.041373 50.000 0.020000 799.35 868.72 2.8753 2.1732 2.5977 261.34 0.077505 13.015 0.041373
169.38 504.75 undefined 801.53 871.13 2.8802 50.000 0.020000 801.53 871.13 2.8802 2.1769 2.5998 261.86 0.076899 13.043 0.041536 50.000 0.020000 801.53 871.13 2.8802 2.1769 2.5998 261.86 0.076899 13.043 0.041536
170.38 506.45 undefined 803.70 873.54 2.8851 50.000 0.020000 803.70 873.54 2.8851 2.1806 2.6020 262.38 0.076299 13.071 0.041699 50.000 0.020000 803.70 873.54 2.8851 2.1806 2.6020 262.38 0.076299 13.071 0.041699
171.38 508.15 undefined 805.89 875.96 2.8900 50.000 0.020000 805.89 875.96 2.8900 2.1843 2.6042 262.89 0.075707 13.099 0.041862 50.000 0.020000 805.89 875.96 2.8900 2.1843 2.6042 262.89 0.075707 13.099 0.041862
172.38 509.85 undefined 808.07 878.38 2.8950 50.000 0.020000 808.07 878.38 2.8950 2.1880 2.6064 263.41 0.075121 13.127 0.042026 50.000 0.020000 808.07 878.38 2.8950 2.1880 2.6064 263.41 0.075121 13.127 0.042026
173.38 511.54 undefined 810.26 880.80 2.8999 50.000 0.020000 810.26 880.80 2.8999 2.1918 2.6086 263.92 0.074542 13.155 0.042190 50.000 0.020000 810.26 880.80 2.8999 2.1918 2.6086 263.92 0.074542 13.155 0.042190
174.38 513.24 undefined 812.46 883.23 2.9048 50.000 0.020000 812.46 883.23 2.9048 2.1955 2.6109 264.44 0.073969 13.183 0.042354 50.000 0.020000 812.46 883.23 2.9048 2.1955 2.6109 264.44 0.073969 13.183 0.042354
175.38 514.93 undefined 814.65 885.66 2.9097 50.000 0.020000 814.65 885.66 2.9097 2.1992 2.6131 264.95 0.073403 13.211 0.042519 50.000 0.020000 814.65 885.66 2.9097 2.1992 2.6131 264.95 0.073403 13.211 0.042519
176.38 516.62 undefined 816.85 888.09 2.9146 50.000 0.020000 816.85 888.09 2.9146 2.2029 2.6154 265.46 0.072844 13.239 0.042684 50.000 0.020000 816.85 888.09 2.9146 2.2029 2.6154 265.46 0.072844 13.239 0.042684
177.38 518.31 undefined 819.06 890.53 2.9195 50.000 0.020000 819.06 890.53 2.9195 2.2066 2.6177 265.97 0.072291 13.267 0.042849 50.000 0.020000 819.06 890.53 2.9195 2.2066 2.6177 265.97 0.072291 13.267 0.042849
178.38 520.01 undefined 821.27 892.97 2.9244 50.000 0.020000 821.27 892.97 2.9244 2.2103 2.6201 266.48 0.071744 13.295 0.043014 50.000 0.020000 821.27 892.97 2.9244 2.2103 2.6201 266.48 0.071744 13.295 0.043014
179.38 521.70 undefined 823.48 895.42 2.9293 50.000 0.020000 823.48 895.42 2.9293 2.2141 2.6224 266.99 0.071203 13.323 0.043180 50.000 0.020000 823.48 895.42 2.9293 2.2141 2.6224 266.99 0.071203 13.323 0.043180
180.38 523.39 undefined 825.70 897.87 2.9342 50.000 0.020000 825.70 897.87 2.9342 2.2178 2.6248 267.50 0.070668 13.350 0.043346 50.000 0.020000 825.70 897.87 2.9342 2.2178 2.6248 267.50 0.070668 13.350 0.043346
181.38 525.07 undefined 827.92 900.32 2.9390 50.000 0.020000 827.92 900.32 2.9390 2.2215 2.6272 268.00 0.070139 13.378 0.043513 50.000 0.020000 827.92 900.32 2.9390 2.2215 2.6272 268.00 0.070139 13.378 0.043513
182.38 526.76 undefined 830.14 902.78 2.9439 50.000 0.020000 830.14 902.78 2.9439 2.2252 2.6296 268.51 0.069616 13.406 0.043679 50.000 0.020000 830.14 902.78 2.9439 2.2252 2.6296 268.51 0.069616 13.406 0.043679
183.38 528.45 undefined 832.37 905.24 2.9488 50.000 0.020000 832.37 905.24 2.9488 2.2290 2.6320 269.01 0.069099 13.434 0.043846 50.000 0.020000 832.37 905.24 2.9488 2.2290 2.6320 269.01 0.069099 13.434 0.043846
184.38 530.14 undefined 834.60 907.70 2.9537 50.000 0.020000 834.60 907.70 2.9537 2.2327 2.6344 269.51 0.068587 13.461 0.044014 50.000 0.020000 834.60 907.70 2.9537 2.2327 2.6344 269.51 0.068587 13.461 0.044014
185.38 531.82 undefined 836.83 910.17 2.9586 50.000 0.020000 836.83 910.17 2.9586 2.2364 2.6369 270.01 0.068081 13.489 0.044182 50.000 0.020000 836.83 910.17 2.9586 2.2364 2.6369 270.01 0.068081 13.489 0.044182
186.38 533.51 undefined 839.07 912.64 2.9635 50.000 0.020000 839.07 912.64 2.9635 2.2401 2.6393 270.51 0.067581 13.517 0.044350 50.000 0.020000 839.07 912.64 2.9635 2.2401 2.6393 270.51 0.067581 13.517 0.044350
187.38 535.19 undefined 841.31 915.11 2.9683 50.000 0.020000 841.31 915.11 2.9683 2.2438 2.6418 271.01 0.067086 13.544 0.044518 50.000 0.020000 841.31 915.11 2.9683 2.2438 2.6418 271.01 0.067086 13.544 0.044518
188.38 536.87 undefined 843.56 917.59 2.9732 50.000 0.020000 843.56 917.59 2.9732 2.2476 2.6443 271.51 0.066596 13.572 0.044686 50.000 0.020000 843.56 917.59 2.9732 2.2476 2.6443 271.51 0.066596 13.572 0.044686
189.38 538.56 undefined 845.81 920.07 2.9781 50.000 0.020000 845.81 920.07 2.9781 2.2513 2.6468 272.00 0.066112 13.600 0.044855 50.000 0.020000 845.81 920.07 2.9781 2.2513 2.6468 272.00 0.066112 13.600 0.044855
190.38 540.24 undefined 848.06 922.56 2.9829 50.000 0.020000 848.06 922.56 2.9829 2.2550 2.6493 272.50 0.065633 13.627 0.045025 50.000 0.020000 848.06 922.56 2.9829 2.2550 2.6493 272.50 0.065633 13.627 0.045025
191.38 541.92 undefined 850.32 925.05 2.9878 50.000 0.020000 850.32 925.05 2.9878 2.2587 2.6519 272.99 0.065159 13.655 0.045194 50.000 0.020000 850.32 925.05 2.9878 2.2587 2.6519 272.99 0.065159 13.655 0.045194
192.38 543.60 undefined 852.58 927.54 2.9927 50.000 0.020000 852.58 927.54 2.9927 2.2625 2.6544 273.49 0.064690 13.682 0.045364 50.000 0.020000 852.58 927.54 2.9927 2.2625 2.6544 273.49 0.064690 13.682 0.045364
193.38 545.28 undefined 854.84 930.03 2.9975 50.000 0.020000 854.84 930.03 2.9975 2.2662 2.6570 273.98 0.064226 13.710 0.045534 50.000 0.020000 854.84 930.03 2.9975 2.2662 2.6570 273.98 0.064226 13.710 0.045534
194.38 546.96 undefined 857.11 932.53 3.0024 50.000 0.020000 857.11 932.53 3.0024 2.2699 2.6596 274.47 0.063767 13.737 0.045705 50.000 0.020000 857.11 932.53 3.0024 2.2699 2.6596 274.47 0.063767 13.737 0.045705
195.38 548.64 undefined 859.38 935.04 3.0072 50.000 0.020000 859.38 935.04 3.0072 2.2736 2.6621 274.96 0.063312 13.764 0.045875 50.000 0.020000 859.38 935.04 3.0072 2.2736 2.6621 274.96 0.063312 13.764 0.045875
196.38 550.32 undefined 861.66 937.54 3.0121 50.000 0.020000 861.66 937.54 3.0121 2.2773 2.6647 275.45 0.062863 13.792 0.046046 50.000 0.020000 861.66 937.54 3.0121 2.2773 2.6647 275.45 0.062863 13.792 0.046046
197.38 551.99 undefined 863.94 940.05 3.0169 50.000 0.020000 863.94 940.05 3.0169 2.2811 2.6674 275.94 0.062418 13.819 0.046218 50.000 0.020000 863.94 940.05 3.0169 2.2811 2.6674 275.94 0.062418 13.819 0.046218
198.38 553.67 undefined 866.22 942.57 3.0218 50.000 0.020000 866.22 942.57 3.0218 2.2848 2.6700 276.42 0.061978 13.846 0.046390 50.000 0.020000 866.22 942.57 3.0218 2.2848 2.6700 276.42 0.061978 13.846 0.046390
199.38 555.34 undefined 868.51 945.09 3.0266 50.000 0.020000 868.51 945.09 3.0266 2.2885 2.6726 276.91 0.061543 13.874 0.046562 50.000 0.020000 868.51 945.09 3.0266 2.2885 2.6726 276.91 0.061543 13.874 0.046562
200.38 557.02 undefined 870.80 947.61 3.0315 50.000 0.020000 870.80 947.61 3.0315 2.2922 2.6753 277.40 0.061112 13.901 0.046734 50.000 0.020000 870.80 947.61 3.0315 2.2922 2.6753 277.40 0.061112 13.901 0.046734
201.38 558.69 undefined 873.09 950.13 3.0363 50.000 0.020000 873.09 950.13 3.0363 2.2959 2.6779 277.88 0.060685 13.928 0.046906 50.000 0.020000 873.09 950.13 3.0363 2.2959 2.6779 277.88 0.060685 13.928 0.046906
202.38 560.37 undefined 875.39 952.66 3.0411 50.000 0.020000 875.39 952.66 3.0411 2.2996 2.6806 278.36 0.060263 13.956 0.047079 50.000 0.020000 875.39 952.66 3.0411 2.2996 2.6806 278.36 0.060263 13.956 0.047079
203.38 562.04 undefined 877.69 955.19 3.0460 50.000 0.020000 877.69 955.19 3.0460 2.3033 2.6833 278.84 0.059845 13.983 0.047253 50.000 0.020000 877.69 955.19 3.0460 2.3033 2.6833 278.84 0.059845 13.983 0.047253
204.38 563.71 undefined 879.99 957.73 3.0508 50.000 0.020000 879.99 957.73 3.0508 2.3071 2.6860 279.33 0.059431 14.010 0.047426 50.000 0.020000 879.99 957.73 3.0508 2.3071 2.6860 279.33 0.059431 14.010 0.047426
205.38 565.39 undefined 882.30 960.27 3.0556 50.000 0.020000 882.30 960.27 3.0556 2.3108 2.6887 279.81 0.059022 14.037 0.047600 50.000 0.020000 882.30 960.27 3.0556 2.3108 2.6887 279.81 0.059022 14.037 0.047600
206.38 567.06 undefined 884.62 962.81 3.0605 50.000 0.020000 884.62 962.81 3.0605 2.3145 2.6914 280.28 0.058617 14.064 0.047774 50.000 0.020000 884.62 962.81 3.0605 2.3145 2.6914 280.28 0.058617 14.064 0.047774
207.38 568.73 undefined 886.93 965.36 3.0653 50.000 0.020000 886.93 965.36 3.0653 2.3182 2.6941 280.76 0.058216 14.091 0.047948 50.000 0.020000 886.93 965.36 3.0653 2.3182 2.6941 280.76 0.058216 14.091 0.047948
208.38 570.40 undefined 889.25 967.91 3.0701 50.000 0.020000 889.25 967.91 3.0701 2.3219 2.6968 281.24 0.057818 14.118 0.048123 50.000 0.020000 889.25 967.91 3.0701 2.3219 2.6968 281.24 0.057818 14.118 0.048123
209.38 572.07 undefined 891.58 970.46 3.0749 50.000 0.020000 891.58 970.46 3.0749 2.3256 2.6995 281.72 0.057425 14.145 0.048298 50.000 0.020000 891.58 970.46 3.0749 2.3256 2.6995 281.72 0.057425 14.145 0.048298
210.38 573.74 undefined 893.90 973.02 3.0798 50.000 0.020000 893.90 973.02 3.0798 2.3293 2.7023 282.19 0.057036 14.172 0.048473 50.000 0.020000 893.90 973.02 3.0798 2.3293 2.7023 282.19 0.057036 14.172 0.048473
211.38 575.41 undefined 896.23 975.58 3.0846 50.000 0.020000 896.23 975.58 3.0846 2.3330 2.7050 282.67 0.056651 14.199 0.048649 50.000 0.020000 896.23 975.58 3.0846 2.3330 2.7050 282.67 0.056651 14.199 0.048649
212.38 577.07 undefined 898.57 978.15 3.0894 50.000 0.020000 898.57 978.15 3.0894 2.3367 2.7078 283.14 0.056269 14.226 0.048825 50.000 0.020000 898.57 978.15 3.0894 2.3367 2.7078 283.14 0.056269 14.226 0.048825
213.38 578.74 undefined 900.91 980.71 3.0942 50.000 0.020000 900.91 980.71 3.0942 2.3404 2.7106 283.61 0.055892 14.253 0.049001 50.000 0.020000 900.91 980.71 3.0942 2.3404 2.7106 283.61 0.055892 14.253 0.049001
214.38 580.41 undefined 903.25 983.29 3.0990 50.000 0.020000 903.25 983.29 3.0990 2.3441 2.7134 284.08 0.055518 14.280 0.049178 50.000 0.020000 903.25 983.29 3.0990 2.3441 2.7134 284.08 0.055518 14.280 0.049178
215.38 582.07 undefined 905.60 985.86 3.1038 50.000 0.020000 905.60 985.86 3.1038 2.3478 2.7161 284.55 0.055147 14.307 0.049354 50.000 0.020000 905.60 985.86 3.1038 2.3478 2.7161 284.55 0.055147 14.307 0.049354
216.38 583.74 undefined 907.95 988.44 3.1086 50.000 0.020000 907.95 988.44 3.1086 2.3515 2.7189 285.02 0.054781 14.334 0.049531 50.000 0.020000 907.95 988.44 3.1086 2.3515 2.7189 285.02 0.054781 14.334 0.049531
217.38 585.40 undefined 910.30 991.02 3.1134 50.000 0.020000 910.30 991.02 3.1134 2.3552 2.7217 285.49 0.054417 14.360 0.049709 50.000 0.020000 910.30 991.02 3.1134 2.3552 2.7217 285.49 0.054417 14.360 0.049709
218.38 587.07 undefined 912.66 993.61 3.1182 50.000 0.020000 912.66 993.61 3.1182 2.3589 2.7246 285.96 0.054058 14.387 0.049887 50.000 0.020000 912.66 993.61 3.1182 2.3589 2.7246 285.96 0.054058 14.387 0.049887
219.38 588.73 undefined 915.02 996.20 3.1230 50.000 0.020000 915.02 996.20 3.1230 2.3626 2.7274 286.43 0.053702 14.414 0.050065 50.000 0.020000 915.02 996.20 3.1230 2.3626 2.7274 286.43 0.053702 14.414 0.050065
220.38 590.40 undefined 917.38 998.79 3.1278 50.000 0.020000 917.38 998.79 3.1278 2.3662 2.7302 286.89 0.053349 14.441 0.050243 50.000 0.020000 917.38 998.79 3.1278 2.3662 2.7302 286.89 0.053349 14.441 0.050243
221.38 592.06 undefined 919.75 1001.4 3.1326 50.000 0.020000 919.75 1001.4 3.1326 2.3699 2.7330 287.36 0.053000 14.467 0.050421 50.000 0.020000 919.75 1001.4 3.1326 2.3699 2.7330 287.36 0.053000 14.467 0.050421
222.38 593.72 undefined 922.12 1004.0 3.1374 50.000 0.020000 922.12 1004.0 3.1374 2.3736 2.7359 287.82 0.052654 14.494 0.050600 50.000 0.020000 922.12 1004.0 3.1374 2.3736 2.7359 287.82 0.052654 14.494 0.050600
223.38 595.38 undefined 924.50 1006.6 3.1422 50.000 0.020000 924.50 1006.6 3.1422 2.3773 2.7387 288.29 0.052311 14.521 0.050779 50.000 0.020000 924.50 1006.6 3.1422 2.3773 2.7387 288.29 0.052311 14.521 0.050779
224.38 597.05 undefined 926.88 1009.2 3.1470 50.000 0.020000 926.88 1009.2 3.1470 2.3810 2.7415 288.75 0.051972 14.547 0.050959 50.000 0.020000 926.88 1009.2 3.1470 2.3810 2.7415 288.75 0.051972 14.547 0.050959
225.38 598.71 undefined 929.26 1011.8 3.1518 50.000 0.020000 929.26 1011.8 3.1518 2.3846 2.7444 289.21 0.051636 14.574 0.051139 50.000 0.020000 929.26 1011.8 3.1518 2.3846 2.7444 289.21 0.051636 14.574 0.051139
226.38 600.37 undefined 931.65 1014.4 3.1565 50.000 0.020000 931.65 1014.4 3.1565 2.3883 2.7473 289.67 0.051303 14.600 0.051319 50.000 0.020000 931.65 1014.4 3.1565 2.3883 2.7473 289.67 0.051303 14.600 0.051319
227.38 602.03 undefined 934.04 1017.1 3.1613 50.000 0.020000 934.04 1017.1 3.1613 2.3920 2.7501 290.13 0.050973 14.627 0.051499 50.000 0.020000 934.04 1017.1 3.1613 2.3920 2.7501 290.13 0.050973 14.627 0.051499
228.38 603.69 undefined 936.43 1019.7 3.1661 50.000 0.020000 936.43 1019.7 3.1661 2.3956 2.7530 290.59 0.050646 14.654 0.051680 50.000 0.020000 936.43 1019.7 3.1661 2.3956 2.7530 290.59 0.050646 14.654 0.051680
229.38 605.35 undefined 938.83 1022.3 3.1709 50.000 0.020000 938.83 1022.3 3.1709 2.3993 2.7559 291.05 0.050322 14.680 0.051861 50.000 0.020000 938.83 1022.3 3.1709 2.3993 2.7559 291.05 0.050322 14.680 0.051861
230.38 607.00 undefined 941.23 1024.9 3.1756 50.000 0.020000 941.23 1024.9 3.1756 2.4030 2.7588 291.51 0.050001 14.706 0.052042 50.000 0.020000 941.23 1024.9 3.1756 2.4030 2.7588 291.51 0.050001 14.706 0.052042
231.38 608.66 undefined 943.63 1027.6 3.1804 50.000 0.020000 943.63 1027.6 3.1804 2.4066 2.7616 291.96 0.049684 14.733 0.052223 50.000 0.020000 943.63 1027.6 3.1804 2.4066 2.7616 291.96 0.049684 14.733 0.052223
232.38 610.32 undefined 946.04 1030.2 3.1852 50.000 0.020000 946.04 1030.2 3.1852 2.4103 2.7645 292.42 0.049369 14.759 0.052405 50.000 0.020000 946.04 1030.2 3.1852 2.4103 2.7645 292.42 0.049369 14.759 0.052405
233.38 611.98 undefined 948.45 1032.8 3.1900 50.000 0.020000 948.45 1032.8 3.1900 2.4139 2.7674 292.88 0.049057 14.786 0.052587 50.000 0.020000 948.45 1032.8 3.1900 2.4139 2.7674 292.88 0.049057 14.786 0.052587
234.38 613.63 undefined 950.87 1035.5 3.1947 50.000 0.020000 950.87 1035.5 3.1947 2.4176 2.7703 293.33 0.048748 14.812 0.052770 50.000 0.020000 950.87 1035.5 3.1947 2.4176 2.7703 293.33 0.048748 14.812 0.052770
235.38 615.29 undefined 953.29 1038.1 3.1995 50.000 0.020000 953.29 1038.1 3.1995 2.4212 2.7732 293.78 0.048442 14.838 0.052952 50.000 0.020000 953.29 1038.1 3.1995 2.4212 2.7732 293.78 0.048442 14.838 0.052952
236.38 616.95 undefined 955.71 1040.8 3.2042 50.000 0.020000 955.71 1040.8 3.2042 2.4249 2.7761 294.24 0.048138 14.865 0.053135 50.000 0.020000 955.71 1040.8 3.2042 2.4249 2.7761 294.24 0.048138 14.865 0.053135
237.38 618.60 undefined 958.14 1043.4 3.2090 50.000 0.020000 958.14 1043.4 3.2090 2.4285 2.7791 294.69 0.047838 14.891 0.053319 50.000 0.020000 958.14 1043.4 3.2090 2.4285 2.7791 294.69 0.047838 14.891 0.053319
238.38 620.26 undefined 960.57 1046.1 3.2138 50.000 0.020000 960.57 1046.1 3.2138 2.4322 2.7820 295.14 0.047540 14.917 0.053502 50.000 0.020000 960.57 1046.1 3.2138 2.4322 2.7820 295.14 0.047540 14.917 0.053502
239.38 621.91 undefined 963.00 1048.8 3.2185 50.000 0.020000 963.00 1048.8 3.2185 2.4358 2.7849 295.59 0.047245 14.943 0.053686 50.000 0.020000 963.00 1048.8 3.2185 2.4358 2.7849 295.59 0.047245 14.943 0.053686
240.38 623.57 undefined 965.44 1051.4 3.2233 50.000 0.020000 965.44 1051.4 3.2233 2.4395 2.7878 296.04 0.046952 14.970 0.053870 50.000 0.020000 965.44 1051.4 3.2233 2.4395 2.7878 296.04 0.046952 14.970 0.053870
241.38 625.22 undefined 967.88 1054.1 3.2280 50.000 0.020000 967.88 1054.1 3.2280 2.4431 2.7908 296.49 0.046662 14.996 0.054055 50.000 0.020000 967.88 1054.1 3.2280 2.4431 2.7908 296.49 0.046662 14.996 0.054055
242.38 626.87 undefined 970.33 1056.8 3.2328 50.000 0.020000 970.33 1056.8 3.2328 2.4467 2.7937 296.94 0.046375 15.022 0.054239 50.000 0.020000 970.33 1056.8 3.2328 2.4467 2.7937 296.94 0.046375 15.022 0.054239
243.38 628.53 undefined 972.77 1059.4 3.2375 50.000 0.020000 972.77 1059.4 3.2375 2.4503 2.7966 297.38 0.046090 15.048 0.054424 50.000 0.020000 972.77 1059.4 3.2375 2.4503 2.7966 297.38 0.046090 15.048 0.054424
244.38 630.18 undefined 975.23 1062.1 3.2422 50.000 0.020000 975.23 1062.1 3.2422 2.4540 2.7996 297.83 0.045808 15.074 0.054610 50.000 0.020000 975.23 1062.1 3.2422 2.4540 2.7996 297.83 0.045808 15.074 0.054610
245.38 631.83 undefined 977.68 1064.8 3.2470 50.000 0.020000 977.68 1064.8 3.2470 2.4576 2.8025 298.28 0.045528 15.100 0.054795 50.000 0.020000 977.68 1064.8 3.2470 2.4576 2.8025 298.28 0.045528 15.100 0.054795
246.38 633.48 undefined 980.14 1067.5 3.2517 50.000 0.020000 980.14 1067.5 3.2517 2.4612 2.8055 298.72 0.045251 15.126 0.054981 50.000 0.020000 980.14 1067.5 3.2517 2.4612 2.8055 298.72 0.045251 15.126 0.054981
247.38 635.14 undefined 982.61 1070.2 3.2565 50.000 0.020000 982.61 1070.2 3.2565 2.4648 2.8084 299.17 0.044976 15.152 0.055167 50.000 0.020000 982.61 1070.2 3.2565 2.4648 2.8084 299.17 0.044976 15.152 0.055167
248.38 636.79 undefined 985.07 1072.9 3.2612 50.000 0.020000 985.07 1072.9 3.2612 2.4684 2.8114 299.61 0.044704 15.178 0.055353 50.000 0.020000 985.07 1072.9 3.2612 2.4684 2.8114 299.61 0.044704 15.178 0.055353
249.38 638.44 undefined 987.54 1075.6 3.2659 50.000 0.020000 987.54 1075.6 3.2659 2.4721 2.8143 300.05 0.044434 15.204 0.055540 50.000 0.020000 987.54 1075.6 3.2659 2.4721 2.8143 300.05 0.044434 15.204 0.055540
250.38 640.09 undefined 990.02 1078.3 3.2707 50.000 0.020000 990.02 1078.3 3.2707 2.4757 2.8173 300.49 0.044166 15.230 0.055727 50.000 0.020000 990.02 1078.3 3.2707 2.4757 2.8173 300.49 0.044166 15.230 0.055727
251.38 641.74 undefined 992.49 1081.0 3.2754 50.000 0.020000 992.49 1081.0 3.2754 2.4793 2.8202 300.94 0.043901 15.256 0.055914 50.000 0.020000 992.49 1081.0 3.2754 2.4793 2.8202 300.94 0.043901 15.256 0.055914
252.38 643.39 undefined 994.97 1083.7 3.2801 50.000 0.020000 994.97 1083.7 3.2801 2.4829 2.8232 301.38 0.043638 15.282 0.056102 50.000 0.020000 994.97 1083.7 3.2801 2.4829 2.8232 301.38 0.043638 15.282 0.056102
253.38 645.04 undefined 997.46 1086.4 3.2848 50.000 0.020000 997.46 1086.4 3.2848 2.4865 2.8262 301.82 0.043377 15.308 0.056290 50.000 0.020000 997.46 1086.4 3.2848 2.4865 2.8262 301.82 0.043377 15.308 0.056290
254.38 646.69 undefined 999.95 1089.1 3.2896 50.000 0.020000 999.95 1089.1 3.2896 2.4901 2.8291 302.26 0.043118 15.333 0.056478 50.000 0.020000 999.95 1089.1 3.2896 2.4901 2.8291 302.26 0.043118 15.333 0.056478
255.38 648.33 undefined 1002.4 1091.8 3.2943 50.000 0.020000 1002.4 1091.8 3.2943 2.4936 2.8321 302.69 0.042862 15.359 0.056666 50.000 0.020000 1002.4 1091.8 3.2943 2.4936 2.8321 302.69 0.042862 15.359 0.056666
256.38 649.98 undefined 1004.9 1094.6 3.2990 50.000 0.020000 1004.9 1094.6 3.2990 2.4972 2.8351 303.13 0.042608 15.385 0.056855 50.000 0.020000 1004.9 1094.6 3.2990 2.4972 2.8351 303.13 0.042608 15.385 0.056855
257.38 651.63 undefined 1007.4 1097.3 3.3037 50.000 0.020000 1007.4 1097.3 3.3037 2.5008 2.8380 303.57 0.042356 15.411 0.057044 50.000 0.020000 1007.4 1097.3 3.3037 2.5008 2.8380 303.57 0.042356 15.411 0.057044
258.38 653.28 undefined 1009.9 1100.0 3.3084 50.000 0.020000 1009.9 1100.0 3.3084 2.5044 2.8410 304.00 0.042106 15.436 0.057233 50.000 0.020000 1009.9 1100.0 3.3084 2.5044 2.8410 304.00 0.042106 15.436 0.057233
259.38 654.92 undefined 1012.4 1102.8 3.3131 50.000 0.020000 1012.4 1102.8 3.3131 2.5080 2.8440 304.44 0.041858 15.462 0.057422 50.000 0.020000 1012.4 1102.8 3.3131 2.5080 2.8440 304.44 0.041858 15.462 0.057422
260.38 656.57 undefined 1015.0 1105.5 3.3178 50.000 0.020000 1015.0 1105.5 3.3178 2.5115 2.8470 304.88 0.041613 15.488 0.057612 50.000 0.020000 1015.0 1105.5 3.3178 2.5115 2.8470 304.88 0.041613 15.488 0.057612
261.38 658.22 undefined 1017.5 1108.2 3.3225 50.000 0.020000 1017.5 1108.2 3.3225 2.5151 2.8499 305.31 0.041369 15.513 0.057802 50.000 0.020000 1017.5 1108.2 3.3225 2.5151 2.8499 305.31 0.041369 15.513 0.057802
262.38 659.86 undefined 1020.0 1111.0 3.3272 50.000 0.020000 1020.0 1111.0 3.3272 2.5187 2.8529 305.74 0.041128 15.539 0.057992 50.000 0.020000 1020.0 1111.0 3.3272 2.5187 2.8529 305.74 0.041128 15.539 0.057992
263.38 661.51 undefined 1022.5 1113.7 3.3319 50.000 0.020000 1022.5 1113.7 3.3319 2.5222 2.8559 306.18 0.040888 15.565 0.058182 50.000 0.020000 1022.5 1113.7 3.3319 2.5222 2.8559 306.18 0.040888 15.565 0.058182
264.38 663.15 undefined 1025.0 1116.5 3.3366 50.000 0.020000 1025.0 1116.5 3.3366 2.5258 2.8589 306.61 0.040651 15.590 0.058373 50.000 0.020000 1025.0 1116.5 3.3366 2.5258 2.8589 306.61 0.040651 15.590 0.058373
265.38 664.80 undefined 1027.6 1119.2 3.3413 50.000 0.020000 1027.6 1119.2 3.3413 2.5294 2.8619 307.04 0.040415 15.616 0.058564 50.000 0.020000 1027.6 1119.2 3.3413 2.5294 2.8619 307.04 0.040415 15.616 0.058564
266.38 666.44 undefined 1030.1 1122.0 3.3460 50.000 0.020000 1030.1 1122.0 3.3460 2.5329 2.8649 307.47 0.040182 15.641 0.058755 50.000 0.020000 1030.1 1122.0 3.3460 2.5329 2.8649 307.47 0.040182 15.641 0.058755
267.38 668.09 undefined 1032.6 1124.7 3.3507 50.000 0.020000 1032.6 1124.7 3.3507 2.5365 2.8678 307.90 0.039950 15.667 0.058947 50.000 0.020000 1032.6 1124.7 3.3507 2.5365 2.8678 307.90 0.039950 15.667 0.058947
268.38 669.73 undefined 1035.2 1127.5 3.3554 50.000 0.020000 1035.2 1127.5 3.3554 2.5400 2.8708 308.33 0.039720 15.692 0.059138 50.000 0.020000 1035.2 1127.5 3.3554 2.5400 2.8708 308.33 0.039720 15.692 0.059138
269.38 671.38 undefined 1037.7 1130.3 3.3601 50.000 0.020000 1037.7 1130.3 3.3601 2.5436 2.8738 308.76 0.039493 15.718 0.059330 50.000 0.020000 1037.7 1130.3 3.3601 2.5436 2.8738 308.76 0.039493 15.718 0.059330
270.38 673.02 undefined 1040.2 1133.1 3.3648 50.000 0.020000 1040.2 1133.1 3.3648 2.5471 2.8768 309.19 0.039267 15.743 0.059522 50.000 0.020000 1040.2 1133.1 3.3648 2.5471 2.8768 309.19 0.039267 15.743 0.059522
271.38 674.66 undefined 1042.8 1135.8 3.3695 50.000 0.020000 1042.8 1135.8 3.3695 2.5506 2.8798 309.61 0.039042 15.768 0.059715 50.000 0.020000 1042.8 1135.8 3.3695 2.5506 2.8798 309.61 0.039042 15.768 0.059715
272.38 676.30 undefined 1045.3 1138.6 3.3742 50.000 0.020000 1045.3 1138.6 3.3742 2.5542 2.8828 310.04 0.038820 15.794 0.059907 50.000 0.020000 1045.3 1138.6 3.3742 2.5542 2.8828 310.04 0.038820 15.794 0.059907
273.38 677.95 undefined 1047.9 1141.4 3.3789 50.000 0.020000 1047.9 1141.4 3.3789 2.5577 2.8858 310.47 0.038600 15.819 0.060100 50.000 0.020000 1047.9 1141.4 3.3789 2.5577 2.8858 310.47 0.038600 15.819 0.060100
274.38 679.59 undefined 1050.5 1144.2 3.3835 50.000 0.020000 1050.5 1144.2 3.3835 2.5612 2.8888 310.89 0.038381 15.844 0.060293 50.000 0.020000 1050.5 1144.2 3.3835 2.5612 2.8888 310.89 0.038381 15.844 0.060293
275.38 681.23 undefined 1053.0 1147.0 3.3882 50.000 0.020000 1053.0 1147.0 3.3882 2.5647 2.8918 311.32 0.038164 15.870 0.060485 50.000 0.020000 1053.0 1147.0 3.3882 2.5647 2.8918 311.32 0.038164 15.870 0.060485
276.38 682.87 undefined 1055.6 1149.8 3.3929 50.000 0.020000 1055.6 1149.8 3.3929 2.5683 2.8948 311.74 0.037949 15.895 0.060678 50.000 0.020000 1055.6 1149.8 3.3929 2.5683 2.8948 311.74 0.037949 15.895 0.060678
277.38 684.51 undefined 1058.2 1152.6 3.3976 50.000 0.020000 1058.2 1152.6 3.3976 2.5718 2.8978 312.17 0.037735 15.920 0.060871 50.000 0.020000 1058.2 1152.6 3.3976 2.5718 2.8978 312.17 0.037735 15.920 0.060871
278.38 686.16 undefined 1060.7 1155.4 3.4022 50.000 0.020000 1060.7 1155.4 3.4022 2.5753 2.9008 312.59 0.037523 15.945 0.061064 50.000 0.020000 1060.7 1155.4 3.4022 2.5753 2.9008 312.59 0.037523 15.945 0.061064
279.38 687.80 undefined 1063.3 1158.2 3.4069 50.000 0.020000 1063.3 1158.2 3.4069 2.5788 2.9038 313.01 0.037313 15.970 0.061257 50.000 0.020000 1063.3 1158.2 3.4069 2.5788 2.9038 313.01 0.037313 15.970 0.061257
280.38 689.44 undefined 1065.9 1161.0 3.4116 50.000 0.020000 1065.9 1161.0 3.4116 2.5823 2.9067 313.43 0.037105 15.996 0.061448 50.000 0.020000 1065.9 1161.0 3.4116 2.5823 2.9067 313.43 0.037105 15.996 0.061448
281.38 691.08 undefined 1068.5 1163.8 3.4162 50.000 0.020000 1068.5 1163.8 3.4162 2.5858 2.9097 313.85 0.036898 16.021 0.061636 50.000 0.020000 1068.5 1163.8 3.4162 2.5858 2.9097 313.85 0.036898 16.021 0.061636
282.38 692.72 undefined 1071.1 1166.6 3.4209 50.000 0.020000 1071.1 1166.6 3.4209 2.5893 2.9127 314.27 0.036693 16.046 0.061827 50.000 0.020000 1071.1 1166.6 3.4209 2.5893 2.9127 314.27 0.036693 16.046 0.061827
283.38 694.36 undefined 1073.7 1169.4 3.4255 50.000 0.020000 1073.7 1169.4 3.4255 2.5928 2.9157 314.69 0.036489 16.071 0.062026 50.000 0.020000 1073.7 1169.4 3.4255 2.5928 2.9157 314.69 0.036489 16.071 0.062026
284.38 696.00 undefined 1076.2 1172.2 3.4302 50.000 0.020000 1076.2 1172.2 3.4302 2.5963 2.9187 315.11 0.036287 16.096 0.062224 50.000 0.020000 1076.2 1172.2 3.4302 2.5963 2.9187 315.11 0.036287 16.096 0.062224
285.38 697.63 undefined 1078.8 1175.0 3.4349 50.000 0.020000 1078.8 1175.0 3.4349 2.5997 2.9217 315.53 0.036087 16.121 0.062423 50.000 0.020000 1078.8 1175.0 3.4349 2.5997 2.9217 315.53 0.036087 16.121 0.062423
286.38 699.27 undefined 1081.4 1177.9 3.4395 50.000 0.020000 1081.4 1177.9 3.4395 2.6032 2.9247 315.95 0.035888 16.146 0.062622 50.000 0.020000 1081.4 1177.9 3.4395 2.6032 2.9247 315.95 0.035888 16.146 0.062622
287.38 700.91 undefined 1084.1 1180.7 3.4442 50.000 0.020000 1084.1 1180.7 3.4442 2.6067 2.9277 316.37 0.035691 16.171 0.062822 50.000 0.020000 1084.1 1180.7 3.4442 2.6067 2.9277 316.37 0.035691 16.171 0.062822
288.38 702.55 undefined 1086.7 1183.5 3.4488 50.000 0.020000 1086.7 1183.5 3.4488 2.6102 2.9307 316.78 0.035495 16.196 0.063022 50.000 0.020000 1086.7 1183.5 3.4488 2.6102 2.9307 316.78 0.035495 16.196 0.063022
289.38 704.19 undefined 1089.3 1186.4 3.4535 50.000 0.020000 1089.3 1186.4 3.4535 2.6136 2.9337 317.20 0.035301 16.221 0.063222 50.000 0.020000 1089.3 1186.4 3.4535 2.6136 2.9337 317.20 0.035301 16.221 0.063222
290.38 705.82 undefined 1091.9 1189.2 3.4581 50.000 0.020000 1091.9 1189.2 3.4581 2.6171 2.9367 317.62 0.035108 16.246 0.063422 50.000 0.020000 1091.9 1189.2 3.4581 2.6171 2.9367 317.62 0.035108 16.246 0.063422
291.38 707.46 undefined 1094.5 1192.1 3.4628 50.000 0.020000 1094.5 1192.1 3.4628 2.6206 2.9397 318.03 0.034917 16.270 0.063623 50.000 0.020000 1094.5 1192.1 3.4628 2.6206 2.9397 318.03 0.034917 16.270 0.063623
292.38 709.10 undefined 1097.1 1194.9 3.4674 50.000 0.020000 1097.1 1194.9 3.4674 2.6240 2.9427 318.44 0.034727 16.295 0.063823 50.000 0.020000 1097.1 1194.9 3.4674 2.6240 2.9427 318.44 0.034727 16.295 0.063823
293.38 710.74 undefined 1099.8 1197.8 3.4720 50.000 0.020000 1099.8 1197.8 3.4720 2.6275 2.9457 318.86 0.034539 16.320 0.064025 50.000 0.020000 1099.8 1197.8 3.4720 2.6275 2.9457 318.86 0.034539 16.320 0.064025
294.38 712.37 undefined 1102.4 1200.6 3.4767 50.000 0.020000 1102.4 1200.6 3.4767 2.6309 2.9487 319.27 0.034352 16.345 0.064226 50.000 0.020000 1102.4 1200.6 3.4767 2.6309 2.9487 319.27 0.034352 16.345 0.064226
295.38 714.01 undefined 1105.0 1203.5 3.4813 50.000 0.020000 1105.0 1203.5 3.4813 2.6344 2.9516 319.68 0.034166 16.370 0.064428 50.000 0.020000 1105.0 1203.5 3.4813 2.6344 2.9516 319.68 0.034166 16.370 0.064428
296.38 715.64 undefined 1107.7 1206.3 3.4859 50.000 0.020000 1107.7 1206.3 3.4859 2.6378 2.9546 320.10 0.033982 16.394 0.064630 50.000 0.020000 1107.7 1206.3 3.4859 2.6378 2.9546 320.10 0.033982 16.394 0.064630
297.38 717.28 undefined 1110.3 1209.2 3.4906 50.000 0.020000 1110.3 1209.2 3.4906 2.6412 2.9576 320.51 0.033799 16.419 0.064832 50.000 0.020000 1110.3 1209.2 3.4906 2.6412 2.9576 320.51 0.033799 16.419 0.064832
298.38 718.92 undefined 1112.9 1212.1 3.4952 50.000 0.020000 1112.9 1212.1 3.4952 2.6447 2.9606 320.92 0.033618 16.444 0.065035 50.000 0.020000 1112.9 1212.1 3.4952 2.6447 2.9606 320.92 0.033618 16.444 0.065035
299.38 720.55 undefined 1115.6 1214.9 3.4998 50.000 0.020000 1115.6 1214.9 3.4998 2.6481 2.9636 321.33 0.033438 16.468 0.065238 50.000 0.020000 1115.6 1214.9 3.4998 2.6481 2.9636 321.33 0.033438 16.468 0.065238
300.38 722.19 undefined 1118.2 1217.8 3.5044 50.000 0.020000 1118.2 1217.8 3.5044 2.6515 2.9666 321.74 0.033259 16.493 0.065441 50.000 0.020000 1118.2 1217.8 3.5044 2.6515 2.9666 321.74 0.033259 16.493 0.065441