Temperature (C) Pressure (psia) Quality (l+v) Internal Energy (l+v, kJ/kg) Enthalpy (l+v, kJ/kg) Entropy (l+v, J/g*K) Density (l, kg/m3) Volume (l, m3/kg) Internal Energy (l, kJ/kg) Enthalpy (l, kJ/kg) Entropy (l, J/g*K) Cv (l, J/g*K) Cp (l, J/g*K) Sound Spd. (l, m/s) Joule-Thomson (l, F/psia) Viscosity (l, uPa*s) Therm. Cond. (l, W/m*K) Density (v, kg/m3) Volume (v, m3/kg) Internal Energy (v, kJ/kg) Enthalpy (v, kJ/kg) Entropy (v, J/g*K) Cv (v, J/g*K) Cp (v, J/g*K) Sound Spd. (v, m/s) Joule-Thomson (v, F/psia) Viscosity (v, uPa*s) Therm. Cond. (v, W/m*K)
-187.62 2.4953e-08 6.3667e-12 -196.64 -196.64 -1.3959 733.13 0.0013640 -196.64 -196.64 -1.3959 1.3553 1.9158 2136.4 -0.0077592 10960. 0.20792 1.0669e-08 9.3732e+07 350.13 366.26 5.1858 0.69067 0.87923 143.28 6.1051 2.3259 0.0017061
-186.62 3.7339e-08 9.3862e-12 -194.73 -194.73 -1.3736 732.08 0.0013660 -194.73 -194.73 -1.3736 1.3539 1.9166 2129.6 -0.0077546 10073. 0.20765 1.5780e-08 6.3371e+07 350.82 367.14 5.1200 0.69462 0.88317 144.03 5.9178 2.3534 0.0017533
-185.62 5.5322e-08 1.3703e-11 -192.81 -192.81 -1.3516 731.04 0.0013679 -192.81 -192.81 -1.3516 1.3525 1.9174 2122.9 -0.0077498 9276.1 0.20737 2.3112e-08 4.3267e+07 351.52 368.02 5.0561 0.69857 0.88713 144.77 5.7383 2.3808 0.0018007
-184.62 8.1182e-08 1.9815e-11 -190.89 -190.89 -1.3298 730.00 0.0013699 -190.89 -190.89 -1.3298 1.3513 1.9182 2116.1 -0.0077448 8557.8 0.20708 3.3533e-08 2.9821e+07 352.22 368.91 4.9939 0.70253 0.89108 145.51 5.5662 2.4083 0.0018485
-183.62 1.1803e-07 2.8394e-11 -188.97 -188.97 -1.3083 728.96 0.0013718 -188.97 -188.97 -1.3083 1.3501 1.9191 2109.3 -0.0077395 7909.8 0.20678 4.8211e-08 2.0742e+07 352.92 369.81 4.9333 0.70648 0.89504 146.24 5.4011 2.4357 0.0018965
-182.62 1.7009e-07 4.0330e-11 -187.05 -187.05 -1.2869 727.92 0.0013738 -187.05 -187.05 -1.2869 1.3490 1.9201 2102.5 -0.0077340 7324.3 0.20647 6.8704e-08 1.4555e+07 353.63 370.70 4.8744 0.71043 0.89899 146.97 5.2426 2.4632 0.0019448
-181.62 2.4299e-07 5.6796e-11 -185.13 -185.13 -1.2658 726.88 0.0013757 -185.13 -185.13 -1.2658 1.3480 1.9210 2095.7 -0.0077283 6794.5 0.20616 9.7079e-08 1.0301e+07 354.35 371.60 4.8170 0.71438 0.90294 147.69 5.0904 2.4906 0.0019934
-180.62 3.4425e-07 7.9328e-11 -183.21 -183.21 -1.2450 725.85 0.0013777 -183.21 -183.21 -1.2450 1.3470 1.9220 2088.9 -0.0077225 6314.4 0.20584 1.3605e-07 7.3504e+06 355.06 372.51 4.7612 0.71833 0.90688 148.41 4.9442 2.5181 0.0020423
-179.62 4.8378e-07 1.0992e-10 -181.29 -181.29 -1.2243 724.81 0.0013797 -181.29 -181.29 -1.2243 1.3461 1.9231 2082.0 -0.0077164 5878.8 0.20551 1.8915e-07 5.2868e+06 355.78 373.42 4.7068 0.72227 0.91082 149.13 4.8038 2.5456 0.0020915
-178.62 6.7459e-07 1.5114e-10 -179.37 -179.37 -1.2038 723.78 0.0013816 -179.37 -179.37 -1.2038 1.3453 1.9241 2075.2 -0.0077102 5482.9 0.20517 2.6096e-07 3.8320e+06 356.51 374.33 4.6538 0.72620 0.91475 149.84 4.6688 2.5731 0.0021410
-177.62 9.3358e-07 2.0627e-10 -177.44 -177.44 -1.1836 722.75 0.0013836 -177.44 -177.44 -1.1836 1.3445 1.9252 2068.4 -0.0077039 5122.6 0.20483 3.5737e-07 2.7982e+06 357.23 375.25 4.6022 0.73012 0.91867 150.54 4.5390 2.6005 0.0021907
-176.62 1.2826e-06 2.7948e-10 -175.52 -175.52 -1.1635 721.72 0.0013856 -175.52 -175.52 -1.1635 1.3437 1.9263 2061.5 -0.0076973 4794.1 0.20447 4.8588e-07 2.0581e+06 357.97 376.17 4.5519 0.73403 0.92258 151.25 4.4142 2.6280 0.0022408
-175.62 1.7496e-06 3.7604e-10 -173.59 -173.59 -1.1437 720.69 0.0013876 -173.59 -173.59 -1.1437 1.3430 1.9274 2054.7 -0.0076907 4494.3 0.20411 6.5601e-07 1.5244e+06 358.70 377.09 4.5029 0.73792 0.92648 151.95 4.2941 2.6555 0.0022912
-174.62 2.3705e-06 5.0256e-10 -171.66 -171.66 -1.1240 719.66 0.0013895 -171.66 -171.66 -1.1240 1.3423 1.9286 2047.9 -0.0076838 4220.2 0.20375 8.7976e-07 1.1367e+06 359.44 378.02 4.4551 0.74181 0.93036 152.64 4.1784 2.6830 0.0023418
-173.62 3.1903e-06 6.6725e-10 -169.73 -169.73 -1.1045 718.64 0.0013915 -169.73 -169.73 -1.1045 1.3417 1.9298 2041.0 -0.0076769 3969.3 0.20338 1.1721e-06 8.5314e+05 360.19 378.95 4.4085 0.74568 0.93423 153.33 4.0671 2.7105 0.0023928
-172.62 4.2661e-06 8.8029e-10 -167.80 -167.80 -1.0852 717.61 0.0013935 -167.80 -167.80 -1.0852 1.3411 1.9310 2034.2 -0.0076698 3739.3 0.20300 1.5518e-06 6.4441e+05 360.93 379.89 4.3631 0.74953 0.93809 154.02 3.9599 2.7379 0.0024440
-171.62 5.6692e-06 1.1542e-09 -165.87 -165.87 -1.0661 716.58 0.0013955 -165.87 -165.87 -1.0661 1.3405 1.9322 2027.3 -0.0076625 3528.0 0.20261 2.0419e-06 4.8974e+05 361.69 380.83 4.3188 0.75337 0.94193 154.71 3.8566 2.7654 0.0024955
-170.62 7.4884e-06 1.5044e-09 -163.94 -163.94 -1.0472 715.56 0.0013975 -163.94 -163.94 -1.0472 1.3400 1.9334 2020.5 -0.0076552 3333.8 0.20222 2.6708e-06 3.7442e+05 362.44 381.77 4.2755 0.75720 0.94575 155.39 3.7570 2.7929 0.0025473
-169.62 9.8334e-06 1.9495e-09 -162.00 -162.00 -1.0284 714.54 0.0013995 -162.00 -162.00 -1.0284 1.3395 1.9347 2013.6 -0.0076477 3154.9 0.20182 3.4733e-06 2.8791e+05 363.20 382.72 4.2334 0.76100 0.94956 156.07 3.6609 2.8204 0.0025994
-168.62 1.2839e-05 2.5121e-09 -160.07 -160.07 -1.0098 713.52 0.0014015 -160.07 -160.07 -1.0098 1.3390 1.9359 2006.8 -0.0076401 2989.9 0.20141 4.4917e-06 2.2263e+05 363.96 383.67 4.1922 0.76479 0.95335 156.74 3.5683 2.8479 0.0026518
-167.62 1.6672e-05 3.2194e-09 -158.13 -158.13 -0.99134 712.49 0.0014035 -158.13 -158.13 -0.99134 1.3386 1.9372 2000.0 -0.0076323 2837.5 0.20100 5.7771e-06 1.7310e+05 364.73 384.63 4.1521 0.76856 0.95712 157.41 3.4790 2.8754 0.0027045
-166.62 2.1533e-05 4.1041e-09 -156.19 -156.19 -0.97306 711.47 0.0014055 -156.19 -156.19 -0.97306 1.3382 1.9385 1993.1 -0.0076245 2696.5 0.20058 7.3914e-06 1.3529e+05 365.50 385.59 4.1129 0.77232 0.96087 158.08 3.3927 2.9029 0.0027575
-165.62 2.7666e-05 5.2051e-09 -154.25 -154.25 -0.95494 710.45 0.0014075 -154.25 -154.25 -0.95494 1.3378 1.9398 1986.3 -0.0076165 2566.0 0.20016 9.4084e-06 1.0629e+05 366.27 386.55 4.0746 0.77605 0.96460 158.75 3.3095 2.9304 0.0028108
-164.62 3.5367e-05 6.5685e-09 -152.31 -152.31 -0.93698 709.44 0.0014096 -152.31 -152.31 -0.93698 1.3375 1.9411 1979.4 -0.0076084 2444.9 0.19973 1.1916e-05 83918. 367.05 387.52 4.0372 0.77976 0.96832 159.41 3.2291 2.9579 0.0028643
-163.62 4.4989e-05 8.2489e-09 -150.37 -150.37 -0.91917 708.42 0.0014116 -150.37 -150.37 -0.91917 1.3371 1.9424 1972.6 -0.0076002 2332.3 0.19930 1.5020e-05 66577. 367.83 388.49 4.0008 0.78346 0.97201 160.07 3.1514 2.9854 0.0029182
-162.62 5.6956e-05 1.0310e-08 -148.43 -148.43 -0.90151 707.40 0.0014136 -148.43 -148.43 -0.90151 1.3368 1.9437 1965.8 -0.0075919 2227.7 0.19886 1.8844e-05 53068. 368.62 389.46 3.9651 0.78713 0.97569 160.72 3.0764 3.0129 0.0029723
-161.62 7.1773e-05 1.2828e-08 -146.48 -146.48 -0.88400 706.38 0.0014157 -146.48 -146.48 -0.88400 1.3365 1.9451 1959.0 -0.0075834 2130.2 0.19841 2.3533e-05 42494. 369.41 390.44 3.9304 0.79079 0.97935 161.38 3.0038 3.0404 0.0030268
-160.62 9.0036e-05 1.5890e-08 -144.54 -144.54 -0.86663 705.37 0.0014177 -144.54 -144.54 -0.86663 1.3363 1.9465 1952.1 -0.0075748 2039.2 0.19796 2.9258e-05 34178. 370.20 391.42 3.8964 0.79443 0.98298 162.03 2.9337 3.0679 0.0030815
-159.62 0.00011245 1.9597e-08 -142.59 -142.59 -0.84940 704.35 0.0014197 -142.59 -142.59 -0.84940 1.3360 1.9478 1945.3 -0.0075661 1954.2 0.19751 3.6221e-05 27609. 371.00 392.40 3.8632 0.79805 0.98660 162.68 2.8658 3.0955 0.0031365
-158.62 0.00013985 2.4067e-08 -140.64 -140.64 -0.83231 703.34 0.0014218 -140.64 -140.64 -0.83231 1.3358 1.9492 1938.5 -0.0075573 1874.8 0.19705 4.4652e-05 22395. 371.80 393.39 3.8307 0.80164 0.99020 163.32 2.8002 3.1230 0.0031918
-157.62 0.00017320 2.9436e-08 -138.69 -138.69 -0.81536 702.32 0.0014238 -138.69 -138.69 -0.81536 1.3356 1.9506 1931.7 -0.0075484 1800.3 0.19658 5.4822e-05 18241. 372.60 394.38 3.7990 0.80522 0.99378 163.96 2.7367 3.1505 0.0032474
-156.62 0.00021364 3.5859e-08 -136.74 -136.74 -0.79854 701.31 0.0014259 -136.74 -136.74 -0.79854 1.3354 1.9520 1924.9 -0.0075393 1730.5 0.19611 6.7040e-05 14916. 373.41 395.38 3.7680 0.80878 0.99734 164.60 2.6752 3.1780 0.0033033
-155.62 0.00026248 4.3514e-08 -134.79 -134.79 -0.78185 700.30 0.0014280 -134.79 -134.79 -0.78185 1.3352 1.9534 1918.1 -0.0075302 1664.9 0.19564 8.1666e-05 12245. 374.22 396.38 3.7377 0.81232 1.0009 165.24 2.6157 3.2055 0.0033595
-154.62 0.00032125 5.2603e-08 -132.83 -132.83 -0.76530 699.29 0.0014300 -132.83 -132.83 -0.76530 1.3350 1.9548 1911.3 -0.0075209 1603.3 0.19516 9.9109e-05 10090. 375.03 397.38 3.7081 0.81585 1.0044 165.87 2.5580 3.2330 0.0034160
-153.62 0.00039171 6.3356e-08 -130.88 -130.88 -0.74887 698.27 0.0014321 -130.88 -130.88 -0.74887 1.3349 1.9563 1904.5 -0.0075114 1545.3 0.19468 0.00011984 8344.6 375.85 398.39 3.6792 0.81935 1.0079 166.50 2.5022 3.2606 0.0034727
-152.62 0.00047590 7.6034e-08 -128.92 -128.92 -0.73256 697.26 0.0014342 -128.92 -128.92 -0.73256 1.3348 1.9577 1897.8 -0.0075019 1490.6 0.19419 0.00014439 6925.9 376.67 399.40 3.6509 0.82284 1.0114 167.13 2.4481 3.2881 0.0035298
-151.62 0.00057613 9.0929e-08 -126.96 -126.96 -0.71638 696.25 0.0014363 -126.96 -126.96 -0.71638 1.3346 1.9592 1891.0 -0.0074922 1438.9 0.19370 0.00017336 5768.4 377.49 400.41 3.6232 0.82631 1.0149 167.76 2.3957 3.3156 0.0035872
-150.62 0.00069507 1.0837e-07 -125.00 -125.00 -0.70032 695.24 0.0014384 -125.00 -125.00 -0.70032 1.3345 1.9606 1884.2 -0.0074824 1390.2 0.19320 0.00020744 4820.7 378.32 401.42 3.5962 0.82976 1.0183 168.38 2.3448 3.3431 0.0036448
-149.62 0.00083574 1.2873e-07 -123.04 -123.04 -0.68438 694.23 0.0014404 -123.04 -123.04 -0.68438 1.3345 1.9621 1877.4 -0.0074724 1344.0 0.19270 0.00024740 4042.0 379.15 402.44 3.5697 0.83319 1.0218 169.00 2.2956 3.3706 0.0037027
-148.62 0.0010016 1.5242e-07 -121.08 -121.08 -0.66855 693.22 0.0014425 -121.08 -121.08 -0.66855 1.3344 1.9636 1870.7 -0.0074623 1300.3 0.19220 0.00029412 3400.0 379.99 403.47 3.5438 0.83661 1.0252 169.62 2.2478 3.3982 0.0037610
-147.62 0.0011965 1.7990e-07 -119.11 -119.11 -0.65284 692.21 0.0014447 -119.11 -119.11 -0.65284 1.3343 1.9651 1863.9 -0.0074521 1258.9 0.19169 0.00034856 2869.0 380.83 404.49 3.5185 0.84001 1.0286 170.24 2.2014 3.4257 0.0038195
-146.62 0.0014249 2.1168e-07 -117.15 -117.15 -0.63724 691.20 0.0014468 -117.15 -117.15 -0.63724 1.3343 1.9666 1857.2 -0.0074417 1219.6 0.19117 0.00041181 2428.3 381.67 405.52 3.4938 0.84340 1.0320 170.85 2.1565 3.4532 0.0038783
-145.62 0.0016917 2.4832e-07 -115.18 -115.18 -0.62175 690.19 0.0014489 -115.18 -115.18 -0.62175 1.3343 1.9682 1850.4 -0.0074312 1182.3 0.19066 0.00048510 2061.4 382.51 406.56 3.4695 0.84677 1.0353 171.46 2.1128 3.4807 0.0039374
-144.62 0.0020026 2.9045e-07 -113.21 -113.21 -0.60637 689.18 0.0014510 -113.21 -113.21 -0.60637 1.3343 1.9697 1843.7 -0.0074206 1146.8 0.19014 0.00056976 1755.1 383.36 407.59 3.4458 0.85012 1.0387 172.07 2.0705 3.5082 0.0039967
-143.62 0.0023637 3.3876e-07 -111.24 -111.24 -0.59110 688.17 0.0014531 -111.24 -111.24 -0.59110 1.3343 1.9713 1836.9 -0.0074098 1113.0 0.18962 0.00066731 1498.6 384.21 408.63 3.4226 0.85346 1.0420 172.68 2.0294 3.5358 0.0040564
-142.62 0.0027820 3.9399e-07 -109.27 -109.27 -0.57593 687.16 0.0014553 -109.27 -109.27 -0.57593 1.3343 1.9728 1830.2 -0.0073988 1080.8 0.18909 0.00077939 1283.1 385.07 409.68 3.3999 0.85679 1.0454 173.28 1.9896 3.5633 0.0041164
-141.62 0.0032653 4.5698e-07 -107.30 -107.30 -0.56087 686.15 0.0014574 -107.30 -107.30 -0.56087 1.3343 1.9744 1823.5 -0.0073878 1050.1 0.18856 0.00090784 1101.5 385.93 410.72 3.3777 0.86011 1.0487 173.88 1.9508 3.5908 0.0041766
-140.62 0.0038222 5.2863e-07 -105.32 -105.32 -0.54591 685.14 0.0014596 -105.32 -105.32 -0.54591 1.3344 1.9760 1816.7 -0.0073765 1020.7 0.18803 0.0010547 948.16 386.79 411.77 3.3560 0.86341 1.0520 174.48 1.9133 3.6183 0.0042372
-139.62 0.0044623 6.0991e-07 -103.34 -103.34 -0.53105 684.13 0.0014617 -103.34 -103.34 -0.53105 1.3344 1.9776 1810.0 -0.0073651 992.74 0.18749 0.0012221 818.26 387.65 412.83 3.3347 0.86670 1.0553 175.08 1.8768 3.6459 0.0042980
-138.62 0.0051963 7.0191e-07 -101.37 -101.37 -0.51628 683.12 0.0014639 -101.37 -101.37 -0.51629 1.3345 1.9792 1803.3 -0.0073536 965.97 0.18695 0.0014125 707.94 388.52 413.88 3.3139 0.86998 1.0586 175.67 1.8413 3.6734 0.0043592
-137.62 0.0060358 8.0577e-07 -99.386 -99.386 -0.50162 682.11 0.0014660 -99.386 -99.386 -0.50162 1.3346 1.9808 1796.6 -0.0073419 940.35 0.18641 0.0016287 614.00 389.39 414.94 3.2935 0.87325 1.0619 176.26 1.8069 3.7009 0.0044206
-136.62 0.0069938 9.2275e-07 -97.404 -97.404 -0.48705 681.10 0.0014682 -97.404 -97.404 -0.48705 1.3347 1.9825 1789.9 -0.0073301 915.81 0.18586 0.0018733 533.80 390.26 416.00 3.2735 0.87650 1.0651 176.85 1.7734 3.7284 0.0044823
-135.62 0.0080843 1.0542e-06 -95.421 -95.421 -0.47258 680.09 0.0014704 -95.421 -95.421 -0.47258 1.3348 1.9841 1783.2 -0.0073180 892.30 0.18531 0.0021497 465.17 391.14 417.07 3.2540 0.87975 1.0684 177.44 1.7409 3.7559 0.0045443
-134.62 0.0093230 1.2016e-06 -93.436 -93.435 -0.45819 679.08 0.0014726 -93.436 -93.436 -0.45820 1.3350 1.9858 1776.5 -0.0073059 869.75 0.18476 0.0024613 406.30 392.02 418.14 3.2348 0.88299 1.0716 178.02 1.7093 3.7834 0.0046066
-133.62 0.010727 1.3665e-06 -91.449 -91.449 -0.44390 678.07 0.0014748 -91.450 -91.449 -0.44391 1.3351 1.9875 1769.8 -0.0072935 848.11 0.18421 0.0028116 355.67 392.91 419.21 3.2161 0.88622 1.0749 178.61 1.6786 3.8109 0.0046691
-132.62 0.012315 1.5505e-06 -89.460 -89.460 -0.42970 677.06 0.0014770 -89.461 -89.461 -0.42971 1.3353 1.9892 1763.1 -0.0072810 827.32 0.18365 0.0032049 312.03 393.79 420.29 3.1977 0.88944 1.0781 179.19 1.6488 3.8385 0.0047320
-131.62 0.014106 1.7555e-06 -87.470 -87.470 -0.41559 676.04 0.0014792 -87.471 -87.471 -0.41560 1.3354 1.9909 1756.4 -0.0072684 807.34 0.18309 0.0036453 274.33 394.68 421.36 3.1798 0.89266 1.0813 179.76 1.6197 3.8660 0.0047951
-130.62 0.016124 1.9834e-06 -85.478 -85.478 -0.40157 675.03 0.0014814 -85.479 -85.479 -0.40157 1.3356 1.9926 1749.7 -0.0072555 788.12 0.18253 0.0041375 241.69 395.58 422.44 3.1622 0.89586 1.0846 180.34 1.5915 3.8935 0.0048586
-129.62 0.018392 2.2363e-06 -83.485 -83.485 -0.38763 674.02 0.0014836 -83.486 -83.486 -0.38763 1.3358 1.9944 1743.0 -0.0072425 769.63 0.18196 0.0046867 213.37 396.47 423.53 3.1450 0.89906 1.0878 180.91 1.5641 3.9210 0.0049223
-128.62 0.020935 2.5162e-06 -81.489 -81.489 -0.37377 673.01 0.0014859 -81.491 -81.490 -0.37378 1.3360 1.9961 1736.3 -0.0072294 751.83 0.18140 0.0052981 188.75 397.37 424.62 3.1281 0.90226 1.0910 181.48 1.5374 3.9485 0.0049863
-127.62 0.023783 2.8255e-06 -79.492 -79.492 -0.36000 672.00 0.0014881 -79.494 -79.493 -0.36001 1.3363 1.9979 1729.6 -0.0072160 734.67 0.18083 0.0059776 167.29 398.27 425.71 3.1116 0.90545 1.0942 182.05 1.5114 3.9760 0.0050506
-126.62 0.026966 3.1667e-06 -77.493 -77.493 -0.34631 670.98 0.0014904 -77.495 -77.495 -0.34632 1.3365 1.9997 1722.9 -0.0072025 718.14 0.18025 0.0067313 148.56 399.18 426.80 3.0954 0.90863 1.0974 182.62 1.4861 4.0035 0.0051152
-125.62 0.030515 3.5422e-06 -75.493 -75.492 -0.33270 669.97 0.0014926 -75.494 -75.494 -0.33272 1.3368 2.0015 1716.2 -0.0071888 702.18 0.17968 0.0075660 132.17 400.09 427.89 3.0795 0.91181 1.1006 183.18 1.4615 4.0310 0.0051800
-124.62 0.034467 3.9550e-06 -73.490 -73.490 -0.31918 668.95 0.0014949 -73.492 -73.492 -0.31919 1.3371 2.0033 1709.5 -0.0071749 686.79 0.17910 0.0084885 117.81 401.00 428.99 3.0640 0.91499 1.1038 183.74 1.4375 4.0584 0.0052452
-123.62 0.038859 4.4077e-06 -71.486 -71.485 -0.30572 667.94 0.0014971 -71.488 -71.487 -0.30574 1.3374 2.0051 1702.8 -0.0071609 671.93 0.17852 0.0095065 105.19 401.91 430.10 3.0488 0.91816 1.1070 184.30 1.4141 4.0859 0.0053106
-122.62 0.043731 4.9034e-06 -69.479 -69.479 -0.29235 666.92 0.0014994 -69.482 -69.481 -0.29237 1.3377 2.0070 1696.2 -0.0071466 657.57 0.17794 0.010628 94.092 402.83 431.20 3.0339 0.92134 1.1102 184.86 1.3913 4.1134 0.0053764
-121.62 0.049128 5.4453e-06 -67.471 -67.470 -0.27905 665.91 0.0015017 -67.474 -67.473 -0.27907 1.3380 2.0089 1689.5 -0.0071322 643.70 0.17736 0.011861 84.309 403.75 432.31 3.0193 0.92451 1.1134 185.41 1.3691 4.1409 0.0054424
-120.62 0.055096 6.0367e-06 -65.461 -65.460 -0.26583 664.89 0.0015040 -65.464 -65.463 -0.26585 1.3384 2.0107 1682.8 -0.0071176 630.28 0.17678 0.013215 75.669 404.67 433.42 3.0050 0.92767 1.1166 185.96 1.3475 4.1683 0.0055087
-119.62 0.061684 6.6810e-06 -63.449 -63.448 -0.25268 663.87 0.0015063 -63.452 -63.452 -0.25271 1.3387 2.0126 1676.1 -0.0071028 617.30 0.17619 0.014700 68.027 405.60 434.53 2.9909 0.93084 1.1198 186.51 1.3264 4.1958 0.0055752
-118.62 0.068946 7.3818e-06 -61.435 -61.434 -0.23961 662.86 0.0015086 -61.439 -61.438 -0.23963 1.3391 2.0146 1669.4 -0.0070878 604.74 0.17560 0.016325 61.255 406.53 435.64 2.9772 0.93401 1.1231 187.06 1.3058 4.2233 0.0056421
-117.62 0.076937 8.1429e-06 -59.419 -59.418 -0.22661 661.84 0.0015109 -59.423 -59.422 -0.22663 1.3395 2.0165 1662.8 -0.0070726 592.58 0.17501 0.018101 55.245 407.46 436.76 2.9638 0.93718 1.1263 187.60 1.2857 4.2507 0.0057092
-116.62 0.085718 8.9682e-06 -57.402 -57.400 -0.21367 660.82 0.0015133 -57.406 -57.405 -0.21370 1.3400 2.0184 1656.1 -0.0070573 580.80 0.17442 0.020040 49.901 408.39 437.88 2.9506 0.94035 1.1295 188.14 1.2660 4.2782 0.0057767
-115.62 0.095353 9.8618e-06 -55.382 -55.380 -0.20081 659.80 0.0015156 -55.386 -55.385 -0.20084 1.3404 2.0204 1649.4 -0.0070417 569.38 0.17383 0.022152 45.142 409.33 439.01 2.9377 0.94352 1.1327 188.68 1.2468 4.3056 0.0058444
-114.62 0.10591 1.0828e-05 -53.360 -53.358 -0.18802 658.78 0.0015180 -53.365 -53.364 -0.18805 1.3409 2.0224 1642.7 -0.0070260 558.32 0.17323 0.024451 40.898 410.27 440.13 2.9250 0.94669 1.1360 189.22 1.2281 4.3330 0.0059123
-113.62 0.11746 1.1871e-05 -51.336 -51.334 -0.17529 657.76 0.0015203 -51.342 -51.340 -0.17533 1.3413 2.0244 1636.0 -0.0070100 547.59 0.17264 0.026949 37.107 411.21 441.26 2.9126 0.94987 1.1392 189.75 1.2097 4.3604 0.0059806
-112.62 0.13008 1.2995e-05 -49.310 -49.308 -0.16263 656.73 0.0015227 -49.316 -49.315 -0.16267 1.3418 2.0264 1629.3 -0.0069938 537.18 0.17204 0.029661 33.715 412.16 442.39 2.9005 0.95305 1.1424 190.28 1.1918 4.3879 0.0060491
-111.62 0.14384 1.4205e-05 -47.282 -47.280 -0.15004 655.71 0.0015251 -47.289 -47.287 -0.15008 1.3424 2.0285 1622.7 -0.0069774 527.08 0.17144 0.032600 30.675 413.10 443.53 2.8885 0.95623 1.1457 190.81 1.1742 4.4153 0.0061180
-110.62 0.15884 1.5506e-05 -45.252 -45.250 -0.13751 654.69 0.0015274 -45.259 -45.258 -0.13755 1.3429 2.0305 1616.0 -0.0069609 517.28 0.17084 0.035781 27.948 414.06 444.66 2.8769 0.95942 1.1490 191.34 1.1570 4.4427 0.0061871
-109.62 0.17516 1.6902e-05 -43.220 -43.218 -0.12504 653.66 0.0015298 -43.228 -43.226 -0.12509 1.3435 2.0326 1609.3 -0.0069441 507.76 0.17024 0.039220 25.497 415.01 445.80 2.8654 0.96261 1.1522 191.86 1.1402 4.4701 0.0062564
-108.62 0.19290 1.8399e-05 -41.186 -41.183 -0.11264 652.64 0.0015322 -41.194 -41.192 -0.11269 1.3441 2.0347 1602.6 -0.0069271 498.51 0.16964 0.042933 23.292 415.96 446.94 2.8542 0.96581 1.1555 192.38 1.1236 4.4974 0.0063261
-107.62 0.21215 2.0002e-05 -39.149 -39.146 -0.10030 651.61 0.0015347 -39.158 -39.156 -0.10036 1.3447 2.0369 1595.9 -0.0069098 489.52 0.16903 0.046937 21.305 416.92 448.09 2.8433 0.96901 1.1588 192.90 1.1075 4.5248 0.0063960
-106.62 0.23301 2.1716e-05 -37.111 -37.107 -0.088019 650.58 0.0015371 -37.120 -37.118 -0.088082 1.3453 2.0390 1589.2 -0.0068924 480.79 0.16843 0.051250 19.512 417.88 449.23 2.8325 0.97222 1.1621 193.41 1.0916 4.5522 0.0064662
-105.62 0.25561 2.3547e-05 -35.070 -35.066 -0.075800 649.55 0.0015395 -35.080 -35.078 -0.075868 1.3460 2.0412 1582.6 -0.0068747 472.30 0.16782 0.055891 17.892 418.85 450.38 2.8220 0.97544 1.1655 193.93 1.0760 4.5795 0.0065367
-104.62 0.28004 2.5499e-05 -33.027 -33.023 -0.063641 648.52 0.0015420 -33.038 -33.035 -0.063714 1.3467 2.0434 1575.9 -0.0068569 464.04 0.16721 0.060878 16.426 419.81 451.53 2.8116 0.97867 1.1688 194.44 1.0608 4.6069 0.0066074
-103.62 0.30643 2.7579e-05 -30.981 -30.977 -0.051540 647.49 0.0015444 -30.994 -30.991 -0.051619 1.3474 2.0456 1569.2 -0.0068387 456.00 0.16660 0.066231 15.099 420.78 452.68 2.8015 0.98191 1.1722 194.94 1.0458 4.6342 0.0066785
-102.62 0.33490 2.9792e-05 -28.934 -28.929 -0.039497 646.46 0.0015469 -28.947 -28.944 -0.039582 1.3481 2.0478 1562.5 -0.0068204 448.18 0.16600 0.071971 13.894 421.75 453.84 2.7916 0.98516 1.1755 195.44 1.0310 4.6615 0.0067498
-101.62 0.36558 3.2144e-05 -26.884 -26.879 -0.027511 645.43 0.0015494 -26.898 -26.894 -0.027602 1.3489 2.0501 1555.8 -0.0068018 440.57 0.16539 0.078120 12.801 422.73 454.99 2.7818 0.98841 1.1789 195.95 1.0166 4.6888 0.0068213
-100.62 0.39862 3.4640e-05 -24.832 -24.826 -0.015582 644.39 0.0015519 -24.847 -24.843 -0.015678 1.3497 2.0524 1549.1 -0.0067830 433.16 0.16478 0.084699 11.807 423.70 456.15 2.7723 0.99168 1.1823 196.44 1.0024 4.7161 0.0068932
-99.625 0.43414 3.7288e-05 -22.777 -22.771 -0.0037071 643.36 0.0015544 -22.794 -22.789 -0.0038103 1.3505 2.0547 1542.4 -0.0067639 425.95 0.16416 0.091731 10.901 424.68 457.31 2.7630 0.99496 1.1858 196.94 0.98838 4.7434 0.0069653
-98.625 0.47230 4.0092e-05 -20.720 -20.714 0.0081128 642.32 0.0015569 -20.738 -20.733 0.0080027 1.3514 2.0570 1535.7 -0.0067447 418.92 0.16355 0.099240 10.077 425.66 458.48 2.7538 0.99825 1.1892 197.43 0.97464 4.7707 0.0070377
-97.625 0.51325 4.3058e-05 -18.661 -18.654 0.019879 641.28 0.0015594 -18.680 -18.674 0.019762 1.3522 2.0594 1529.0 -0.0067251 412.07 0.16294 0.10725 9.3239 426.65 459.64 2.7448 1.0016 1.1927 197.92 0.96112 4.7979 0.0071103
-96.625 0.55714 4.6193e-05 -16.599 -16.591 0.031592 640.24 0.0015619 -16.620 -16.614 0.031467 1.3531 2.0618 1522.3 -0.0067053 405.39 0.16233 0.11579 8.6365 427.63 460.81 2.7360 1.0049 1.1962 198.40 0.94783 4.8251 0.0071832
-95.625 0.60416 4.9502e-05 -14.535 -14.527 0.043253 639.20 0.0015645 -14.557 -14.550 0.043120 1.3540 2.0642 1515.7 -0.0066853 398.88 0.16171 0.12488 8.0078 428.62 461.98 2.7274 1.0082 1.1997 198.88 0.93475 4.8524 0.0072564
-94.625 0.65446 5.2992e-05 -12.468 -12.459 0.054862 638.16 0.0015670 -12.491 -12.484 0.054721 1.3550 2.0667 1509.0 -0.0066650 392.53 0.16110 0.13455 7.4323 429.61 463.15 2.7189 1.0116 1.2032 199.36 0.92188 4.8796 0.0073299
-93.625 0.70822 5.6669e-05 -10.399 -10.389 0.066421 637.12 0.0015696 -10.424 -10.416 0.066271 1.3560 2.0691 1502.3 -0.0066444 386.34 0.16048 0.14482 6.9050 430.60 464.32 2.7107 1.0149 1.2068 199.83 0.90921 4.9068 0.0074036
-92.625 0.76564 6.0538e-05 -8.3269 -8.3165 0.077929 636.07 0.0015722 -8.3535 -8.3452 0.077771 1.3570 2.0716 1495.6 -0.0066236 380.31 0.15987 0.15573 6.4212 431.60 465.49 2.7025 1.0183 1.2104 200.30 0.89673 4.9340 0.0074776
-91.625 0.82689 6.4606e-05 -6.2525 -6.2413 0.089389 635.02 0.0015747 -6.2808 -6.2719 0.089220 1.3580 2.0742 1488.9 -0.0066025 374.41 0.15925 0.16731 5.9769 432.59 466.67 2.6946 1.0217 1.2140 200.77 0.88445 4.9611 0.0075518
-90.625 0.89218 6.8878e-05 -4.1755 -4.1634 0.10080 633.98 0.0015773 -4.2056 -4.1959 0.10062 1.3591 2.0767 1482.2 -0.0065811 368.66 0.15864 0.17958 5.5685 433.59 467.84 2.6868 1.0251 1.2177 201.24 0.87236 4.9883 0.0076263
-89.625 0.96172 7.3360e-05 -2.0958 -2.0828 0.11216 632.93 0.0015800 -2.1279 -2.1174 0.11197 1.3602 2.0793 1475.5 -0.0065595 363.05 0.15802 0.19258 5.1928 434.59 469.02 2.6791 1.0285 1.2213 201.70 0.86045 5.0154 0.0077011
-88.625 1.0357 7.8059e-05 -0.013511 0.00049118 0.12348 631.88 0.0015826 -0.047516 -0.036215 0.12328 1.3613 2.0819 1468.8 -0.0065375 357.56 0.15740 0.20633 4.8466 435.59 470.20 2.6717 1.0320 1.2250 202.15 0.84873 5.0425 0.0077761
-87.625 1.1144 8.2979e-05 2.0715 2.0866 0.13475 630.83 0.0015852 2.0355 2.0476 0.13454 1.3625 2.0846 1462.1 -0.0065153 352.21 0.15679 0.22087 4.5276 436.60 471.39 2.6643 1.0354 1.2288 202.61 0.83718 5.0696 0.0078514
-86.625 1.1979 8.8127e-05 4.1593 4.1755 0.14597 629.77 0.0015879 4.1211 4.1342 0.14575 1.3637 2.0873 1455.4 -0.0064928 346.98 0.15617 0.23623 4.2331 437.61 472.57 2.6571 1.0389 1.2325 203.06 0.82580 5.0967 0.0079270
-85.625 1.2866 9.3507e-05 6.2498 6.2672 0.15715 628.72 0.0015905 6.2094 6.2235 0.15691 1.3649 2.0900 1448.8 -0.0064701 341.87 0.15555 0.25245 3.9612 438.61 473.75 2.6501 1.0424 1.2363 203.50 0.81460 5.1237 0.0080028
-84.625 1.3806 9.9125e-05 8.3431 8.3618 0.16828 627.66 0.0015932 8.3004 8.3155 0.16803 1.3661 2.0927 1442.1 -0.0064470 336.87 0.15494 0.26956 3.7097 439.63 474.94 2.6432 1.0460 1.2402 203.95 0.80356 5.1508 0.0080789
-83.625 1.4803 0.00010499 10.439 10.459 0.17937 626.60 0.0015959 10.394 10.410 0.17911 1.3674 2.0955 1435.4 -0.0064236 331.99 0.15432 0.28760 3.4771 440.64 476.13 2.6364 1.0495 1.2440 204.38 0.79269 5.1778 0.0081553
-82.625 1.5858 0.00011110 12.538 12.560 0.19042 625.54 0.0015986 12.491 12.508 0.19014 1.3687 2.0983 1428.7 -0.0063999 327.22 0.15370 0.30659 3.2616 441.65 477.31 2.6298 1.0531 1.2479 204.82 0.78199 5.2048 0.0082319
-81.625 1.6975 0.00011746 14.640 14.663 0.20142 624.48 0.0016013 14.590 14.609 0.20113 1.3700 2.1012 1422.0 -0.0063759 322.55 0.15309 0.32659 3.0619 442.67 478.50 2.6233 1.0567 1.2519 205.25 0.77144 5.2318 0.0083088
-80.625 1.8155 0.00012408 16.745 16.770 0.21238 623.42 0.0016041 16.692 16.712 0.21208 1.3714 2.1041 1415.4 -0.0063516 317.99 0.15247 0.34763 2.8766 443.69 479.70 2.6169 1.0603 1.2558 205.67 0.76106 5.2587 0.0083860
-79.625 1.9402 0.00013096 18.853 18.879 0.22330 622.36 0.0016068 18.797 18.819 0.22299 1.3728 2.1070 1408.7 -0.0063270 313.52 0.15186 0.36974 2.7046 444.71 480.89 2.6106 1.0639 1.2598 206.10 0.75083 5.2857 0.0084634
-78.625 2.0718 0.00013811 20.964 20.992 0.23418 621.29 0.0016096 20.905 20.928 0.23385 1.3742 2.1099 1402.0 -0.0063021 309.15 0.15124 0.39296 2.5448 445.73 482.08 2.6045 1.0676 1.2639 206.51 0.74076 5.3126 0.0085411
-77.625 2.2107 0.00014553 23.078 23.107 0.24502 620.22 0.0016123 23.016 23.040 0.24468 1.3757 2.1129 1395.3 -0.0062768 304.88 0.15062 0.41735 2.3961 446.75 483.27 2.5985 1.0712 1.2680 206.93 0.73084 5.3395 0.0086190
-76.625 2.3571 0.00015322 25.194 25.226 0.25582 619.15 0.0016151 25.130 25.156 0.25546 1.3772 2.1159 1388.7 -0.0062512 300.69 0.15001 0.44292 2.2577 447.78 484.47 2.5926 1.0749 1.2721 207.34 0.72107 5.3664 0.0086972
-75.625 2.5113 0.00016118 27.314 27.348 0.26658 618.08 0.0016179 27.247 27.275 0.26620 1.3787 2.1190 1382.0 -0.0062253 296.59 0.14939 0.46974 2.1288 448.81 485.67 2.5869 1.0787 1.2762 207.74 0.71146 5.3933 0.0087757
-74.625 2.6736 0.00016943 29.438 29.474 0.27730 617.01 0.0016207 29.366 29.396 0.27691 1.3802 2.1221 1375.4 -0.0061990 292.58 0.14878 0.49783 2.0087 449.83 486.86 2.5812 1.0824 1.2804 208.14 0.70200 5.4201 0.0088544
-73.625 2.8444 0.00017796 31.564 31.602 0.28798 615.93 0.0016236 31.489 31.521 0.28758 1.3818 2.1252 1368.7 -0.0061724 288.65 0.14816 0.52725 1.8966 450.86 488.06 2.5757 1.0862 1.2847 208.54 0.69268 5.4469 0.0089334
-72.625 3.0240 0.00018677 33.694 33.734 0.29863 614.85 0.0016264 33.615 33.649 0.29821 1.3834 2.1284 1362.0 -0.0061454 284.81 0.14755 0.55804 1.7920 451.90 489.26 2.5703 1.0900 1.2889 208.93 0.68351 5.4737 0.0090126
-71.625 3.2127 0.00019587 35.826 35.870 0.30924 613.78 0.0016293 35.745 35.781 0.30880 1.3851 2.1316 1355.4 -0.0061181 281.03 0.14694 0.59024 1.6942 452.93 490.46 2.5650 1.0938 1.2932 209.32 0.67448 5.5005 0.0090922
-70.625 3.4108 0.00020525 37.962 38.009 0.31981 612.69 0.0016321 37.877 37.915 0.31935 1.3867 2.1349 1348.7 -0.0060904 277.34 0.14632 0.62390 1.6028 453.96 491.66 2.5598 1.0976 1.2976 209.70 0.66560 5.5273 0.0091720
-69.625 3.6187 0.00021493 40.102 40.151 0.33035 611.61 0.0016350 40.013 40.053 0.32987 1.3884 2.1382 1342.1 -0.0060624 273.72 0.14571 0.65906 1.5173 455.00 492.86 2.5547 1.1015 1.3020 210.08 0.65687 5.5540 0.0092520
-68.625 3.8367 0.00022489 42.245 42.296 0.34085 610.53 0.0016379 42.152 42.195 0.34036 1.3902 2.1415 1335.5 -0.0060339 270.17 0.14510 0.69577 1.4372 456.04 494.06 2.5497 1.1054 1.3064 210.45 0.64827 5.5807 0.0093324
-67.625 4.0652 0.00023514 44.391 44.446 0.35132 609.44 0.0016409 44.294 44.340 0.35080 1.3919 2.1449 1328.8 -0.0060051 266.69 0.14449 0.73408 1.3622 457.08 495.26 2.5448 1.1093 1.3109 210.82 0.63981 5.6074 0.0094130
-66.625 4.3046 0.00024568 46.540 46.599 0.36175 608.35 0.0016438 46.439 46.488 0.36122 1.3937 2.1483 1322.2 -0.0059760 263.28 0.14388 0.77404 1.2919 458.12 496.46 2.5400 1.1133 1.3154 211.18 0.63150 5.6341 0.0094939
-65.625 4.5551 0.00025650 48.693 48.755 0.37215 607.26 0.0016467 48.588 48.640 0.37160 1.3955 2.1518 1315.6 -0.0059464 259.93 0.14327 0.81570 1.2259 459.16 497.67 2.5353 1.1172 1.3200 211.54 0.62332 5.6608 0.0095750
-64.625 4.8173 0.00026762 50.850 50.915 0.38252 606.16 0.0016497 50.740 50.795 0.38195 1.3974 2.1553 1308.9 -0.0059164 256.65 0.14266 0.85910 1.1640 460.21 498.87 2.5307 1.1212 1.3246 211.89 0.61527 5.6874 0.0096564
-63.625 5.0915 0.00027901 53.010 53.079 0.39286 605.07 0.0016527 52.896 52.954 0.39226 1.3993 2.1588 1302.3 -0.0058861 253.42 0.14205 0.90429 1.1058 461.25 500.07 2.5262 1.1252 1.3293 212.24 0.60736 5.7140 0.0097382
-62.625 5.3781 0.00029069 55.174 55.246 0.40316 603.97 0.0016557 55.055 55.117 0.40254 1.4012 2.1624 1295.7 -0.0058553 250.26 0.14144 0.95134 1.0511 462.30 501.28 2.5218 1.1293 1.3340 212.58 0.59958 5.7406 0.0098201
-61.625 5.6774 0.00030264 57.341 57.418 0.41343 602.87 0.0016587 57.218 57.283 0.41279 1.4031 2.1660 1289.1 -0.0058241 247.16 0.14084 1.0003 0.99972 463.35 502.48 2.5175 1.1333 1.3387 212.92 0.59194 5.7672 0.0099024
-60.625 5.9899 0.00031487 59.512 59.593 0.42367 601.77 0.0016618 59.385 59.453 0.42301 1.4051 2.1697 1282.5 -0.0057925 244.12 0.14023 1.0512 0.95131 464.40 503.68 2.5133 1.1374 1.3435 213.26 0.58442 5.7938 0.0099850
-59.625 6.3160 0.00032736 61.687 61.772 0.43388 600.66 0.0016648 61.554 61.627 0.43320 1.4071 2.1734 1275.9 -0.0057605 241.13 0.13962 1.1041 0.90573 465.45 504.89 2.5091 1.1415 1.3483 213.58 0.57704 5.8203 0.010068
-58.625 6.6561 0.00034012 63.865 63.955 0.44405 599.55 0.0016679 63.728 63.805 0.44335 1.4091 2.1772 1269.3 -0.0057280 238.19 0.13902 1.1591 0.86277 466.50 506.09 2.5051 1.1457 1.3532 213.90 0.56978 5.8468 0.010151
-57.625 7.0107 0.00035314 66.047 66.142 0.45420 598.44 0.0016710 65.905 65.986 0.45348 1.4111 2.1810 1262.7 -0.0056951 235.31 0.13842 1.2161 0.82228 467.55 507.30 2.5011 1.1498 1.3581 214.22 0.56265 5.8733 0.010234
-56.625 7.3801 0.00036640 68.233 68.333 0.46432 597.33 0.0016741 68.086 68.172 0.46358 1.4132 2.1848 1256.1 -0.0056617 232.48 0.13781 1.2754 0.78408 468.60 508.50 2.4972 1.1540 1.3631 214.53 0.55564 5.8998 0.010318
-55.625 7.7648 0.00037991 70.423 70.528 0.47441 596.22 0.0016772 70.271 70.361 0.47364 1.4153 2.1887 1249.5 -0.0056279 229.69 0.13721 1.3369 0.74802 469.66 509.71 2.4934 1.1582 1.3681 214.84 0.54875 5.9263 0.010402
-54.625 8.1652 0.00039366 72.617 72.727 0.48447 595.10 0.0016804 72.460 72.554 0.48368 1.4174 2.1927 1242.9 -0.0055937 226.96 0.13661 1.4006 0.71396 470.72 510.91 2.4897 1.1624 1.3731 215.14 0.54199 5.9527 0.010486
-53.625 8.5819 0.00040762 74.814 74.930 0.49451 593.98 0.0016836 74.652 74.752 0.49369 1.4196 2.1967 1236.3 -0.0055589 224.27 0.13601 1.4667 0.68178 471.77 512.11 2.4860 1.1667 1.3782 215.43 0.53535 5.9792 0.010571
-52.625 9.0151 0.00042181 77.016 77.138 0.50451 592.86 0.0016867 76.849 76.954 0.50368 1.4218 2.2007 1229.8 -0.0055237 221.63 0.13541 1.5353 0.65136 472.83 513.32 2.4824 1.1710 1.3834 215.72 0.52882 6.0056 0.010656
-51.625 9.4655 0.00043619 79.221 79.349 0.51449 591.73 0.0016900 79.049 79.159 0.51363 1.4240 2.2048 1223.2 -0.0054880 219.04 0.13482 1.6062 0.62258 473.89 514.52 2.4789 1.1752 1.3886 216.00 0.52241 6.0320 0.010741
-50.625 9.9335 0.00045077 81.431 81.565 0.52444 590.60 0.0016932 81.253 81.369 0.52356 1.4262 2.2089 1216.6 -0.0054519 216.48 0.13422 1.6797 0.59534 474.95 515.73 2.4755 1.1796 1.3938 216.28 0.51612 6.0584 0.010827
-49.625 10.419 0.00046553 83.644 83.785 0.53437 589.47 0.0016964 83.462 83.584 0.53347 1.4285 2.2131 1210.1 -0.0054152 213.98 0.13363 1.7558 0.56954 476.01 516.93 2.4722 1.1839 1.3991 216.55 0.50994 6.0848 0.010913
-48.625 10.924 0.00048046 85.862 86.010 0.54427 588.34 0.0016997 85.674 85.802 0.54334 1.4308 2.2173 1203.5 -0.0053780 211.51 0.13303 1.8345 0.54510 477.07 518.13 2.4689 1.1883 1.4044 216.82 0.50387 6.1112 0.010999
-47.625 11.448 0.00049553 88.084 88.239 0.55414 587.20 0.0017030 87.891 88.025 0.55319 1.4331 2.2216 1196.9 -0.0053403 209.08 0.13244 1.9159 0.52194 478.14 519.33 2.4657 1.1927 1.4098 217.08 0.49792 6.1375 0.011085
-46.625 11.991 0.00051074 90.310 90.472 0.56399 586.06 0.0017063 90.111 90.252 0.56302 1.4354 2.2259 1190.4 -0.0053020 206.69 0.13185 2.0001 0.49997 479.20 520.53 2.4625 1.1971 1.4153 217.33 0.49207 6.1639 0.011172
-45.625 12.554 0.00052606 92.540 92.710 0.57381 584.92 0.0017096 92.336 92.484 0.57282 1.4378 2.2303 1183.8 -0.0052633 204.34 0.13126 2.0872 0.47912 480.27 521.74 2.4594 1.2015 1.4207 217.58 0.48633 6.1902 0.011259
-44.625 13.137 0.00054148 94.775 94.952 0.58361 583.77 0.0017130 94.565 94.720 0.58260 1.4402 2.2347 1177.3 -0.0052240 202.03 0.13067 2.1771 0.45933 481.33 522.94 2.4564 1.2060 1.4263 217.82 0.48069 6.2165 0.011347
-43.625 13.741 0.00055699 97.013 97.199 0.59339 582.62 0.0017164 96.799 96.961 0.59235 1.4426 2.2392 1170.7 -0.0051841 199.75 0.13008 2.2700 0.44053 482.40 524.14 2.4535 1.2104 1.4319 218.05 0.47516 6.2429 0.011435
-42.625 14.367 0.00057255 99.256 99.451 0.60314 581.47 0.0017198 99.036 99.207 0.60208 1.4450 2.2437 1164.2 -0.0051437 197.51 0.12949 2.3659 0.42267 483.46 525.33 2.4506 1.2149 1.4375 218.28 0.46973 6.2692 0.011523
-41.625 15.015 0.00058814 101.50 101.71 0.61287 580.32 0.0017232 101.28 101.46 0.61179 1.4475 2.2483 1157.7 -0.0051027 195.30 0.12891 2.4649 0.40569 484.53 526.53 2.4478 1.2195 1.4432 218.50 0.46440 6.2955 0.011612
-40.625 15.686 0.00060375 103.76 103.97 0.62257 579.16 0.0017266 103.52 103.71 0.62147 1.4500 2.2529 1151.1 -0.0050611 193.13 0.12832 2.5671 0.38954 485.60 527.73 2.4450 1.2240 1.4489 218.72 0.45917 6.3218 0.011701
-39.625 16.380 0.00061935 106.01 106.23 0.63225 578.00 0.0017301 105.78 105.97 0.63113 1.4525 2.2576 1144.6 -0.0050189 190.99 0.12774 2.6725 0.37418 486.67 528.93 2.4423 1.2286 1.4547 218.93 0.45403 6.3481 0.011790
-38.625 17.097 0.00063491 108.27 108.50 0.64191 576.83 0.0017336 108.03 108.24 0.64077 1.4550 2.2623 1138.0 -0.0049761 188.88 0.12716 2.7813 0.35955 487.74 530.12 2.4397 1.2332 1.4606 219.13 0.44900 6.3744 0.011880
-37.625 17.838 0.00065041 110.54 110.78 0.65155 575.66 0.0017371 110.29 110.51 0.65039 1.4576 2.2671 1131.5 -0.0049327 186.81 0.12658 2.8934 0.34562 488.81 531.32 2.4371 1.2378 1.4665 219.33 0.44405 6.4007 0.011970
-36.625 18.604 0.00066581 112.81 113.06 0.66117 574.49 0.0017407 112.56 112.78 0.65999 1.4602 2.2719 1125.0 -0.0048887 184.76 0.12600 3.0089 0.33235 489.88 532.51 2.4346 1.2424 1.4724 219.52 0.43920 6.4270 0.012060
-35.625 19.395 0.00068109 115.08 115.34 0.67076 573.32 0.0017442 114.83 115.06 0.66956 1.4628 2.2768 1118.5 -0.0048440 182.75 0.12542 3.1280 0.31969 490.95 533.70 2.4321 1.2471 1.4784 219.70 0.43444 6.4533 0.012151
-34.625 20.212 0.00069621 117.36 117.63 0.68034 572.14 0.0017478 117.10 117.34 0.67912 1.4654 2.2818 1111.9 -0.0047987 180.76 0.12485 3.2506 0.30763 492.02 534.89 2.4297 1.2517 1.4845 219.88 0.42977 6.4797 0.012243
-33.625 21.056 0.00071114 119.64 119.93 0.68989 570.96 0.0017514 119.38 119.63 0.68865 1.4681 2.2868 1105.4 -0.0047527 178.80 0.12427 3.3770 0.29612 493.09 536.08 2.4273 1.2564 1.4906 220.05 0.42519 6.5060 0.012334
-32.625 21.926 0.00072584 121.93 122.23 0.69942 569.77 0.0017551 121.66 121.93 0.69817 1.4708 2.2918 1098.9 -0.0047061 176.87 0.12370 3.5071 0.28514 494.17 537.27 2.4250 1.2611 1.4968 220.21 0.42070 6.5323 0.012426
-31.625 22.823 0.00074028 124.22 124.53 0.70894 568.58 0.0017588 123.95 124.23 0.70767 1.4735 2.2970 1092.3 -0.0046587 174.97 0.12313 3.6410 0.27465 495.24 538.46 2.4227 1.2659 1.5031 220.36 0.41629 6.5587 0.012519
-30.625 23.749 0.00075442 126.52 126.84 0.71843 567.39 0.0017625 126.24 126.53 0.71714 1.4762 2.3021 1085.8 -0.0046107 173.09 0.12256 3.7787 0.26464 496.31 539.64 2.4205 1.2706 1.5094 220.51 0.41196 6.5850 0.012612
-29.625 24.703 0.00076821 128.82 129.16 0.72790 566.19 0.0017662 128.54 128.84 0.72660 1.4790 2.3074 1079.3 -0.0045619 171.24 0.12200 3.9205 0.25507 497.38 540.83 2.4184 1.2754 1.5157 220.65 0.40772 6.6114 0.012706
-28.625 25.687 0.00078162 131.13 131.48 0.73736 564.99 0.0017699 130.84 131.16 0.73604 1.4818 2.3126 1072.8 -0.0045124 169.42 0.12143 4.0663 0.24592 498.46 542.01 2.4162 1.2802 1.5222 220.79 0.40356 6.6378 0.012800
-27.625 26.700 0.00079460 133.44 133.80 0.74679 563.78 0.0017737 133.15 133.48 0.74547 1.4846 2.3180 1066.2 -0.0044621 167.62 0.12087 4.2163 0.23717 499.53 543.19 2.4142 1.2850 1.5286 220.91 0.39947 6.6642 0.012894
-26.625 27.743 0.00080710 135.76 136.14 0.75621 562.57 0.0017775 135.47 135.81 0.75487 1.4874 2.3234 1059.7 -0.0044111 165.84 0.12031 4.3705 0.22881 500.60 544.37 2.4122 1.2899 1.5352 221.03 0.39547 6.6906 0.012989
-25.625 28.817 0.00081907 138.08 138.47 0.76561 561.36 0.0017814 137.78 138.14 0.76426 1.4902 2.3289 1053.2 -0.0043593 164.09 0.11975 4.5290 0.22080 501.68 545.55 2.4102 1.2947 1.5418 221.14 0.39154 6.7171 0.013084
-24.625 29.923 0.00083046 140.41 140.81 0.77499 560.14 0.0017853 140.11 140.48 0.77363 1.4931 2.3344 1046.7 -0.0043067 162.36 0.11919 4.6918 0.21314 502.75 546.72 2.4083 1.2996 1.5485 221.25 0.38768 6.7436 0.013180
-23.625 31.061 0.00084122 142.74 143.16 0.78435 558.92 0.0017892 142.44 142.82 0.78298 1.4960 2.3400 1040.1 -0.0042533 160.65 0.11863 4.8592 0.20580 503.82 547.90 2.4064 1.3045 1.5552 221.35 0.38391 6.7701 0.013277
-22.625 32.232 0.00085129 145.08 145.51 0.79369 557.69 0.0017931 144.77 145.17 0.79232 1.4990 2.3457 1033.6 -0.0041990 158.97 0.11807 5.0311 0.19877 504.90 549.07 2.4045 1.3095 1.5621 221.44 0.38020 6.7967 0.013374
-21.625 33.435 0.00086061 147.42 147.87 0.80302 556.46 0.0017971 147.11 147.52 0.80164 1.5019 2.3514 1027.1 -0.0041439 157.30 0.11752 5.2076 0.19203 505.97 550.24 2.4027 1.3144 1.5690 221.52 0.37656 6.8232 0.013471
-20.625 34.673 0.00086911 149.76 150.23 0.81233 555.23 0.0018011 149.45 149.88 0.81095 1.5049 2.3572 1020.6 -0.0040879 155.66 0.11697 5.3889 0.18557 507.04 551.40 2.4010 1.3194 1.5759 221.59 0.37300 6.8499 0.013569
-19.625 35.946 0.00087675 152.12 152.60 0.82163 553.99 0.0018051 151.80 152.25 0.82024 1.5079 2.3630 1014.0 -0.0040311 154.04 0.11642 5.5750 0.17937 508.11 552.57 2.3992 1.3244 1.5829 221.66 0.36950 6.8765 0.013668
-18.625 37.253 0.00088344 154.47 154.98 0.83091 552.74 0.0018092 154.16 154.62 0.82952 1.5109 2.3689 1007.5 -0.0039733 152.44 0.11587 5.7660 0.17343 509.19 553.73 2.3976 1.3294 1.5901 221.72 0.36608 6.9032 0.013767
-17.625 38.596 0.00088912 156.83 157.36 0.84017 551.49 0.0018133 156.52 157.00 0.83878 1.5140 2.3749 1001.0 -0.0039145 150.86 0.11532 5.9621 0.16773 510.26 554.89 2.3959 1.3345 1.5972 221.77 0.36272 6.9300 0.013867
-16.625 39.976 0.00089372 159.20 159.74 0.84941 550.24 0.0018174 158.89 159.39 0.84803 1.5171 2.3810 994.44 -0.0038549 149.29 0.11478 6.1632 0.16225 511.33 556.05 2.3943 1.3395 1.6045 221.81 0.35942 6.9568 0.013968
-15.625 41.392 0.00089715 161.57 162.13 0.85864 548.98 0.0018216 161.26 161.78 0.85726 1.5202 2.3871 987.91 -0.0037942 147.75 0.11423 6.3696 0.15700 512.40 557.20 2.3927 1.3446 1.6119 221.85 0.35619 6.9836 0.014069
-14.625 42.846 0.00089934 163.95 164.53 0.86786 547.71 0.0018258 163.64 164.18 0.86649 1.5233 2.3933 981.37 -0.0037325 146.22 0.11369 6.5812 0.15195 513.47 558.36 2.3912 1.3497 1.6193 221.87 0.35302 7.0105 0.014170
-13.625 44.338 0.00090021 166.33 166.93 0.87706 546.44 0.0018300 166.02 166.58 0.87569 1.5264 2.3996 974.83 -0.0036698 144.72 0.11315 6.7983 0.14710 514.54 559.51 2.3897 1.3549 1.6268 221.89 0.34992 7.0375 0.014273
-12.625 45.870 0.00089966 168.72 169.34 0.88624 545.17 0.0018343 168.41 168.99 0.88489 1.5296 2.4059 968.29 -0.0036061 143.23 0.11261 7.0208 0.14243 515.61 560.65 2.3883 1.3600 1.6344 221.90 0.34688 7.0646 0.014376
-11.625 47.440 0.00089761 171.12 171.76 0.89541 543.89 0.0018386 170.81 171.41 0.89407 1.5328 2.4124 961.75 -0.0035413 141.76 0.11208 7.2490 0.13795 516.68 561.80 2.3868 1.3652 1.6421 221.91 0.34389 7.0917 0.014479
-10.625 49.051 0.00089397 173.52 174.18 0.90457 542.60 0.0018430 173.21 173.83 0.90324 1.5360 2.4189 955.20 -0.0034753 140.30 0.11154 7.4829 0.13364 517.75 562.94 2.3854 1.3704 1.6498 221.90 0.34097 7.1188 0.014584
-9.6250 50.703 0.00088863 175.92 176.60 0.91371 541.31 0.0018474 175.61 176.26 0.91240 1.5393 2.4255 948.65 -0.0034082 138.86 0.11101 7.7226 0.12949 518.81 564.08 2.3841 1.3757 1.6577 221.88 0.33810 7.1461 0.014689
-8.6250 52.396 0.00088150 178.33 179.04 0.92283 540.02 0.0018518 178.03 178.70 0.92154 1.5426 2.4321 942.10 -0.0033400 137.44 0.11048 7.9683 0.12550 519.88 565.21 2.3827 1.3809 1.6657 221.86 0.33529 7.1734 0.014795
-7.6250 54.131 0.00087245 180.74 181.48 0.93195 538.72 0.0018563 180.45 181.14 0.93068 1.5459 2.4389 935.55 -0.0032705 136.03 0.10995 8.2200 0.12165 520.94 566.35 2.3814 1.3862 1.6737 221.83 0.33254 7.2008 0.014902
-6.6250 55.909 0.00086139 183.16 183.92 0.94104 537.41 0.0018608 182.87 183.59 0.93980 1.5492 2.4457 928.99 -0.0031998 134.64 0.10942 8.4779 0.11795 522.01 567.48 2.3801 1.3915 1.6819 221.79 0.32984 7.2284 0.015009
-5.6250 57.730 0.00084820 185.59 186.37 0.95013 536.10 0.0018653 185.30 186.05 0.94892 1.5525 2.4526 922.43 -0.0031279 133.27 0.10889 8.7420 0.11439 523.07 568.60 2.3789 1.3969 1.6902 221.74 0.32720 7.2560 0.015117
-4.6250 59.595 0.00083275 188.02 188.83 0.95920 534.78 0.0018699 187.74 188.51 0.95802 1.5559 2.4596 915.87 -0.0030546 131.91 0.10837 9.0126 0.11096 524.13 569.72 2.3777 1.4022 1.6985 221.68 0.32461 7.2837 0.015226
-3.6250 61.505 0.00081492 190.46 191.29 0.96826 533.45 0.0018746 190.19 190.98 0.96711 1.5593 2.4667 909.30 -0.0029800 130.56 0.10785 9.2896 0.10765 525.19 570.84 2.3765 1.4076 1.7070 221.62 0.32207 7.3115 0.015336
-2.6250 63.461 0.00079457 192.90 193.76 0.97731 532.12 0.0018793 192.64 193.46 0.97620 1.5627 2.4739 902.73 -0.0029041 129.23 0.10733 9.5733 0.10446 526.25 571.96 2.3753 1.4131 1.7156 221.54 0.31958 7.3394 0.015447
-1.6250 65.462 0.00077157 195.35 196.24 0.98634 530.78 0.0018840 195.10 195.95 0.98527 1.5662 2.4811 896.16 -0.0028267 127.91 0.10681 9.8638 0.10138 527.31 573.07 2.3742 1.4185 1.7243 221.45 0.31715 7.3674 0.015559
-0.62500 67.510 0.00074577 197.81 198.72 0.99537 529.44 0.0018888 197.56 198.44 0.99434 1.5696 2.4885 889.58 -0.0027478 126.61 0.10629 10.161 0.098414 528.37 574.18 2.3731 1.4240 1.7331 221.36 0.31476 7.3956 0.015671
0.37500 69.606 0.00071702 200.27 201.21 1.0044 528.09 0.0018936 200.03 200.94 1.0034 1.5731 2.4960 883.00 -0.0026675 125.32 0.10578 10.466 0.095552 529.42 575.28 2.3720 1.4295 1.7421 221.26 0.31242 7.4239 0.015785
1.3750 71.749 0.00068517 202.73 203.70 1.0134 526.73 0.0018985 202.51 203.45 1.0124 1.5767 2.5035 876.42 -0.0025856 124.04 0.10527 10.777 0.092790 530.48 576.38 2.3709 1.4350 1.7512 221.14 0.31013 7.4523 0.015899
2.3750 73.941 0.00065004 205.20 206.20 1.0224 525.37 0.0019034 204.99 205.96 1.0215 1.5802 2.5112 869.83 -0.0025022 122.78 0.10476 11.096 0.090123 531.53 577.47 2.3699 1.4406 1.7604 221.02 0.30789 7.4808 0.016015
3.3750 76.183 0.00061147 207.68 208.71 1.0313 523.99 0.0019084 207.48 208.48 1.0305 1.5838 2.5190 863.24 -0.0024171 121.53 0.10425 11.422 0.087549 532.58 578.56 2.3688 1.4462 1.7697 220.89 0.30569 7.5095 0.016131
4.3750 78.475 0.00056927 210.16 211.22 1.0403 522.62 0.0019134 209.98 211.01 1.0395 1.5874 2.5268 856.64 -0.0023303 120.29 0.10374 11.756 0.085062 533.63 579.65 2.3678 1.4518 1.7792 220.75 0.30354 7.5384 0.016249
5.3750 80.817 0.00052326 212.65 213.74 1.0493 521.23 0.0019185 212.48 213.55 1.0486 1.5910 2.5348 850.04 -0.0022417 119.06 0.10324 12.098 0.082660 534.67 580.73 2.3669 1.4575 1.7888 220.60 0.30144 7.5674 0.016368
6.3750 83.211 0.00047325 215.15 216.27 1.0582 519.84 0.0019237 215.00 216.10 1.0576 1.5946 2.5429 843.43 -0.0021514 117.85 0.10273 12.447 0.080340 535.72 581.81 2.3659 1.4632 1.7986 220.44 0.29938 7.5966 0.016487
7.3750 85.657 0.00041903 217.65 218.81 1.0671 518.44 0.0019289 217.51 218.65 1.0666 1.5983 2.5511 836.82 -0.0020593 116.65 0.10223 12.805 0.078096 536.76 582.88 2.3650 1.4689 1.8085 220.27 0.29736 7.6259 0.016608
8.3750 88.156 0.00036037 220.15 221.35 1.0760 517.03 0.0019341 220.04 221.22 1.0756 1.6020 2.5595 830.20 -0.0019652 115.46 0.10173 13.170 0.075928 537.80 583.95 2.3640 1.4746 1.8186 220.08 0.29538 7.6555 0.016730
9.3750 90.708 0.00029707 222.67 223.89 1.0850 515.62 0.0019394 222.57 223.79 1.0846 1.6057 2.5679 823.58 -0.0018691 114.28 0.10124 13.545 0.073830 538.84 585.01 2.3631 1.4804 1.8288 219.89 0.29345 7.6852 0.016853
10.375 93.315 0.00022888 225.19 226.45 1.0939 514.19 0.0019448 225.11 226.37 1.0936 1.6095 2.5765 816.96 -0.0017710 113.11 0.10074 13.927 0.071802 539.87 586.07 2.3622 1.4863 1.8392 219.69 0.29156 7.7151 0.016978
11.375 95.977 0.00015555 227.71 229.01 1.1027 512.76 0.0019502 227.66 228.95 1.1025 1.6132 2.5852 810.32 -0.0016708 111.95 0.10025 14.319 0.069840 540.90 587.12 2.3614 1.4921 1.8498 219.48 0.28971 7.7452 0.017103
12.375 98.694 7.6841e-05 230.24 231.58 1.1116 511.32 0.0019557 230.22 231.55 1.1115 1.6170 2.5940 803.68 -0.0015685 110.80 0.099756 14.719 0.067941 541.93 588.17 2.3605 1.4980 1.8605 219.26 0.28790 7.7756 0.017230
13.375 108.68 undefined 232.70 234.17 1.1202 510.00 0.0019608 232.70 234.17 1.1202 1.6208 2.6019 797.88 -0.0014784 109.77 0.099318 510.00 0.0019608 232.70 234.17 1.1202 1.6208 2.6019 797.88 -0.0014784 109.77 0.099318
14.375 194.88 undefined 234.32 236.96 1.1259 510.00 0.0019608 234.32 236.96 1.1259 1.6246 2.5983 800.88 -0.0015403 109.77 0.099417 510.00 0.0019608 234.32 236.96 1.1259 1.6246 2.5983 800.88 -0.0015403 109.77 0.099417
15.375 281.09 undefined 235.95 239.75 1.1315 510.00 0.0019608 235.95 239.75 1.1315 1.6283 2.5949 803.86 -0.0016007 109.77 0.099517 510.00 0.0019608 235.95 239.75 1.1315 1.6283 2.5949 803.86 -0.0016007 109.77 0.099517
16.375 367.30 undefined 237.58 242.54 1.1372 510.00 0.0019608 237.58 242.54 1.1372 1.6321 2.5916 806.80 -0.0016597 109.77 0.099618 510.00 0.0019608 237.58 242.54 1.1372 1.6321 2.5916 806.80 -0.0016597 109.77 0.099618
17.375 453.52 undefined 239.21 245.34 1.1428 510.00 0.0019608 239.21 245.34 1.1428 1.6358 2.5885 809.71 -0.0017173 109.78 0.099718 510.00 0.0019608 239.21 245.34 1.1428 1.6358 2.5885 809.71 -0.0017173 109.78 0.099718
18.375 539.74 undefined 240.85 248.15 1.1484 510.00 0.0019608 240.85 248.15 1.1484 1.6396 2.5856 812.58 -0.0017735 109.78 0.099819 510.00 0.0019608 240.85 248.15 1.1484 1.6396 2.5856 812.58 -0.0017735 109.78 0.099819
19.375 625.96 undefined 242.49 250.95 1.1540 510.00 0.0019608 242.49 250.95 1.1540 1.6434 2.5828 815.43 -0.0018284 109.78 0.099921 510.00 0.0019608 242.49 250.95 1.1540 1.6434 2.5828 815.43 -0.0018284 109.78 0.099921
20.375 712.18 undefined 244.14 253.77 1.1597 510.00 0.0019608 244.14 253.77 1.1597 1.6472 2.5802 818.24 -0.0018820 109.79 0.10002 510.00 0.0019608 244.14 253.77 1.1597 1.6472 2.5802 818.24 -0.0018820 109.79 0.10002
21.375 798.40 undefined 245.79 256.58 1.1653 510.00 0.0019608 245.79 256.58 1.1653 1.6511 2.5778 821.03 -0.0019344 109.79 0.10012 510.00 0.0019608 245.79 256.58 1.1653 1.6511 2.5778 821.03 -0.0019344 109.79 0.10012
22.375 884.61 undefined 247.44 259.40 1.1709 510.00 0.0019608 247.44 259.40 1.1709 1.6549 2.5755 823.79 -0.0019856 109.79 0.10023 510.00 0.0019608 247.44 259.40 1.1709 1.6549 2.5755 823.79 -0.0019856 109.79 0.10023
23.375 970.82 undefined 249.10 262.22 1.1765 510.00 0.0019608 249.10 262.22 1.1765 1.6588 2.5733 826.52 -0.0020357 109.80 0.10033 510.00 0.0019608 249.10 262.22 1.1765 1.6588 2.5733 826.52 -0.0020357 109.80 0.10033
24.375 1057.0 undefined 250.76 265.05 1.1821 510.00 0.0019608 250.76 265.05 1.1821 1.6627 2.5713 829.22 -0.0020847 109.80 0.10043 510.00 0.0019608 250.76 265.05 1.1821 1.6627 2.5713 829.22 -0.0020847 109.80 0.10043
25.375 1143.2 undefined 252.42 267.88 1.1876 510.00 0.0019608 252.42 267.88 1.1876 1.6666 2.5694 831.89 -0.0021325 109.80 0.10054 510.00 0.0019608 252.42 267.88 1.1876 1.6666 2.5694 831.89 -0.0021325 109.80 0.10054
26.375 1229.4 undefined 254.09 270.71 1.1932 510.00 0.0019608 254.09 270.71 1.1932 1.6705 2.5676 834.54 -0.0021794 109.81 0.10064 510.00 0.0019608 254.09 270.71 1.1932 1.6705 2.5676 834.54 -0.0021794 109.81 0.10064
27.375 1315.5 undefined 255.76 273.55 1.1988 510.00 0.0019608 255.76 273.55 1.1988 1.6744 2.5659 837.16 -0.0022252 109.81 0.10074 510.00 0.0019608 255.76 273.55 1.1988 1.6744 2.5659 837.16 -0.0022252 109.81 0.10074
28.375 1401.7 undefined 257.44 276.39 1.2044 510.00 0.0019608 257.44 276.39 1.2044 1.6784 2.5644 839.76 -0.0022700 109.82 0.10085 510.00 0.0019608 257.44 276.39 1.2044 1.6784 2.5644 839.76 -0.0022700 109.82 0.10085
29.375 1487.8 undefined 259.12 279.23 1.2099 510.00 0.0019608 259.12 279.23 1.2099 1.6824 2.5629 842.33 -0.0023139 109.82 0.10095 510.00 0.0019608 259.12 279.23 1.2099 1.6824 2.5629 842.33 -0.0023139 109.82 0.10095
30.375 1573.9 undefined 260.80 282.08 1.2155 510.00 0.0019608 260.80 282.08 1.2155 1.6863 2.5616 844.88 -0.0023569 109.82 0.10106 510.00 0.0019608 260.80 282.08 1.2155 1.6863 2.5616 844.88 -0.0023569 109.82 0.10106
31.375 1660.0 undefined 262.49 284.93 1.2210 510.00 0.0019608 262.49 284.93 1.2210 1.6903 2.5604 847.40 -0.0023990 109.83 0.10116 510.00 0.0019608 262.49 284.93 1.2210 1.6903 2.5604 847.40 -0.0023990 109.83 0.10116
32.375 1746.1 undefined 264.18 287.79 1.2266 510.00 0.0019608 264.18 287.79 1.2266 1.6943 2.5593 849.91 -0.0024401 109.83 0.10127 510.00 0.0019608 264.18 287.79 1.2266 1.6943 2.5593 849.91 -0.0024401 109.83 0.10127
33.375 1832.2 undefined 265.88 290.65 1.2321 510.00 0.0019608 265.88 290.65 1.2321 1.6984 2.5583 852.39 -0.0024805 109.84 0.10137 510.00 0.0019608 265.88 290.65 1.2321 1.6984 2.5583 852.39 -0.0024805 109.84 0.10137
34.375 1918.2 undefined 267.58 293.51 1.2377 510.00 0.0019608 267.58 293.51 1.2377 1.7024 2.5573 854.84 -0.0025199 109.84 0.10148 510.00 0.0019608 267.58 293.51 1.2377 1.7024 2.5573 854.84 -0.0025199 109.84 0.10148
35.375 2004.2 undefined 269.29 296.38 1.2432 510.00 0.0019608 269.29 296.38 1.2432 1.7064 2.5565 857.28 -0.0025586 109.85 0.10159 510.00 0.0019608 269.29 296.38 1.2432 1.7064 2.5565 857.28 -0.0025586 109.85 0.10159
36.375 2090.2 undefined 270.99 299.25 1.2487 510.00 0.0019608 270.99 299.25 1.2487 1.7105 2.5558 859.70 -0.0025965 109.85 0.10169 510.00 0.0019608 270.99 299.25 1.2487 1.7105 2.5558 859.70 -0.0025965 109.85 0.10169
37.375 2176.2 undefined 272.71 302.13 1.2543 510.00 0.0019608 272.71 302.13 1.2543 1.7146 2.5552 862.09 -0.0026336 109.86 0.10180 510.00 0.0019608 272.71 302.13 1.2543 1.7146 2.5552 862.09 -0.0026336 109.86 0.10180
38.375 2262.1 undefined 274.42 305.00 1.2598 510.00 0.0019608 274.42 305.00 1.2598 1.7187 2.5546 864.47 -0.0026700 109.86 0.10191 510.00 0.0019608 274.42 305.00 1.2598 1.7187 2.5546 864.47 -0.0026700 109.86 0.10191
39.375 2348.0 undefined 276.14 307.89 1.2653 510.00 0.0019608 276.14 307.89 1.2653 1.7228 2.5541 866.83 -0.0027057 109.87 0.10201 510.00 0.0019608 276.14 307.89 1.2653 1.7228 2.5541 866.83 -0.0027057 109.87 0.10201
40.375 2433.9 undefined 277.87 310.77 1.2708 510.00 0.0019608 277.87 310.77 1.2708 1.7269 2.5538 869.17 -0.0027406 109.88 0.10212 510.00 0.0019608 277.87 310.77 1.2708 1.7269 2.5538 869.17 -0.0027406 109.88 0.10212
41.375 2519.7 undefined 279.60 313.66 1.2763 510.00 0.0019608 279.60 313.66 1.2763 1.7310 2.5535 871.49 -0.0027748 109.88 0.10223 510.00 0.0019608 279.60 313.66 1.2763 1.7310 2.5535 871.49 -0.0027748 109.88 0.10223
42.375 2605.5 undefined 281.33 316.55 1.2818 510.00 0.0019608 281.33 316.55 1.2818 1.7351 2.5532 873.79 -0.0028084 109.89 0.10234 510.00 0.0019608 281.33 316.55 1.2818 1.7351 2.5532 873.79 -0.0028084 109.89 0.10234
43.375 2691.3 undefined 283.07 319.45 1.2873 510.00 0.0019608 283.07 319.45 1.2873 1.7393 2.5531 876.07 -0.0028413 109.89 0.10245 510.00 0.0019608 283.07 319.45 1.2873 1.7393 2.5531 876.07 -0.0028413 109.89 0.10245
44.375 2777.0 undefined 284.81 322.35 1.2928 510.00 0.0019608 284.81 322.35 1.2928 1.7434 2.5530 878.34 -0.0028736 109.90 0.10256 510.00 0.0019608 284.81 322.35 1.2928 1.7434 2.5530 878.34 -0.0028736 109.90 0.10256
45.375 2862.8 undefined 286.55 325.26 1.2983 510.00 0.0019608 286.55 325.26 1.2983 1.7476 2.5530 880.59 -0.0029052 109.91 0.10267 510.00 0.0019608 286.55 325.26 1.2983 1.7476 2.5530 880.59 -0.0029052 109.91 0.10267
46.375 2948.4 undefined 288.30 328.16 1.3038 510.00 0.0019608 288.30 328.16 1.3038 1.7518 2.5531 882.83 -0.0029362 109.91 0.10278 510.00 0.0019608 288.30 328.16 1.3038 1.7518 2.5531 882.83 -0.0029362 109.91 0.10278
47.375 3034.1 undefined 290.06 331.08 1.3092 510.00 0.0019608 290.06 331.08 1.3092 1.7560 2.5532 885.05 -0.0029666 109.92 0.10289 510.00 0.0019608 290.06 331.08 1.3092 1.7560 2.5532 885.05 -0.0029666 109.92 0.10289
48.375 3119.7 undefined 291.82 333.99 1.3147 510.00 0.0019608 291.82 333.99 1.3147 1.7602 2.5534 887.25 -0.0029964 109.93 0.10300 510.00 0.0019608 291.82 333.99 1.3147 1.7602 2.5534 887.25 -0.0029964 109.93 0.10300
49.375 3205.3 undefined 293.58 336.91 1.3202 510.00 0.0019608 293.58 336.91 1.3202 1.7644 2.5537 889.44 -0.0030256 109.93 0.10311 510.00 0.0019608 293.58 336.91 1.3202 1.7644 2.5537 889.44 -0.0030256 109.93 0.10311
50.375 3290.8 undefined 295.34 339.83 1.3257 510.00 0.0019608 295.34 339.83 1.3257 1.7686 2.5541 891.62 -0.0030543 109.94 0.10322 510.00 0.0019608 295.34 339.83 1.3257 1.7686 2.5541 891.62 -0.0030543 109.94 0.10322
51.375 3376.3 undefined 297.12 342.76 1.3311 510.00 0.0019608 297.12 342.76 1.3311 1.7728 2.5545 893.77 -0.0030824 109.95 0.10333 510.00 0.0019608 297.12 342.76 1.3311 1.7728 2.5545 893.77 -0.0030824 109.95 0.10333
52.375 3461.7 undefined 298.89 345.69 1.3366 510.00 0.0019608 298.89 345.69 1.3366 1.7770 2.5549 895.92 -0.0031100 109.95 0.10344 510.00 0.0019608 298.89 345.69 1.3366 1.7770 2.5549 895.92 -0.0031100 109.95 0.10344
53.375 3547.2 undefined 300.67 348.62 1.3420 510.00 0.0019608 300.67 348.62 1.3420 1.7813 2.5554 898.05 -0.0031370 109.96 0.10355 510.00 0.0019608 300.67 348.62 1.3420 1.7813 2.5554 898.05 -0.0031370 109.96 0.10355
54.375 3632.5 undefined 302.45 351.56 1.3475 510.00 0.0019608 302.45 351.56 1.3475 1.7855 2.5560 900.17 -0.0031636 109.97 0.10367 510.00 0.0019608 302.45 351.56 1.3475 1.7855 2.5560 900.17 -0.0031636 109.97 0.10367
55.375 3717.9 undefined 304.24 354.50 1.3529 510.00 0.0019608 304.24 354.50 1.3529 1.7898 2.5567 902.28 -0.0031896 109.97 0.10378 510.00 0.0019608 304.24 354.50 1.3529 1.7898 2.5567 902.28 -0.0031896 109.97 0.10378
56.375 3803.2 undefined 306.03 357.45 1.3584 510.00 0.0019608 306.03 357.45 1.3584 1.7940 2.5573 904.37 -0.0032151 109.98 0.10389 510.00 0.0019608 306.03 357.45 1.3584 1.7940 2.5573 904.37 -0.0032151 109.98 0.10389
57.375 3888.4 undefined 307.83 360.40 1.3638 510.00 0.0019608 307.83 360.40 1.3638 1.7983 2.5581 906.45 -0.0032402 109.99 0.10400 510.00 0.0019608 307.83 360.40 1.3638 1.7983 2.5581 906.45 -0.0032402 109.99 0.10400
58.375 3973.6 undefined 309.63 363.35 1.3693 510.00 0.0019608 309.63 363.35 1.3693 1.8026 2.5589 908.51 -0.0032647 110.00 0.10412 510.00 0.0019608 309.63 363.35 1.3693 1.8026 2.5589 908.51 -0.0032647 110.00 0.10412
59.375 4058.8 undefined 311.43 366.31 1.3747 510.00 0.0019608 311.43 366.31 1.3747 1.8068 2.5597 910.57 -0.0032888 110.01 0.10423 510.00 0.0019608 311.43 366.31 1.3747 1.8068 2.5597 910.57 -0.0032888 110.01 0.10423
60.375 4143.9 undefined 313.24 369.27 1.3801 510.00 0.0019608 313.24 369.27 1.3801 1.8111 2.5606 912.61 -0.0033125 110.01 0.10435 510.00 0.0019608 313.24 369.27 1.3801 1.8111 2.5606 912.61 -0.0033125 110.01 0.10435
61.375 4229.0 undefined 315.06 372.23 1.3856 510.00 0.0019608 315.06 372.23 1.3856 1.8154 2.5616 914.64 -0.0033357 110.02 0.10446 510.00 0.0019608 315.06 372.23 1.3856 1.8154 2.5616 914.64 -0.0033357 110.02 0.10446
62.375 4314.1 undefined 316.87 375.20 1.3910 510.00 0.0019608 316.87 375.20 1.3910 1.8197 2.5626 916.66 -0.0033584 110.03 0.10457 510.00 0.0019608 316.87 375.20 1.3910 1.8197 2.5626 916.66 -0.0033584 110.03 0.10457
63.375 4399.1 undefined 318.70 378.17 1.3964 510.00 0.0019608 318.70 378.17 1.3964 1.8240 2.5636 918.67 -0.0033808 110.04 0.10469 510.00 0.0019608 318.70 378.17 1.3964 1.8240 2.5636 918.67 -0.0033808 110.04 0.10469
64.375 4484.0 undefined 320.52 381.14 1.4018 510.00 0.0019608 320.52 381.14 1.4018 1.8283 2.5647 920.67 -0.0034027 110.05 0.10480 510.00 0.0019608 320.52 381.14 1.4018 1.8283 2.5647 920.67 -0.0034027 110.05 0.10480
65.375 4568.9 undefined 322.35 384.12 1.4073 510.00 0.0019608 322.35 384.12 1.4073 1.8326 2.5659 922.66 -0.0034242 110.05 0.10492 510.00 0.0019608 322.35 384.12 1.4073 1.8326 2.5659 922.66 -0.0034242 110.05 0.10492
66.375 4653.8 undefined 324.19 387.10 1.4127 510.00 0.0019608 324.19 387.10 1.4127 1.8369 2.5670 924.64 -0.0034453 110.06 0.10504 510.00 0.0019608 324.19 387.10 1.4127 1.8369 2.5670 924.64 -0.0034453 110.06 0.10504
67.375 4738.6 undefined 326.03 390.09 1.4181 510.00 0.0019608 326.03 390.09 1.4181 1.8412 2.5683 926.60 -0.0034660 110.07 0.10515 510.00 0.0019608 326.03 390.09 1.4181 1.8412 2.5683 926.60 -0.0034660 110.07 0.10515
68.375 4823.4 undefined 327.87 393.08 1.4235 510.00 0.0019608 327.87 393.08 1.4235 1.8455 2.5695 928.56 -0.0034863 110.08 0.10527 510.00 0.0019608 327.87 393.08 1.4235 1.8455 2.5695 928.56 -0.0034863 110.08 0.10527
69.375 4908.1 undefined 329.72 396.07 1.4289 510.00 0.0019608 329.72 396.07 1.4289 1.8499 2.5708 930.50 -0.0035062 110.09 0.10539 510.00 0.0019608 329.72 396.07 1.4289 1.8499 2.5708 930.50 -0.0035062 110.09 0.10539
70.375 4992.8 undefined 331.57 399.07 1.4343 510.00 0.0019608 331.57 399.07 1.4343 1.8542 2.5722 932.44 -0.0035258 110.10 0.10550 510.00 0.0019608 331.57 399.07 1.4343 1.8542 2.5722 932.44 -0.0035258 110.10 0.10550
71.375 5077.4 undefined 333.43 402.07 1.4397 510.00 0.0019608 333.43 402.07 1.4397 1.8585 2.5736 934.37 -0.0035449 110.11 0.10562 510.00 0.0019608 333.43 402.07 1.4397 1.8585 2.5736 934.37 -0.0035449 110.11 0.10562
72.375 5162.0 undefined 335.29 405.07 1.4451 510.00 0.0019608 335.29 405.07 1.4451 1.8628 2.5750 936.29 -0.0035638 110.11 0.10574 510.00 0.0019608 335.29 405.07 1.4451 1.8628 2.5750 936.29 -0.0035638 110.11 0.10574
73.375 5246.6 undefined 337.15 408.08 1.4505 510.00 0.0019608 337.15 408.08 1.4505 1.8672 2.5765 938.19 -0.0035822 110.12 0.10586 510.00 0.0019608 337.15 408.08 1.4505 1.8672 2.5765 938.19 -0.0035822 110.12 0.10586
74.375 5331.1 undefined 339.02 411.09 1.4558 510.00 0.0019608 339.02 411.09 1.4558 1.8715 2.5780 940.09 -0.0036004 110.13 0.10597 510.00 0.0019608 339.02 411.09 1.4558 1.8715 2.5780 940.09 -0.0036004 110.13 0.10597
75.375 5415.5 undefined 340.89 414.11 1.4612 510.00 0.0019608 340.89 414.11 1.4612 1.8759 2.5795 941.98 -0.0036181 110.14 0.10609 510.00 0.0019608 340.89 414.11 1.4612 1.8759 2.5795 941.98 -0.0036181 110.14 0.10609
76.375 5499.9 undefined 342.77 417.13 1.4666 510.00 0.0019608 342.77 417.13 1.4666 1.8802 2.5811 943.86 -0.0036356 110.15 0.10621 510.00 0.0019608 342.77 417.13 1.4666 1.8802 2.5811 943.86 -0.0036356 110.15 0.10621
77.375 5584.3 undefined 344.65 420.15 1.4720 510.00 0.0019608 344.65 420.15 1.4720 1.8845 2.5827 945.74 -0.0036527 110.16 0.10633 510.00 0.0019608 344.65 420.15 1.4720 1.8845 2.5827 945.74 -0.0036527 110.16 0.10633
78.375 5668.6 undefined 346.54 423.18 1.4774 510.00 0.0019608 346.54 423.18 1.4774 1.8889 2.5843 947.60 -0.0036695 110.17 0.10645 510.00 0.0019608 346.54 423.18 1.4774 1.8889 2.5843 947.60 -0.0036695 110.17 0.10645
79.375 5752.8 undefined 348.43 426.21 1.4827 510.00 0.0019608 348.43 426.21 1.4827 1.8932 2.5860 949.46 -0.0036860 110.18 0.10657 510.00 0.0019608 348.43 426.21 1.4827 1.8932 2.5860 949.46 -0.0036860 110.18 0.10657
80.375 5837.1 undefined 350.33 429.24 1.4881 510.00 0.0019608 350.33 429.24 1.4881 1.8976 2.5877 951.30 -0.0037022 110.19 0.10669 510.00 0.0019608 350.33 429.24 1.4881 1.8976 2.5877 951.30 -0.0037022 110.19 0.10669
81.375 5921.2 undefined 352.23 432.28 1.4935 510.00 0.0019608 352.23 432.28 1.4935 1.9019 2.5894 953.14 -0.0037181 110.20 0.10681 510.00 0.0019608 352.23 432.28 1.4935 1.9019 2.5894 953.14 -0.0037181 110.20 0.10681
82.375 6005.3 undefined 354.13 435.32 1.4988 510.00 0.0019608 354.13 435.32 1.4988 1.9063 2.5912 954.97 -0.0037337 110.21 0.10693 510.00 0.0019608 354.13 435.32 1.4988 1.9063 2.5912 954.97 -0.0037337 110.21 0.10693
83.375 6089.4 undefined 356.04 438.36 1.5042 510.00 0.0019608 356.04 438.36 1.5042 1.9106 2.5929 956.80 -0.0037489 110.22 0.10705 510.00 0.0019608 356.04 438.36 1.5042 1.9106 2.5929 956.80 -0.0037489 110.22 0.10705
84.375 6173.4 undefined 357.95 441.41 1.5096 510.00 0.0019608 357.95 441.41 1.5096 1.9150 2.5948 958.61 -0.0037639 110.23 0.10717 510.00 0.0019608 357.95 441.41 1.5096 1.9150 2.5948 958.61 -0.0037639 110.23 0.10717
85.375 6257.4 undefined 359.87 444.46 1.5149 510.00 0.0019608 359.87 444.46 1.5149 1.9193 2.5966 960.42 -0.0037787 110.24 0.10729 510.00 0.0019608 359.87 444.46 1.5149 1.9193 2.5966 960.42 -0.0037787 110.24 0.10729
86.375 6341.3 undefined 361.79 447.52 1.5203 510.00 0.0019608 361.79 447.52 1.5203 1.9237 2.5985 962.22 -0.0037931 110.25 0.10742 510.00 0.0019608 361.79 447.52 1.5203 1.9237 2.5985 962.22 -0.0037931 110.25 0.10742
87.375 6425.2 undefined 363.72 450.58 1.5256 510.00 0.0019608 363.72 450.58 1.5256 1.9280 2.6004 964.01 -0.0038073 110.26 0.10754 510.00 0.0019608 363.72 450.58 1.5256 1.9280 2.6004 964.01 -0.0038073 110.26 0.10754
88.375 6509.0 undefined 365.65 453.64 1.5310 510.00 0.0019608 365.65 453.64 1.5310 1.9324 2.6023 965.80 -0.0038212 110.27 0.10766 510.00 0.0019608 365.65 453.64 1.5310 1.9324 2.6023 965.80 -0.0038212 110.27 0.10766
89.375 6592.8 undefined 367.58 456.71 1.5363 510.00 0.0019608 367.58 456.71 1.5363 1.9367 2.6043 967.58 -0.0038348 110.28 0.10778 510.00 0.0019608 367.58 456.71 1.5363 1.9367 2.6043 967.58 -0.0038348 110.28 0.10778
90.375 6676.5 undefined 369.52 459.78 1.5416 510.00 0.0019608 369.52 459.78 1.5416 1.9410 2.6063 969.35 -0.0038482 110.29 0.10791 510.00 0.0019608 369.52 459.78 1.5416 1.9410 2.6063 969.35 -0.0038482 110.29 0.10791
91.375 6760.2 undefined 371.46 462.86 1.5470 510.00 0.0019608 371.46 462.86 1.5470 1.9454 2.6083 971.11 -0.0038614 110.30 0.10803 510.00 0.0019608 371.46 462.86 1.5470 1.9454 2.6083 971.11 -0.0038614 110.30 0.10803
92.375 6843.9 undefined 373.41 465.93 1.5523 510.00 0.0019608 373.41 465.93 1.5523 1.9497 2.6103 972.87 -0.0038742 110.31 0.10815 510.00 0.0019608 373.41 465.93 1.5523 1.9497 2.6103 972.87 -0.0038742 110.31 0.10815
93.375 6927.4 undefined 375.36 469.02 1.5576 510.00 0.0019608 375.36 469.02 1.5576 1.9541 2.6124 974.62 -0.0038869 110.32 0.10828 510.00 0.0019608 375.36 469.02 1.5576 1.9541 2.6124 974.62 -0.0038869 110.32 0.10828
94.375 7011.0 undefined 377.32 472.10 1.5630 510.00 0.0019608 377.32 472.10 1.5630 1.9584 2.6145 976.36 -0.0038993 110.33 0.10840 510.00 0.0019608 377.32 472.10 1.5630 1.9584 2.6145 976.36 -0.0038993 110.33 0.10840
95.375 7094.5 undefined 379.28 475.19 1.5683 510.00 0.0019608 379.28 475.19 1.5683 1.9628 2.6166 978.09 -0.0039115 110.34 0.10852 510.00 0.0019608 379.28 475.19 1.5683 1.9628 2.6166 978.09 -0.0039115 110.34 0.10852
96.375 7177.9 undefined 381.25 478.28 1.5736 510.00 0.0019608 381.25 478.28 1.5736 1.9671 2.6187 979.82 -0.0039234 110.35 0.10865 510.00 0.0019608 381.25 478.28 1.5736 1.9671 2.6187 979.82 -0.0039234 110.35 0.10865
97.375 7261.3 undefined 383.21 481.38 1.5789 510.00 0.0019608 383.21 481.38 1.5789 1.9715 2.6208 981.55 -0.0039351 110.36 0.10877 510.00 0.0019608 383.21 481.38 1.5789 1.9715 2.6208 981.55 -0.0039351 110.36 0.10877
98.375 7344.6 undefined 385.19 484.48 1.5843 510.00 0.0019608 385.19 484.48 1.5843 1.9758 2.6230 983.26 -0.0039466 110.38 0.10890 510.00 0.0019608 385.19 484.48 1.5843 1.9758 2.6230 983.26 -0.0039466 110.38 0.10890
99.375 7427.9 undefined 387.17 487.59 1.5896 510.00 0.0019608 387.17 487.59 1.5896 1.9802 2.6252 984.97 -0.0039579 110.39 0.10903 510.00 0.0019608 387.17 487.59 1.5896 1.9802 2.6252 984.97 -0.0039579 110.39 0.10903
100.38 7511.1 undefined 389.15 490.69 1.5949 510.00 0.0019608 389.15 490.69 1.5949 1.9845 2.6274 986.68 -0.0039689 110.40 0.10915 510.00 0.0019608 389.15 490.69 1.5949 1.9845 2.6274 986.68 -0.0039689 110.40 0.10915
101.38 7594.3 undefined 391.14 493.80 1.6002 510.00 0.0019608 391.14 493.80 1.6002 1.9888 2.6296 988.37 -0.0039798 110.41 0.10928 510.00 0.0019608 391.14 493.80 1.6002 1.9888 2.6296 988.37 -0.0039798 110.41 0.10928
102.38 7677.5 undefined 393.13 496.92 1.6055 510.00 0.0019608 393.13 496.92 1.6055 1.9932 2.6319 990.07 -0.0039904 110.42 0.10941 510.00 0.0019608 393.13 496.92 1.6055 1.9932 2.6319 990.07 -0.0039904 110.42 0.10941
103.38 7760.6 undefined 395.12 500.04 1.6108 510.00 0.0019608 395.12 500.04 1.6108 1.9975 2.6341 991.75 -0.0040009 110.43 0.10954 510.00 0.0019608 395.12 500.04 1.6108 1.9975 2.6341 991.75 -0.0040009 110.43 0.10954
104.38 7843.6 undefined 397.12 503.16 1.6161 510.00 0.0019608 397.12 503.16 1.6161 2.0018 2.6364 993.43 -0.0040111 110.44 0.10967 510.00 0.0019608 397.12 503.16 1.6161 2.0018 2.6364 993.43 -0.0040111 110.44 0.10967
105.38 7926.6 undefined 399.13 506.29 1.6214 510.00 0.0019608 399.13 506.29 1.6214 2.0062 2.6387 995.10 -0.0040212 110.45 0.10979 510.00 0.0019608 399.13 506.29 1.6214 2.0062 2.6387 995.10 -0.0040212 110.45 0.10979
106.38 8009.6 undefined 401.13 509.42 1.6267 510.00 0.0019608 401.13 509.42 1.6267 2.0105 2.6411 996.77 -0.0040310 110.47 0.10992 510.00 0.0019608 401.13 509.42 1.6267 2.0105 2.6411 996.77 -0.0040310 110.47 0.10992
107.38 8092.4 undefined 403.15 512.55 1.6320 510.00 0.0019608 403.15 512.55 1.6320 2.0148 2.6434 998.43 -0.0040407 110.48 0.11005 510.00 0.0019608 403.15 512.55 1.6320 2.0148 2.6434 998.43 -0.0040407 110.48 0.11005
108.38 8175.3 undefined 405.16 515.69 1.6373 510.00 0.0019608 405.16 515.69 1.6373 2.0192 2.6458 1000.1 -0.0040501 110.49 0.11018 510.00 0.0019608 405.16 515.69 1.6373 2.0192 2.6458 1000.1 -0.0040501 110.49 0.11018
109.38 8258.1 undefined 407.18 518.83 1.6426 510.00 0.0019608 407.18 518.83 1.6426 2.0235 2.6481 1001.7 -0.0040594 110.50 0.11031 510.00 0.0019608 407.18 518.83 1.6426 2.0235 2.6481 1001.7 -0.0040594 110.50 0.11031
110.38 8340.8 undefined 409.21 521.97 1.6479 510.00 0.0019608 409.21 521.97 1.6479 2.0278 2.6505 1003.4 -0.0040685 110.51 0.11044 510.00 0.0019608 409.21 521.97 1.6479 2.0278 2.6505 1003.4 -0.0040685 110.51 0.11044
111.38 8423.5 undefined 411.24 525.12 1.6532 510.00 0.0019608 411.24 525.12 1.6532 2.0321 2.6529 1005.0 -0.0040775 110.52 0.11057 510.00 0.0019608 411.24 525.12 1.6532 2.0321 2.6529 1005.0 -0.0040775 110.52 0.11057
112.38 8506.2 undefined 413.27 528.27 1.6585 510.00 0.0019608 413.27 528.27 1.6585 2.0364 2.6554 1006.7 -0.0040862 110.54 0.11070 510.00 0.0019608 413.27 528.27 1.6585 2.0364 2.6554 1006.7 -0.0040862 110.54 0.11070
113.38 8588.8 undefined 415.31 531.43 1.6637 510.00 0.0019608 415.31 531.43 1.6637 2.0408 2.6578 1008.3 -0.0040948 110.55 0.11083 510.00 0.0019608 415.31 531.43 1.6637 2.0408 2.6578 1008.3 -0.0040948 110.55 0.11083
114.38 8671.3 undefined 417.36 534.58 1.6690 510.00 0.0019608 417.36 534.58 1.6690 2.0451 2.6603 1009.9 -0.0041033 110.56 0.11096 510.00 0.0019608 417.36 534.58 1.6690 2.0451 2.6603 1009.9 -0.0041033 110.56 0.11096
115.38 8753.8 undefined 419.40 537.75 1.6743 510.00 0.0019608 419.40 537.75 1.6743 2.0494 2.6627 1011.5 -0.0041115 110.57 0.11110 510.00 0.0019608 419.40 537.75 1.6743 2.0494 2.6627 1011.5 -0.0041115 110.57 0.11110
116.38 8836.3 undefined 421.45 540.91 1.6796 510.00 0.0019608 421.45 540.91 1.6796 2.0537 2.6652 1013.1 -0.0041196 110.58 0.11123 510.00 0.0019608 421.45 540.91 1.6796 2.0537 2.6652 1013.1 -0.0041196 110.58 0.11123
117.38 8918.7 undefined 423.51 544.08 1.6848 510.00 0.0019608 423.51 544.08 1.6848 2.0580 2.6677 1014.7 -0.0041276 110.60 0.11136 510.00 0.0019608 423.51 544.08 1.6848 2.0580 2.6677 1014.7 -0.0041276 110.60 0.11136
118.38 9001.0 undefined 425.57 547.26 1.6901 510.00 0.0019608 425.57 547.26 1.6901 2.0623 2.6702 1016.3 -0.0041354 110.61 0.11149 510.00 0.0019608 425.57 547.26 1.6901 2.0623 2.6702 1016.3 -0.0041354 110.61 0.11149
119.38 9083.3 undefined 427.64 550.43 1.6954 510.00 0.0019608 427.64 550.43 1.6954 2.0666 2.6728 1017.9 -0.0041430 110.62 0.11163 510.00 0.0019608 427.64 550.43 1.6954 2.0666 2.6728 1017.9 -0.0041430 110.62 0.11163
120.38 9165.6 undefined 429.70 553.61 1.7006 510.00 0.0019608 429.70 553.61 1.7006 2.0709 2.6753 1019.5 -0.0041505 110.63 0.11176 510.00 0.0019608 429.70 553.61 1.7006 2.0709 2.6753 1019.5 -0.0041505 110.63 0.11176
121.38 9247.8 undefined 431.78 556.80 1.7059 510.00 0.0019608 431.78 556.80 1.7059 2.0752 2.6778 1021.1 -0.0041578 110.65 0.11189 510.00 0.0019608 431.78 556.80 1.7059 2.0752 2.6778 1021.1 -0.0041578 110.65 0.11189
122.38 9329.9 undefined 433.85 559.99 1.7112 510.00 0.0019608 433.85 559.99 1.7112 2.0795 2.6804 1022.7 -0.0041650 110.66 0.11203 510.00 0.0019608 433.85 559.99 1.7112 2.0795 2.6804 1022.7 -0.0041650 110.66 0.11203
123.38 9412.0 undefined 435.94 563.18 1.7164 510.00 0.0019608 435.94 563.18 1.7164 2.0838 2.6830 1024.3 -0.0041720 110.67 0.11216 510.00 0.0019608 435.94 563.18 1.7164 2.0838 2.6830 1024.3 -0.0041720 110.67 0.11216
124.38 9494.1 undefined 438.02 566.37 1.7217 510.00 0.0019608 438.02 566.37 1.7217 2.0880 2.6856 1025.8 -0.0041789 110.68 0.11229 510.00 0.0019608 438.02 566.37 1.7217 2.0880 2.6856 1025.8 -0.0041789 110.68 0.11229
125.38 9576.1 undefined 440.11 569.57 1.7269 510.00 0.0019608 440.11 569.57 1.7269 2.0923 2.6882 1027.4 -0.0041857 110.70 0.11243 510.00 0.0019608 440.11 569.57 1.7269 2.0923 2.6882 1027.4 -0.0041857 110.70 0.11243
126.38 9658.0 undefined 442.21 572.77 1.7322 510.00 0.0019608 442.21 572.77 1.7322 2.0966 2.6908 1029.0 -0.0041923 110.71 0.11256 510.00 0.0019608 442.21 572.77 1.7322 2.0966 2.6908 1029.0 -0.0041923 110.71 0.11256
127.38 9740.0 undefined 444.31 575.98 1.7374 510.00 0.0019608 444.31 575.98 1.7374 2.1009 2.6934 1030.5 -0.0041988 110.72 0.11270 510.00 0.0019608 444.31 575.98 1.7374 2.1009 2.6934 1030.5 -0.0041988 110.72 0.11270
128.38 9821.8 undefined 446.41 579.19 1.7427 510.00 0.0019608 446.41 579.19 1.7427 2.1051 2.6960 1032.1 -0.0042052 110.73 0.11283 510.00 0.0019608 446.41 579.19 1.7427 2.1051 2.6960 1032.1 -0.0042052 110.73 0.11283
129.38 9903.6 undefined 448.52 582.40 1.7479 510.00 0.0019608 448.52 582.40 1.7479 2.1094 2.6987 1033.6 -0.0042114 110.75 0.11297 510.00 0.0019608 448.52 582.40 1.7479 2.1094 2.6987 1033.6 -0.0042114 110.75 0.11297
130.38 9985.4 undefined 450.63 585.62 1.7531 510.00 0.0019608 450.63 585.62 1.7531 2.1137 2.7013 1035.1 -0.0042175 110.76 0.11311 510.00 0.0019608 450.63 585.62 1.7531 2.1137 2.7013 1035.1 -0.0042175 110.76 0.11311
131.38 10067. undefined 452.74 588.84 1.7584 510.00 0.0019608 452.74 588.84 1.7584 2.1179 2.7040 1036.7 -0.0042235 110.77 0.11324 510.00 0.0019608 452.74 588.84 1.7584 2.1179 2.7040 1036.7 -0.0042235 110.77 0.11324
132.38 10149. undefined 454.86 592.07 1.7636 510.00 0.0019608 454.86 592.07 1.7636 2.1222 2.7067 1038.2 -0.0042294 110.79 0.11338 510.00 0.0019608 454.86 592.07 1.7636 2.1222 2.7067 1038.2 -0.0042294 110.79 0.11338
133.38 10230. undefined 456.99 595.29 1.7689 510.00 0.0019608 456.99 595.29 1.7689 2.1264 2.7093 1039.7 -0.0042351 110.80 0.11352 510.00 0.0019608 456.99 595.29 1.7689 2.1264 2.7093 1039.7 -0.0042351 110.80 0.11352
134.38 10312. undefined 459.12 598.52 1.7741 510.00 0.0019608 459.12 598.52 1.7741 2.1307 2.7120 1041.3 -0.0042407 110.81 0.11365 510.00 0.0019608 459.12 598.52 1.7741 2.1307 2.7120 1041.3 -0.0042407 110.81 0.11365
135.38 10393. undefined 461.25 601.76 1.7793 510.00 0.0019608 461.25 601.76 1.7793 2.1349 2.7147 1042.8 -0.0042462 110.82 0.11379 510.00 0.0019608 461.25 601.76 1.7793 2.1349 2.7147 1042.8 -0.0042462 110.82 0.11379
136.38 10475. undefined 463.39 605.00 1.7845 510.00 0.0019608 463.39 605.00 1.7845 2.1392 2.7175 1044.3 -0.0042516 110.84 0.11393 510.00 0.0019608 463.39 605.00 1.7845 2.1392 2.7175 1044.3 -0.0042516 110.84 0.11393
137.38 10556. undefined 465.53 608.24 1.7898 510.00 0.0019608 465.53 608.24 1.7898 2.1434 2.7202 1045.8 -0.0042569 110.85 0.11407 510.00 0.0019608 465.53 608.24 1.7898 2.1434 2.7202 1045.8 -0.0042569 110.85 0.11407
138.38 10638. undefined 467.67 611.48 1.7950 510.00 0.0019608 467.67 611.48 1.7950 2.1477 2.7229 1047.3 -0.0042620 110.86 0.11420 510.00 0.0019608 467.67 611.48 1.7950 2.1477 2.7229 1047.3 -0.0042620 110.86 0.11420
139.38 10719. undefined 469.82 614.73 1.8002 510.00 0.0019608 469.82 614.73 1.8002 2.1519 2.7256 1048.8 -0.0042671 110.88 0.11434 510.00 0.0019608 469.82 614.73 1.8002 2.1519 2.7256 1048.8 -0.0042671 110.88 0.11434
140.38 10800. undefined 471.98 617.99 1.8054 510.00 0.0019608 471.98 617.99 1.8054 2.1561 2.7284 1050.3 -0.0042720 110.89 0.11448 510.00 0.0019608 471.98 617.99 1.8054 2.1561 2.7284 1050.3 -0.0042720 110.89 0.11448
141.38 10881. undefined 474.13 621.24 1.8106 510.00 0.0019608 474.13 621.24 1.8106 2.1603 2.7311 1051.8 -0.0042769 110.90 0.11462 510.00 0.0019608 474.13 621.24 1.8106 2.1603 2.7311 1051.8 -0.0042769 110.90 0.11462
142.38 10963. undefined 476.30 624.50 1.8158 510.00 0.0019608 476.30 624.50 1.8158 2.1646 2.7339 1053.3 -0.0042816 110.92 0.11476 510.00 0.0019608 476.30 624.50 1.8158 2.1646 2.7339 1053.3 -0.0042816 110.92 0.11476
143.38 11044. undefined 478.46 627.77 1.8210 510.00 0.0019608 478.46 627.77 1.8210 2.1688 2.7367 1054.8 -0.0042862 110.93 0.11490 510.00 0.0019608 478.46 627.77 1.8210 2.1688 2.7367 1054.8 -0.0042862 110.93 0.11490
144.38 11125. undefined 480.63 631.03 1.8262 510.00 0.0019608 480.63 631.03 1.8262 2.1730 2.7395 1056.2 -0.0042908 110.94 0.11504 510.00 0.0019608 480.63 631.03 1.8262 2.1730 2.7395 1056.2 -0.0042908 110.94 0.11504
145.38 11206. undefined 482.81 634.30 1.8314 510.00 0.0019608 482.81 634.30 1.8314 2.1772 2.7422 1057.7 -0.0042952 110.96 0.11518 510.00 0.0019608 482.81 634.30 1.8314 2.1772 2.7422 1057.7 -0.0042952 110.96 0.11518
146.38 11287. undefined 484.99 637.58 1.8366 510.00 0.0019608 484.99 637.58 1.8366 2.1814 2.7450 1059.2 -0.0042995 110.97 0.11532 510.00 0.0019608 484.99 637.58 1.8366 2.1814 2.7450 1059.2 -0.0042995 110.97 0.11532
147.38 11368. undefined 487.17 640.86 1.8418 510.00 0.0019608 487.17 640.86 1.8418 2.1856 2.7478 1060.7 -0.0043038 110.99 0.11546 510.00 0.0019608 487.17 640.86 1.8418 2.1856 2.7478 1060.7 -0.0043038 110.99 0.11546
148.38 11449. undefined 489.36 644.14 1.8470 510.00 0.0019608 489.36 644.14 1.8470 2.1898 2.7506 1062.1 -0.0043079 111.00 0.11560 510.00 0.0019608 489.36 644.14 1.8470 2.1898 2.7506 1062.1 -0.0043079 111.00 0.11560
149.38 11530. undefined 491.55 647.42 1.8522 510.00 0.0019608 491.55 647.42 1.8522 2.1940 2.7534 1063.6 -0.0043120 111.01 0.11575 510.00 0.0019608 491.55 647.42 1.8522 2.1940 2.7534 1063.6 -0.0043120 111.01 0.11575
150.38 11610. undefined 493.75 650.71 1.8574 510.00 0.0019608 493.75 650.71 1.8574 2.1982 2.7563 1065.0 -0.0043159 111.03 0.11589 510.00 0.0019608 493.75 650.71 1.8574 2.1982 2.7563 1065.0 -0.0043159 111.03 0.11589
151.38 11691. undefined 495.95 654.00 1.8626 510.00 0.0019608 495.95 654.00 1.8626 2.2024 2.7591 1066.5 -0.0043198 111.04 0.11603 510.00 0.0019608 495.95 654.00 1.8626 2.2024 2.7591 1066.5 -0.0043198 111.04 0.11603
152.38 11772. undefined 498.15 657.30 1.8678 510.00 0.0019608 498.15 657.30 1.8678 2.2066 2.7619 1067.9 -0.0043236 111.05 0.11617 510.00 0.0019608 498.15 657.30 1.8678 2.2066 2.7619 1067.9 -0.0043236 111.05 0.11617
153.38 11852. undefined 500.36 660.59 1.8730 510.00 0.0019608 500.36 660.59 1.8730 2.2107 2.7648 1069.4 -0.0043273 111.07 0.11631 510.00 0.0019608 500.36 660.59 1.8730 2.2107 2.7648 1069.4 -0.0043273 111.07 0.11631
154.38 11933. undefined 502.57 663.90 1.8782 510.00 0.0019608 502.57 663.90 1.8782 2.2149 2.7676 1070.8 -0.0043309 111.08 0.11646 510.00 0.0019608 502.57 663.90 1.8782 2.2149 2.7676 1070.8 -0.0043309 111.08 0.11646
155.38 12013. undefined 504.79 667.20 1.8834 510.00 0.0019608 504.79 667.20 1.8834 2.2191 2.7704 1072.2 -0.0043344 111.10 0.11660 510.00 0.0019608 504.79 667.20 1.8834 2.2191 2.7704 1072.2 -0.0043344 111.10 0.11660
156.38 12094. undefined 507.01 670.51 1.8885 510.00 0.0019608 507.01 670.51 1.8885 2.2232 2.7733 1073.7 -0.0043379 111.11 0.11674 510.00 0.0019608 507.01 670.51 1.8885 2.2232 2.7733 1073.7 -0.0043379 111.11 0.11674
157.38 12174. undefined 509.24 673.83 1.8937 510.00 0.0019608 509.24 673.83 1.8937 2.2274 2.7762 1075.1 -0.0043413 111.12 0.11689 510.00 0.0019608 509.24 673.83 1.8937 2.2274 2.7762 1075.1 -0.0043413 111.12 0.11689
158.38 12255. undefined 511.47 677.14 1.8989 510.00 0.0019608 511.47 677.14 1.8989 2.2316 2.7790 1076.5 -0.0043445 111.14 0.11703 510.00 0.0019608 511.47 677.14 1.8989 2.2316 2.7790 1076.5 -0.0043445 111.14 0.11703
159.38 12335. undefined 513.70 680.46 1.9040 510.00 0.0019608 513.70 680.46 1.9040 2.2357 2.7819 1077.9 -0.0043477 111.15 0.11718 510.00 0.0019608 513.70 680.46 1.9040 2.2357 2.7819 1077.9 -0.0043477 111.15 0.11718
160.38 12415. undefined 515.94 683.78 1.9092 510.00 0.0019608 515.94 683.78 1.9092 2.2398 2.7848 1079.4 -0.0043509 111.17 0.11732 510.00 0.0019608 515.94 683.78 1.9092 2.2398 2.7848 1079.4 -0.0043509 111.17 0.11732
161.38 12496. undefined 518.18 687.11 1.9144 510.00 0.0019608 518.18 687.11 1.9144 2.2440 2.7876 1080.8 -0.0043539 111.18 0.11747 510.00 0.0019608 518.18 687.11 1.9144 2.2440 2.7876 1080.8 -0.0043539 111.18 0.11747
162.38 12576. undefined 520.43 690.44 1.9195 510.00 0.0019608 520.43 690.44 1.9195 2.2481 2.7905 1082.2 -0.0043569 111.20 0.11761 510.00 0.0019608 520.43 690.44 1.9195 2.2481 2.7905 1082.2 -0.0043569 111.20 0.11761
163.38 12656. undefined 522.68 693.78 1.9247 510.00 0.0019608 522.68 693.78 1.9247 2.2523 2.7934 1083.6 -0.0043598 111.21 0.11776 510.00 0.0019608 522.68 693.78 1.9247 2.2523 2.7934 1083.6 -0.0043598 111.21 0.11776
164.38 12736. undefined 524.93 697.11 1.9299 510.00 0.0019608 524.93 697.11 1.9299 2.2564 2.7963 1085.0 -0.0043626 111.22 0.11790 510.00 0.0019608 524.93 697.11 1.9299 2.2564 2.7963 1085.0 -0.0043626 111.22 0.11790
165.38 12816. undefined 527.19 700.45 1.9350 510.00 0.0019608 527.19 700.45 1.9350 2.2605 2.7992 1086.4 -0.0043654 111.24 0.11805 510.00 0.0019608 527.19 700.45 1.9350 2.2605 2.7992 1086.4 -0.0043654 111.24 0.11805
166.38 12896. undefined 529.45 703.80 1.9402 510.00 0.0019608 529.45 703.80 1.9402 2.2646 2.8021 1087.8 -0.0043681 111.25 0.11820 510.00 0.0019608 529.45 703.80 1.9402 2.2646 2.8021 1087.8 -0.0043681 111.25 0.11820
167.38 12976. undefined 531.72 707.15 1.9453 510.00 0.0019608 531.72 707.15 1.9453 2.2687 2.8050 1089.2 -0.0043707 111.27 0.11834 510.00 0.0019608 531.72 707.15 1.9453 2.2687 2.8050 1089.2 -0.0043707 111.27 0.11834
168.38 13056. undefined 533.99 710.50 1.9505 510.00 0.0019608 533.99 710.50 1.9505 2.2729 2.8079 1090.6 -0.0043733 111.28 0.11849 510.00 0.0019608 533.99 710.50 1.9505 2.2729 2.8079 1090.6 -0.0043733 111.28 0.11849
169.38 13136. undefined 536.26 713.85 1.9556 510.00 0.0019608 536.26 713.85 1.9556 2.2770 2.8108 1091.9 -0.0043757 111.30 0.11864 510.00 0.0019608 536.26 713.85 1.9556 2.2770 2.8108 1091.9 -0.0043757 111.30 0.11864
170.38 13216. undefined 538.54 717.21 1.9608 510.00 0.0019608 538.54 717.21 1.9608 2.2811 2.8137 1093.3 -0.0043782 111.31 0.11879 510.00 0.0019608 538.54 717.21 1.9608 2.2811 2.8137 1093.3 -0.0043782 111.31 0.11879
171.38 13296. undefined 540.83 720.57 1.9659 510.00 0.0019608 540.83 720.57 1.9659 2.2852 2.8167 1094.7 -0.0043805 111.33 0.11893 510.00 0.0019608 540.83 720.57 1.9659 2.2852 2.8167 1094.7 -0.0043805 111.33 0.11893
172.38 13375. undefined 543.11 723.94 1.9710 510.00 0.0019608 543.11 723.94 1.9710 2.2892 2.8196 1096.1 -0.0043828 111.34 0.11908 510.00 0.0019608 543.11 723.94 1.9710 2.2892 2.8196 1096.1 -0.0043828 111.34 0.11908
173.38 13455. undefined 545.41 727.31 1.9762 510.00 0.0019608 545.41 727.31 1.9762 2.2933 2.8225 1097.4 -0.0043850 111.35 0.11923 510.00 0.0019608 545.41 727.31 1.9762 2.2933 2.8225 1097.4 -0.0043850 111.35 0.11923
174.38 13535. undefined 547.70 730.68 1.9813 510.00 0.0019608 547.70 730.68 1.9813 2.2974 2.8254 1098.8 -0.0043872 111.37 0.11938 510.00 0.0019608 547.70 730.68 1.9813 2.2974 2.8254 1098.8 -0.0043872 111.37 0.11938
175.38 13614. undefined 550.00 734.05 1.9864 510.00 0.0019608 550.00 734.05 1.9864 2.3015 2.8284 1100.2 -0.0043893 111.38 0.11953 510.00 0.0019608 550.00 734.05 1.9864 2.3015 2.8284 1100.2 -0.0043893 111.38 0.11953
176.38 13694. undefined 552.30 737.43 1.9916 510.00 0.0019608 552.30 737.43 1.9916 2.3056 2.8313 1101.5 -0.0043913 111.40 0.11968 510.00 0.0019608 552.30 737.43 1.9916 2.3056 2.8313 1101.5 -0.0043913 111.40 0.11968
177.38 13773. undefined 554.61 740.81 1.9967 510.00 0.0019608 554.61 740.81 1.9967 2.3096 2.8342 1102.9 -0.0043933 111.41 0.11983 510.00 0.0019608 554.61 740.81 1.9967 2.3096 2.8342 1102.9 -0.0043933 111.41 0.11983
178.38 13853. undefined 556.92 744.20 2.0018 510.00 0.0019608 556.92 744.20 2.0018 2.3137 2.8372 1104.2 -0.0043952 111.43 0.11998 510.00 0.0019608 556.92 744.20 2.0018 2.3137 2.8372 1104.2 -0.0043952 111.43 0.11998
179.38 13932. undefined 559.24 747.59 2.0070 510.00 0.0019608 559.24 747.59 2.0070 2.3178 2.8401 1105.6 -0.0043971 111.44 0.12013 510.00 0.0019608 559.24 747.59 2.0070 2.3178 2.8401 1105.6 -0.0043971 111.44 0.12013
180.38 14011. undefined 561.56 750.98 2.0121 510.00 0.0019608 561.56 750.98 2.0121 2.3218 2.8431 1106.9 -0.0043989 111.46 0.12028 510.00 0.0019608 561.56 750.98 2.0121 2.3218 2.8431 1106.9 -0.0043989 111.46 0.12028
181.38 14091. undefined 563.88 754.38 2.0172 510.00 0.0019608 563.88 754.38 2.0172 2.3259 2.8460 1108.3 -0.0044007 111.47 0.12043 510.00 0.0019608 563.88 754.38 2.0172 2.3259 2.8460 1108.3 -0.0044007 111.47 0.12043
182.38 14170. undefined 566.21 757.78 2.0223 510.00 0.0019608 566.21 757.78 2.0223 2.3299 2.8490 1109.6 -0.0044024 111.49 0.12058 510.00 0.0019608 566.21 757.78 2.0223 2.3299 2.8490 1109.6 -0.0044024 111.49 0.12058
183.38 14249. undefined 568.54 761.18 2.0274 510.00 0.0019608 568.54 761.18 2.0274 2.3339 2.8519 1111.0 -0.0044040 111.50 0.12073 510.00 0.0019608 568.54 761.18 2.0274 2.3339 2.8519 1111.0 -0.0044040 111.50 0.12073
184.38 14328. undefined 570.88 764.59 2.0325 510.00 0.0019608 570.88 764.59 2.0325 2.3380 2.8549 1112.3 -0.0044056 111.52 0.12088 510.00 0.0019608 570.88 764.59 2.0325 2.3380 2.8549 1112.3 -0.0044056 111.52 0.12088
185.38 14408. undefined 573.22 767.99 2.0376 510.00 0.0019608 573.22 767.99 2.0376 2.3420 2.8578 1113.6 -0.0044072 111.53 0.12104 510.00 0.0019608 573.22 767.99 2.0376 2.3420 2.8578 1113.6 -0.0044072 111.53 0.12104
186.38 14487. undefined 575.56 771.41 2.0427 510.00 0.0019608 575.56 771.41 2.0427 2.3460 2.8608 1114.9 -0.0044087 111.55 0.12119 510.00 0.0019608 575.56 771.41 2.0427 2.3460 2.8608 1114.9 -0.0044087 111.55 0.12119
187.38 14566. undefined 577.91 774.82 2.0479 510.00 0.0019608 577.91 774.82 2.0479 2.3501 2.8638 1116.3 -0.0044101 111.56 0.12134 510.00 0.0019608 577.91 774.82 2.0479 2.3501 2.8638 1116.3 -0.0044101 111.56 0.12134
188.38 14645. undefined 580.26 778.24 2.0530 510.00 0.0019608 580.26 778.24 2.0530 2.3541 2.8667 1117.6 -0.0044115 111.58 0.12149 510.00 0.0019608 580.26 778.24 2.0530 2.3541 2.8667 1117.6 -0.0044115 111.58 0.12149
189.38 14724. undefined 582.62 781.67 2.0581 510.00 0.0019608 582.62 781.67 2.0581 2.3581 2.8697 1118.9 -0.0044129 111.59 0.12165 510.00 0.0019608 582.62 781.67 2.0581 2.3581 2.8697 1118.9 -0.0044129 111.59 0.12165
190.38 14802. undefined 584.98 785.09 2.0632 510.00 0.0019608 584.98 785.09 2.0632 2.3621 2.8727 1120.2 -0.0044142 111.61 0.12180 510.00 0.0019608 584.98 785.09 2.0632 2.3621 2.8727 1120.2 -0.0044142 111.61 0.12180
191.38 14881. undefined 587.34 788.52 2.0682 510.00 0.0019608 587.34 788.52 2.0682 2.3661 2.8756 1121.5 -0.0044154 111.62 0.12196 510.00 0.0019608 587.34 788.52 2.0682 2.3661 2.8756 1121.5 -0.0044154 111.62 0.12196
192.38 14960. undefined 589.71 791.96 2.0733 510.00 0.0019608 589.71 791.96 2.0733 2.3701 2.8786 1122.8 -0.0044166 111.64 0.12211 510.00 0.0019608 589.71 791.96 2.0733 2.3701 2.8786 1122.8 -0.0044166 111.64 0.12211
193.38 15039. undefined 592.08 795.39 2.0784 510.00 0.0019608 592.08 795.39 2.0784 2.3741 2.8816 1124.2 -0.0044178 111.65 0.12226 510.00 0.0019608 592.08 795.39 2.0784 2.3741 2.8816 1124.2 -0.0044178 111.65 0.12226
194.38 15117. undefined 594.46 798.83 2.0835 510.00 0.0019608 594.46 798.83 2.0835 2.3781 2.8845 1125.5 -0.0044189 111.67 0.12242 510.00 0.0019608 594.46 798.83 2.0835 2.3781 2.8845 1125.5 -0.0044189 111.67 0.12242
195.38 15196. undefined 596.84 802.28 2.0886 510.00 0.0019608 596.84 802.28 2.0886 2.3820 2.8875 1126.8 -0.0044199 111.68 0.12257 510.00 0.0019608 596.84 802.28 2.0886 2.3820 2.8875 1126.8 -0.0044199 111.68 0.12257
196.38 15275. undefined 599.22 805.72 2.0937 510.00 0.0019608 599.22 805.72 2.0937 2.3860 2.8905 1128.1 -0.0044210 111.70 0.12273 510.00 0.0019608 599.22 805.72 2.0937 2.3860 2.8905 1128.1 -0.0044210 111.70 0.12273
197.38 15353. undefined 601.61 809.17 2.0988 510.00 0.0019608 601.61 809.17 2.0988 2.3900 2.8935 1129.3 -0.0044219 111.71 0.12288 510.00 0.0019608 601.61 809.17 2.0988 2.3900 2.8935 1129.3 -0.0044219 111.71 0.12288
198.38 15432. undefined 604.00 812.63 2.1038 510.00 0.0019608 604.00 812.63 2.1038 2.3940 2.8965 1130.6 -0.0044229 111.73 0.12304 510.00 0.0019608 604.00 812.63 2.1038 2.3940 2.8965 1130.6 -0.0044229 111.73 0.12304
199.38 15510. undefined 606.40 816.08 2.1089 510.00 0.0019608 606.40 816.08 2.1089 2.3979 2.8994 1131.9 -0.0044238 111.75 0.12320 510.00 0.0019608 606.40 816.08 2.1089 2.3979 2.8994 1131.9 -0.0044238 111.75 0.12320
200.38 15589. undefined 608.80 819.54 2.1140 510.00 0.0019608 608.80 819.54 2.1140 2.4019 2.9024 1133.2 -0.0044246 111.76 0.12335 510.00 0.0019608 608.80 819.54 2.1140 2.4019 2.9024 1133.2 -0.0044246 111.76 0.12335
201.38 15667. undefined 611.20 823.01 2.1191 510.00 0.0019608 611.20 823.01 2.1191 2.4058 2.9054 1134.5 -0.0044254 111.78 0.12351 510.00 0.0019608 611.20 823.01 2.1191 2.4058 2.9054 1134.5 -0.0044254 111.78 0.12351
202.38 15745. undefined 613.61 826.47 2.1241 510.00 0.0019608 613.61 826.47 2.1241 2.4098 2.9084 1135.8 -0.0044262 111.79 0.12367 510.00 0.0019608 613.61 826.47 2.1241 2.4098 2.9084 1135.8 -0.0044262 111.79 0.12367
203.38 15824. undefined 616.02 829.94 2.1292 510.00 0.0019608 616.02 829.94 2.1292 2.4137 2.9114 1137.1 -0.0044269 111.81 0.12382 510.00 0.0019608 616.02 829.94 2.1292 2.4137 2.9114 1137.1 -0.0044269 111.81 0.12382
204.38 15902. undefined 618.44 833.42 2.1343 510.00 0.0019608 618.44 833.42 2.1343 2.4176 2.9143 1138.3 -0.0044276 111.82 0.12398 510.00 0.0019608 618.44 833.42 2.1343 2.4176 2.9143 1138.3 -0.0044276 111.82 0.12398
205.38 15980. undefined 620.86 836.89 2.1393 510.00 0.0019608 620.86 836.89 2.1393 2.4216 2.9173 1139.6 -0.0044283 111.84 0.12414 510.00 0.0019608 620.86 836.89 2.1393 2.4216 2.9173 1139.6 -0.0044283 111.84 0.12414
206.38 16058. undefined 623.28 840.37 2.1444 510.00 0.0019608 623.28 840.37 2.1444 2.4255 2.9203 1140.9 -0.0044289 111.85 0.12430 510.00 0.0019608 623.28 840.37 2.1444 2.4255 2.9203 1140.9 -0.0044289 111.85 0.12430
207.38 16136. undefined 625.71 843.86 2.1494 510.00 0.0019608 625.71 843.86 2.1494 2.4294 2.9233 1142.1 -0.0044295 111.87 0.12446 510.00 0.0019608 625.71 843.86 2.1494 2.4294 2.9233 1142.1 -0.0044295 111.87 0.12446
208.38 16214. undefined 628.14 847.34 2.1545 510.00 0.0019608 628.14 847.34 2.1545 2.4333 2.9263 1143.4 -0.0044301 111.88 0.12462 510.00 0.0019608 628.14 847.34 2.1545 2.4333 2.9263 1143.4 -0.0044301 111.88 0.12462
209.38 16292. undefined 630.57 850.83 2.1595 510.00 0.0019608 630.57 850.83 2.1595 2.4372 2.9293 1144.7 -0.0044306 111.90 0.12477 510.00 0.0019608 630.57 850.83 2.1595 2.4372 2.9293 1144.7 -0.0044306 111.90 0.12477
210.38 16370. undefined 633.01 854.33 2.1646 510.00 0.0019608 633.01 854.33 2.1646 2.4412 2.9323 1145.9 -0.0044310 111.92 0.12493 510.00 0.0019608 633.01 854.33 2.1646 2.4412 2.9323 1145.9 -0.0044310 111.92 0.12493
211.38 16448. undefined 635.46 857.82 2.1696 510.00 0.0019608 635.46 857.82 2.1696 2.4451 2.9352 1147.2 -0.0044315 111.93 0.12509 510.00 0.0019608 635.46 857.82 2.1696 2.4451 2.9352 1147.2 -0.0044315 111.93 0.12509
212.38 16526. undefined 637.90 861.32 2.1747 510.00 0.0019608 637.90 861.32 2.1747 2.4489 2.9382 1148.4 -0.0044319 111.95 0.12525 510.00 0.0019608 637.90 861.32 2.1747 2.4489 2.9382 1148.4 -0.0044319 111.95 0.12525
213.38 16604. undefined 640.35 864.83 2.1797 510.00 0.0019608 640.35 864.83 2.1797 2.4528 2.9412 1149.7 -0.0044323 111.96 0.12541 510.00 0.0019608 640.35 864.83 2.1797 2.4528 2.9412 1149.7 -0.0044323 111.96 0.12541
214.38 16682. undefined 642.81 868.33 2.1848 510.00 0.0019608 642.81 868.33 2.1848 2.4567 2.9442 1150.9 -0.0044326 111.98 0.12557 510.00 0.0019608 642.81 868.33 2.1848 2.4567 2.9442 1150.9 -0.0044326 111.98 0.12557
215.38 16760. undefined 645.27 871.84 2.1898 510.00 0.0019608 645.27 871.84 2.1898 2.4606 2.9472 1152.2 -0.0044329 111.99 0.12574 510.00 0.0019608 645.27 871.84 2.1898 2.4606 2.9472 1152.2 -0.0044329 111.99 0.12574
216.38 16837. undefined 647.73 875.36 2.1948 510.00 0.0019608 647.73 875.36 2.1948 2.4645 2.9502 1153.4 -0.0044332 112.01 0.12590 510.00 0.0019608 647.73 875.36 2.1948 2.4645 2.9502 1153.4 -0.0044332 112.01 0.12590
217.38 16915. undefined 650.20 878.87 2.1999 510.00 0.0019608 650.20 878.87 2.1999 2.4683 2.9532 1154.6 -0.0044334 112.03 0.12606 510.00 0.0019608 650.20 878.87 2.1999 2.4683 2.9532 1154.6 -0.0044334 112.03 0.12606
218.38 16992. undefined 652.67 882.39 2.2049 510.00 0.0019608 652.67 882.39 2.2049 2.4722 2.9562 1155.9 -0.0044336 112.04 0.12622 510.00 0.0019608 652.67 882.39 2.2049 2.4722 2.9562 1155.9 -0.0044336 112.04 0.12622
219.38 17070. undefined 655.14 885.91 2.2099 510.00 0.0019608 655.14 885.91 2.2099 2.4761 2.9591 1157.1 -0.0044338 112.06 0.12638 510.00 0.0019608 655.14 885.91 2.2099 2.4761 2.9591 1157.1 -0.0044338 112.06 0.12638
220.38 17148. undefined 657.62 889.44 2.2150 510.00 0.0019608 657.62 889.44 2.2150 2.4799 2.9621 1158.4 -0.0044340 112.07 0.12654 510.00 0.0019608 657.62 889.44 2.2150 2.4799 2.9621 1158.4 -0.0044340 112.07 0.12654
221.38 17225. undefined 660.10 892.97 2.2200 510.00 0.0019608 660.10 892.97 2.2200 2.4838 2.9651 1159.6 -0.0044341 112.09 0.12671 510.00 0.0019608 660.10 892.97 2.2200 2.4838 2.9651 1159.6 -0.0044341 112.09 0.12671
222.38 17302. undefined 662.59 896.50 2.2250 510.00 0.0019608 662.59 896.50 2.2250 2.4876 2.9681 1160.8 -0.0044342 112.10 0.12687 510.00 0.0019608 662.59 896.50 2.2250 2.4876 2.9681 1160.8 -0.0044342 112.10 0.12687
223.38 17380. undefined 665.08 900.04 2.2300 510.00 0.0019608 665.08 900.04 2.2300 2.4915 2.9711 1162.0 -0.0044342 112.12 0.12703 510.00 0.0019608 665.08 900.04 2.2300 2.4915 2.9711 1162.0 -0.0044342 112.12 0.12703
224.38 17457. undefined 667.57 903.58 2.2350 510.00 0.0019608 667.57 903.58 2.2350 2.4953 2.9741 1163.3 -0.0044343 112.14 0.12720 510.00 0.0019608 667.57 903.58 2.2350 2.4953 2.9741 1163.3 -0.0044343 112.14 0.12720
225.38 17534. undefined 670.07 907.12 2.2401 510.00 0.0019608 670.07 907.12 2.2401 2.4991 2.9771 1164.5 -0.0044343 112.15 0.12736 510.00 0.0019608 670.07 907.12 2.2401 2.4991 2.9771 1164.5 -0.0044343 112.15 0.12736
226.38 17612. undefined 672.57 910.66 2.2451 510.00 0.0019608 672.57 910.66 2.2451 2.5029 2.9800 1165.7 -0.0044343 112.17 0.12752 510.00 0.0019608 672.57 910.66 2.2451 2.5029 2.9800 1165.7 -0.0044343 112.17 0.12752
227.38 17689. undefined 675.07 914.21 2.2501 510.00 0.0019608 675.07 914.21 2.2501 2.5068 2.9830 1166.9 -0.0044342 112.18 0.12769 510.00 0.0019608 675.07 914.21 2.2501 2.5068 2.9830 1166.9 -0.0044342 112.18 0.12769
228.38 17766. undefined 677.58 917.76 2.2551 510.00 0.0019608 677.58 917.76 2.2551 2.5106 2.9860 1168.1 -0.0044341 112.20 0.12785 510.00 0.0019608 677.58 917.76 2.2551 2.5106 2.9860 1168.1 -0.0044341 112.20 0.12785
229.38 17843. undefined 680.09 921.32 2.2601 510.00 0.0019608 680.09 921.32 2.2601 2.5144 2.9890 1169.3 -0.0044340 112.22 0.12802 510.00 0.0019608 680.09 921.32 2.2601 2.5144 2.9890 1169.3 -0.0044340 112.22 0.12802
230.38 17920. undefined 682.61 924.88 2.2651 510.00 0.0019608 682.61 924.88 2.2651 2.5182 2.9920 1170.5 -0.0044339 112.23 0.12818 510.00 0.0019608 682.61 924.88 2.2651 2.5182 2.9920 1170.5 -0.0044339 112.23 0.12818
231.38 17997. undefined 685.13 928.44 2.2701 510.00 0.0019608 685.13 928.44 2.2701 2.5220 2.9950 1171.7 -0.0044337 112.25 0.12835 510.00 0.0019608 685.13 928.44 2.2701 2.5220 2.9950 1171.7 -0.0044337 112.25 0.12835
232.38 18074. undefined 687.65 932.00 2.2751 510.00 0.0019608 687.65 932.00 2.2751 2.5258 2.9979 1172.9 -0.0044336 112.26 0.12852 510.00 0.0019608 687.65 932.00 2.2751 2.5258 2.9979 1172.9 -0.0044336 112.26 0.12852
233.38 18151. undefined 690.18 935.57 2.2801 510.00 0.0019608 690.18 935.57 2.2801 2.5296 3.0009 1174.1 -0.0044334 112.28 0.12868 510.00 0.0019608 690.18 935.57 2.2801 2.5296 3.0009 1174.1 -0.0044334 112.28 0.12868
234.38 18228. undefined 692.71 939.14 2.2851 510.00 0.0019608 692.71 939.14 2.2851 2.5333 3.0039 1175.3 -0.0044331 112.30 0.12885 510.00 0.0019608 692.71 939.14 2.2851 2.5333 3.0039 1175.3 -0.0044331 112.30 0.12885
235.38 18305. undefined 695.25 942.72 2.2901 510.00 0.0019608 695.25 942.72 2.2901 2.5371 3.0069 1176.5 -0.0044329 112.31 0.12901 510.00 0.0019608 695.25 942.72 2.2901 2.5371 3.0069 1176.5 -0.0044329 112.31 0.12901
236.38 18382. undefined 697.79 946.29 2.2951 510.00 0.0019608 697.79 946.29 2.2951 2.5409 3.0099 1177.7 -0.0044326 112.33 0.12918 510.00 0.0019608 697.79 946.29 2.2951 2.5409 3.0099 1177.7 -0.0044326 112.33 0.12918
237.38 18459. undefined 700.33 949.87 2.3000 510.00 0.0019608 700.33 949.87 2.3000 2.5447 3.0128 1178.9 -0.0044323 112.34 0.12935 510.00 0.0019608 700.33 949.87 2.3000 2.5447 3.0128 1178.9 -0.0044323 112.34 0.12935
238.38 18535. undefined 702.88 953.46 2.3050 510.00 0.0019608 702.88 953.46 2.3050 2.5484 3.0158 1180.1 -0.0044320 112.36 0.12952 510.00 0.0019608 702.88 953.46 2.3050 2.5484 3.0158 1180.1 -0.0044320 112.36 0.12952
239.38 18612. undefined 705.43 957.05 2.3100 510.00 0.0019608 705.43 957.05 2.3100 2.5522 3.0188 1181.3 -0.0044316 112.38 0.12968 510.00 0.0019608 705.43 957.05 2.3100 2.5522 3.0188 1181.3 -0.0044316 112.38 0.12968
240.38 18689. undefined 707.98 960.64 2.3150 510.00 0.0019608 707.98 960.64 2.3150 2.5559 3.0218 1182.5 -0.0044313 112.39 0.12985 510.00 0.0019608 707.98 960.64 2.3150 2.5559 3.0218 1182.5 -0.0044313 112.39 0.12985
241.38 18765. undefined 710.54 964.23 2.3200 510.00 0.0019608 710.54 964.23 2.3200 2.5597 3.0247 1183.7 -0.0044309 112.41 0.13002 510.00 0.0019608 710.54 964.23 2.3200 2.5597 3.0247 1183.7 -0.0044309 112.41 0.13002
242.38 18842. undefined 713.10 967.83 2.3249 510.00 0.0019608 713.10 967.83 2.3249 2.5634 3.0277 1184.8 -0.0044305 112.42 0.13019 510.00 0.0019608 713.10 967.83 2.3249 2.5634 3.0277 1184.8 -0.0044305 112.42 0.13019
243.38 18918. undefined 715.67 971.43 2.3299 510.00 0.0019608 715.67 971.43 2.3299 2.5672 3.0307 1186.0 -0.0044300 112.44 0.13036 510.00 0.0019608 715.67 971.43 2.3299 2.5672 3.0307 1186.0 -0.0044300 112.44 0.13036
244.38 18995. undefined 718.24 975.03 2.3349 510.00 0.0019608 718.24 975.03 2.3349 2.5709 3.0337 1187.2 -0.0044296 112.46 0.13053 510.00 0.0019608 718.24 975.03 2.3349 2.5709 3.0337 1187.2 -0.0044296 112.46 0.13053
245.38 19071. undefined 720.81 978.63 2.3398 510.00 0.0019608 720.81 978.63 2.3398 2.5746 3.0366 1188.4 -0.0044291 112.47 0.13070 510.00 0.0019608 720.81 978.63 2.3398 2.5746 3.0366 1188.4 -0.0044291 112.47 0.13070
246.38 19148. undefined 723.38 982.24 2.3448 510.00 0.0019608 723.38 982.24 2.3448 2.5783 3.0396 1189.5 -0.0044286 112.49 0.13087 510.00 0.0019608 723.38 982.24 2.3448 2.5783 3.0396 1189.5 -0.0044286 112.49 0.13087
247.38 19224. undefined 725.96 985.86 2.3498 510.00 0.0019608 725.96 985.86 2.3498 2.5821 3.0426 1190.7 -0.0044281 112.50 0.13104 510.00 0.0019608 725.96 985.86 2.3498 2.5821 3.0426 1190.7 -0.0044281 112.50 0.13104
248.38 19300. undefined 728.55 989.47 2.3547 510.00 0.0019608 728.55 989.47 2.3547 2.5858 3.0455 1191.9 -0.0044276 112.52 0.13121 510.00 0.0019608 728.55 989.47 2.3547 2.5858 3.0455 1191.9 -0.0044276 112.52 0.13121
249.38 19376. undefined 731.14 993.09 2.3597 510.00 0.0019608 731.14 993.09 2.3597 2.5895 3.0485 1193.0 -0.0044270 112.54 0.13138 510.00 0.0019608 731.14 993.09 2.3597 2.5895 3.0485 1193.0 -0.0044270 112.54 0.13138
250.38 19453. undefined 733.73 996.71 2.3646 510.00 0.0019608 733.73 996.71 2.3646 2.5932 3.0514 1194.2 -0.0044264 112.55 0.13155 510.00 0.0019608 733.73 996.71 2.3646 2.5932 3.0514 1194.2 -0.0044264 112.55 0.13155
251.38 19529. undefined 736.32 1000.3 2.3696 510.00 0.0019608 736.32 1000.3 2.3696 2.5969 3.0544 1195.3 -0.0044259 112.57 0.13172 510.00 0.0019608 736.32 1000.3 2.3696 2.5969 3.0544 1195.3 -0.0044259 112.57 0.13172
252.38 19605. undefined 738.92 1004.0 2.3745 510.00 0.0019608 738.92 1004.0 2.3745 2.6006 3.0574 1196.5 -0.0044252 112.59 0.13189 510.00 0.0019608 738.92 1004.0 2.3745 2.6006 3.0574 1196.5 -0.0044252 112.59 0.13189
253.38 19681. undefined 741.52 1007.6 2.3795 510.00 0.0019608 741.52 1007.6 2.3795 2.6042 3.0603 1197.7 -0.0044246 112.60 0.13207 510.00 0.0019608 741.52 1007.6 2.3795 2.6042 3.0603 1197.7 -0.0044246 112.60 0.13207
254.38 19757. undefined 744.13 1011.2 2.3844 510.00 0.0019608 744.13 1011.2 2.3844 2.6079 3.0633 1198.8 -0.0044240 112.62 0.13224 510.00 0.0019608 744.13 1011.2 2.3844 2.6079 3.0633 1198.8 -0.0044240 112.62 0.13224
255.38 19833. undefined 746.74 1014.9 2.3894 510.00 0.0019608 746.74 1014.9 2.3894 2.6116 3.0662 1200.0 -0.0044233 112.64 0.13241 510.00 0.0019608 746.74 1014.9 2.3894 2.6116 3.0662 1200.0 -0.0044233 112.64 0.13241
256.38 19909. undefined 749.35 1018.5 2.3943 510.00 0.0019608 749.35 1018.5 2.3943 2.6153 3.0692 1201.1 -0.0044226 112.65 0.13258 510.00 0.0019608 749.35 1018.5 2.3943 2.6153 3.0692 1201.1 -0.0044226 112.65 0.13258
257.38 19985. undefined 751.97 1022.1 2.3993 510.00 0.0019608 751.97 1022.1 2.3993 2.6189 3.0721 1202.2 -0.0044219 112.67 0.13276 510.00 0.0019608 751.97 1022.1 2.3993 2.6189 3.0721 1202.2 -0.0044219 112.67 0.13276
258.38 20061. undefined 754.59 1025.8 2.4042 510.00 0.0019608 754.59 1025.8 2.4042 2.6226 3.0751 1203.4 -0.0044212 112.68 0.13293 510.00 0.0019608 754.59 1025.8 2.4042 2.6226 3.0751 1203.4 -0.0044212 112.68 0.13293
259.38 20137. undefined 757.22 1029.4 2.4091 510.00 0.0019608 757.22 1029.4 2.4091 2.6262 3.0780 1204.5 -0.0044205 112.70 0.13310 510.00 0.0019608 757.22 1029.4 2.4091 2.6262 3.0780 1204.5 -0.0044205 112.70 0.13310
260.38 20212. undefined 759.84 1033.1 2.4141 510.00 0.0019608 759.84 1033.1 2.4141 2.6299 3.0810 1205.7 -0.0044197 112.72 0.13328 510.00 0.0019608 759.84 1033.1 2.4141 2.6299 3.0810 1205.7 -0.0044197 112.72 0.13328
261.38 20288. undefined 762.48 1036.8 2.4190 510.00 0.0019608 762.48 1036.8 2.4190 2.6335 3.0839 1206.8 -0.0044190 112.73 0.13345 510.00 0.0019608 762.48 1036.8 2.4190 2.6335 3.0839 1206.8 -0.0044190 112.73 0.13345
262.38 20364. undefined 765.11 1040.4 2.4239 510.00 0.0019608 765.11 1040.4 2.4239 2.6372 3.0869 1207.9 -0.0044182 112.75 0.13363 510.00 0.0019608 765.11 1040.4 2.4239 2.6372 3.0869 1207.9 -0.0044182 112.75 0.13363
263.38 20440. undefined 767.75 1044.1 2.4288 510.00 0.0019608 767.75 1044.1 2.4288 2.6408 3.0898 1209.1 -0.0044174 112.77 0.13380 510.00 0.0019608 767.75 1044.1 2.4288 2.6408 3.0898 1209.1 -0.0044174 112.77 0.13380
264.38 20515. undefined 770.39 1047.7 2.4338 510.00 0.0019608 770.39 1047.7 2.4338 2.6444 3.0928 1210.2 -0.0044166 112.78 0.13398 510.00 0.0019608 770.39 1047.7 2.4338 2.6444 3.0928 1210.2 -0.0044166 112.78 0.13398
265.38 20591. undefined 773.04 1051.4 2.4387 510.00 0.0019608 773.04 1051.4 2.4387 2.6481 3.0957 1211.3 -0.0044157 112.80 0.13415 510.00 0.0019608 773.04 1051.4 2.4387 2.6481 3.0957 1211.3 -0.0044157 112.80 0.13415
266.38 20666. undefined 775.69 1055.1 2.4436 510.00 0.0019608 775.69 1055.1 2.4436 2.6517 3.0986 1212.5 -0.0044149 112.81 0.13433 510.00 0.0019608 775.69 1055.1 2.4436 2.6517 3.0986 1212.5 -0.0044149 112.81 0.13433
267.38 20742. undefined 778.34 1058.8 2.4485 510.00 0.0019608 778.34 1058.8 2.4485 2.6553 3.1016 1213.6 -0.0044141 112.83 0.13450 510.00 0.0019608 778.34 1058.8 2.4485 2.6553 3.1016 1213.6 -0.0044141 112.83 0.13450
268.38 20817. undefined 781.00 1062.4 2.4534 510.00 0.0019608 781.00 1062.4 2.4534 2.6589 3.1045 1214.7 -0.0044132 112.85 0.13468 510.00 0.0019608 781.00 1062.4 2.4534 2.6589 3.1045 1214.7 -0.0044132 112.85 0.13468
269.38 20893. undefined 783.66 1066.1 2.4583 510.00 0.0019608 783.66 1066.1 2.4583 2.6625 3.1074 1215.8 -0.0044123 112.86 0.13486 510.00 0.0019608 783.66 1066.1 2.4583 2.6625 3.1074 1215.8 -0.0044123 112.86 0.13486
270.38 20968. undefined 786.32 1069.8 2.4632 510.00 0.0019608 786.32 1069.8 2.4632 2.6661 3.1104 1217.0 -0.0044114 112.88 0.13503 510.00 0.0019608 786.32 1069.8 2.4632 2.6661 3.1104 1217.0 -0.0044114 112.88 0.13503
271.38 21043. undefined 788.99 1073.5 2.4681 510.00 0.0019608 788.99 1073.5 2.4681 2.6697 3.1133 1218.1 -0.0044105 112.90 0.13521 510.00 0.0019608 788.99 1073.5 2.4681 2.6697 3.1133 1218.1 -0.0044105 112.90 0.13521
272.38 21119. undefined 791.66 1077.2 2.4730 510.00 0.0019608 791.66 1077.2 2.4730 2.6733 3.1162 1219.2 -0.0044096 112.91 0.13539 510.00 0.0019608 791.66 1077.2 2.4730 2.6733 3.1162 1219.2 -0.0044096 112.91 0.13539
273.38 21194. undefined 794.34 1080.9 2.4779 510.00 0.0019608 794.34 1080.9 2.4779 2.6769 3.1192 1220.3 -0.0044086 112.93 0.13557 510.00 0.0019608 794.34 1080.9 2.4779 2.6769 3.1192 1220.3 -0.0044086 112.93 0.13557
274.38 21269. undefined 797.02 1084.6 2.4828 510.00 0.0019608 797.02 1084.6 2.4828 2.6804 3.1221 1221.4 -0.0044077 112.95 0.13574 510.00 0.0019608 797.02 1084.6 2.4828 2.6804 3.1221 1221.4 -0.0044077 112.95 0.13574
275.38 21344. undefined 799.70 1088.3 2.4877 510.00 0.0019608 799.70 1088.3 2.4877 2.6840 3.1250 1222.5 -0.0044067 112.96 0.13592 510.00 0.0019608 799.70 1088.3 2.4877 2.6840 3.1250 1222.5 -0.0044067 112.96 0.13592
276.38 21419. undefined 802.38 1092.0 2.4926 510.00 0.0019608 802.38 1092.0 2.4926 2.6876 3.1279 1223.6 -0.0044057 112.98 0.13610 510.00 0.0019608 802.38 1092.0 2.4926 2.6876 3.1279 1223.6 -0.0044057 112.98 0.13610
277.38 21494. undefined 805.07 1095.7 2.4975 510.00 0.0019608 805.07 1095.7 2.4975 2.6911 3.1308 1224.7 -0.0044047 113.00 0.13628 510.00 0.0019608 805.07 1095.7 2.4975 2.6911 3.1308 1224.7 -0.0044047 113.00 0.13628
278.38 21569. undefined 807.77 1099.4 2.5024 510.00 0.0019608 807.77 1099.4 2.5024 2.6947 3.1338 1225.8 -0.0044037 113.01 0.13646 510.00 0.0019608 807.77 1099.4 2.5024 2.6947 3.1338 1225.8 -0.0044037 113.01 0.13646
279.38 21644. undefined 810.46 1103.1 2.5073 510.00 0.0019608 810.46 1103.1 2.5073 2.6983 3.1367 1226.9 -0.0044027 113.03 0.13664 510.00 0.0019608 810.46 1103.1 2.5073 2.6983 3.1367 1226.9 -0.0044027 113.03 0.13664
280.38 21719. undefined 813.16 1106.8 2.5122 510.00 0.0019608 813.16 1106.8 2.5122 2.7018 3.1396 1228.0 -0.0044017 113.05 0.13682 510.00 0.0019608 813.16 1106.8 2.5122 2.7018 3.1396 1228.0 -0.0044017 113.05 0.13682
281.38 21794. undefined 815.87 1110.5 2.5170 510.00 0.0019608 815.87 1110.5 2.5170 2.7054 3.1425 1229.1 -0.0044006 113.06 0.13700 510.00 0.0019608 815.87 1110.5 2.5170 2.7054 3.1425 1229.1 -0.0044006 113.06 0.13700
282.38 21869. undefined 818.57 1114.2 2.5219 510.00 0.0019608 818.57 1114.2 2.5219 2.7089 3.1454 1230.2 -0.0043996 113.08 0.13688 510.00 0.0019608 818.57 1114.2 2.5219 2.7089 3.1454 1230.2 -0.0043996 113.08 0.13688
283.38 21944. undefined 821.29 1117.9 2.5268 510.00 0.0019608 821.29 1117.9 2.5268 2.7124 3.1483 1231.3 -0.0043985 113.10 0.13706 510.00 0.0019608 821.29 1117.9 2.5268 2.7124 3.1483 1231.3 -0.0043985 113.10 0.13706
284.38 22019. undefined 824.00 1121.7 2.5317 510.00 0.0019608 824.00 1121.7 2.5317 2.7160 3.1512 1232.4 -0.0043974 113.11 0.13724 510.00 0.0019608 824.00 1121.7 2.5317 2.7160 3.1512 1232.4 -0.0043974 113.11 0.13724
285.38 22094. undefined 826.72 1125.4 2.5365 510.00 0.0019608 826.72 1125.4 2.5365 2.7195 3.1541 1233.5 -0.0043964 113.13 0.13742 510.00 0.0019608 826.72 1125.4 2.5365 2.7195 3.1541 1233.5 -0.0043964 113.13 0.13742
286.38 22168. undefined 829.44 1129.1 2.5414 510.00 0.0019608 829.44 1129.1 2.5414 2.7230 3.1570 1234.6 -0.0043953 113.14 0.13760 510.00 0.0019608 829.44 1129.1 2.5414 2.7230 3.1570 1234.6 -0.0043953 113.14 0.13760
287.38 22243. undefined 832.16 1132.9 2.5463 510.00 0.0019608 832.16 1132.9 2.5463 2.7265 3.1599 1235.7 -0.0043941 113.16 0.13778 510.00 0.0019608 832.16 1132.9 2.5463 2.7265 3.1599 1235.7 -0.0043941 113.16 0.13778
288.38 22318. undefined 834.89 1136.6 2.5511 510.00 0.0019608 834.89 1136.6 2.5511 2.7300 3.1628 1236.8 -0.0043930 113.18 0.13796 510.00 0.0019608 834.89 1136.6 2.5511 2.7300 3.1628 1236.8 -0.0043930 113.18 0.13796
289.38 22392. undefined 837.62 1140.3 2.5560 510.00 0.0019608 837.62 1140.3 2.5560 2.7335 3.1657 1237.8 -0.0043919 113.19 0.13814 510.00 0.0019608 837.62 1140.3 2.5560 2.7335 3.1657 1237.8 -0.0043919 113.19 0.13814
290.38 22467. undefined 840.36 1144.1 2.5608 510.00 0.0019608 840.36 1144.1 2.5608 2.7370 3.1686 1238.9 -0.0043908 113.21 0.13833 510.00 0.0019608 840.36 1144.1 2.5608 2.7370 3.1686 1238.9 -0.0043908 113.21 0.13833
291.38 22541. undefined 843.10 1147.8 2.5657 510.00 0.0019608 843.10 1147.8 2.5657 2.7405 3.1715 1240.0 -0.0043896 113.23 0.13851 510.00 0.0019608 843.10 1147.8 2.5657 2.7405 3.1715 1240.0 -0.0043896 113.23 0.13851
292.38 22616. undefined 845.84 1151.6 2.5706 510.00 0.0019608 845.84 1151.6 2.5706 2.7440 3.1744 1241.1 -0.0043885 113.24 0.13869 510.00 0.0019608 845.84 1151.6 2.5706 2.7440 3.1744 1241.1 -0.0043885 113.24 0.13869
293.38 22690. undefined 848.58 1155.3 2.5754 510.00 0.0019608 848.58 1155.3 2.5754 2.7475 3.1772 1242.2 -0.0043873 113.26 0.13887 510.00 0.0019608 848.58 1155.3 2.5754 2.7475 3.1772 1242.2 -0.0043873 113.26 0.13887
294.38 22765. undefined 851.33 1159.1 2.5803 510.00 0.0019608 851.33 1159.1 2.5803 2.7510 3.1801 1243.2 -0.0043861 113.28 0.13906 510.00 0.0019608 851.33 1159.1 2.5803 2.7510 3.1801 1243.2 -0.0043861 113.28 0.13906
295.38 22839. undefined 854.09 1162.8 2.5851 510.00 0.0019608 854.09 1162.8 2.5851 2.7544 3.1830 1244.3 -0.0043849 113.29 0.13924 510.00 0.0019608 854.09 1162.8 2.5851 2.7544 3.1830 1244.3 -0.0043849 113.29 0.13924
296.38 22913. undefined 856.84 1166.6 2.5899 510.00 0.0019608 856.84 1166.6 2.5899 2.7579 3.1859 1245.4 -0.0043837 113.31 0.13943 510.00 0.0019608 856.84 1166.6 2.5899 2.7579 3.1859 1245.4 -0.0043837 113.31 0.13943
297.38 22988. undefined 859.60 1170.4 2.5948 510.00 0.0019608 859.60 1170.4 2.5948 2.7614 3.1888 1246.4 -0.0043825 113.33 0.13961 510.00 0.0019608 859.60 1170.4 2.5948 2.7614 3.1888 1246.4 -0.0043825 113.33 0.13961
298.38 23062. undefined 862.37 1174.1 2.5996 510.00 0.0019608 862.37 1174.1 2.5996 2.7648 3.1916 1247.5 -0.0043813 113.34 0.13979 510.00 0.0019608 862.37 1174.1 2.5996 2.7648 3.1916 1247.5 -0.0043813 113.34 0.13979
299.38 23136. undefined 865.13 1177.9 2.6045 510.00 0.0019608 865.13 1177.9 2.6045 2.7683 3.1945 1248.6 -0.0043801 113.36 0.13998 510.00 0.0019608 865.13 1177.9 2.6045 2.7683 3.1945 1248.6 -0.0043801 113.36 0.13998
300.38 23210. undefined 867.90 1181.7 2.6093 510.00 0.0019608 867.90 1181.7 2.6093 2.7717 3.1974 1249.6 -0.0043788 113.38 0.14016 510.00 0.0019608 867.90 1181.7 2.6093 2.7717 3.1974 1249.6 -0.0043788 113.38 0.14016