Temperature (C) Pressure (psia) Quality (l+v) Internal Energy (l+v, kJ/kg) Enthalpy (l+v, kJ/kg) Entropy (l+v, J/g*K) Density (l, kg/m3) Volume (l, m3/kg) Internal Energy (l, kJ/kg) Enthalpy (l, kJ/kg) Entropy (l, J/g*K) Cv (l, J/g*K) Cp (l, J/g*K) Sound Spd. (l, m/s) Joule-Thomson (l, F/psia) Viscosity (l, uPa*s) Therm. Cond. (l, W/m*K) Density (v, kg/m3) Volume (v, m3/kg) Internal Energy (v, kJ/kg) Enthalpy (v, kJ/kg) Entropy (v, J/g*K) Cv (v, J/g*K) Cp (v, J/g*K) Sound Spd. (v, m/s) Joule-Thomson (v, F/psia) Viscosity (v, uPa*s) Therm. Cond. (v, W/m*K)
-187.62 2.4953e-08 6.1636e-12 -196.64 -196.64 -1.3959 733.13 0.0013640 -196.64 -196.64 -1.3959 1.3553 1.9158 2136.4 -0.0077592 10960. 0.20792 1.0669e-08 9.3732e+07 350.13 366.26 5.1858 0.69067 0.87923 143.28 6.1051 2.3259 0.0017061
-186.62 3.7339e-08 9.0858e-12 -194.73 -194.73 -1.3736 732.08 0.0013660 -194.73 -194.73 -1.3736 1.3539 1.9166 2129.6 -0.0077546 10073. 0.20765 1.5780e-08 6.3371e+07 350.82 367.14 5.1200 0.69462 0.88317 144.03 5.9178 2.3534 0.0017533
-185.62 5.5322e-08 1.3263e-11 -192.81 -192.81 -1.3516 731.04 0.0013679 -192.81 -192.81 -1.3516 1.3525 1.9174 2122.9 -0.0077498 9276.1 0.20737 2.3112e-08 4.3267e+07 351.52 368.02 5.0561 0.69857 0.88713 144.77 5.7383 2.3808 0.0018007
-184.62 8.1182e-08 1.9177e-11 -190.89 -190.89 -1.3298 730.00 0.0013699 -190.89 -190.89 -1.3298 1.3513 1.9182 2116.1 -0.0077448 8557.8 0.20708 3.3533e-08 2.9821e+07 352.22 368.91 4.9939 0.70253 0.89108 145.51 5.5662 2.4083 0.0018485
-183.62 1.1803e-07 2.7477e-11 -188.97 -188.97 -1.3083 728.96 0.0013718 -188.97 -188.97 -1.3083 1.3501 1.9191 2109.3 -0.0077395 7909.8 0.20678 4.8211e-08 2.0742e+07 352.92 369.81 4.9333 0.70648 0.89504 146.24 5.4011 2.4357 0.0018965
-182.62 1.7009e-07 3.9022e-11 -187.05 -187.05 -1.2869 727.92 0.0013738 -187.05 -187.05 -1.2869 1.3490 1.9201 2102.5 -0.0077340 7324.3 0.20647 6.8704e-08 1.4555e+07 353.63 370.70 4.8744 0.71043 0.89899 146.97 5.2426 2.4632 0.0019448
-181.62 2.4299e-07 5.4948e-11 -185.13 -185.13 -1.2658 726.88 0.0013757 -185.13 -185.13 -1.2658 1.3480 1.9210 2095.7 -0.0077283 6794.5 0.20616 9.7079e-08 1.0301e+07 354.35 371.60 4.8170 0.71438 0.90294 147.69 5.0904 2.4906 0.0019934
-180.62 3.4425e-07 7.6738e-11 -183.21 -183.21 -1.2450 725.85 0.0013777 -183.21 -183.21 -1.2450 1.3470 1.9220 2088.9 -0.0077225 6314.4 0.20584 1.3605e-07 7.3504e+06 355.06 372.51 4.7612 0.71833 0.90688 148.41 4.9442 2.5181 0.0020423
-179.62 4.8378e-07 1.0632e-10 -181.29 -181.29 -1.2243 724.81 0.0013797 -181.29 -181.29 -1.2243 1.3461 1.9231 2082.0 -0.0077164 5878.8 0.20551 1.8915e-07 5.2868e+06 355.78 373.42 4.7068 0.72227 0.91082 149.13 4.8038 2.5456 0.0020915
-178.62 6.7459e-07 1.4617e-10 -179.37 -179.37 -1.2038 723.78 0.0013816 -179.37 -179.37 -1.2038 1.3453 1.9241 2075.2 -0.0077102 5482.9 0.20517 2.6096e-07 3.8320e+06 356.51 374.33 4.6538 0.72620 0.91475 149.84 4.6688 2.5731 0.0021410
-177.62 9.3358e-07 1.9946e-10 -177.44 -177.44 -1.1836 722.75 0.0013836 -177.44 -177.44 -1.1836 1.3445 1.9252 2068.4 -0.0077039 5122.6 0.20483 3.5737e-07 2.7982e+06 357.23 375.25 4.6022 0.73012 0.91867 150.54 4.5390 2.6005 0.0021907
-176.62 1.2826e-06 2.7023e-10 -175.52 -175.52 -1.1635 721.72 0.0013856 -175.52 -175.52 -1.1635 1.3437 1.9263 2061.5 -0.0076973 4794.1 0.20447 4.8588e-07 2.0581e+06 357.97 376.17 4.5519 0.73403 0.92258 151.25 4.4142 2.6280 0.0022408
-175.62 1.7496e-06 3.6356e-10 -173.59 -173.59 -1.1437 720.69 0.0013876 -173.59 -173.59 -1.1437 1.3430 1.9274 2054.7 -0.0076907 4494.3 0.20411 6.5601e-07 1.5244e+06 358.70 377.09 4.5029 0.73792 0.92648 151.95 4.2941 2.6555 0.0022912
-174.62 2.3705e-06 4.8581e-10 -171.66 -171.66 -1.1240 719.66 0.0013895 -171.66 -171.66 -1.1240 1.3423 1.9286 2047.9 -0.0076838 4220.2 0.20375 8.7976e-07 1.1367e+06 359.44 378.02 4.4551 0.74181 0.93036 152.64 4.1784 2.6830 0.0023418
-173.62 3.1903e-06 6.4493e-10 -169.73 -169.73 -1.1045 718.64 0.0013915 -169.73 -169.73 -1.1045 1.3417 1.9298 2041.0 -0.0076769 3969.3 0.20338 1.1721e-06 8.5314e+05 360.19 378.95 4.4085 0.74568 0.93423 153.33 4.0671 2.7105 0.0023928
-172.62 4.2661e-06 8.5075e-10 -167.80 -167.80 -1.0852 717.61 0.0013935 -167.80 -167.80 -1.0852 1.3411 1.9310 2034.2 -0.0076698 3739.3 0.20300 1.5518e-06 6.4441e+05 360.93 379.89 4.3631 0.74953 0.93809 154.02 3.9599 2.7379 0.0024440
-171.62 5.6692e-06 1.1154e-09 -165.87 -165.87 -1.0661 716.58 0.0013955 -165.87 -165.87 -1.0661 1.3405 1.9322 2027.3 -0.0076625 3528.0 0.20261 2.0419e-06 4.8974e+05 361.69 380.83 4.3188 0.75337 0.94193 154.71 3.8566 2.7654 0.0024955
-170.62 7.4884e-06 1.4536e-09 -163.94 -163.94 -1.0472 715.56 0.0013975 -163.94 -163.94 -1.0472 1.3400 1.9334 2020.5 -0.0076552 3333.8 0.20222 2.6708e-06 3.7442e+05 362.44 381.77 4.2755 0.75720 0.94575 155.39 3.7570 2.7929 0.0025473
-169.62 9.8334e-06 1.8834e-09 -162.00 -162.00 -1.0284 714.54 0.0013995 -162.00 -162.00 -1.0284 1.3395 1.9347 2013.6 -0.0076477 3154.9 0.20182 3.4733e-06 2.8791e+05 363.20 382.72 4.2334 0.76100 0.94956 156.07 3.6609 2.8204 0.0025994
-168.62 1.2839e-05 2.4266e-09 -160.07 -160.07 -1.0098 713.52 0.0014015 -160.07 -160.07 -1.0098 1.3390 1.9359 2006.8 -0.0076401 2989.9 0.20141 4.4917e-06 2.2263e+05 363.96 383.67 4.1922 0.76479 0.95335 156.74 3.5683 2.8479 0.0026518
-167.62 1.6672e-05 3.1094e-09 -158.13 -158.13 -0.99134 712.49 0.0014035 -158.13 -158.13 -0.99134 1.3386 1.9372 2000.0 -0.0076323 2837.5 0.20100 5.7771e-06 1.7310e+05 364.73 384.63 4.1521 0.76856 0.95712 157.41 3.4790 2.8754 0.0027045
-166.62 2.1533e-05 3.9634e-09 -156.19 -156.19 -0.97306 711.47 0.0014055 -156.19 -156.19 -0.97306 1.3382 1.9385 1993.1 -0.0076245 2696.5 0.20058 7.3914e-06 1.3529e+05 365.50 385.59 4.1129 0.77232 0.96087 158.08 3.3927 2.9029 0.0027575
-165.62 2.7666e-05 5.0260e-09 -154.25 -154.25 -0.95494 710.45 0.0014075 -154.25 -154.25 -0.95494 1.3378 1.9398 1986.3 -0.0076165 2566.0 0.20016 9.4084e-06 1.0629e+05 366.27 386.55 4.0746 0.77605 0.96460 158.75 3.3095 2.9304 0.0028108
-164.62 3.5367e-05 6.3416e-09 -152.31 -152.31 -0.93698 709.44 0.0014096 -152.31 -152.31 -0.93698 1.3375 1.9411 1979.4 -0.0076084 2444.9 0.19973 1.1916e-05 83918. 367.05 387.52 4.0372 0.77976 0.96832 159.41 3.2291 2.9579 0.0028643
-163.62 4.4989e-05 7.9629e-09 -150.37 -150.37 -0.91917 708.42 0.0014116 -150.37 -150.37 -0.91917 1.3371 1.9424 1972.6 -0.0076002 2332.3 0.19930 1.5020e-05 66577. 367.83 388.49 4.0008 0.78346 0.97201 160.07 3.1514 2.9854 0.0029182
-162.62 5.6956e-05 9.9517e-09 -148.43 -148.43 -0.90151 707.40 0.0014136 -148.43 -148.43 -0.90151 1.3368 1.9437 1965.8 -0.0075919 2227.7 0.19886 1.8844e-05 53068. 368.62 389.46 3.9651 0.78713 0.97569 160.72 3.0764 3.0129 0.0029723
-161.62 7.1773e-05 1.2380e-08 -146.48 -146.48 -0.88400 706.38 0.0014157 -146.48 -146.48 -0.88400 1.3365 1.9451 1959.0 -0.0075834 2130.2 0.19841 2.3533e-05 42494. 369.41 390.44 3.9304 0.79079 0.97935 161.38 3.0038 3.0404 0.0030268
-160.62 9.0036e-05 1.5333e-08 -144.54 -144.54 -0.86663 705.37 0.0014177 -144.54 -144.54 -0.86663 1.3363 1.9465 1952.1 -0.0075748 2039.2 0.19796 2.9258e-05 34178. 370.20 391.42 3.8964 0.79443 0.98298 162.03 2.9337 3.0679 0.0030815
-159.62 0.00011245 1.8907e-08 -142.59 -142.59 -0.84940 704.35 0.0014197 -142.59 -142.59 -0.84940 1.3360 1.9478 1945.3 -0.0075661 1954.2 0.19751 3.6221e-05 27609. 371.00 392.40 3.8632 0.79805 0.98660 162.68 2.8658 3.0955 0.0031365
-158.62 0.00013985 2.3217e-08 -140.64 -140.64 -0.83231 703.34 0.0014218 -140.64 -140.64 -0.83231 1.3358 1.9492 1938.5 -0.0075573 1874.8 0.19705 4.4652e-05 22395. 371.80 393.39 3.8307 0.80164 0.99020 163.32 2.8002 3.1230 0.0031918
-157.62 0.00017320 2.8392e-08 -138.69 -138.69 -0.81536 702.32 0.0014238 -138.69 -138.69 -0.81536 1.3356 1.9506 1931.7 -0.0075484 1800.3 0.19658 5.4822e-05 18241. 372.60 394.38 3.7990 0.80522 0.99378 163.96 2.7367 3.1505 0.0032474
-156.62 0.00021364 3.4583e-08 -136.74 -136.74 -0.79854 701.31 0.0014259 -136.74 -136.74 -0.79854 1.3354 1.9520 1924.9 -0.0075393 1730.5 0.19611 6.7040e-05 14916. 373.41 395.38 3.7680 0.80878 0.99734 164.60 2.6752 3.1780 0.0033033
-155.62 0.00026248 4.1959e-08 -134.79 -134.79 -0.78185 700.30 0.0014280 -134.79 -134.79 -0.78185 1.3352 1.9534 1918.1 -0.0075302 1664.9 0.19564 8.1666e-05 12245. 374.22 396.38 3.7377 0.81232 1.0009 165.24 2.6157 3.2055 0.0033595
-154.62 0.00032125 5.0716e-08 -132.83 -132.83 -0.76530 699.29 0.0014300 -132.83 -132.83 -0.76530 1.3350 1.9548 1911.3 -0.0075209 1603.3 0.19516 9.9109e-05 10090. 375.03 397.38 3.7081 0.81585 1.0044 165.87 2.5580 3.2330 0.0034160
-153.62 0.00039171 6.1075e-08 -130.88 -130.88 -0.74887 698.27 0.0014321 -130.88 -130.88 -0.74887 1.3349 1.9563 1904.5 -0.0075114 1545.3 0.19468 0.00011984 8344.6 375.85 398.39 3.6792 0.81935 1.0079 166.50 2.5022 3.2606 0.0034727
-152.62 0.00047590 7.3285e-08 -128.92 -128.92 -0.73256 697.26 0.0014342 -128.92 -128.92 -0.73256 1.3348 1.9577 1897.8 -0.0075019 1490.6 0.19419 0.00014439 6925.9 376.67 399.40 3.6509 0.82284 1.0114 167.13 2.4481 3.2881 0.0035298
-151.62 0.00057613 8.7629e-08 -126.96 -126.96 -0.71638 696.25 0.0014363 -126.96 -126.96 -0.71638 1.3346 1.9592 1891.0 -0.0074922 1438.9 0.19370 0.00017336 5768.4 377.49 400.41 3.6232 0.82631 1.0149 167.76 2.3957 3.3156 0.0035872
-150.62 0.00069507 1.0442e-07 -125.00 -125.00 -0.70032 695.24 0.0014384 -125.00 -125.00 -0.70032 1.3345 1.9606 1884.2 -0.0074824 1390.2 0.19320 0.00020744 4820.7 378.32 401.42 3.5962 0.82976 1.0183 168.38 2.3448 3.3431 0.0036448
-149.62 0.00083574 1.2402e-07 -123.04 -123.04 -0.68438 694.23 0.0014404 -123.04 -123.04 -0.68438 1.3345 1.9621 1877.4 -0.0074724 1344.0 0.19270 0.00024740 4042.0 379.15 402.44 3.5697 0.83319 1.0218 169.00 2.2956 3.3706 0.0037027
-148.62 0.0010016 1.4682e-07 -121.08 -121.08 -0.66855 693.22 0.0014425 -121.08 -121.08 -0.66855 1.3344 1.9636 1870.7 -0.0074623 1300.3 0.19220 0.00029412 3400.0 379.99 403.47 3.5438 0.83661 1.0252 169.62 2.2478 3.3982 0.0037610
-147.62 0.0011965 1.7327e-07 -119.11 -119.11 -0.65284 692.21 0.0014447 -119.11 -119.11 -0.65284 1.3343 1.9651 1863.9 -0.0074521 1258.9 0.19169 0.00034856 2869.0 380.83 404.49 3.5185 0.84001 1.0286 170.24 2.2014 3.4257 0.0038195
-146.62 0.0014249 2.0384e-07 -117.15 -117.15 -0.63724 691.20 0.0014468 -117.15 -117.15 -0.63724 1.3343 1.9666 1857.2 -0.0074417 1219.6 0.19117 0.00041181 2428.3 381.67 405.52 3.4938 0.84340 1.0320 170.85 2.1565 3.4532 0.0038783
-145.62 0.0016917 2.3909e-07 -115.18 -115.18 -0.62175 690.19 0.0014489 -115.18 -115.18 -0.62175 1.3343 1.9682 1850.4 -0.0074312 1182.3 0.19066 0.00048510 2061.4 382.51 406.56 3.4695 0.84677 1.0353 171.46 2.1128 3.4807 0.0039374
-144.62 0.0020026 2.7961e-07 -113.21 -113.21 -0.60637 689.18 0.0014510 -113.21 -113.21 -0.60637 1.3343 1.9697 1843.7 -0.0074206 1146.8 0.19014 0.00056976 1755.1 383.36 407.59 3.4458 0.85012 1.0387 172.07 2.0705 3.5082 0.0039967
-143.62 0.0023637 3.2605e-07 -111.24 -111.24 -0.59110 688.17 0.0014531 -111.24 -111.24 -0.59110 1.3343 1.9713 1836.9 -0.0074098 1113.0 0.18962 0.00066731 1498.6 384.21 408.63 3.4226 0.85346 1.0420 172.68 2.0294 3.5358 0.0040564
-142.62 0.0027820 3.7916e-07 -109.27 -109.27 -0.57593 687.16 0.0014553 -109.27 -109.27 -0.57593 1.3343 1.9728 1830.2 -0.0073988 1080.8 0.18909 0.00077939 1283.1 385.07 409.68 3.3999 0.85679 1.0454 173.28 1.9896 3.5633 0.0041164
-141.62 0.0032653 4.3970e-07 -107.30 -107.30 -0.56087 686.15 0.0014574 -107.30 -107.30 -0.56087 1.3343 1.9744 1823.5 -0.0073878 1050.1 0.18856 0.00090784 1101.5 385.93 410.72 3.3777 0.86011 1.0487 173.88 1.9508 3.5908 0.0041766
-140.62 0.0038222 5.0855e-07 -105.32 -105.32 -0.54591 685.14 0.0014596 -105.32 -105.32 -0.54591 1.3344 1.9760 1816.7 -0.0073765 1020.7 0.18803 0.0010547 948.16 386.79 411.77 3.3560 0.86341 1.0520 174.48 1.9133 3.6183 0.0042372
-139.62 0.0044623 5.8665e-07 -103.34 -103.34 -0.53105 684.13 0.0014617 -103.34 -103.34 -0.53105 1.3344 1.9776 1810.0 -0.0073651 992.74 0.18749 0.0012221 818.26 387.65 412.83 3.3347 0.86670 1.0553 175.08 1.8768 3.6459 0.0042980
-138.62 0.0051963 6.7502e-07 -101.37 -101.37 -0.51628 683.12 0.0014639 -101.37 -101.37 -0.51629 1.3345 1.9792 1803.3 -0.0073536 965.97 0.18695 0.0014125 707.94 388.52 413.88 3.3139 0.86998 1.0586 175.67 1.8413 3.6734 0.0043592
-137.62 0.0060358 7.7476e-07 -99.386 -99.386 -0.50162 682.11 0.0014660 -99.386 -99.386 -0.50162 1.3346 1.9808 1796.6 -0.0073419 940.35 0.18641 0.0016287 614.00 389.39 414.94 3.2935 0.87325 1.0619 176.26 1.8069 3.7009 0.0044206
-136.62 0.0069938 8.8709e-07 -97.404 -97.404 -0.48705 681.10 0.0014682 -97.404 -97.404 -0.48705 1.3347 1.9825 1789.9 -0.0073301 915.81 0.18586 0.0018733 533.80 390.26 416.00 3.2735 0.87650 1.0651 176.85 1.7734 3.7284 0.0044823
-135.62 0.0080843 1.0133e-06 -95.421 -95.421 -0.47258 680.09 0.0014704 -95.421 -95.421 -0.47258 1.3348 1.9841 1783.2 -0.0073180 892.30 0.18531 0.0021497 465.17 391.14 417.07 3.2540 0.87975 1.0684 177.44 1.7409 3.7559 0.0045443
-134.62 0.0093230 1.1547e-06 -93.436 -93.435 -0.45819 679.08 0.0014726 -93.436 -93.436 -0.45820 1.3350 1.9858 1776.5 -0.0073059 869.75 0.18476 0.0024613 406.30 392.02 418.14 3.2348 0.88299 1.0716 178.02 1.7093 3.7834 0.0046066
-133.62 0.010727 1.3129e-06 -91.449 -91.449 -0.44390 678.07 0.0014748 -91.450 -91.449 -0.44391 1.3351 1.9875 1769.8 -0.0072935 848.11 0.18421 0.0028116 355.67 392.91 419.21 3.2161 0.88622 1.0749 178.61 1.6786 3.8109 0.0046691
-132.62 0.012315 1.4895e-06 -89.460 -89.460 -0.42970 677.06 0.0014770 -89.461 -89.461 -0.42971 1.3353 1.9892 1763.1 -0.0072810 827.32 0.18365 0.0032049 312.03 393.79 420.29 3.1977 0.88944 1.0781 179.19 1.6488 3.8385 0.0047320
-131.62 0.014106 1.6861e-06 -87.470 -87.470 -0.41559 676.04 0.0014792 -87.471 -87.471 -0.41560 1.3354 1.9909 1756.4 -0.0072684 807.34 0.18309 0.0036453 274.33 394.68 421.36 3.1798 0.89266 1.0813 179.76 1.6197 3.8660 0.0047951
-130.62 0.016124 1.9047e-06 -85.478 -85.478 -0.40157 675.03 0.0014814 -85.479 -85.479 -0.40157 1.3356 1.9926 1749.7 -0.0072555 788.12 0.18253 0.0041375 241.69 395.58 422.44 3.1622 0.89586 1.0846 180.34 1.5915 3.8935 0.0048586
-129.62 0.018392 2.1470e-06 -83.485 -83.485 -0.38763 674.02 0.0014836 -83.486 -83.486 -0.38763 1.3358 1.9944 1743.0 -0.0072425 769.63 0.18196 0.0046867 213.37 396.47 423.53 3.1450 0.89906 1.0878 180.91 1.5641 3.9210 0.0049223
-128.62 0.020935 2.4153e-06 -81.489 -81.489 -0.37377 673.01 0.0014859 -81.491 -81.490 -0.37378 1.3360 1.9961 1736.3 -0.0072294 751.83 0.18140 0.0052981 188.75 397.37 424.62 3.1281 0.90226 1.0910 181.48 1.5374 3.9485 0.0049863
-127.62 0.023783 2.7117e-06 -79.492 -79.492 -0.36000 672.00 0.0014881 -79.494 -79.493 -0.36001 1.3363 1.9979 1729.6 -0.0072160 734.67 0.18083 0.0059776 167.29 398.27 425.71 3.1116 0.90545 1.0942 182.05 1.5114 3.9760 0.0050506
-126.62 0.026966 3.0385e-06 -77.493 -77.493 -0.34631 670.98 0.0014904 -77.495 -77.495 -0.34632 1.3365 1.9997 1722.9 -0.0072025 718.14 0.18025 0.0067313 148.56 399.18 426.80 3.0954 0.90863 1.0974 182.62 1.4861 4.0035 0.0051152
-125.62 0.030515 3.3982e-06 -75.493 -75.492 -0.33270 669.97 0.0014926 -75.494 -75.494 -0.33272 1.3368 2.0015 1716.2 -0.0071888 702.18 0.17968 0.0075660 132.17 400.09 427.89 3.0795 0.91181 1.1006 183.18 1.4615 4.0310 0.0051800
-124.62 0.034467 3.7934e-06 -73.490 -73.490 -0.31918 668.95 0.0014949 -73.492 -73.492 -0.31919 1.3371 2.0033 1709.5 -0.0071749 686.79 0.17910 0.0084885 117.81 401.00 428.99 3.0640 0.91499 1.1038 183.74 1.4375 4.0584 0.0052452
-123.62 0.038859 4.2267e-06 -71.486 -71.485 -0.30573 667.94 0.0014971 -71.488 -71.487 -0.30574 1.3374 2.0051 1702.8 -0.0071609 671.93 0.17852 0.0095065 105.19 401.91 430.10 3.0488 0.91816 1.1070 184.30 1.4141 4.0859 0.0053106
-122.62 0.043731 4.7011e-06 -69.479 -69.479 -0.29235 666.92 0.0014994 -69.482 -69.481 -0.29237 1.3377 2.0070 1696.2 -0.0071466 657.57 0.17794 0.010628 94.092 402.83 431.20 3.0339 0.92134 1.1102 184.86 1.3913 4.1134 0.0053764
-121.62 0.049128 5.2195e-06 -67.471 -67.471 -0.27906 665.91 0.0015017 -67.474 -67.473 -0.27907 1.3380 2.0089 1689.5 -0.0071322 643.70 0.17736 0.011861 84.309 403.75 432.31 3.0193 0.92451 1.1134 185.41 1.3691 4.1409 0.0054424
-120.62 0.055096 5.7851e-06 -65.461 -65.460 -0.26583 664.89 0.0015040 -65.464 -65.463 -0.26585 1.3384 2.0107 1682.8 -0.0071176 630.28 0.17678 0.013215 75.669 404.67 433.42 3.0050 0.92767 1.1166 185.96 1.3475 4.1683 0.0055087
-119.62 0.061684 6.4011e-06 -63.449 -63.448 -0.25269 663.87 0.0015063 -63.452 -63.452 -0.25271 1.3387 2.0126 1676.1 -0.0071028 617.30 0.17619 0.014700 68.027 405.60 434.53 2.9909 0.93084 1.1198 186.51 1.3264 4.1958 0.0055752
-118.62 0.068946 7.0710e-06 -61.435 -61.434 -0.23961 662.86 0.0015086 -61.439 -61.438 -0.23963 1.3391 2.0146 1669.4 -0.0070878 604.74 0.17560 0.016325 61.255 406.53 435.64 2.9772 0.93401 1.1231 187.06 1.3058 4.2233 0.0056421
-117.62 0.076937 7.7983e-06 -59.420 -59.418 -0.22661 661.84 0.0015109 -59.423 -59.422 -0.22663 1.3395 2.0165 1662.8 -0.0070726 592.58 0.17501 0.018101 55.245 407.46 436.76 2.9638 0.93718 1.1263 187.60 1.2857 4.2507 0.0057092
-116.62 0.085718 8.5867e-06 -57.402 -57.401 -0.21367 660.82 0.0015133 -57.406 -57.405 -0.21370 1.3400 2.0184 1656.1 -0.0070573 580.80 0.17442 0.020040 49.901 408.39 437.88 2.9506 0.94035 1.1295 188.14 1.2660 4.2782 0.0057767
-115.62 0.095353 9.4401e-06 -55.382 -55.381 -0.20081 659.80 0.0015156 -55.386 -55.385 -0.20084 1.3404 2.0204 1649.4 -0.0070417 569.38 0.17383 0.022152 45.142 409.33 439.01 2.9377 0.94352 1.1327 188.68 1.2468 4.3056 0.0058444
-114.62 0.10591 1.0362e-05 -53.360 -53.359 -0.18802 658.78 0.0015180 -53.365 -53.364 -0.18805 1.3409 2.0224 1642.7 -0.0070260 558.32 0.17323 0.024451 40.898 410.27 440.13 2.9250 0.94669 1.1360 189.22 1.2281 4.3330 0.0059123
-113.62 0.11746 1.1358e-05 -51.336 -51.335 -0.17529 657.76 0.0015203 -51.342 -51.340 -0.17533 1.3413 2.0244 1636.0 -0.0070100 547.59 0.17264 0.026949 37.107 411.21 441.26 2.9126 0.94987 1.1392 189.75 1.2097 4.3604 0.0059806
-112.62 0.13008 1.2430e-05 -49.310 -49.309 -0.16263 656.73 0.0015227 -49.316 -49.315 -0.16267 1.3418 2.0264 1629.3 -0.0069938 537.18 0.17204 0.029661 33.715 412.16 442.39 2.9005 0.95305 1.1424 190.28 1.1918 4.3879 0.0060491
-111.62 0.14384 1.3584e-05 -47.282 -47.281 -0.15004 655.71 0.0015251 -47.289 -47.287 -0.15008 1.3424 2.0285 1622.7 -0.0069774 527.08 0.17144 0.032600 30.675 413.10 443.53 2.8885 0.95623 1.1457 190.81 1.1742 4.4153 0.0061180
-110.62 0.15884 1.4825e-05 -45.252 -45.250 -0.13751 654.69 0.0015274 -45.259 -45.258 -0.13755 1.3429 2.0305 1616.0 -0.0069609 517.28 0.17084 0.035781 27.948 414.06 444.66 2.8769 0.95942 1.1490 191.34 1.1570 4.4427 0.0061871
-109.62 0.17516 1.6156e-05 -43.220 -43.218 -0.12504 653.66 0.0015298 -43.228 -43.226 -0.12509 1.3435 2.0326 1609.3 -0.0069441 507.76 0.17024 0.039220 25.497 415.01 445.80 2.8654 0.96261 1.1522 191.86 1.1402 4.4701 0.0062564
-108.62 0.19290 1.7582e-05 -41.186 -41.183 -0.11264 652.64 0.0015322 -41.194 -41.192 -0.11269 1.3441 2.0347 1602.6 -0.0069271 498.51 0.16964 0.042933 23.292 415.96 446.94 2.8542 0.96581 1.1555 192.38 1.1236 4.4974 0.0063261
-107.62 0.21215 1.9109e-05 -39.150 -39.147 -0.10030 651.61 0.0015347 -39.158 -39.156 -0.10036 1.3447 2.0369 1595.9 -0.0069098 489.52 0.16903 0.046937 21.305 416.92 448.09 2.8433 0.96901 1.1588 192.90 1.1075 4.5248 0.0063960
-106.62 0.23301 2.0741e-05 -37.111 -37.108 -0.088022 650.58 0.0015371 -37.120 -37.118 -0.088082 1.3453 2.0390 1589.2 -0.0068924 480.79 0.16843 0.051250 19.512 417.88 449.23 2.8325 0.97222 1.1621 193.41 1.0916 4.5522 0.0064662
-105.62 0.25561 2.2483e-05 -35.070 -35.067 -0.075803 649.55 0.0015395 -35.080 -35.078 -0.075868 1.3460 2.0412 1582.6 -0.0068747 472.30 0.16782 0.055891 17.892 418.85 450.38 2.8220 0.97544 1.1655 193.93 1.0760 4.5795 0.0065367
-104.62 0.28004 2.4340e-05 -33.027 -33.023 -0.063644 648.52 0.0015420 -33.038 -33.035 -0.063714 1.3467 2.0434 1575.9 -0.0068569 464.04 0.16721 0.060878 16.426 419.81 451.53 2.8116 0.97867 1.1688 194.44 1.0608 4.6069 0.0066074
-103.62 0.30643 2.6318e-05 -30.982 -30.978 -0.051544 647.49 0.0015444 -30.994 -30.991 -0.051619 1.3474 2.0456 1569.2 -0.0068387 456.00 0.16660 0.066231 15.099 420.78 452.68 2.8015 0.98191 1.1722 194.94 1.0458 4.6342 0.0066785
-102.62 0.33490 2.8422e-05 -28.934 -28.930 -0.039501 646.46 0.0015469 -28.947 -28.944 -0.039582 1.3481 2.0478 1562.5 -0.0068204 448.18 0.16600 0.071971 13.894 421.75 453.84 2.7916 0.98516 1.1755 195.44 1.0310 4.6615 0.0067498
-101.62 0.36558 3.0656e-05 -26.885 -26.880 -0.027516 645.43 0.0015494 -26.898 -26.894 -0.027602 1.3489 2.0501 1555.8 -0.0068018 440.57 0.16539 0.078120 12.801 422.73 454.99 2.7818 0.98841 1.1789 195.95 1.0166 4.6888 0.0068213
-100.62 0.39862 3.3028e-05 -24.832 -24.827 -0.015586 644.39 0.0015519 -24.847 -24.843 -0.015678 1.3497 2.0524 1549.1 -0.0067830 433.16 0.16478 0.084699 11.807 423.70 456.15 2.7723 0.99168 1.1823 196.44 1.0024 4.7161 0.0068932
-99.625 0.43414 3.5541e-05 -22.778 -22.772 -0.0037119 643.36 0.0015544 -22.794 -22.789 -0.0038103 1.3505 2.0547 1542.4 -0.0067639 425.95 0.16416 0.091731 10.901 424.68 457.31 2.7630 0.99496 1.1858 196.94 0.98838 4.7434 0.0069653
-98.625 0.47230 3.8202e-05 -20.721 -20.715 0.0081076 642.32 0.0015569 -20.738 -20.733 0.0080027 1.3514 2.0570 1535.7 -0.0067447 418.92 0.16355 0.099240 10.077 425.66 458.48 2.7538 0.99825 1.1892 197.43 0.97464 4.7707 0.0070377
-97.625 0.51325 4.1016e-05 -18.662 -18.655 0.019873 641.28 0.0015594 -18.680 -18.674 0.019762 1.3522 2.0594 1529.0 -0.0067251 412.07 0.16294 0.10725 9.3239 426.65 459.64 2.7448 1.0016 1.1927 197.92 0.96112 4.7979 0.0071103
-96.625 0.55714 4.3988e-05 -16.600 -16.593 0.031586 640.24 0.0015619 -16.620 -16.614 0.031467 1.3531 2.0618 1522.3 -0.0067053 405.39 0.16233 0.11579 8.6365 427.63 460.81 2.7360 1.0049 1.1962 198.40 0.94783 4.8251 0.0071832
-95.625 0.60416 4.7125e-05 -14.536 -14.528 0.043247 639.20 0.0015645 -14.557 -14.550 0.043120 1.3540 2.0642 1515.7 -0.0066853 398.88 0.16171 0.12488 8.0078 428.62 461.98 2.7274 1.0082 1.1997 198.88 0.93475 4.8524 0.0072564
-94.625 0.65446 5.0431e-05 -12.469 -12.460 0.054855 638.16 0.0015670 -12.491 -12.484 0.054721 1.3550 2.0667 1509.0 -0.0066650 392.53 0.16110 0.13455 7.4323 429.61 463.15 2.7189 1.0116 1.2032 199.36 0.92188 4.8796 0.0073299
-93.625 0.70822 5.3911e-05 -10.400 -10.390 0.066414 637.12 0.0015696 -10.424 -10.416 0.066271 1.3560 2.0691 1502.3 -0.0066444 386.34 0.16048 0.14482 6.9050 430.60 464.32 2.7107 1.0149 1.2068 199.83 0.90921 4.9068 0.0074036
-92.625 0.76564 5.7573e-05 -8.3282 -8.3179 0.077922 636.07 0.0015722 -8.3535 -8.3452 0.077771 1.3570 2.0716 1495.6 -0.0066236 380.31 0.15987 0.15573 6.4212 431.60 465.49 2.7025 1.0183 1.2104 200.30 0.89673 4.9340 0.0074776
-91.625 0.82689 6.1420e-05 -6.2539 -6.2428 0.089380 635.02 0.0015747 -6.2808 -6.2719 0.089220 1.3580 2.0742 1488.9 -0.0066025 374.41 0.15925 0.16731 5.9769 432.59 466.67 2.6946 1.0217 1.2140 200.77 0.88445 4.9611 0.0075518
-90.625 0.89218 6.5458e-05 -4.1770 -4.1650 0.10079 633.98 0.0015773 -4.2056 -4.1959 0.10062 1.3591 2.0767 1482.2 -0.0065811 368.66 0.15864 0.17958 5.5685 433.59 467.84 2.6868 1.0251 1.2177 201.24 0.87236 4.9883 0.0076263
-89.625 0.96172 6.9693e-05 -2.0974 -2.0846 0.11215 632.93 0.0015800 -2.1279 -2.1174 0.11197 1.3602 2.0793 1475.5 -0.0065595 363.05 0.15802 0.19258 5.1928 434.59 469.02 2.6791 1.0285 1.2213 201.70 0.86045 5.0154 0.0077011
-88.625 1.0357 7.4130e-05 -0.015222 -0.0013564 0.12347 631.88 0.0015826 -0.047516 -0.036215 0.12328 1.3613 2.0819 1468.8 -0.0065375 357.56 0.15740 0.20633 4.8466 435.59 470.20 2.6717 1.0320 1.2250 202.15 0.84873 5.0425 0.0077761
-87.625 1.1144 7.8773e-05 2.0697 2.0846 0.13474 630.83 0.0015852 2.0355 2.0476 0.13454 1.3625 2.0846 1462.1 -0.0065153 352.21 0.15679 0.22087 4.5276 436.60 471.39 2.6643 1.0354 1.2288 202.61 0.83718 5.0696 0.0078514
-86.625 1.1979 8.3628e-05 4.1573 4.1734 0.14596 629.77 0.0015879 4.1211 4.1342 0.14575 1.3637 2.0873 1455.4 -0.0064928 346.98 0.15617 0.23623 4.2331 437.61 472.57 2.6571 1.0389 1.2325 203.06 0.82580 5.0967 0.0079270
-85.625 1.2866 8.8699e-05 6.2477 6.2649 0.15714 628.72 0.0015905 6.2094 6.2235 0.15691 1.3649 2.0900 1448.8 -0.0064701 341.87 0.15555 0.25245 3.9612 438.61 473.75 2.6501 1.0424 1.2363 203.50 0.81460 5.1237 0.0080028
-84.625 1.3806 9.3991e-05 8.3409 8.3594 0.16827 627.66 0.0015932 8.3004 8.3155 0.16803 1.3661 2.0927 1442.1 -0.0064470 336.87 0.15494 0.26956 3.7097 439.63 474.94 2.6432 1.0460 1.2402 203.95 0.80356 5.1508 0.0080789
-83.625 1.4803 9.9509e-05 10.437 10.457 0.17936 626.60 0.0015959 10.394 10.410 0.17911 1.3674 2.0955 1435.4 -0.0064236 331.99 0.15432 0.28760 3.4771 440.64 476.13 2.6364 1.0495 1.2440 204.38 0.79269 5.1778 0.0081553
-82.625 1.5858 0.00010526 12.536 12.557 0.19040 625.54 0.0015986 12.491 12.508 0.19014 1.3687 2.0983 1428.7 -0.0063999 327.22 0.15370 0.30659 3.2616 441.65 477.31 2.6298 1.0531 1.2479 204.82 0.78199 5.2048 0.0082319
-81.625 1.6975 0.00011124 14.638 14.660 0.20140 624.48 0.0016013 14.590 14.609 0.20113 1.3700 2.1012 1422.0 -0.0063759 322.55 0.15309 0.32659 3.0619 442.67 478.50 2.6233 1.0567 1.2519 205.25 0.77144 5.2318 0.0083088
-80.625 1.8155 0.00011746 16.742 16.767 0.21236 623.42 0.0016041 16.692 16.712 0.21208 1.3714 2.1041 1415.4 -0.0063516 317.99 0.15247 0.34763 2.8766 443.69 479.70 2.6169 1.0603 1.2558 205.67 0.76106 5.2587 0.0083860
-79.625 1.9402 0.00012392 18.850 18.876 0.22328 622.36 0.0016068 18.797 18.819 0.22299 1.3728 2.1070 1408.7 -0.0063270 313.52 0.15186 0.36974 2.7046 444.71 480.89 2.6106 1.0639 1.2598 206.10 0.75083 5.2857 0.0084634
-78.625 2.0718 0.00013062 20.960 20.988 0.23416 621.29 0.0016096 20.905 20.928 0.23385 1.3742 2.1099 1402.0 -0.0063021 309.15 0.15124 0.39296 2.5448 445.73 482.08 2.6045 1.0676 1.2639 206.51 0.74076 5.3126 0.0085411
-77.625 2.2107 0.00013758 23.074 23.104 0.24500 620.22 0.0016123 23.016 23.040 0.24468 1.3757 2.1129 1395.3 -0.0062768 304.88 0.15062 0.41735 2.3961 446.75 483.27 2.5985 1.0712 1.2680 206.93 0.73084 5.3395 0.0086190
-76.625 2.3571 0.00014478 25.191 25.222 0.25580 619.15 0.0016151 25.130 25.156 0.25546 1.3772 2.1159 1388.7 -0.0062512 300.69 0.15001 0.44292 2.2577 447.78 484.47 2.5926 1.0749 1.2721 207.34 0.72107 5.3664 0.0086972
-75.625 2.5113 0.00015223 27.311 27.344 0.26656 618.08 0.0016179 27.247 27.275 0.26620 1.3787 2.1190 1382.0 -0.0062253 296.59 0.14939 0.46974 2.1288 448.81 485.67 2.5869 1.0787 1.2762 207.74 0.71146 5.3933 0.0087757
-74.625 2.6736 0.00015994 29.434 29.469 0.27728 617.01 0.0016207 29.366 29.396 0.27691 1.3802 2.1221 1375.4 -0.0061990 292.58 0.14878 0.49783 2.0087 449.83 486.86 2.5812 1.0824 1.2804 208.14 0.70200 5.4201 0.0088544
-73.625 2.8444 0.00016791 31.560 31.598 0.28796 615.93 0.0016236 31.489 31.521 0.28758 1.3818 2.1252 1368.7 -0.0061724 288.65 0.14816 0.52725 1.8966 450.86 488.06 2.5757 1.0862 1.2847 208.54 0.69268 5.4469 0.0089334
-72.625 3.0240 0.00017614 33.689 33.730 0.29861 614.85 0.0016264 33.615 33.649 0.29821 1.3834 2.1284 1362.0 -0.0061454 284.81 0.14755 0.55804 1.7920 451.90 489.26 2.5703 1.0900 1.2889 208.93 0.68351 5.4737 0.0090126
-71.625 3.2127 0.00018462 35.822 35.865 0.30921 613.78 0.0016293 35.745 35.781 0.30880 1.3851 2.1316 1355.4 -0.0061181 281.03 0.14694 0.59024 1.6942 452.93 490.46 2.5650 1.0938 1.2932 209.32 0.67448 5.5005 0.0090922
-70.625 3.4108 0.00019336 37.957 38.003 0.31979 612.69 0.0016321 37.877 37.915 0.31935 1.3867 2.1349 1348.7 -0.0060904 277.34 0.14632 0.62390 1.6028 453.96 491.66 2.5598 1.0976 1.2976 209.70 0.66560 5.5273 0.0091720
-69.625 3.6187 0.00020237 40.097 40.145 0.33032 611.61 0.0016350 40.013 40.053 0.32987 1.3884 2.1382 1342.1 -0.0060624 273.72 0.14571 0.65906 1.5173 455.00 492.86 2.5547 1.1015 1.3020 210.08 0.65687 5.5540 0.0092520
-68.625 3.8367 0.00021163 42.239 42.290 0.34082 610.53 0.0016379 42.152 42.195 0.34036 1.3902 2.1415 1335.5 -0.0060339 270.17 0.14510 0.69577 1.4372 456.04 494.06 2.5497 1.1054 1.3064 210.45 0.64827 5.5807 0.0093324
-67.625 4.0652 0.00022115 44.385 44.439 0.35129 609.44 0.0016409 44.294 44.340 0.35080 1.3919 2.1449 1328.8 -0.0060051 266.69 0.14449 0.73408 1.3622 457.08 495.26 2.5448 1.1093 1.3109 210.82 0.63981 5.6074 0.0094130
-66.625 4.3046 0.00023092 46.534 46.592 0.36172 608.35 0.0016438 46.439 46.488 0.36122 1.3937 2.1483 1322.2 -0.0059760 263.28 0.14388 0.77404 1.2919 458.12 496.46 2.5400 1.1133 1.3154 211.18 0.63150 5.6341 0.0094939
-65.625 4.5551 0.00024096 48.687 48.748 0.37212 607.26 0.0016467 48.588 48.640 0.37160 1.3955 2.1518 1315.6 -0.0059464 259.93 0.14327 0.81570 1.2259 459.16 497.67 2.5353 1.1172 1.3200 211.54 0.62332 5.6608 0.0095750
-64.625 4.8173 0.00025124 50.843 50.908 0.38249 606.16 0.0016497 50.740 50.795 0.38195 1.3974 2.1553 1308.9 -0.0059164 256.65 0.14266 0.85910 1.1640 460.21 498.87 2.5307 1.1212 1.3246 211.89 0.61527 5.6874 0.0096564
-63.625 5.0915 0.00026177 53.003 53.071 0.39282 605.07 0.0016527 52.896 52.954 0.39226 1.3993 2.1588 1302.3 -0.0058861 253.42 0.14205 0.90429 1.1058 461.25 500.07 2.5262 1.1252 1.3293 212.24 0.60736 5.7140 0.0097382
-62.625 5.3781 0.00027255 55.166 55.238 0.40312 603.97 0.0016557 55.055 55.117 0.40254 1.4012 2.1624 1295.7 -0.0058553 250.26 0.14144 0.95134 1.0511 462.30 501.28 2.5218 1.1293 1.3340 212.58 0.59958 5.7406 0.0098201
-61.625 5.6774 0.00028357 57.333 57.409 0.41339 602.87 0.0016587 57.218 57.283 0.41279 1.4031 2.1660 1289.1 -0.0058241 247.16 0.14084 1.0003 0.99972 463.35 502.48 2.5175 1.1333 1.3387 212.92 0.59194 5.7672 0.0099024
-60.625 5.9899 0.00029482 59.504 59.584 0.42363 601.77 0.0016618 59.385 59.453 0.42301 1.4051 2.1697 1282.5 -0.0057925 244.12 0.14023 1.0512 0.95131 464.40 503.68 2.5133 1.1374 1.3435 213.26 0.58442 5.7938 0.0099850
-59.625 6.3160 0.00030630 61.678 61.763 0.43383 600.66 0.0016648 61.554 61.627 0.43320 1.4071 2.1734 1275.9 -0.0057605 241.13 0.13962 1.1041 0.90573 465.45 504.89 2.5091 1.1415 1.3483 213.58 0.57704 5.8203 0.010068
-58.625 6.6561 0.00031801 63.856 63.945 0.44401 599.55 0.0016679 63.728 63.805 0.44335 1.4091 2.1772 1269.3 -0.0057280 238.19 0.13902 1.1591 0.86277 466.50 506.09 2.5051 1.1457 1.3532 213.90 0.56978 5.8468 0.010151
-57.625 7.0107 0.00032994 66.038 66.132 0.45415 598.44 0.0016710 65.905 65.986 0.45348 1.4111 2.1810 1262.7 -0.0056951 235.31 0.13842 1.2161 0.82228 467.55 507.30 2.5011 1.1498 1.3581 214.22 0.56265 5.8733 0.010234
-56.625 7.3801 0.00034207 68.223 68.322 0.46427 597.33 0.0016741 68.086 68.172 0.46358 1.4132 2.1848 1256.1 -0.0056617 232.48 0.13781 1.2754 0.78408 468.60 508.50 2.4972 1.1540 1.3631 214.53 0.55564 5.8998 0.010318
-55.625 7.7648 0.00035440 70.413 70.517 0.47436 596.22 0.0016772 70.271 70.361 0.47364 1.4153 2.1887 1249.5 -0.0056279 229.69 0.13721 1.3369 0.74802 469.66 509.71 2.4934 1.1582 1.3681 214.84 0.54875 5.9263 0.010402
-54.625 8.1652 0.00036693 72.606 72.715 0.48442 595.10 0.0016804 72.460 72.554 0.48368 1.4174 2.1927 1242.9 -0.0055937 226.96 0.13661 1.4006 0.71396 470.72 510.91 2.4897 1.1624 1.3731 215.14 0.54199 5.9527 0.010486
-53.625 8.5819 0.00037963 74.803 74.918 0.49445 593.98 0.0016836 74.652 74.752 0.49369 1.4196 2.1967 1236.3 -0.0055589 224.27 0.13601 1.4667 0.68178 471.77 512.11 2.4860 1.1667 1.3782 215.43 0.53535 5.9792 0.010571
-52.625 9.0151 0.00039251 77.004 77.125 0.50445 592.86 0.0016867 76.849 76.954 0.50368 1.4218 2.2007 1229.8 -0.0055237 221.63 0.13541 1.5353 0.65136 472.83 513.32 2.4824 1.1710 1.3834 215.72 0.52882 6.0056 0.010656
-51.625 9.4655 0.00040553 79.209 79.336 0.51443 591.73 0.0016900 79.049 79.159 0.51363 1.4240 2.2048 1223.2 -0.0054880 219.04 0.13482 1.6062 0.62258 473.89 514.52 2.4789 1.1752 1.3886 216.00 0.52241 6.0320 0.010741
-50.625 9.9335 0.00041871 81.418 81.551 0.52438 590.60 0.0016932 81.253 81.369 0.52356 1.4262 2.2089 1216.6 -0.0054519 216.48 0.13422 1.6797 0.59534 474.95 515.73 2.4755 1.1796 1.3938 216.28 0.51612 6.0584 0.010827
-49.625 10.419 0.00043201 83.631 83.771 0.53430 589.47 0.0016964 83.462 83.584 0.53347 1.4285 2.2131 1210.1 -0.0054152 213.98 0.13363 1.7558 0.56954 476.01 516.93 2.4722 1.1839 1.3991 216.55 0.50994 6.0848 0.010913
-48.625 10.924 0.00044542 85.848 85.995 0.54420 588.34 0.0016997 85.674 85.802 0.54334 1.4308 2.2173 1203.5 -0.0053780 211.51 0.13303 1.8345 0.54510 477.07 518.13 2.4689 1.1883 1.4044 216.82 0.50387 6.1112 0.010999
-47.625 11.448 0.00045894 88.070 88.223 0.55407 587.20 0.0017030 87.891 88.025 0.55319 1.4331 2.2216 1196.9 -0.0053403 209.08 0.13244 1.9159 0.52194 478.14 519.33 2.4657 1.1927 1.4098 217.08 0.49792 6.1375 0.011085
-46.625 11.991 0.00047253 90.295 90.456 0.56392 586.06 0.0017063 90.111 90.252 0.56302 1.4354 2.2259 1190.4 -0.0053020 206.69 0.13185 2.0001 0.49997 479.20 520.53 2.4625 1.1971 1.4153 217.33 0.49207 6.1639 0.011172
-45.625 12.554 0.00048619 92.525 92.693 0.57374 584.92 0.0017096 92.336 92.484 0.57282 1.4378 2.2303 1183.8 -0.0052633 204.34 0.13126 2.0872 0.47912 480.27 521.74 2.4594 1.2015 1.4207 217.58 0.48633 6.1902 0.011259
-44.625 13.137 0.00049988 94.759 94.934 0.58353 583.77 0.0017130 94.565 94.720 0.58260 1.4402 2.2347 1177.3 -0.0052240 202.03 0.13067 2.1771 0.45933 481.33 522.94 2.4564 1.2060 1.4263 217.82 0.48069 6.2165 0.011347
-43.625 13.741 0.00051360 96.997 97.181 0.59331 582.62 0.0017164 96.799 96.961 0.59235 1.4426 2.2392 1170.7 -0.0051841 199.75 0.13008 2.2700 0.44053 482.40 524.14 2.4535 1.2104 1.4319 218.05 0.47516 6.2429 0.011435
-42.625 14.367 0.00052732 99.239 99.431 0.60306 581.47 0.0017198 99.036 99.207 0.60208 1.4450 2.2437 1164.2 -0.0051437 197.51 0.12949 2.3659 0.42267 483.46 525.33 2.4506 1.2149 1.4375 218.28 0.46973 6.2692 0.011523
-41.625 15.015 0.00054102 101.49 101.69 0.61278 580.32 0.0017232 101.28 101.46 0.61179 1.4475 2.2483 1157.7 -0.0051027 195.30 0.12891 2.4649 0.40569 484.53 526.53 2.4478 1.2195 1.4432 218.50 0.46440 6.2955 0.011612
-40.625 15.686 0.00055467 103.74 103.95 0.62248 579.16 0.0017266 103.52 103.71 0.62147 1.4500 2.2529 1151.1 -0.0050611 193.13 0.12832 2.5671 0.38954 485.60 527.73 2.4450 1.2240 1.4489 218.72 0.45917 6.3218 0.011701
-39.625 16.380 0.00056824 105.99 106.21 0.63216 578.00 0.0017301 105.78 105.97 0.63113 1.4525 2.2576 1144.6 -0.0050189 190.99 0.12774 2.6725 0.37418 486.67 528.93 2.4423 1.2286 1.4547 218.93 0.45403 6.3481 0.011790
-38.625 17.097 0.00058171 108.25 108.48 0.64182 576.83 0.0017336 108.03 108.24 0.64077 1.4550 2.2623 1138.0 -0.0049761 188.88 0.12716 2.7813 0.35955 487.74 530.12 2.4397 1.2332 1.4606 219.13 0.44900 6.3744 0.011880
-37.625 17.838 0.00059505 110.52 110.76 0.65145 575.66 0.0017371 110.29 110.51 0.65039 1.4576 2.2671 1131.5 -0.0049327 186.81 0.12658 2.8934 0.34562 488.81 531.32 2.4371 1.2378 1.4665 219.33 0.44405 6.4007 0.011970
-36.625 18.604 0.00060823 112.79 113.03 0.66107 574.49 0.0017407 112.56 112.78 0.65999 1.4602 2.2719 1125.0 -0.0048887 184.76 0.12600 3.0089 0.33235 489.88 532.51 2.4346 1.2424 1.4724 219.52 0.43920 6.4270 0.012060
-35.625 19.395 0.00062121 115.06 115.32 0.67066 573.32 0.0017442 114.83 115.06 0.66956 1.4628 2.2768 1118.5 -0.0048440 182.75 0.12542 3.1280 0.31969 490.95 533.70 2.4321 1.2471 1.4784 219.70 0.43444 6.4533 0.012151
-34.625 20.212 0.00063397 117.34 117.61 0.68023 572.14 0.0017478 117.10 117.34 0.67912 1.4654 2.2818 1111.9 -0.0047987 180.76 0.12485 3.2506 0.30763 492.02 534.89 2.4297 1.2517 1.4845 219.88 0.42977 6.4797 0.012243
-33.625 21.056 0.00064647 119.62 119.90 0.68978 570.96 0.0017514 119.38 119.63 0.68865 1.4681 2.2868 1105.4 -0.0047527 178.80 0.12427 3.3770 0.29612 493.09 536.08 2.4273 1.2564 1.4906 220.05 0.42519 6.5060 0.012334
-32.625 21.926 0.00065866 121.91 122.20 0.69931 569.77 0.0017551 121.66 121.93 0.69817 1.4708 2.2918 1098.9 -0.0047061 176.87 0.12370 3.5071 0.28514 494.17 537.27 2.4250 1.2611 1.4968 220.21 0.42070 6.5323 0.012426
-31.625 22.823 0.00067052 124.20 124.50 0.70882 568.58 0.0017588 123.95 124.23 0.70767 1.4735 2.2970 1092.3 -0.0046587 174.97 0.12313 3.6410 0.27465 495.24 538.46 2.4227 1.2659 1.5031 220.36 0.41629 6.5587 0.012519
-30.625 23.749 0.00068200 126.50 126.81 0.71830 567.39 0.0017625 126.24 126.53 0.71714 1.4762 2.3021 1085.8 -0.0046107 173.09 0.12256 3.7787 0.26464 496.31 539.64 2.4205 1.2706 1.5094 220.51 0.41196 6.5850 0.012612
-29.625 24.703 0.00069306 128.80 129.13 0.72777 566.19 0.0017662 128.54 128.84 0.72660 1.4790 2.3074 1079.3 -0.0045619 171.24 0.12200 3.9205 0.25507 497.38 540.83 2.4184 1.2754 1.5157 220.65 0.40772 6.6114 0.012706
-28.625 25.687 0.00070365 131.10 131.45 0.73722 564.99 0.0017699 130.84 131.16 0.73604 1.4818 2.3126 1072.8 -0.0045124 169.42 0.12143 4.0663 0.24592 498.46 542.01 2.4162 1.2802 1.5222 220.79 0.40356 6.6378 0.012800
-27.625 26.700 0.00071373 133.41 133.77 0.74666 563.78 0.0017737 133.15 133.48 0.74547 1.4846 2.3180 1066.2 -0.0044621 167.62 0.12087 4.2163 0.23717 499.53 543.19 2.4142 1.2850 1.5286 220.91 0.39947 6.6642 0.012894
-26.625 27.743 0.00072325 135.73 136.10 0.75607 562.57 0.0017775 135.47 135.81 0.75487 1.4874 2.3234 1059.7 -0.0044111 165.84 0.12031 4.3705 0.22881 500.60 544.37 2.4122 1.2899 1.5352 221.03 0.39547 6.6906 0.012989
-25.625 28.817 0.00073215 138.05 138.44 0.76546 561.36 0.0017814 137.78 138.14 0.76426 1.4902 2.3289 1053.2 -0.0043593 164.09 0.11975 4.5290 0.22080 501.68 545.55 2.4102 1.2947 1.5418 221.14 0.39154 6.7171 0.013084
-24.625 29.923 0.00074039 140.38 140.78 0.77484 560.14 0.0017853 140.11 140.48 0.77363 1.4931 2.3344 1046.7 -0.0043067 162.36 0.11919 4.6918 0.21314 502.75 546.72 2.4083 1.2996 1.5485 221.25 0.38768 6.7436 0.013180
-23.625 31.061 0.00074791 142.71 143.12 0.78420 558.92 0.0017892 142.44 142.82 0.78298 1.4960 2.3400 1040.1 -0.0042533 160.65 0.11863 4.8592 0.20580 503.82 547.90 2.4064 1.3045 1.5552 221.35 0.38391 6.7701 0.013277
-22.625 32.232 0.00075464 145.04 145.47 0.79354 557.69 0.0017931 144.77 145.17 0.79232 1.4990 2.3457 1033.6 -0.0041990 158.97 0.11807 5.0311 0.19877 504.90 549.07 2.4045 1.3095 1.5621 221.44 0.38020 6.7967 0.013374
-21.625 33.435 0.00076053 147.38 147.83 0.80286 556.46 0.0017971 147.11 147.52 0.80164 1.5019 2.3514 1027.1 -0.0041439 157.30 0.11752 5.2076 0.19203 505.97 550.24 2.4027 1.3144 1.5690 221.52 0.37656 6.8232 0.013471
-20.625 34.673 0.00076552 149.73 150.19 0.81217 555.23 0.0018011 149.45 149.88 0.81095 1.5049 2.3572 1020.6 -0.0040879 155.66 0.11697 5.3889 0.18557 507.04 551.40 2.4010 1.3194 1.5759 221.59 0.37300 6.8499 0.013569
-19.625 35.946 0.00076954 152.08 152.56 0.82146 553.99 0.0018051 151.80 152.25 0.82024 1.5079 2.3630 1014.0 -0.0040311 154.04 0.11642 5.5750 0.17937 508.11 552.57 2.3992 1.3244 1.5829 221.66 0.36950 6.8765 0.013668
-18.625 37.253 0.00077252 154.43 154.93 0.83073 552.74 0.0018092 154.16 154.62 0.82952 1.5109 2.3689 1007.5 -0.0039733 152.44 0.11587 5.7660 0.17343 509.19 553.73 2.3976 1.3294 1.5901 221.72 0.36608 6.9032 0.013767
-17.625 38.596 0.00077438 156.79 157.31 0.83999 551.49 0.0018133 156.52 157.00 0.83878 1.5140 2.3749 1001.0 -0.0039145 150.86 0.11532 5.9621 0.16773 510.26 554.89 2.3959 1.3345 1.5972 221.77 0.36272 6.9300 0.013867
-16.625 39.976 0.00077506 159.16 159.70 0.84923 550.24 0.0018174 158.89 159.39 0.84803 1.5171 2.3810 994.44 -0.0038549 149.29 0.11478 6.1632 0.16225 511.33 556.05 2.3943 1.3395 1.6045 221.81 0.35942 6.9568 0.013968
-15.625 41.392 0.00077447 161.53 162.09 0.85845 548.98 0.0018216 161.26 161.78 0.85726 1.5202 2.3871 987.91 -0.0037942 147.75 0.11423 6.3696 0.15700 512.40 557.20 2.3927 1.3446 1.6119 221.85 0.35619 6.9836 0.014069
-14.625 42.846 0.00077253 163.91 164.48 0.86766 547.71 0.0018258 163.64 164.18 0.86649 1.5233 2.3933 981.37 -0.0037325 146.22 0.11369 6.5812 0.15195 513.47 558.36 2.3912 1.3497 1.6193 221.87 0.35302 7.0105 0.014170
-13.625 44.338 0.00076916 166.29 166.88 0.87686 546.44 0.0018300 166.02 166.58 0.87569 1.5264 2.3996 974.83 -0.0036698 144.72 0.11315 6.7983 0.14710 514.54 559.51 2.3897 1.3549 1.6268 221.89 0.34992 7.0375 0.014273
-12.625 45.870 0.00076426 168.68 169.29 0.88604 545.17 0.0018343 168.41 168.99 0.88489 1.5296 2.4059 968.29 -0.0036061 143.23 0.11261 7.0208 0.14243 515.61 560.65 2.3883 1.3600 1.6344 221.90 0.34688 7.0646 0.014376
-11.625 47.440 0.00075775 171.07 171.70 0.89520 543.89 0.0018386 170.81 171.41 0.89407 1.5328 2.4124 961.75 -0.0035413 141.76 0.11208 7.2490 0.13795 516.68 561.80 2.3868 1.3652 1.6421 221.91 0.34389 7.0917 0.014479
-10.625 49.051 0.00074953 173.47 174.12 0.90435 542.60 0.0018430 173.21 173.83 0.90324 1.5360 2.4189 955.20 -0.0034753 140.30 0.11154 7.4829 0.13364 517.75 562.94 2.3854 1.3704 1.6498 221.90 0.34097 7.1188 0.014584
-9.6250 50.703 0.00073949 175.87 176.55 0.91349 541.31 0.0018474 175.61 176.26 0.91240 1.5393 2.4255 948.65 -0.0034082 138.86 0.11101 7.7226 0.12949 518.81 564.08 2.3841 1.3757 1.6577 221.88 0.33810 7.1461 0.014689
-8.6250 52.396 0.00072753 178.28 178.98 0.92261 540.02 0.0018518 178.03 178.70 0.92154 1.5426 2.4321 942.10 -0.0033400 137.44 0.11048 7.9683 0.12550 519.88 565.21 2.3827 1.3809 1.6657 221.86 0.33529 7.1734 0.014795
-7.6250 54.131 0.00071355 180.69 181.41 0.93171 538.72 0.0018563 180.45 181.14 0.93068 1.5459 2.4389 935.55 -0.0032705 136.03 0.10995 8.2200 0.12165 520.94 566.35 2.3814 1.3862 1.6737 221.83 0.33254 7.2008 0.014902
-6.6250 55.909 0.00069742 183.11 183.86 0.94081 537.41 0.0018608 182.87 183.59 0.93980 1.5492 2.4457 928.99 -0.0031998 134.64 0.10942 8.4779 0.11795 522.01 567.48 2.3801 1.3915 1.6819 221.79 0.32984 7.2284 0.015009
-5.6250 57.730 0.00067902 185.53 186.31 0.94989 536.10 0.0018653 185.30 186.05 0.94892 1.5525 2.4526 922.43 -0.0031279 133.27 0.10889 8.7420 0.11439 523.07 568.60 2.3789 1.3969 1.6902 221.74 0.32720 7.2560 0.015117
-4.6250 59.595 0.00065824 187.96 188.76 0.95896 534.78 0.0018699 187.74 188.51 0.95802 1.5559 2.4596 915.87 -0.0030546 131.91 0.10837 9.0126 0.11096 524.13 569.72 2.3777 1.4022 1.6985 221.68 0.32461 7.2837 0.015226
-3.6250 61.505 0.00063494 190.40 191.22 0.96801 533.45 0.0018746 190.19 190.98 0.96711 1.5593 2.4667 909.30 -0.0029800 130.56 0.10785 9.2896 0.10765 525.19 570.84 2.3765 1.4076 1.7070 221.62 0.32207 7.3115 0.015336
-2.6250 63.461 0.00060899 192.84 193.69 0.97705 532.12 0.0018793 192.64 193.46 0.97620 1.5627 2.4739 902.73 -0.0029041 129.23 0.10733 9.5733 0.10446 526.25 571.96 2.3753 1.4131 1.7156 221.54 0.31958 7.3394 0.015447
-1.6250 65.462 0.00058024 195.29 196.16 0.98608 530.78 0.0018840 195.10 195.95 0.98527 1.5662 2.4811 896.16 -0.0028267 127.91 0.10681 9.8638 0.10138 527.31 573.07 2.3742 1.4185 1.7243 221.45 0.31715 7.3674 0.015559
-0.62500 67.510 0.00054855 197.74 198.64 0.99509 529.44 0.0018888 197.56 198.44 0.99434 1.5696 2.4885 889.58 -0.0027478 126.61 0.10629 10.161 0.098414 528.37 574.18 2.3731 1.4240 1.7331 221.36 0.31476 7.3956 0.015671
0.37500 69.606 0.00051377 200.20 201.13 1.0041 528.09 0.0018936 200.03 200.94 1.0034 1.5731 2.4960 883.00 -0.0026675 125.32 0.10578 10.466 0.095552 529.42 575.28 2.3720 1.4295 1.7421 221.26 0.31242 7.4239 0.015785
1.3750 71.749 0.00047572 202.66 203.62 1.0131 526.73 0.0018985 202.51 203.45 1.0124 1.5767 2.5035 876.42 -0.0025856 124.04 0.10527 10.777 0.092790 530.48 576.38 2.3709 1.4350 1.7512 221.14 0.31013 7.4523 0.015899
2.3750 73.941 0.00043425 205.13 206.12 1.0221 525.37 0.0019034 204.99 205.96 1.0215 1.5802 2.5112 869.83 -0.0025022 122.78 0.10476 11.096 0.090123 531.53 577.47 2.3699 1.4406 1.7604 221.02 0.30789 7.4808 0.016015
3.3750 76.183 0.00038918 207.61 208.63 1.0310 523.99 0.0019084 207.48 208.48 1.0305 1.5838 2.5190 863.24 -0.0024171 121.53 0.10425 11.422 0.087549 532.58 578.56 2.3688 1.4462 1.7697 220.89 0.30569 7.5095 0.016131
4.3750 78.475 0.00034032 210.09 211.14 1.0400 522.62 0.0019134 209.98 211.01 1.0395 1.5874 2.5268 856.64 -0.0023303 120.29 0.10374 11.756 0.085062 533.63 579.65 2.3678 1.4518 1.7792 220.75 0.30354 7.5384 0.016249
5.3750 80.817 0.00028749 212.58 213.66 1.0489 521.23 0.0019185 212.48 213.55 1.0486 1.5910 2.5348 850.04 -0.0022417 119.06 0.10324 12.098 0.082660 534.67 580.73 2.3669 1.4575 1.7888 220.60 0.30144 7.5674 0.016368
6.3750 83.211 0.00023048 215.07 216.18 1.0579 519.84 0.0019237 215.00 216.10 1.0576 1.5946 2.5429 843.43 -0.0021514 117.85 0.10273 12.447 0.080340 535.72 581.81 2.3659 1.4632 1.7986 220.44 0.29938 7.5966 0.016487
7.3750 85.657 0.00016909 217.57 218.71 1.0668 518.44 0.0019289 217.51 218.65 1.0666 1.5983 2.5511 836.82 -0.0020593 116.65 0.10223 12.805 0.078096 536.76 582.88 2.3650 1.4689 1.8085 220.27 0.29736 7.6259 0.016608
8.3750 88.156 0.00010310 220.07 221.25 1.0757 517.03 0.0019341 220.04 221.22 1.0756 1.6020 2.5595 830.20 -0.0019652 115.46 0.10173 13.170 0.075928 537.80 583.95 2.3640 1.4746 1.8186 220.08 0.29538 7.6555 0.016730
9.3750 90.708 3.2268e-05 222.58 223.80 1.0846 515.62 0.0019394 222.57 223.79 1.0846 1.6057 2.5679 823.58 -0.0018691 114.28 0.10124 13.545 0.073830 538.84 585.01 2.3631 1.4804 1.8288 219.89 0.29345 7.6852 0.016853
10.375 142.51 undefined 224.59 226.49 1.0917 515.00 0.0019417 224.59 226.49 1.0917 1.6095 2.5697 822.40 -0.0018595 113.77 0.10108 515.00 0.0019417 224.59 226.49 1.0917 1.6095 2.5697 822.40 -0.0018595 113.77 0.10108
11.375 231.98 undefined 226.20 229.30 1.0974 515.00 0.0019417 226.20 229.30 1.0974 1.6132 2.5665 825.36 -0.0019162 113.77 0.10118 515.00 0.0019417 226.20 229.30 1.0974 1.6132 2.5665 825.36 -0.0019162 113.77 0.10118
12.375 321.45 undefined 227.81 232.12 1.1030 515.00 0.0019417 227.81 232.12 1.1030 1.6170 2.5635 828.29 -0.0019714 113.77 0.10128 515.00 0.0019417 227.81 232.12 1.1030 1.6170 2.5635 828.29 -0.0019714 113.77 0.10128
13.375 410.91 undefined 229.43 234.93 1.1087 515.00 0.0019417 229.43 234.93 1.1087 1.6207 2.5607 831.19 -0.0020254 113.77 0.10138 515.00 0.0019417 229.43 234.93 1.1087 1.6207 2.5607 831.19 -0.0020254 113.77 0.10138
14.375 500.37 undefined 231.05 237.75 1.1143 515.00 0.0019417 231.05 237.75 1.1143 1.6245 2.5580 834.06 -0.0020781 113.77 0.10148 515.00 0.0019417 231.05 237.75 1.1143 1.6245 2.5580 834.06 -0.0020781 113.77 0.10148
15.375 589.82 undefined 232.68 240.58 1.1200 515.00 0.0019417 232.68 240.58 1.1200 1.6283 2.5554 836.89 -0.0021296 113.77 0.10158 515.00 0.0019417 232.68 240.58 1.1200 1.6283 2.5554 836.89 -0.0021296 113.77 0.10158
16.375 679.26 undefined 234.31 243.40 1.1256 515.00 0.0019417 234.31 243.40 1.1256 1.6322 2.5530 839.70 -0.0021798 113.77 0.10169 515.00 0.0019417 234.31 243.40 1.1256 1.6322 2.5530 839.70 -0.0021798 113.77 0.10169
17.375 768.70 undefined 235.94 246.23 1.1313 515.00 0.0019417 235.94 246.23 1.1313 1.6360 2.5508 842.48 -0.0022290 113.77 0.10179 515.00 0.0019417 235.94 246.23 1.1313 1.6360 2.5508 842.48 -0.0022290 113.77 0.10179
18.375 858.12 undefined 237.58 249.07 1.1369 515.00 0.0019417 237.58 249.07 1.1369 1.6399 2.5487 845.23 -0.0022770 113.77 0.10189 515.00 0.0019417 237.58 249.07 1.1369 1.6399 2.5487 845.23 -0.0022770 113.77 0.10189
19.375 947.52 undefined 239.22 251.91 1.1425 515.00 0.0019417 239.22 251.91 1.1425 1.6437 2.5467 847.96 -0.0023239 113.77 0.10200 515.00 0.0019417 239.22 251.91 1.1425 1.6437 2.5467 847.96 -0.0023239 113.77 0.10200
20.375 1036.9 undefined 240.87 254.75 1.1481 515.00 0.0019417 240.87 254.75 1.1481 1.6476 2.5448 850.65 -0.0023698 113.77 0.10210 515.00 0.0019417 240.87 254.75 1.1481 1.6476 2.5448 850.65 -0.0023698 113.77 0.10210
21.375 1126.3 undefined 242.52 257.60 1.1537 515.00 0.0019417 242.52 257.60 1.1537 1.6515 2.5431 853.32 -0.0024147 113.77 0.10220 515.00 0.0019417 242.52 257.60 1.1537 1.6515 2.5431 853.32 -0.0024147 113.77 0.10220
22.375 1215.7 undefined 244.17 260.45 1.1593 515.00 0.0019417 244.17 260.45 1.1593 1.6554 2.5415 855.97 -0.0024586 113.77 0.10231 515.00 0.0019417 244.17 260.45 1.1593 1.6554 2.5415 855.97 -0.0024586 113.77 0.10231
23.375 1305.0 undefined 245.83 263.30 1.1649 515.00 0.0019417 245.83 263.30 1.1649 1.6594 2.5400 858.59 -0.0025015 113.78 0.10241 515.00 0.0019417 245.83 263.30 1.1649 1.6594 2.5400 858.59 -0.0025015 113.78 0.10241
24.375 1394.3 undefined 247.49 266.16 1.1705 515.00 0.0019417 247.49 266.16 1.1705 1.6633 2.5386 861.18 -0.0025435 113.78 0.10252 515.00 0.0019417 247.49 266.16 1.1705 1.6633 2.5386 861.18 -0.0025435 113.78 0.10252
25.375 1483.6 undefined 249.16 269.02 1.1761 515.00 0.0019417 249.16 269.02 1.1761 1.6673 2.5373 863.75 -0.0025846 113.78 0.10262 515.00 0.0019417 249.16 269.02 1.1761 1.6673 2.5373 863.75 -0.0025846 113.78 0.10262
26.375 1572.9 undefined 250.83 271.88 1.1817 515.00 0.0019417 250.83 271.88 1.1817 1.6713 2.5361 866.30 -0.0026248 113.78 0.10273 515.00 0.0019417 250.83 271.88 1.1817 1.6713 2.5361 866.30 -0.0026248 113.78 0.10273
27.375 1662.1 undefined 252.50 274.75 1.1873 515.00 0.0019417 252.50 274.75 1.1873 1.6752 2.5351 868.83 -0.0026642 113.78 0.10283 515.00 0.0019417 252.50 274.75 1.1873 1.6752 2.5351 868.83 -0.0026642 113.78 0.10283
28.375 1751.3 undefined 254.18 277.62 1.1929 515.00 0.0019417 254.18 277.62 1.1929 1.6792 2.5341 871.33 -0.0027027 113.79 0.10294 515.00 0.0019417 254.18 277.62 1.1929 1.6792 2.5341 871.33 -0.0027027 113.79 0.10294
29.375 1840.5 undefined 255.86 280.50 1.1984 515.00 0.0019417 255.86 280.50 1.1984 1.6833 2.5332 873.81 -0.0027405 113.79 0.10305 515.00 0.0019417 255.86 280.50 1.1984 1.6833 2.5332 873.81 -0.0027405 113.79 0.10305
30.375 1929.7 undefined 257.54 283.38 1.2040 515.00 0.0019417 257.54 283.38 1.2040 1.6873 2.5325 876.27 -0.0027774 113.79 0.10315 515.00 0.0019417 257.54 283.38 1.2040 1.6873 2.5325 876.27 -0.0027774 113.79 0.10315
31.375 2018.8 undefined 259.23 286.26 1.2095 515.00 0.0019417 259.23 286.26 1.2095 1.6913 2.5318 878.70 -0.0028136 113.79 0.10326 515.00 0.0019417 259.23 286.26 1.2095 1.6913 2.5318 878.70 -0.0028136 113.79 0.10326
32.375 2107.9 undefined 260.93 289.15 1.2151 515.00 0.0019417 260.93 289.15 1.2151 1.6954 2.5312 881.12 -0.0028490 113.80 0.10337 515.00 0.0019417 260.93 289.15 1.2151 1.6954 2.5312 881.12 -0.0028490 113.80 0.10337
33.375 2197.0 undefined 262.62 292.04 1.2206 515.00 0.0019417 262.62 292.04 1.2206 1.6995 2.5307 883.52 -0.0028838 113.80 0.10348 515.00 0.0019417 262.62 292.04 1.2206 1.6995 2.5307 883.52 -0.0028838 113.80 0.10348
34.375 2286.1 undefined 264.32 294.93 1.2262 515.00 0.0019417 264.32 294.93 1.2262 1.7036 2.5303 885.90 -0.0029178 113.80 0.10358 515.00 0.0019417 264.32 294.93 1.2262 1.7036 2.5303 885.90 -0.0029178 113.80 0.10358
35.375 2375.1 undefined 266.03 297.83 1.2317 515.00 0.0019417 266.03 297.83 1.2317 1.7076 2.5299 888.25 -0.0029511 113.80 0.10369 515.00 0.0019417 266.03 297.83 1.2317 1.7076 2.5299 888.25 -0.0029511 113.80 0.10369
36.375 2464.0 undefined 267.74 300.73 1.2372 515.00 0.0019417 267.74 300.73 1.2372 1.7118 2.5297 890.59 -0.0029837 113.81 0.10380 515.00 0.0019417 267.74 300.73 1.2372 1.7118 2.5297 890.59 -0.0029837 113.81 0.10380
37.375 2553.0 undefined 269.45 303.63 1.2428 515.00 0.0019417 269.45 303.63 1.2428 1.7159 2.5295 892.92 -0.0030157 113.81 0.10391 515.00 0.0019417 269.45 303.63 1.2428 1.7159 2.5295 892.92 -0.0030157 113.81 0.10391
38.375 2641.9 undefined 271.17 306.54 1.2483 515.00 0.0019417 271.17 306.54 1.2483 1.7200 2.5294 895.22 -0.0030470 113.81 0.10402 515.00 0.0019417 271.17 306.54 1.2483 1.7200 2.5294 895.22 -0.0030470 113.81 0.10402
39.375 2730.7 undefined 272.89 309.45 1.2538 515.00 0.0019417 272.89 309.45 1.2538 1.7242 2.5293 897.51 -0.0030777 113.82 0.10413 515.00 0.0019417 272.89 309.45 1.2538 1.7242 2.5293 897.51 -0.0030777 113.82 0.10413
40.375 2819.5 undefined 274.62 312.37 1.2593 515.00 0.0019417 274.62 312.37 1.2593 1.7283 2.5294 899.78 -0.0031078 113.82 0.10424 515.00 0.0019417 274.62 312.37 1.2593 1.7283 2.5294 899.78 -0.0031078 113.82 0.10424
41.375 2908.3 undefined 276.35 315.29 1.2648 515.00 0.0019417 276.35 315.29 1.2648 1.7325 2.5295 902.03 -0.0031373 113.83 0.10435 515.00 0.0019417 276.35 315.29 1.2648 1.7325 2.5295 902.03 -0.0031373 113.83 0.10435
42.375 2997.1 undefined 278.08 318.21 1.2704 515.00 0.0019417 278.08 318.21 1.2704 1.7366 2.5297 904.27 -0.0031662 113.83 0.10446 515.00 0.0019417 278.08 318.21 1.2704 1.7366 2.5297 904.27 -0.0031662 113.83 0.10446
43.375 3085.8 undefined 279.82 321.14 1.2759 515.00 0.0019417 279.82 321.14 1.2759 1.7408 2.5299 906.49 -0.0031946 113.83 0.10457 515.00 0.0019417 279.82 321.14 1.2759 1.7408 2.5299 906.49 -0.0031946 113.83 0.10457
44.375 3174.4 undefined 281.57 324.06 1.2814 515.00 0.0019417 281.57 324.06 1.2814 1.7450 2.5302 908.69 -0.0032224 113.84 0.10468 515.00 0.0019417 281.57 324.06 1.2814 1.7450 2.5302 908.69 -0.0032224 113.84 0.10468
45.375 3263.0 undefined 283.31 327.00 1.2868 515.00 0.0019417 283.31 327.00 1.2868 1.7492 2.5306 910.88 -0.0032496 113.84 0.10479 515.00 0.0019417 283.31 327.00 1.2868 1.7492 2.5306 910.88 -0.0032496 113.84 0.10479
46.375 3351.6 undefined 285.06 329.94 1.2923 515.00 0.0019417 285.06 329.94 1.2923 1.7534 2.5310 913.06 -0.0032763 113.85 0.10490 515.00 0.0019417 285.06 329.94 1.2923 1.7534 2.5310 913.06 -0.0032763 113.85 0.10490
47.375 3440.2 undefined 286.82 332.88 1.2978 515.00 0.0019417 286.82 332.88 1.2978 1.7576 2.5315 915.22 -0.0033025 113.85 0.10502 515.00 0.0019417 286.82 332.88 1.2978 1.7576 2.5315 915.22 -0.0033025 113.85 0.10502
48.375 3528.6 undefined 288.58 335.82 1.3033 515.00 0.0019417 288.58 335.82 1.3033 1.7619 2.5321 917.37 -0.0033281 113.86 0.10513 515.00 0.0019417 288.58 335.82 1.3033 1.7619 2.5321 917.37 -0.0033281 113.86 0.10513
49.375 3617.1 undefined 290.34 338.77 1.3088 515.00 0.0019417 290.34 338.77 1.3088 1.7661 2.5327 919.50 -0.0033533 113.86 0.10524 515.00 0.0019417 290.34 338.77 1.3088 1.7661 2.5327 919.50 -0.0033533 113.86 0.10524
50.375 3705.5 undefined 292.11 341.72 1.3143 515.00 0.0019417 292.11 341.72 1.3143 1.7704 2.5334 921.62 -0.0033780 113.87 0.10535 515.00 0.0019417 292.11 341.72 1.3143 1.7704 2.5334 921.62 -0.0033780 113.87 0.10535
51.375 3793.8 undefined 293.88 344.68 1.3197 515.00 0.0019417 293.88 344.68 1.3197 1.7746 2.5341 923.73 -0.0034022 113.87 0.10547 515.00 0.0019417 293.88 344.68 1.3197 1.7746 2.5341 923.73 -0.0034022 113.87 0.10547
52.375 3882.1 undefined 295.66 347.63 1.3252 515.00 0.0019417 295.66 347.63 1.3252 1.7789 2.5349 925.82 -0.0034259 113.88 0.10558 515.00 0.0019417 295.66 347.63 1.3252 1.7789 2.5349 925.82 -0.0034259 113.88 0.10558
53.375 3970.4 undefined 297.44 350.60 1.3307 515.00 0.0019417 297.44 350.60 1.3307 1.7831 2.5357 927.90 -0.0034491 113.88 0.10569 515.00 0.0019417 297.44 350.60 1.3307 1.7831 2.5357 927.90 -0.0034491 113.88 0.10569
54.375 4058.6 undefined 299.23 353.56 1.3361 515.00 0.0019417 299.23 353.56 1.3361 1.7874 2.5366 929.97 -0.0034719 113.89 0.10581 515.00 0.0019417 299.23 353.56 1.3361 1.7874 2.5366 929.97 -0.0034719 113.89 0.10581
55.375 4146.8 undefined 301.02 356.53 1.3416 515.00 0.0019417 301.02 356.53 1.3416 1.7917 2.5375 932.03 -0.0034943 113.90 0.10592 515.00 0.0019417 301.02 356.53 1.3416 1.7917 2.5375 932.03 -0.0034943 113.90 0.10592
56.375 4234.9 undefined 302.81 359.51 1.3470 515.00 0.0019417 302.81 359.51 1.3470 1.7960 2.5385 934.07 -0.0035162 113.90 0.10604 515.00 0.0019417 302.81 359.51 1.3470 1.7960 2.5385 934.07 -0.0035162 113.90 0.10604
57.375 4323.0 undefined 304.61 362.48 1.3525 515.00 0.0019417 304.61 362.48 1.3525 1.8002 2.5395 936.10 -0.0035378 113.91 0.10615 515.00 0.0019417 304.61 362.48 1.3525 1.8002 2.5395 936.10 -0.0035378 113.91 0.10615
58.375 4411.0 undefined 306.41 365.47 1.3579 515.00 0.0019417 306.41 365.47 1.3579 1.8045 2.5406 938.13 -0.0035589 113.91 0.10627 515.00 0.0019417 306.41 365.47 1.3579 1.8045 2.5406 938.13 -0.0035589 113.91 0.10627
59.375 4499.0 undefined 308.22 368.45 1.3634 515.00 0.0019417 308.22 368.45 1.3634 1.8088 2.5417 940.14 -0.0035795 113.92 0.10638 515.00 0.0019417 308.22 368.45 1.3634 1.8088 2.5417 940.14 -0.0035795 113.92 0.10638
60.375 4586.9 undefined 310.03 371.44 1.3688 515.00 0.0019417 310.03 371.44 1.3688 1.8131 2.5429 942.14 -0.0035998 113.93 0.10650 515.00 0.0019417 310.03 371.44 1.3688 1.8131 2.5429 942.14 -0.0035998 113.93 0.10650
61.375 4674.8 undefined 311.84 374.43 1.3742 515.00 0.0019417 311.84 374.43 1.3742 1.8174 2.5441 944.13 -0.0036197 113.93 0.10661 515.00 0.0019417 311.84 374.43 1.3742 1.8174 2.5441 944.13 -0.0036197 113.93 0.10661
62.375 4762.6 undefined 313.66 377.42 1.3797 515.00 0.0019417 313.66 377.42 1.3797 1.8218 2.5454 946.10 -0.0036392 113.94 0.10673 515.00 0.0019417 313.66 377.42 1.3797 1.8218 2.5454 946.10 -0.0036392 113.94 0.10673
63.375 4850.4 undefined 315.49 380.42 1.3851 515.00 0.0019417 315.49 380.42 1.3851 1.8261 2.5467 948.07 -0.0036584 113.94 0.10685 515.00 0.0019417 315.49 380.42 1.3851 1.8261 2.5467 948.07 -0.0036584 113.94 0.10685
64.375 4938.1 undefined 317.32 383.43 1.3905 515.00 0.0019417 317.32 383.43 1.3905 1.8304 2.5480 950.03 -0.0036771 113.95 0.10697 515.00 0.0019417 317.32 383.43 1.3905 1.8304 2.5480 950.03 -0.0036771 113.95 0.10697
65.375 5025.7 undefined 319.15 386.43 1.3959 515.00 0.0019417 319.15 386.43 1.3959 1.8347 2.5494 951.98 -0.0036955 113.96 0.10708 515.00 0.0019417 319.15 386.43 1.3959 1.8347 2.5494 951.98 -0.0036955 113.96 0.10708
66.375 5113.4 undefined 320.99 389.44 1.4013 515.00 0.0019417 320.99 389.44 1.4013 1.8391 2.5508 953.91 -0.0037136 113.96 0.10720 515.00 0.0019417 320.99 389.44 1.4013 1.8391 2.5508 953.91 -0.0037136 113.96 0.10720
67.375 5200.9 undefined 322.83 392.46 1.4068 515.00 0.0019417 322.83 392.46 1.4068 1.8434 2.5523 955.84 -0.0037313 113.97 0.10732 515.00 0.0019417 322.83 392.46 1.4068 1.8434 2.5523 955.84 -0.0037313 113.97 0.10732
68.375 5288.5 undefined 324.67 395.47 1.4122 515.00 0.0019417 324.67 395.47 1.4122 1.8477 2.5537 957.76 -0.0037487 113.98 0.10744 515.00 0.0019417 324.67 395.47 1.4122 1.8477 2.5537 957.76 -0.0037487 113.98 0.10744
69.375 5375.9 undefined 326.52 398.49 1.4176 515.00 0.0019417 326.52 398.49 1.4176 1.8521 2.5553 959.67 -0.0037657 113.99 0.10755 515.00 0.0019417 326.52 398.49 1.4176 1.8521 2.5553 959.67 -0.0037657 113.99 0.10755
70.375 5463.3 undefined 328.38 401.52 1.4230 515.00 0.0019417 328.38 401.52 1.4230 1.8564 2.5568 961.57 -0.0037824 113.99 0.10767 515.00 0.0019417 328.38 401.52 1.4230 1.8564 2.5568 961.57 -0.0037824 113.99 0.10767
71.375 5550.7 undefined 330.23 404.55 1.4284 515.00 0.0019417 330.23 404.55 1.4284 1.8607 2.5584 963.46 -0.0037987 114.00 0.10779 515.00 0.0019417 330.23 404.55 1.4284 1.8607 2.5584 963.46 -0.0037987 114.00 0.10779
72.375 5638.0 undefined 332.10 407.58 1.4338 515.00 0.0019417 332.10 407.58 1.4338 1.8651 2.5601 965.35 -0.0038148 114.01 0.10791 515.00 0.0019417 332.10 407.58 1.4338 1.8651 2.5601 965.35 -0.0038148 114.01 0.10791
73.375 5725.3 undefined 333.97 410.61 1.4392 515.00 0.0019417 333.97 410.61 1.4392 1.8694 2.5617 967.22 -0.0038305 114.02 0.10803 515.00 0.0019417 333.97 410.61 1.4392 1.8694 2.5617 967.22 -0.0038305 114.02 0.10803
74.375 5812.5 undefined 335.84 413.65 1.4446 515.00 0.0019417 335.84 413.65 1.4446 1.8738 2.5634 969.09 -0.0038460 114.02 0.10815 515.00 0.0019417 335.84 413.65 1.4446 1.8738 2.5634 969.09 -0.0038460 114.02 0.10815
75.375 5899.6 undefined 337.71 416.70 1.4500 515.00 0.0019417 337.71 416.70 1.4500 1.8781 2.5652 970.94 -0.0038611 114.03 0.10827 515.00 0.0019417 337.71 416.70 1.4500 1.8781 2.5652 970.94 -0.0038611 114.03 0.10827
76.375 5986.7 undefined 339.59 419.74 1.4554 515.00 0.0019417 339.59 419.74 1.4554 1.8825 2.5669 972.79 -0.0038760 114.04 0.10839 515.00 0.0019417 339.59 419.74 1.4554 1.8825 2.5669 972.79 -0.0038760 114.04 0.10839
77.375 6073.8 undefined 341.48 422.79 1.4607 515.00 0.0019417 341.48 422.79 1.4607 1.8868 2.5687 974.63 -0.0038905 114.05 0.10851 515.00 0.0019417 341.48 422.79 1.4607 1.8868 2.5687 974.63 -0.0038905 114.05 0.10851
78.375 6160.8 undefined 343.37 425.85 1.4661 515.00 0.0019417 343.37 425.85 1.4661 1.8912 2.5706 976.46 -0.0039048 114.06 0.10864 515.00 0.0019417 343.37 425.85 1.4661 1.8912 2.5706 976.46 -0.0039048 114.06 0.10864
79.375 6247.7 undefined 345.26 428.90 1.4715 515.00 0.0019417 345.26 428.90 1.4715 1.8955 2.5724 978.29 -0.0039188 114.06 0.10876 515.00 0.0019417 345.26 428.90 1.4715 1.8955 2.5724 978.29 -0.0039188 114.06 0.10876
80.375 6334.6 undefined 347.16 431.96 1.4769 515.00 0.0019417 347.16 431.96 1.4769 1.8999 2.5743 980.10 -0.0039325 114.07 0.10888 515.00 0.0019417 347.16 431.96 1.4769 1.8999 2.5743 980.10 -0.0039325 114.07 0.10888
81.375 6421.5 undefined 349.06 435.03 1.4823 515.00 0.0019417 349.06 435.03 1.4823 1.9043 2.5762 981.91 -0.0039460 114.08 0.10900 515.00 0.0019417 349.06 435.03 1.4823 1.9043 2.5762 981.91 -0.0039460 114.08 0.10900
82.375 6508.2 undefined 350.97 438.10 1.4876 515.00 0.0019417 350.97 438.10 1.4876 1.9086 2.5781 983.72 -0.0039592 114.09 0.10912 515.00 0.0019417 350.97 438.10 1.4876 1.9086 2.5781 983.72 -0.0039592 114.09 0.10912
83.375 6595.0 undefined 352.88 441.17 1.4930 515.00 0.0019417 352.88 441.17 1.4930 1.9130 2.5801 985.51 -0.0039721 114.10 0.10925 515.00 0.0019417 352.88 441.17 1.4930 1.9130 2.5801 985.51 -0.0039721 114.10 0.10925
84.375 6681.7 undefined 354.79 444.25 1.4984 515.00 0.0019417 354.79 444.25 1.4984 1.9173 2.5821 987.30 -0.0039848 114.11 0.10937 515.00 0.0019417 354.79 444.25 1.4984 1.9173 2.5821 987.30 -0.0039848 114.11 0.10937
85.375 6768.3 undefined 356.71 447.32 1.5037 515.00 0.0019417 356.71 447.32 1.5037 1.9217 2.5841 989.07 -0.0039973 114.11 0.10949 515.00 0.0019417 356.71 447.32 1.5037 1.9217 2.5841 989.07 -0.0039973 114.11 0.10949
86.375 6854.9 undefined 358.64 450.41 1.5091 515.00 0.0019417 358.64 450.41 1.5091 1.9261 2.5862 990.85 -0.0040095 114.12 0.10962 515.00 0.0019417 358.64 450.41 1.5091 1.9261 2.5862 990.85 -0.0040095 114.12 0.10962
87.375 6941.4 undefined 360.56 453.49 1.5144 515.00 0.0019417 360.56 453.49 1.5144 1.9304 2.5882 992.61 -0.0040214 114.13 0.10974 515.00 0.0019417 360.56 453.49 1.5144 1.9304 2.5882 992.61 -0.0040214 114.13 0.10974
88.375 7027.8 undefined 362.50 456.58 1.5198 515.00 0.0019417 362.50 456.58 1.5198 1.9348 2.5903 994.37 -0.0040331 114.14 0.10986 515.00 0.0019417 362.50 456.58 1.5198 1.9348 2.5903 994.37 -0.0040331 114.14 0.10986
89.375 7114.2 undefined 364.43 459.68 1.5251 515.00 0.0019417 364.43 459.68 1.5251 1.9391 2.5924 996.12 -0.0040446 114.15 0.10999 515.00 0.0019417 364.43 459.68 1.5251 1.9391 2.5924 996.12 -0.0040446 114.15 0.10999
90.375 7200.6 undefined 366.37 462.78 1.5305 515.00 0.0019417 366.37 462.78 1.5305 1.9435 2.5946 997.87 -0.0040559 114.16 0.11011 515.00 0.0019417 366.37 462.78 1.5305 1.9435 2.5946 997.87 -0.0040559 114.16 0.11011
91.375 7286.9 undefined 368.32 465.88 1.5358 515.00 0.0019417 368.32 465.88 1.5358 1.9478 2.5967 999.60 -0.0040669 114.17 0.11024 515.00 0.0019417 368.32 465.88 1.5358 1.9478 2.5967 999.60 -0.0040669 114.17 0.11024
92.375 7373.2 undefined 370.27 468.98 1.5412 515.00 0.0019417 370.27 468.98 1.5412 1.9522 2.5989 1001.3 -0.0040778 114.18 0.11037 515.00 0.0019417 370.27 468.98 1.5412 1.9522 2.5989 1001.3 -0.0040778 114.18 0.11037
93.375 7459.4 undefined 372.22 472.09 1.5465 515.00 0.0019417 372.22 472.09 1.5465 1.9566 2.6011 1003.1 -0.0040884 114.19 0.11049 515.00 0.0019417 372.22 472.09 1.5465 1.9566 2.6011 1003.1 -0.0040884 114.19 0.11049
94.375 7545.5 undefined 374.18 475.20 1.5518 515.00 0.0019417 374.18 475.20 1.5518 1.9609 2.6033 1004.8 -0.0040988 114.20 0.11062 515.00 0.0019417 374.18 475.20 1.5518 1.9609 2.6033 1004.8 -0.0040988 114.20 0.11062
95.375 7631.6 undefined 376.15 478.32 1.5572 515.00 0.0019417 376.15 478.32 1.5572 1.9653 2.6056 1006.5 -0.0041089 114.21 0.11075 515.00 0.0019417 376.15 478.32 1.5572 1.9653 2.6056 1006.5 -0.0041089 114.21 0.11075
96.375 7717.6 undefined 378.11 481.44 1.5625 515.00 0.0019417 378.11 481.44 1.5625 1.9696 2.6078 1008.2 -0.0041189 114.22 0.11088 515.00 0.0019417 378.11 481.44 1.5625 1.9696 2.6078 1008.2 -0.0041189 114.22 0.11088
97.375 7803.6 undefined 380.09 484.56 1.5678 515.00 0.0019417 380.09 484.56 1.5678 1.9740 2.6101 1009.9 -0.0041287 114.23 0.11100 515.00 0.0019417 380.09 484.56 1.5678 1.9740 2.6101 1009.9 -0.0041287 114.23 0.11100
98.375 7889.5 undefined 382.06 487.69 1.5732 515.00 0.0019417 382.06 487.69 1.5732 1.9783 2.6124 1011.6 -0.0041383 114.24 0.11113 515.00 0.0019417 382.06 487.69 1.5732 1.9783 2.6124 1011.6 -0.0041383 114.24 0.11113
99.375 7975.4 undefined 384.04 490.82 1.5785 515.00 0.0019417 384.04 490.82 1.5785 1.9827 2.6148 1013.3 -0.0041477 114.25 0.11126 515.00 0.0019417 384.04 490.82 1.5785 1.9827 2.6148 1013.3 -0.0041477 114.25 0.11126
100.38 8061.2 undefined 386.03 493.95 1.5838 515.00 0.0019417 386.03 493.95 1.5838 1.9870 2.6171 1015.0 -0.0041569 114.25 0.11139 515.00 0.0019417 386.03 493.95 1.5838 1.9870 2.6171 1015.0 -0.0041569 114.25 0.11139
101.38 8147.0 undefined 388.02 497.09 1.5891 515.00 0.0019417 388.02 497.09 1.5891 1.9914 2.6195 1016.6 -0.0041659 114.26 0.11152 515.00 0.0019417 388.02 497.09 1.5891 1.9914 2.6195 1016.6 -0.0041659 114.26 0.11152
102.38 8232.7 undefined 390.01 500.23 1.5944 515.00 0.0019417 390.01 500.23 1.5944 1.9957 2.6218 1018.3 -0.0041748 114.28 0.11165 515.00 0.0019417 390.01 500.23 1.5944 1.9957 2.6218 1018.3 -0.0041748 114.28 0.11165
103.38 8318.4 undefined 392.01 503.37 1.5998 515.00 0.0019417 392.01 503.37 1.5998 2.0001 2.6242 1020.0 -0.0041834 114.29 0.11178 515.00 0.0019417 392.01 503.37 1.5998 2.0001 2.6242 1020.0 -0.0041834 114.29 0.11178
104.38 8404.0 undefined 394.01 506.52 1.6051 515.00 0.0019417 394.01 506.52 1.6051 2.0044 2.6266 1021.6 -0.0041919 114.30 0.11191 515.00 0.0019417 394.01 506.52 1.6051 2.0044 2.6266 1021.6 -0.0041919 114.30 0.11191
105.38 8489.5 undefined 396.02 509.67 1.6104 515.00 0.0019417 396.02 509.67 1.6104 2.0087 2.6291 1023.3 -0.0042002 114.31 0.11204 515.00 0.0019417 396.02 509.67 1.6104 2.0087 2.6291 1023.3 -0.0042002 114.31 0.11204
106.38 8575.0 undefined 398.03 512.83 1.6157 515.00 0.0019417 398.03 512.83 1.6157 2.0131 2.6315 1024.9 -0.0042084 114.32 0.11217 515.00 0.0019417 398.03 512.83 1.6157 2.0131 2.6315 1024.9 -0.0042084 114.32 0.11217
107.38 8660.5 undefined 400.04 515.99 1.6210 515.00 0.0019417 400.04 515.99 1.6210 2.0174 2.6340 1026.6 -0.0042164 114.33 0.11230 515.00 0.0019417 400.04 515.99 1.6210 2.0174 2.6340 1026.6 -0.0042164 114.33 0.11230
108.38 8745.9 undefined 402.06 519.15 1.6263 515.00 0.0019417 402.06 519.15 1.6263 2.0217 2.6364 1028.2 -0.0042242 114.34 0.11243 515.00 0.0019417 402.06 519.15 1.6263 2.0217 2.6364 1028.2 -0.0042242 114.34 0.11243
109.38 8831.2 undefined 404.09 522.32 1.6316 515.00 0.0019417 404.09 522.32 1.6316 2.0261 2.6389 1029.8 -0.0042318 114.35 0.11256 515.00 0.0019417 404.09 522.32 1.6316 2.0261 2.6389 1029.8 -0.0042318 114.35 0.11256
110.38 8916.5 undefined 406.11 525.49 1.6369 515.00 0.0019417 406.11 525.49 1.6369 2.0304 2.6414 1031.4 -0.0042393 114.36 0.11270 515.00 0.0019417 406.11 525.49 1.6369 2.0304 2.6414 1031.4 -0.0042393 114.36 0.11270
111.38 9001.7 undefined 408.15 528.66 1.6422 515.00 0.0019417 408.15 528.66 1.6422 2.0347 2.6439 1033.1 -0.0042466 114.37 0.11283 515.00 0.0019417 408.15 528.66 1.6422 2.0347 2.6439 1033.1 -0.0042466 114.37 0.11283
112.38 9086.9 undefined 410.18 531.84 1.6475 515.00 0.0019417 410.18 531.84 1.6475 2.0390 2.6465 1034.7 -0.0042538 114.38 0.11296 515.00 0.0019417 410.18 531.84 1.6475 2.0390 2.6465 1034.7 -0.0042538 114.38 0.11296
113.38 9172.0 undefined 412.23 535.02 1.6527 515.00 0.0019417 412.23 535.02 1.6527 2.0434 2.6490 1036.3 -0.0042609 114.39 0.11309 515.00 0.0019417 412.23 535.02 1.6527 2.0434 2.6490 1036.3 -0.0042609 114.39 0.11309
114.38 9257.1 undefined 414.27 538.20 1.6580 515.00 0.0019417 414.27 538.20 1.6580 2.0477 2.6516 1037.9 -0.0042677 114.40 0.11323 515.00 0.0019417 414.27 538.20 1.6580 2.0477 2.6516 1037.9 -0.0042677 114.40 0.11323
115.38 9342.1 undefined 416.32 541.39 1.6633 515.00 0.0019417 416.32 541.39 1.6633 2.0520 2.6542 1039.5 -0.0042745 114.41 0.11336 515.00 0.0019417 416.32 541.39 1.6633 2.0520 2.6542 1039.5 -0.0042745 114.41 0.11336
116.38 9427.1 undefined 418.37 544.58 1.6686 515.00 0.0019417 418.37 544.58 1.6686 2.0563 2.6567 1041.1 -0.0042811 114.42 0.11349 515.00 0.0019417 418.37 544.58 1.6686 2.0563 2.6567 1041.1 -0.0042811 114.42 0.11349
117.38 9512.0 undefined 420.43 547.78 1.6739 515.00 0.0019417 420.43 547.78 1.6739 2.0606 2.6593 1042.7 -0.0042875 114.43 0.11363 515.00 0.0019417 420.43 547.78 1.6739 2.0606 2.6593 1042.7 -0.0042875 114.43 0.11363
118.38 9596.9 undefined 422.50 550.98 1.6791 515.00 0.0019417 422.50 550.98 1.6791 2.0649 2.6620 1044.2 -0.0042938 114.45 0.11376 515.00 0.0019417 422.50 550.98 1.6791 2.0649 2.6620 1044.2 -0.0042938 114.45 0.11376
119.38 9681.7 undefined 424.56 554.18 1.6844 515.00 0.0019417 424.56 554.18 1.6844 2.0692 2.6646 1045.8 -0.0043000 114.46 0.11390 515.00 0.0019417 424.56 554.18 1.6844 2.0692 2.6646 1045.8 -0.0043000 114.46 0.11390
120.38 9766.4 undefined 426.63 557.39 1.6897 515.00 0.0019417 426.63 557.39 1.6897 2.0735 2.6672 1047.4 -0.0043061 114.47 0.11403 515.00 0.0019417 426.63 557.39 1.6897 2.0735 2.6672 1047.4 -0.0043061 114.47 0.11403
121.38 9851.1 undefined 428.71 560.60 1.6950 515.00 0.0019417 428.71 560.60 1.6950 2.0778 2.6699 1048.9 -0.0043120 114.48 0.11417 515.00 0.0019417 428.71 560.60 1.6950 2.0778 2.6699 1048.9 -0.0043120 114.48 0.11417
122.38 9935.8 undefined 430.79 563.81 1.7002 515.00 0.0019417 430.79 563.81 1.7002 2.0821 2.6725 1050.5 -0.0043178 114.49 0.11430 515.00 0.0019417 430.79 563.81 1.7002 2.0821 2.6725 1050.5 -0.0043178 114.49 0.11430
123.38 10020. undefined 432.87 567.03 1.7055 515.00 0.0019417 432.87 567.03 1.7055 2.0864 2.6752 1052.1 -0.0043234 114.50 0.11444 515.00 0.0019417 432.87 567.03 1.7055 2.0864 2.6752 1052.1 -0.0043234 114.50 0.11444
124.38 10105. undefined 434.96 570.25 1.7107 515.00 0.0019417 434.96 570.25 1.7107 2.0907 2.6779 1053.6 -0.0043290 114.51 0.11457 515.00 0.0019417 434.96 570.25 1.7107 2.0907 2.6779 1053.6 -0.0043290 114.51 0.11457
125.38 10189. undefined 437.06 573.47 1.7160 515.00 0.0019417 437.06 573.47 1.7160 2.0950 2.6806 1055.2 -0.0043344 114.53 0.11471 515.00 0.0019417 437.06 573.47 1.7160 2.0950 2.6806 1055.2 -0.0043344 114.53 0.11471
126.38 10274. undefined 439.15 576.70 1.7213 515.00 0.0019417 439.15 576.70 1.7213 2.0993 2.6833 1056.7 -0.0043397 114.54 0.11485 515.00 0.0019417 439.15 576.70 1.7213 2.0993 2.6833 1056.7 -0.0043397 114.54 0.11485
127.38 10358. undefined 441.25 579.93 1.7265 515.00 0.0019417 441.25 579.93 1.7265 2.1036 2.6860 1058.2 -0.0043449 114.55 0.11498 515.00 0.0019417 441.25 579.93 1.7265 2.1036 2.6860 1058.2 -0.0043449 114.55 0.11498
128.38 10443. undefined 443.36 583.16 1.7318 515.00 0.0019417 443.36 583.16 1.7318 2.1078 2.6887 1059.8 -0.0043499 114.56 0.11512 515.00 0.0019417 443.36 583.16 1.7318 2.1078 2.6887 1059.8 -0.0043499 114.56 0.11512
129.38 10527. undefined 445.47 586.40 1.7370 515.00 0.0019417 445.47 586.40 1.7370 2.1121 2.6914 1061.3 -0.0043549 114.57 0.11526 515.00 0.0019417 445.47 586.40 1.7370 2.1121 2.6914 1061.3 -0.0043549 114.57 0.11526
130.38 10611. undefined 447.58 589.64 1.7423 515.00 0.0019417 447.58 589.64 1.7423 2.1164 2.6942 1062.8 -0.0043597 114.58 0.11539 515.00 0.0019417 447.58 589.64 1.7423 2.1164 2.6942 1062.8 -0.0043597 114.58 0.11539
131.38 10695. undefined 449.70 592.89 1.7475 515.00 0.0019417 449.70 592.89 1.7475 2.1206 2.6969 1064.4 -0.0043644 114.60 0.11553 515.00 0.0019417 449.70 592.89 1.7475 2.1206 2.6969 1064.4 -0.0043644 114.60 0.11553
132.38 10779. undefined 451.83 596.14 1.7527 515.00 0.0019417 451.83 596.14 1.7527 2.1249 2.6997 1065.9 -0.0043691 114.61 0.11567 515.00 0.0019417 451.83 596.14 1.7527 2.1249 2.6997 1065.9 -0.0043691 114.61 0.11567
133.38 10863. undefined 453.95 599.39 1.7580 515.00 0.0019417 453.95 599.39 1.7580 2.1292 2.7024 1067.4 -0.0043736 114.62 0.11581 515.00 0.0019417 453.95 599.39 1.7580 2.1292 2.7024 1067.4 -0.0043736 114.62 0.11581
134.38 10947. undefined 456.08 602.65 1.7632 515.00 0.0019417 456.08 602.65 1.7632 2.1334 2.7052 1068.9 -0.0043780 114.63 0.11595 515.00 0.0019417 456.08 602.65 1.7632 2.1334 2.7052 1068.9 -0.0043780 114.63 0.11595
135.38 11031. undefined 458.22 605.91 1.7685 515.00 0.0019417 458.22 605.91 1.7685 2.1377 2.7080 1070.4 -0.0043823 114.64 0.11609 515.00 0.0019417 458.22 605.91 1.7685 2.1377 2.7080 1070.4 -0.0043823 114.64 0.11609
136.38 11115. undefined 460.36 609.17 1.7737 515.00 0.0019417 460.36 609.17 1.7737 2.1419 2.7108 1071.9 -0.0043865 114.66 0.11623 515.00 0.0019417 460.36 609.17 1.7737 2.1419 2.7108 1071.9 -0.0043865 114.66 0.11623
137.38 11199. undefined 462.50 612.44 1.7789 515.00 0.0019417 462.50 612.44 1.7789 2.1462 2.7136 1073.4 -0.0043906 114.67 0.11637 515.00 0.0019417 462.50 612.44 1.7789 2.1462 2.7136 1073.4 -0.0043906 114.67 0.11637
138.38 11283. undefined 464.65 615.71 1.7841 515.00 0.0019417 464.65 615.71 1.7841 2.1504 2.7164 1074.9 -0.0043946 114.68 0.11651 515.00 0.0019417 464.65 615.71 1.7841 2.1504 2.7164 1074.9 -0.0043946 114.68 0.11651
139.38 11367. undefined 466.80 618.98 1.7894 515.00 0.0019417 466.80 618.98 1.7894 2.1546 2.7192 1076.4 -0.0043985 114.69 0.11665 515.00 0.0019417 466.80 618.98 1.7894 2.1546 2.7192 1076.4 -0.0043985 114.69 0.11665
140.38 11450. undefined 468.96 622.26 1.7946 515.00 0.0019417 468.96 622.26 1.7946 2.1589 2.7220 1077.8 -0.0044023 114.71 0.11679 515.00 0.0019417 468.96 622.26 1.7946 2.1589 2.7220 1077.8 -0.0044023 114.71 0.11679
141.38 11534. undefined 471.12 625.54 1.7998 515.00 0.0019417 471.12 625.54 1.7998 2.1631 2.7248 1079.3 -0.0044060 114.72 0.11693 515.00 0.0019417 471.12 625.54 1.7998 2.1631 2.7248 1079.3 -0.0044060 114.72 0.11693
142.38 11618. undefined 473.29 628.82 1.8050 515.00 0.0019417 473.29 628.82 1.8050 2.1673 2.7277 1080.8 -0.0044096 114.73 0.11707 515.00 0.0019417 473.29 628.82 1.8050 2.1673 2.7277 1080.8 -0.0044096 114.73 0.11707
143.38 11701. undefined 475.46 632.11 1.8102 515.00 0.0019417 475.46 632.11 1.8102 2.1715 2.7305 1082.3 -0.0044132 114.74 0.11721 515.00 0.0019417 475.46 632.11 1.8102 2.1715 2.7305 1082.3 -0.0044132 114.74 0.11721
144.38 11785. undefined 477.63 635.40 1.8154 515.00 0.0019417 477.63 635.40 1.8154 2.1758 2.7334 1083.7 -0.0044166 114.76 0.11735 515.00 0.0019417 477.63 635.40 1.8154 2.1758 2.7334 1083.7 -0.0044166 114.76 0.11735
145.38 11868. undefined 479.81 638.70 1.8207 515.00 0.0019417 479.81 638.70 1.8207 2.1800 2.7362 1085.2 -0.0044200 114.77 0.11750 515.00 0.0019417 479.81 638.70 1.8207 2.1800 2.7362 1085.2 -0.0044200 114.77 0.11750
146.38 11951. undefined 481.99 641.99 1.8259 515.00 0.0019417 481.99 641.99 1.8259 2.1842 2.7391 1086.6 -0.0044233 114.78 0.11764 515.00 0.0019417 481.99 641.99 1.8259 2.1842 2.7391 1086.6 -0.0044233 114.78 0.11764
147.38 12035. undefined 484.18 645.30 1.8311 515.00 0.0019417 484.18 645.30 1.8311 2.1884 2.7420 1088.1 -0.0044265 114.79 0.11778 515.00 0.0019417 484.18 645.30 1.8311 2.1884 2.7420 1088.1 -0.0044265 114.79 0.11778
148.38 12118. undefined 486.37 648.60 1.8363 515.00 0.0019417 486.37 648.60 1.8363 2.1926 2.7448 1089.5 -0.0044296 114.81 0.11792 515.00 0.0019417 486.37 648.60 1.8363 2.1926 2.7448 1089.5 -0.0044296 114.81 0.11792
149.38 12201. undefined 488.56 651.91 1.8415 515.00 0.0019417 488.56 651.91 1.8415 2.1968 2.7477 1091.0 -0.0044326 114.82 0.11807 515.00 0.0019417 488.56 651.91 1.8415 2.1968 2.7477 1091.0 -0.0044326 114.82 0.11807
150.38 12284. undefined 490.76 655.22 1.8467 515.00 0.0019417 490.76 655.22 1.8467 2.2010 2.7506 1092.4 -0.0044356 114.83 0.11821 515.00 0.0019417 490.76 655.22 1.8467 2.2010 2.7506 1092.4 -0.0044356 114.83 0.11821
151.38 12368. undefined 492.96 658.54 1.8519 515.00 0.0019417 492.96 658.54 1.8519 2.2052 2.7535 1093.9 -0.0044384 114.85 0.11835 515.00 0.0019417 492.96 658.54 1.8519 2.2052 2.7535 1093.9 -0.0044384 114.85 0.11835
152.38 12451. undefined 495.17 661.86 1.8571 515.00 0.0019417 495.17 661.86 1.8571 2.2093 2.7564 1095.3 -0.0044412 114.86 0.11850 515.00 0.0019417 495.17 661.86 1.8571 2.2093 2.7564 1095.3 -0.0044412 114.86 0.11850
153.38 12534. undefined 497.38 665.18 1.8623 515.00 0.0019417 497.38 665.18 1.8623 2.2135 2.7593 1096.7 -0.0044439 114.87 0.11864 515.00 0.0019417 497.38 665.18 1.8623 2.2135 2.7593 1096.7 -0.0044439 114.87 0.11864
154.38 12617. undefined 499.60 668.51 1.8674 515.00 0.0019417 499.60 668.51 1.8674 2.2177 2.7622 1098.2 -0.0044466 114.89 0.11879 515.00 0.0019417 499.60 668.51 1.8674 2.2177 2.7622 1098.2 -0.0044466 114.89 0.11879
155.38 12700. undefined 501.82 671.84 1.8726 515.00 0.0019417 501.82 671.84 1.8726 2.2219 2.7651 1099.6 -0.0044492 114.90 0.11893 515.00 0.0019417 501.82 671.84 1.8726 2.2219 2.7651 1099.6 -0.0044492 114.90 0.11893
156.38 12782. undefined 504.04 675.17 1.8778 515.00 0.0019417 504.04 675.17 1.8778 2.2260 2.7680 1101.0 -0.0044516 114.91 0.11908 515.00 0.0019417 504.04 675.17 1.8778 2.2260 2.7680 1101.0 -0.0044516 114.91 0.11908
157.38 12865. undefined 506.27 678.51 1.8830 515.00 0.0019417 506.27 678.51 1.8830 2.2302 2.7709 1102.4 -0.0044541 114.92 0.11922 515.00 0.0019417 506.27 678.51 1.8830 2.2302 2.7709 1102.4 -0.0044541 114.92 0.11922
158.38 12948. undefined 508.50 681.85 1.8882 515.00 0.0019417 508.50 681.85 1.8882 2.2344 2.7739 1103.8 -0.0044564 114.94 0.11937 515.00 0.0019417 508.50 681.85 1.8882 2.2344 2.7739 1103.8 -0.0044564 114.94 0.11937
159.38 13031. undefined 510.74 685.19 1.8933 515.00 0.0019417 510.74 685.19 1.8933 2.2385 2.7768 1105.2 -0.0044587 114.95 0.11952 515.00 0.0019417 510.74 685.19 1.8933 2.2385 2.7768 1105.2 -0.0044587 114.95 0.11952
160.38 13113. undefined 512.98 688.54 1.8985 515.00 0.0019417 512.98 688.54 1.8985 2.2427 2.7797 1106.6 -0.0044609 114.96 0.11966 515.00 0.0019417 512.98 688.54 1.8985 2.2427 2.7797 1106.6 -0.0044609 114.96 0.11966
161.38 13196. undefined 515.22 691.89 1.9037 515.00 0.0019417 515.22 691.89 1.9037 2.2468 2.7826 1108.0 -0.0044631 114.98 0.11981 515.00 0.0019417 515.22 691.89 1.9037 2.2468 2.7826 1108.0 -0.0044631 114.98 0.11981
162.38 13279. undefined 517.47 695.24 1.9089 515.00 0.0019417 517.47 695.24 1.9089 2.2510 2.7856 1109.4 -0.0044652 114.99 0.11996 515.00 0.0019417 517.47 695.24 1.9089 2.2510 2.7856 1109.4 -0.0044652 114.99 0.11996
163.38 13361. undefined 519.73 698.60 1.9140 515.00 0.0019417 519.73 698.60 1.9140 2.2551 2.7885 1110.8 -0.0044672 115.01 0.12010 515.00 0.0019417 519.73 698.60 1.9140 2.2551 2.7885 1110.8 -0.0044672 115.01 0.12010
164.38 13443. undefined 521.98 701.96 1.9192 515.00 0.0019417 521.98 701.96 1.9192 2.2592 2.7915 1112.2 -0.0044691 115.02 0.12025 515.00 0.0019417 521.98 701.96 1.9192 2.2592 2.7915 1112.2 -0.0044691 115.02 0.12025
165.38 13526. undefined 524.24 705.33 1.9244 515.00 0.0019417 524.24 705.33 1.9244 2.2633 2.7944 1113.6 -0.0044710 115.03 0.12040 515.00 0.0019417 524.24 705.33 1.9244 2.2633 2.7944 1113.6 -0.0044710 115.03 0.12040
166.38 13608. undefined 526.51 708.70 1.9295 515.00 0.0019417 526.51 708.70 1.9295 2.2675 2.7974 1115.0 -0.0044729 115.05 0.12055 515.00 0.0019417 526.51 708.70 1.9295 2.2675 2.7974 1115.0 -0.0044729 115.05 0.12055
167.38 13691. undefined 528.78 712.07 1.9347 515.00 0.0019417 528.78 712.07 1.9347 2.2716 2.8004 1116.4 -0.0044746 115.06 0.12070 515.00 0.0019417 528.78 712.07 1.9347 2.2716 2.8004 1116.4 -0.0044746 115.06 0.12070
168.38 13773. undefined 531.05 715.44 1.9398 515.00 0.0019417 531.05 715.44 1.9398 2.2757 2.8033 1117.7 -0.0044764 115.07 0.12084 515.00 0.0019417 531.05 715.44 1.9398 2.2757 2.8033 1117.7 -0.0044764 115.07 0.12084
169.38 13855. undefined 533.33 718.82 1.9450 515.00 0.0019417 533.33 718.82 1.9450 2.2798 2.8063 1119.1 -0.0044780 115.09 0.12099 515.00 0.0019417 533.33 718.82 1.9450 2.2798 2.8063 1119.1 -0.0044780 115.09 0.12099
170.38 13937. undefined 535.61 722.20 1.9501 515.00 0.0019417 535.61 722.20 1.9501 2.2839 2.8093 1120.5 -0.0044796 115.10 0.12114 515.00 0.0019417 535.61 722.20 1.9501 2.2839 2.8093 1120.5 -0.0044796 115.10 0.12114
171.38 14019. undefined 537.90 725.59 1.9553 515.00 0.0019417 537.90 725.59 1.9553 2.2880 2.8122 1121.8 -0.0044811 115.11 0.12129 515.00 0.0019417 537.90 725.59 1.9553 2.2880 2.8122 1121.8 -0.0044811 115.11 0.12129
172.38 14101. undefined 540.19 728.98 1.9604 515.00 0.0019417 540.19 728.98 1.9604 2.2921 2.8152 1123.2 -0.0044826 115.13 0.12144 515.00 0.0019417 540.19 728.98 1.9604 2.2921 2.8152 1123.2 -0.0044826 115.13 0.12144
173.38 14183. undefined 542.48 732.37 1.9656 515.00 0.0019417 542.48 732.37 1.9656 2.2962 2.8182 1124.6 -0.0044841 115.14 0.12159 515.00 0.0019417 542.48 732.37 1.9656 2.2962 2.8182 1124.6 -0.0044841 115.14 0.12159
174.38 14265. undefined 544.78 735.76 1.9707 515.00 0.0019417 544.78 735.76 1.9707 2.3003 2.8212 1125.9 -0.0044854 115.16 0.12174 515.00 0.0019417 544.78 735.76 1.9707 2.3003 2.8212 1125.9 -0.0044854 115.16 0.12174
175.38 14347. undefined 547.08 739.16 1.9759 515.00 0.0019417 547.08 739.16 1.9759 2.3044 2.8241 1127.3 -0.0044868 115.17 0.12189 515.00 0.0019417 547.08 739.16 1.9759 2.3044 2.8241 1127.3 -0.0044868 115.17 0.12189
176.38 14429. undefined 549.39 742.56 1.9810 515.00 0.0019417 549.39 742.56 1.9810 2.3084 2.8271 1128.6 -0.0044880 115.18 0.12205 515.00 0.0019417 549.39 742.56 1.9810 2.3084 2.8271 1128.6 -0.0044880 115.18 0.12205
177.38 14511. undefined 551.70 745.97 1.9861 515.00 0.0019417 551.70 745.97 1.9861 2.3125 2.8301 1130.0 -0.0044892 115.20 0.12220 515.00 0.0019417 551.70 745.97 1.9861 2.3125 2.8301 1130.0 -0.0044892 115.20 0.12220
178.38 14593. undefined 554.01 749.38 1.9913 515.00 0.0019417 554.01 749.38 1.9913 2.3166 2.8331 1131.3 -0.0044904 115.21 0.12235 515.00 0.0019417 554.01 749.38 1.9913 2.3166 2.8331 1131.3 -0.0044904 115.21 0.12235
179.38 14674. undefined 556.33 752.79 1.9964 515.00 0.0019417 556.33 752.79 1.9964 2.3206 2.8361 1132.6 -0.0044915 115.23 0.12250 515.00 0.0019417 556.33 752.79 1.9964 2.3206 2.8361 1132.6 -0.0044915 115.23 0.12250
180.38 14756. undefined 558.66 756.21 2.0015 515.00 0.0019417 558.66 756.21 2.0015 2.3247 2.8391 1134.0 -0.0044926 115.24 0.12265 515.00 0.0019417 558.66 756.21 2.0015 2.3247 2.8391 1134.0 -0.0044926 115.24 0.12265
181.38 14838. undefined 560.98 759.63 2.0066 515.00 0.0019417 560.98 759.63 2.0066 2.3287 2.8421 1135.3 -0.0044936 115.25 0.12281 515.00 0.0019417 560.98 759.63 2.0066 2.3287 2.8421 1135.3 -0.0044936 115.25 0.12281
182.38 14919. undefined 563.31 763.05 2.0118 515.00 0.0019417 563.31 763.05 2.0118 2.3328 2.8451 1136.6 -0.0044946 115.27 0.12296 515.00 0.0019417 563.31 763.05 2.0118 2.3328 2.8451 1136.6 -0.0044946 115.27 0.12296
183.38 15001. undefined 565.65 766.47 2.0169 515.00 0.0019417 565.65 766.47 2.0169 2.3368 2.8481 1138.0 -0.0044955 115.28 0.12311 515.00 0.0019417 565.65 766.47 2.0169 2.3368 2.8481 1138.0 -0.0044955 115.28 0.12311
184.38 15082. undefined 567.99 769.90 2.0220 515.00 0.0019417 567.99 769.90 2.0220 2.3409 2.8511 1139.3 -0.0044964 115.30 0.12327 515.00 0.0019417 567.99 769.90 2.0220 2.3409 2.8511 1139.3 -0.0044964 115.30 0.12327
185.38 15163. undefined 570.33 773.34 2.0271 515.00 0.0019417 570.33 773.34 2.0271 2.3449 2.8541 1140.6 -0.0044972 115.31 0.12342 515.00 0.0019417 570.33 773.34 2.0271 2.3449 2.8541 1140.6 -0.0044972 115.31 0.12342
186.38 15245. undefined 572.68 776.77 2.0322 515.00 0.0019417 572.68 776.77 2.0322 2.3489 2.8571 1141.9 -0.0044980 115.33 0.12357 515.00 0.0019417 572.68 776.77 2.0322 2.3489 2.8571 1141.9 -0.0044980 115.33 0.12357
187.38 15326. undefined 575.03 780.21 2.0373 515.00 0.0019417 575.03 780.21 2.0373 2.3530 2.8601 1143.2 -0.0044988 115.34 0.12373 515.00 0.0019417 575.03 780.21 2.0373 2.3530 2.8601 1143.2 -0.0044988 115.34 0.12373
188.38 15407. undefined 577.38 783.65 2.0424 515.00 0.0019417 577.38 783.65 2.0424 2.3570 2.8631 1144.6 -0.0044995 115.35 0.12388 515.00 0.0019417 577.38 783.65 2.0424 2.3570 2.8631 1144.6 -0.0044995 115.35 0.12388
189.38 15489. undefined 579.74 787.10 2.0475 515.00 0.0019417 579.74 787.10 2.0475 2.3610 2.8661 1145.9 -0.0045001 115.37 0.12404 515.00 0.0019417 579.74 787.10 2.0475 2.3610 2.8661 1145.9 -0.0045001 115.37 0.12404
190.38 15570. undefined 582.10 790.55 2.0527 515.00 0.0019417 582.10 790.55 2.0527 2.3650 2.8691 1147.2 -0.0045008 115.38 0.12419 515.00 0.0019417 582.10 790.55 2.0527 2.3650 2.8691 1147.2 -0.0045008 115.38 0.12419
191.38 15651. undefined 584.47 794.00 2.0578 515.00 0.0019417 584.47 794.00 2.0578 2.3690 2.8721 1148.5 -0.0045013 115.40 0.12435 515.00 0.0019417 584.47 794.00 2.0578 2.3690 2.8721 1148.5 -0.0045013 115.40 0.12435
192.38 15732. undefined 586.84 797.46 2.0629 515.00 0.0019417 586.84 797.46 2.0629 2.3730 2.8752 1149.8 -0.0045019 115.41 0.12450 515.00 0.0019417 586.84 797.46 2.0629 2.3730 2.8752 1149.8 -0.0045019 115.41 0.12450
193.38 15813. undefined 589.22 800.92 2.0679 515.00 0.0019417 589.22 800.92 2.0679 2.3770 2.8782 1151.1 -0.0045024 115.43 0.12466 515.00 0.0019417 589.22 800.92 2.0679 2.3770 2.8782 1151.1 -0.0045024 115.43 0.12466
194.38 15894. undefined 591.60 804.38 2.0730 515.00 0.0019417 591.60 804.38 2.0730 2.3810 2.8812 1152.4 -0.0045028 115.44 0.12482 515.00 0.0019417 591.60 804.38 2.0730 2.3810 2.8812 1152.4 -0.0045028 115.44 0.12482
195.38 15975. undefined 593.98 807.85 2.0781 515.00 0.0019417 593.98 807.85 2.0781 2.3850 2.8842 1153.7 -0.0045033 115.46 0.12497 515.00 0.0019417 593.98 807.85 2.0781 2.3850 2.8842 1153.7 -0.0045033 115.46 0.12497
196.38 16056. undefined 596.37 811.32 2.0832 515.00 0.0019417 596.37 811.32 2.0832 2.3889 2.8872 1154.9 -0.0045037 115.47 0.12513 515.00 0.0019417 596.37 811.32 2.0832 2.3889 2.8872 1154.9 -0.0045037 115.47 0.12513
197.38 16136. undefined 598.76 814.79 2.0883 515.00 0.0019417 598.76 814.79 2.0883 2.3929 2.8902 1156.2 -0.0045040 115.48 0.12529 515.00 0.0019417 598.76 814.79 2.0883 2.3929 2.8902 1156.2 -0.0045040 115.48 0.12529
198.38 16217. undefined 601.15 818.27 2.0934 515.00 0.0019417 601.15 818.27 2.0934 2.3969 2.8933 1157.5 -0.0045043 115.50 0.12545 515.00 0.0019417 601.15 818.27 2.0934 2.3969 2.8933 1157.5 -0.0045043 115.50 0.12545
199.38 16298. undefined 603.55 821.75 2.0985 515.00 0.0019417 603.55 821.75 2.0985 2.4008 2.8963 1158.8 -0.0045046 115.51 0.12560 515.00 0.0019417 603.55 821.75 2.0985 2.4008 2.8963 1158.8 -0.0045046 115.51 0.12560
200.38 16379. undefined 605.95 825.23 2.1036 515.00 0.0019417 605.95 825.23 2.1036 2.4048 2.8993 1160.1 -0.0045048 115.53 0.12576 515.00 0.0019417 605.95 825.23 2.1036 2.4048 2.8993 1160.1 -0.0045048 115.53 0.12576
201.38 16459. undefined 608.36 828.71 2.1086 515.00 0.0019417 608.36 828.71 2.1086 2.4087 2.9023 1161.3 -0.0045050 115.54 0.12592 515.00 0.0019417 608.36 828.71 2.1086 2.4087 2.9023 1161.3 -0.0045050 115.54 0.12592
202.38 16540. undefined 610.77 832.20 2.1137 515.00 0.0019417 610.77 832.20 2.1137 2.4127 2.9053 1162.6 -0.0045052 115.56 0.12608 515.00 0.0019417 610.77 832.20 2.1137 2.4127 2.9053 1162.6 -0.0045052 115.56 0.12608
203.38 16620. undefined 613.19 835.70 2.1188 515.00 0.0019417 613.19 835.70 2.1188 2.4166 2.9084 1163.9 -0.0045053 115.57 0.12624 515.00 0.0019417 613.19 835.70 2.1188 2.4166 2.9084 1163.9 -0.0045053 115.57 0.12624
204.38 16701. undefined 615.60 839.19 2.1239 515.00 0.0019417 615.60 839.19 2.1239 2.4206 2.9114 1165.1 -0.0045054 115.59 0.12640 515.00 0.0019417 615.60 839.19 2.1239 2.4206 2.9114 1165.1 -0.0045054 115.59 0.12640
205.38 16781. undefined 618.03 842.69 2.1289 515.00 0.0019417 618.03 842.69 2.1289 2.4245 2.9144 1166.4 -0.0045055 115.60 0.12656 515.00 0.0019417 618.03 842.69 2.1289 2.4245 2.9144 1166.4 -0.0045055 115.60 0.12656
206.38 16862. undefined 620.45 846.19 2.1340 515.00 0.0019417 620.45 846.19 2.1340 2.4284 2.9174 1167.7 -0.0045055 115.62 0.12672 515.00 0.0019417 620.45 846.19 2.1340 2.4284 2.9174 1167.7 -0.0045055 115.62 0.12672
207.38 16942. undefined 622.88 849.70 2.1390 515.00 0.0019417 622.88 849.70 2.1390 2.4324 2.9204 1168.9 -0.0045056 115.63 0.12688 515.00 0.0019417 622.88 849.70 2.1390 2.4324 2.9204 1168.9 -0.0045056 115.63 0.12688
208.38 17022. undefined 625.32 853.21 2.1441 515.00 0.0019417 625.32 853.21 2.1441 2.4363 2.9235 1170.2 -0.0045055 115.65 0.12704 515.00 0.0019417 625.32 853.21 2.1441 2.4363 2.9235 1170.2 -0.0045055 115.65 0.12704
209.38 17102. undefined 627.76 856.72 2.1492 515.00 0.0019417 627.76 856.72 2.1492 2.4402 2.9265 1171.4 -0.0045055 115.66 0.12720 515.00 0.0019417 627.76 856.72 2.1492 2.4402 2.9265 1171.4 -0.0045055 115.66 0.12720
210.38 17183. undefined 630.20 860.24 2.1542 515.00 0.0019417 630.20 860.24 2.1542 2.4441 2.9295 1172.7 -0.0045054 115.68 0.12736 515.00 0.0019417 630.20 860.24 2.1542 2.4441 2.9295 1172.7 -0.0045054 115.68 0.12736
211.38 17263. undefined 632.64 863.76 2.1593 515.00 0.0019417 632.64 863.76 2.1593 2.4480 2.9325 1173.9 -0.0045053 115.69 0.12752 515.00 0.0019417 632.64 863.76 2.1593 2.4480 2.9325 1173.9 -0.0045053 115.69 0.12752
212.38 17343. undefined 635.09 867.28 2.1643 515.00 0.0019417 635.09 867.28 2.1643 2.4519 2.9356 1175.2 -0.0045051 115.71 0.12768 515.00 0.0019417 635.09 867.28 2.1643 2.4519 2.9356 1175.2 -0.0045051 115.71 0.12768
213.38 17423. undefined 637.55 870.80 2.1694 515.00 0.0019417 637.55 870.80 2.1694 2.4558 2.9386 1176.4 -0.0045049 115.72 0.12784 515.00 0.0019417 637.55 870.80 2.1694 2.4558 2.9386 1176.4 -0.0045049 115.72 0.12784
214.38 17503. undefined 640.01 874.33 2.1744 515.00 0.0019417 640.01 874.33 2.1744 2.4597 2.9416 1177.7 -0.0045047 115.74 0.12801 515.00 0.0019417 640.01 874.33 2.1744 2.4597 2.9416 1177.7 -0.0045047 115.74 0.12801
215.38 17583. undefined 642.47 877.87 2.1795 515.00 0.0019417 642.47 877.87 2.1795 2.4636 2.9446 1178.9 -0.0045045 115.75 0.12817 515.00 0.0019417 642.47 877.87 2.1795 2.4636 2.9446 1178.9 -0.0045045 115.75 0.12817
216.38 17663. undefined 644.93 881.40 2.1845 515.00 0.0019417 644.93 881.40 2.1845 2.4674 2.9477 1180.1 -0.0045043 115.77 0.12833 515.00 0.0019417 644.93 881.40 2.1845 2.4674 2.9477 1180.1 -0.0045043 115.77 0.12833
217.38 17743. undefined 647.40 884.94 2.1895 515.00 0.0019417 647.40 884.94 2.1895 2.4713 2.9507 1181.4 -0.0045040 115.78 0.12850 515.00 0.0019417 647.40 884.94 2.1895 2.4713 2.9507 1181.4 -0.0045040 115.78 0.12850
218.38 17822. undefined 649.88 888.48 2.1946 515.00 0.0019417 649.88 888.48 2.1946 2.4752 2.9537 1182.6 -0.0045037 115.80 0.12866 515.00 0.0019417 649.88 888.48 2.1946 2.4752 2.9537 1182.6 -0.0045037 115.80 0.12866
219.38 17902. undefined 652.35 892.03 2.1996 515.00 0.0019417 652.35 892.03 2.1996 2.4790 2.9567 1183.8 -0.0045033 115.81 0.12882 515.00 0.0019417 652.35 892.03 2.1996 2.4790 2.9567 1183.8 -0.0045033 115.81 0.12882
220.38 17982. undefined 654.83 895.57 2.2047 515.00 0.0019417 654.83 895.57 2.2047 2.4829 2.9597 1185.0 -0.0045030 115.83 0.12899 515.00 0.0019417 654.83 895.57 2.2047 2.4829 2.9597 1185.0 -0.0045030 115.83 0.12899
221.38 18062. undefined 657.32 899.13 2.2097 515.00 0.0019417 657.32 899.13 2.2097 2.4867 2.9628 1186.3 -0.0045026 115.84 0.12915 515.00 0.0019417 657.32 899.13 2.2097 2.4867 2.9628 1186.3 -0.0045026 115.84 0.12915
222.38 18141. undefined 659.81 902.68 2.2147 515.00 0.0019417 659.81 902.68 2.2147 2.4906 2.9658 1187.5 -0.0045022 115.86 0.12932 515.00 0.0019417 659.81 902.68 2.2147 2.4906 2.9658 1187.5 -0.0045022 115.86 0.12932
223.38 18221. undefined 662.30 906.24 2.2197 515.00 0.0019417 662.30 906.24 2.2197 2.4944 2.9688 1188.7 -0.0045017 115.87 0.12948 515.00 0.0019417 662.30 906.24 2.2197 2.4944 2.9688 1188.7 -0.0045017 115.87 0.12948
224.38 18300. undefined 664.80 909.80 2.2248 515.00 0.0019417 664.80 909.80 2.2248 2.4983 2.9718 1189.9 -0.0045013 115.89 0.12965 515.00 0.0019417 664.80 909.80 2.2248 2.4983 2.9718 1189.9 -0.0045013 115.89 0.12965
225.38 18380. undefined 667.30 913.36 2.2298 515.00 0.0019417 667.30 913.36 2.2298 2.5021 2.9748 1191.1 -0.0045008 115.90 0.12981 515.00 0.0019417 667.30 913.36 2.2298 2.5021 2.9748 1191.1 -0.0045008 115.90 0.12981
226.38 18459. undefined 669.80 916.93 2.2348 515.00 0.0019417 669.80 916.93 2.2348 2.5059 2.9778 1192.3 -0.0045003 115.92 0.12998 515.00 0.0019417 669.80 916.93 2.2348 2.5059 2.9778 1192.3 -0.0045003 115.92 0.12998
227.38 18539. undefined 672.31 920.50 2.2398 515.00 0.0019417 672.31 920.50 2.2398 2.5097 2.9809 1193.5 -0.0044997 115.94 0.13014 515.00 0.0019417 672.31 920.50 2.2398 2.5097 2.9809 1193.5 -0.0044997 115.94 0.13014
228.38 18618. undefined 674.82 924.07 2.2448 515.00 0.0019417 674.82 924.07 2.2448 2.5136 2.9839 1194.7 -0.0044992 115.95 0.13031 515.00 0.0019417 674.82 924.07 2.2448 2.5136 2.9839 1194.7 -0.0044992 115.95 0.13031
229.38 18697. undefined 677.34 927.65 2.2498 515.00 0.0019417 677.34 927.65 2.2498 2.5174 2.9869 1195.9 -0.0044986 115.97 0.13048 515.00 0.0019417 677.34 927.65 2.2498 2.5174 2.9869 1195.9 -0.0044986 115.97 0.13048
230.38 18777. undefined 679.85 931.23 2.2548 515.00 0.0019417 679.85 931.23 2.2548 2.5212 2.9899 1197.1 -0.0044980 115.98 0.13064 515.00 0.0019417 679.85 931.23 2.2548 2.5212 2.9899 1197.1 -0.0044980 115.98 0.13064
231.38 18856. undefined 682.38 934.82 2.2598 515.00 0.0019417 682.38 934.82 2.2598 2.5250 2.9929 1198.3 -0.0044974 116.00 0.13081 515.00 0.0019417 682.38 934.82 2.2598 2.5250 2.9929 1198.3 -0.0044974 116.00 0.13081
232.38 18935. undefined 684.90 938.40 2.2648 515.00 0.0019417 684.90 938.40 2.2648 2.5288 2.9959 1199.5 -0.0044967 116.01 0.13098 515.00 0.0019417 684.90 938.40 2.2648 2.5288 2.9959 1199.5 -0.0044967 116.01 0.13098
233.38 19014. undefined 687.44 941.99 2.2699 515.00 0.0019417 687.44 941.99 2.2699 2.5325 2.9989 1200.7 -0.0044961 116.03 0.13115 515.00 0.0019417 687.44 941.99 2.2699 2.5325 2.9989 1200.7 -0.0044961 116.03 0.13115
234.38 19093. undefined 689.97 945.58 2.2748 515.00 0.0019417 689.97 945.58 2.2748 2.5363 3.0019 1201.9 -0.0044954 116.04 0.13131 515.00 0.0019417 689.97 945.58 2.2748 2.5363 3.0019 1201.9 -0.0044954 116.04 0.13131
235.38 19172. undefined 692.51 949.18 2.2798 515.00 0.0019417 692.51 949.18 2.2798 2.5401 3.0049 1203.1 -0.0044947 116.06 0.13148 515.00 0.0019417 692.51 949.18 2.2798 2.5401 3.0049 1203.1 -0.0044947 116.06 0.13148
236.38 19251. undefined 695.05 952.78 2.2848 515.00 0.0019417 695.05 952.78 2.2848 2.5439 3.0080 1204.3 -0.0044939 116.07 0.13165 515.00 0.0019417 695.05 952.78 2.2848 2.5439 3.0080 1204.3 -0.0044939 116.07 0.13165
237.38 19330. undefined 697.60 956.38 2.2898 515.00 0.0019417 697.60 956.38 2.2898 2.5477 3.0110 1205.5 -0.0044932 116.09 0.13182 515.00 0.0019417 697.60 956.38 2.2898 2.5477 3.0110 1205.5 -0.0044932 116.09 0.13182
238.38 19409. undefined 700.15 959.99 2.2948 515.00 0.0019417 700.15 959.99 2.2948 2.5514 3.0140 1206.7 -0.0044924 116.11 0.13199 515.00 0.0019417 700.15 959.99 2.2948 2.5514 3.0140 1206.7 -0.0044924 116.11 0.13199
239.38 19488. undefined 702.70 963.60 2.2998 515.00 0.0019417 702.70 963.60 2.2998 2.5552 3.0170 1207.8 -0.0044917 116.12 0.13216 515.00 0.0019417 702.70 963.60 2.2998 2.5552 3.0170 1207.8 -0.0044917 116.12 0.13216
240.38 19566. undefined 705.26 967.21 2.3048 515.00 0.0019417 705.26 967.21 2.3048 2.5589 3.0200 1209.0 -0.0044908 116.14 0.13233 515.00 0.0019417 705.26 967.21 2.3048 2.5589 3.0200 1209.0 -0.0044908 116.14 0.13233
241.38 19645. undefined 707.82 970.82 2.3098 515.00 0.0019417 707.82 970.82 2.3098 2.5627 3.0230 1210.2 -0.0044900 116.15 0.13250 515.00 0.0019417 707.82 970.82 2.3098 2.5627 3.0230 1210.2 -0.0044900 116.15 0.13250
242.38 19724. undefined 710.38 974.44 2.3148 515.00 0.0019417 710.38 974.44 2.3148 2.5664 3.0260 1211.4 -0.0044892 116.17 0.13267 515.00 0.0019417 710.38 974.44 2.3148 2.5664 3.0260 1211.4 -0.0044892 116.17 0.13267
243.38 19803. undefined 712.95 978.06 2.3197 515.00 0.0019417 712.95 978.06 2.3197 2.5702 3.0290 1212.5 -0.0044883 116.18 0.13284 515.00 0.0019417 712.95 978.06 2.3197 2.5702 3.0290 1212.5 -0.0044883 116.18 0.13284
244.38 19881. undefined 715.52 981.69 2.3247 515.00 0.0019417 715.52 981.69 2.3247 2.5739 3.0320 1213.7 -0.0044875 116.20 0.13301 515.00 0.0019417 715.52 981.69 2.3247 2.5739 3.0320 1213.7 -0.0044875 116.20 0.13301
245.38 19960. undefined 718.10 985.32 2.3297 515.00 0.0019417 718.10 985.32 2.3297 2.5776 3.0350 1214.9 -0.0044866 116.21 0.13318 515.00 0.0019417 718.10 985.32 2.3297 2.5776 3.0350 1214.9 -0.0044866 116.21 0.13318
246.38 20038. undefined 720.68 988.95 2.3346 515.00 0.0019417 720.68 988.95 2.3346 2.5813 3.0379 1216.0 -0.0044857 116.23 0.13335 515.00 0.0019417 720.68 988.95 2.3346 2.5813 3.0379 1216.0 -0.0044857 116.23 0.13335
247.38 20117. undefined 723.26 992.58 2.3396 515.00 0.0019417 723.26 992.58 2.3396 2.5850 3.0409 1217.2 -0.0044847 116.25 0.13353 515.00 0.0019417 723.26 992.58 2.3396 2.5850 3.0409 1217.2 -0.0044847 116.25 0.13353
248.38 20195. undefined 725.85 996.22 2.3446 515.00 0.0019417 725.85 996.22 2.3446 2.5888 3.0439 1218.4 -0.0044838 116.26 0.13370 515.00 0.0019417 725.85 996.22 2.3446 2.5888 3.0439 1218.4 -0.0044838 116.26 0.13370
249.38 20274. undefined 728.44 999.86 2.3495 515.00 0.0019417 728.44 999.86 2.3495 2.5925 3.0469 1219.5 -0.0044828 116.28 0.13387 515.00 0.0019417 728.44 999.86 2.3495 2.5925 3.0469 1219.5 -0.0044828 116.28 0.13387
250.38 20352. undefined 731.03 1003.5 2.3545 515.00 0.0019417 731.03 1003.5 2.3545 2.5962 3.0499 1220.7 -0.0044819 116.29 0.13404 515.00 0.0019417 731.03 1003.5 2.3545 2.5962 3.0499 1220.7 -0.0044819 116.29 0.13404
251.38 20430. undefined 733.63 1007.1 2.3595 515.00 0.0019417 733.63 1007.1 2.3595 2.5999 3.0529 1221.8 -0.0044809 116.31 0.13422 515.00 0.0019417 733.63 1007.1 2.3595 2.5999 3.0529 1221.8 -0.0044809 116.31 0.13422
252.38 20508. undefined 736.23 1010.8 2.3644 515.00 0.0019417 736.23 1010.8 2.3644 2.6036 3.0559 1223.0 -0.0044799 116.32 0.13439 515.00 0.0019417 736.23 1010.8 2.3644 2.6036 3.0559 1223.0 -0.0044799 116.32 0.13439
253.38 20587. undefined 738.84 1014.4 2.3694 515.00 0.0019417 738.84 1014.4 2.3694 2.6072 3.0589 1224.1 -0.0044789 116.34 0.13456 515.00 0.0019417 738.84 1014.4 2.3694 2.6072 3.0589 1224.1 -0.0044789 116.34 0.13456
254.38 20665. undefined 741.45 1018.1 2.3743 515.00 0.0019417 741.45 1018.1 2.3743 2.6109 3.0618 1225.3 -0.0044778 116.36 0.13474 515.00 0.0019417 741.45 1018.1 2.3743 2.6109 3.0618 1225.3 -0.0044778 116.36 0.13474
255.38 20743. undefined 744.06 1021.8 2.3793 515.00 0.0019417 744.06 1021.8 2.3793 2.6146 3.0648 1226.4 -0.0044768 116.37 0.13491 515.00 0.0019417 744.06 1021.8 2.3793 2.6146 3.0648 1226.4 -0.0044768 116.37 0.13491
256.38 20821. undefined 746.67 1025.4 2.3842 515.00 0.0019417 746.67 1025.4 2.3842 2.6183 3.0678 1227.5 -0.0044757 116.39 0.13509 515.00 0.0019417 746.67 1025.4 2.3842 2.6183 3.0678 1227.5 -0.0044757 116.39 0.13509
257.38 20899. undefined 749.29 1029.1 2.3892 515.00 0.0019417 749.29 1029.1 2.3892 2.6219 3.0708 1228.7 -0.0044746 116.40 0.13526 515.00 0.0019417 749.29 1029.1 2.3892 2.6219 3.0708 1228.7 -0.0044746 116.40 0.13526
258.38 20977. undefined 751.92 1032.8 2.3941 515.00 0.0019417 751.92 1032.8 2.3941 2.6256 3.0738 1229.8 -0.0044735 116.42 0.13544 515.00 0.0019417 751.92 1032.8 2.3941 2.6256 3.0738 1229.8 -0.0044735 116.42 0.13544
259.38 21055. undefined 754.55 1036.4 2.3990 515.00 0.0019417 754.55 1036.4 2.3990 2.6292 3.0767 1231.0 -0.0044724 116.44 0.13561 515.00 0.0019417 754.55 1036.4 2.3990 2.6292 3.0767 1231.0 -0.0044724 116.44 0.13561
260.38 21133. undefined 757.18 1040.1 2.4040 515.00 0.0019417 757.18 1040.1 2.4040 2.6329 3.0797 1232.1 -0.0044713 116.45 0.13579 515.00 0.0019417 757.18 1040.1 2.4040 2.6329 3.0797 1232.1 -0.0044713 116.45 0.13579
261.38 21211. undefined 759.81 1043.8 2.4089 515.00 0.0019417 759.81 1043.8 2.4089 2.6365 3.0827 1233.2 -0.0044702 116.47 0.13596 515.00 0.0019417 759.81 1043.8 2.4089 2.6365 3.0827 1233.2 -0.0044702 116.47 0.13596
262.38 21288. undefined 762.45 1047.5 2.4138 515.00 0.0019417 762.45 1047.5 2.4138 2.6402 3.0856 1234.4 -0.0044690 116.48 0.13614 515.00 0.0019417 762.45 1047.5 2.4138 2.6402 3.0856 1234.4 -0.0044690 116.48 0.13614
263.38 21366. undefined 765.09 1051.1 2.4188 515.00 0.0019417 765.09 1051.1 2.4188 2.6438 3.0886 1235.5 -0.0044679 116.50 0.13632 515.00 0.0019417 765.09 1051.1 2.4188 2.6438 3.0886 1235.5 -0.0044679 116.50 0.13632
264.38 21444. undefined 767.74 1054.8 2.4237 515.00 0.0019417 767.74 1054.8 2.4237 2.6474 3.0916 1236.6 -0.0044667 116.51 0.13649 515.00 0.0019417 767.74 1054.8 2.4237 2.6474 3.0916 1236.6 -0.0044667 116.51 0.13649
265.38 21522. undefined 770.39 1058.5 2.4286 515.00 0.0019417 770.39 1058.5 2.4286 2.6511 3.0945 1237.7 -0.0044655 116.53 0.13667 515.00 0.0019417 770.39 1058.5 2.4286 2.6511 3.0945 1237.7 -0.0044655 116.53 0.13667
266.38 21599. undefined 773.04 1062.2 2.4335 515.00 0.0019417 773.04 1062.2 2.4335 2.6547 3.0975 1238.9 -0.0044643 116.55 0.13685 515.00 0.0019417 773.04 1062.2 2.4335 2.6547 3.0975 1238.9 -0.0044643 116.55 0.13685
267.38 21677. undefined 775.70 1065.9 2.4385 515.00 0.0019417 775.70 1065.9 2.4385 2.6583 3.1004 1240.0 -0.0044631 116.56 0.13703 515.00 0.0019417 775.70 1065.9 2.4385 2.6583 3.1004 1240.0 -0.0044631 116.56 0.13703
268.38 21754. undefined 778.36 1069.6 2.4434 515.00 0.0019417 778.36 1069.6 2.4434 2.6619 3.1034 1241.1 -0.0044619 116.58 0.13720 515.00 0.0019417 778.36 1069.6 2.4434 2.6619 3.1034 1241.1 -0.0044619 116.58 0.13720
269.38 21832. undefined 781.02 1073.3 2.4483 515.00 0.0019417 781.02 1073.3 2.4483 2.6655 3.1064 1242.2 -0.0044607 116.59 0.13738 515.00 0.0019417 781.02 1073.3 2.4483 2.6655 3.1064 1242.2 -0.0044607 116.59 0.13738
270.38 21909. undefined 783.69 1077.0 2.4532 515.00 0.0019417 783.69 1077.0 2.4532 2.6691 3.1093 1243.3 -0.0044594 116.61 0.13756 515.00 0.0019417 783.69 1077.0 2.4532 2.6691 3.1093 1243.3 -0.0044594 116.61 0.13756
271.38 21987. undefined 786.36 1080.7 2.4581 515.00 0.0019417 786.36 1080.7 2.4581 2.6727 3.1123 1244.4 -0.0044582 116.63 0.13774 515.00 0.0019417 786.36 1080.7 2.4581 2.6727 3.1123 1244.4 -0.0044582 116.63 0.13774
272.38 22064. undefined 789.03 1084.4 2.4630 515.00 0.0019417 789.03 1084.4 2.4630 2.6763 3.1152 1245.5 -0.0044569 116.64 0.13792 515.00 0.0019417 789.03 1084.4 2.4630 2.6763 3.1152 1245.5 -0.0044569 116.64 0.13792
273.38 22141. undefined 791.71 1088.1 2.4679 515.00 0.0019417 791.71 1088.1 2.4679 2.6799 3.1181 1246.7 -0.0044557 116.66 0.13810 515.00 0.0019417 791.71 1088.1 2.4679 2.6799 3.1181 1246.7 -0.0044557 116.66 0.13810
274.38 22219. undefined 794.39 1091.9 2.4728 515.00 0.0019417 794.39 1091.9 2.4728 2.6835 3.1211 1247.8 -0.0044544 116.67 0.13828 515.00 0.0019417 794.39 1091.9 2.4728 2.6835 3.1211 1247.8 -0.0044544 116.67 0.13828
275.38 22296. undefined 797.08 1095.6 2.4777 515.00 0.0019417 797.08 1095.6 2.4777 2.6870 3.1240 1248.9 -0.0044531 116.69 0.13846 515.00 0.0019417 797.08 1095.6 2.4777 2.6870 3.1240 1248.9 -0.0044531 116.69 0.13846
276.38 22373. undefined 799.77 1099.3 2.4826 515.00 0.0019417 799.77 1099.3 2.4826 2.6906 3.1270 1250.0 -0.0044518 116.71 0.13864 515.00 0.0019417 799.77 1099.3 2.4826 2.6906 3.1270 1250.0 -0.0044518 116.71 0.13864
277.38 22450. undefined 802.46 1103.0 2.4875 515.00 0.0019417 802.46 1103.0 2.4875 2.6942 3.1299 1251.1 -0.0044505 116.72 0.13882 515.00 0.0019417 802.46 1103.0 2.4875 2.6942 3.1299 1251.1 -0.0044505 116.72 0.13882
278.38 22527. undefined 805.16 1106.7 2.4924 515.00 0.0019417 805.16 1106.7 2.4924 2.6977 3.1328 1252.2 -0.0044491 116.74 0.13900 515.00 0.0019417 805.16 1106.7 2.4924 2.6977 3.1328 1252.2 -0.0044491 116.74 0.13900
279.38 22604. undefined 807.85 1110.5 2.4973 515.00 0.0019417 807.85 1110.5 2.4973 2.7013 3.1358 1253.3 -0.0044478 116.75 0.13918 515.00 0.0019417 807.85 1110.5 2.4973 2.7013 3.1358 1253.3 -0.0044478 116.75 0.13918
280.38 22681. undefined 810.56 1114.2 2.5022 515.00 0.0019417 810.56 1114.2 2.5022 2.7048 3.1387 1254.4 -0.0044464 116.77 0.13936 515.00 0.0019417 810.56 1114.2 2.5022 2.7048 3.1387 1254.4 -0.0044464 116.77 0.13936
281.38 22758. undefined 813.26 1118.0 2.5071 515.00 0.0019417 813.26 1118.0 2.5071 2.7084 3.1416 1255.4 -0.0044451 116.79 0.13955 515.00 0.0019417 813.26 1118.0 2.5071 2.7084 3.1416 1255.4 -0.0044451 116.79 0.13955
282.38 22835. undefined 815.97 1121.7 2.5120 515.00 0.0019417 815.97 1121.7 2.5120 2.7119 3.1446 1256.5 -0.0044437 116.80 0.13943 515.00 0.0019417 815.97 1121.7 2.5120 2.7119 3.1446 1256.5 -0.0044437 116.80 0.13943
283.38 22912. undefined 818.69 1125.4 2.5168 515.00 0.0019417 818.69 1125.4 2.5168 2.7154 3.1475 1257.6 -0.0044424 116.82 0.13962 515.00 0.0019417 818.69 1125.4 2.5168 2.7154 3.1475 1257.6 -0.0044424 116.82 0.13962
284.38 22989. undefined 821.41 1129.2 2.5217 515.00 0.0019417 821.41 1129.2 2.5217 2.7190 3.1504 1258.7 -0.0044410 116.84 0.13980 515.00 0.0019417 821.41 1129.2 2.5217 2.7190 3.1504 1258.7 -0.0044410 116.84 0.13980
285.38 23066. undefined 824.13 1132.9 2.5266 515.00 0.0019417 824.13 1132.9 2.5266 2.7225 3.1533 1259.8 -0.0044396 116.85 0.13998 515.00 0.0019417 824.13 1132.9 2.5266 2.7225 3.1533 1259.8 -0.0044396 116.85 0.13998
286.38 23143. undefined 826.85 1136.7 2.5315 515.00 0.0019417 826.85 1136.7 2.5315 2.7260 3.1563 1260.9 -0.0044382 116.87 0.14016 515.00 0.0019417 826.85 1136.7 2.5315 2.7260 3.1563 1260.9 -0.0044382 116.87 0.14016
287.38 23219. undefined 829.58 1140.4 2.5363 515.00 0.0019417 829.58 1140.4 2.5363 2.7295 3.1592 1262.0 -0.0044368 116.88 0.14035 515.00 0.0019417 829.58 1140.4 2.5363 2.7295 3.1592 1262.0 -0.0044368 116.88 0.14035
288.38 23296. undefined 832.31 1144.2 2.5412 515.00 0.0019417 832.31 1144.2 2.5412 2.7330 3.1621 1263.0 -0.0044354 116.90 0.14053 515.00 0.0019417 832.31 1144.2 2.5412 2.7330 3.1621 1263.0 -0.0044354 116.90 0.14053
289.38 23373. undefined 835.04 1148.0 2.5461 515.00 0.0019417 835.04 1148.0 2.5461 2.7365 3.1650 1264.1 -0.0044339 116.92 0.14071 515.00 0.0019417 835.04 1148.0 2.5461 2.7365 3.1650 1264.1 -0.0044339 116.92 0.14071
290.38 23449. undefined 837.78 1151.7 2.5509 515.00 0.0019417 837.78 1151.7 2.5509 2.7400 3.1679 1265.2 -0.0044325 116.93 0.14090 515.00 0.0019417 837.78 1151.7 2.5509 2.7400 3.1679 1265.2 -0.0044325 116.93 0.14090
291.38 23526. undefined 840.52 1155.5 2.5558 515.00 0.0019417 840.52 1155.5 2.5558 2.7435 3.1708 1266.3 -0.0044311 116.95 0.14108 515.00 0.0019417 840.52 1155.5 2.5558 2.7435 3.1708 1266.3 -0.0044311 116.95 0.14108
292.38 23603. undefined 843.27 1159.3 2.5606 515.00 0.0019417 843.27 1159.3 2.5606 2.7470 3.1737 1267.3 -0.0044296 116.96 0.14126 515.00 0.0019417 843.27 1159.3 2.5606 2.7470 3.1737 1267.3 -0.0044296 116.96 0.14126
293.38 23679. undefined 846.02 1163.0 2.5655 515.00 0.0019417 846.02 1163.0 2.5655 2.7505 3.1766 1268.4 -0.0044281 116.98 0.14145 515.00 0.0019417 846.02 1163.0 2.5655 2.7505 3.1766 1268.4 -0.0044281 116.98 0.14145
294.38 23755. undefined 848.77 1166.8 2.5704 515.00 0.0019417 848.77 1166.8 2.5704 2.7540 3.1795 1269.5 -0.0044267 117.00 0.14163 515.00 0.0019417 848.77 1166.8 2.5704 2.7540 3.1795 1269.5 -0.0044267 117.00 0.14163
295.38 23832. undefined 851.53 1170.6 2.5752 515.00 0.0019417 851.53 1170.6 2.5752 2.7575 3.1824 1270.6 -0.0044252 117.01 0.14182 515.00 0.0019417 851.53 1170.6 2.5752 2.7575 3.1824 1270.6 -0.0044252 117.01 0.14182
296.38 23908. undefined 854.29 1174.4 2.5801 515.00 0.0019417 854.29 1174.4 2.5801 2.7609 3.1853 1271.6 -0.0044237 117.03 0.14200 515.00 0.0019417 854.29 1174.4 2.5801 2.7609 3.1853 1271.6 -0.0044237 117.03 0.14200
297.38 23984. undefined 857.05 1178.1 2.5849 515.00 0.0019417 857.05 1178.1 2.5849 2.7644 3.1882 1272.7 -0.0044222 117.05 0.14219 515.00 0.0019417 857.05 1178.1 2.5849 2.7644 3.1882 1272.7 -0.0044222 117.05 0.14219
298.38 24061. undefined 859.81 1181.9 2.5898 515.00 0.0019417 859.81 1181.9 2.5898 2.7678 3.1911 1273.7 -0.0044208 117.06 0.14238 515.00 0.0019417 859.81 1181.9 2.5898 2.7678 3.1911 1273.7 -0.0044208 117.06 0.14238
299.38 24137. undefined 862.58 1185.7 2.5946 515.00 0.0019417 862.58 1185.7 2.5946 2.7713 3.1940 1274.8 -0.0044193 117.08 0.14256 515.00 0.0019417 862.58 1185.7 2.5946 2.7713 3.1940 1274.8 -0.0044193 117.08 0.14256
300.38 24213. undefined 865.36 1189.5 2.5994 515.00 0.0019417 865.36 1189.5 2.5994 2.7747 3.1969 1275.9 -0.0044177 117.09 0.14275 515.00 0.0019417 865.36 1189.5 2.5994 2.7747 3.1969 1275.9 -0.0044177 117.09 0.14275