Temperature (C) Pressure (psia) Quality (l+v) Internal Energy (l+v, kJ/kg) Enthalpy (l+v, kJ/kg) Entropy (l+v, J/g*K) Density (l, kg/m3) Volume (l, m3/kg) Internal Energy (l, kJ/kg) Enthalpy (l, kJ/kg) Entropy (l, J/g*K) Cv (l, J/g*K) Cp (l, J/g*K) Sound Spd. (l, m/s) Joule-Thomson (l, F/psia) Viscosity (l, uPa*s) Therm. Cond. (l, W/m*K) Density (v, kg/m3) Volume (v, m3/kg) Internal Energy (v, kJ/kg) Enthalpy (v, kJ/kg) Entropy (v, J/g*K) Cv (v, J/g*K) Cp (v, J/g*K) Sound Spd. (v, m/s) Joule-Thomson (v, F/psia) Viscosity (v, uPa*s) Therm. Cond. (v, W/m*K)
-187.62 2.4953e-08 5.7690e-12 -196.64 -196.64 -1.3959 733.13 0.0013640 -196.64 -196.64 -1.3959 1.3553 1.9158 2136.4 -0.0077592 10960. 0.20792 1.0669e-08 9.3732e+07 350.13 366.26 5.1858 0.69067 0.87923 143.28 6.1051 2.3259 0.0017061
-186.62 3.7339e-08 8.5022e-12 -194.73 -194.73 -1.3736 732.08 0.0013660 -194.73 -194.73 -1.3736 1.3539 1.9166 2129.6 -0.0077546 10073. 0.20765 1.5780e-08 6.3371e+07 350.82 367.14 5.1200 0.69462 0.88317 144.03 5.9178 2.3534 0.0017533
-185.62 5.5322e-08 1.2408e-11 -192.81 -192.81 -1.3516 731.04 0.0013679 -192.81 -192.81 -1.3516 1.3525 1.9174 2122.9 -0.0077498 9276.1 0.20737 2.3112e-08 4.3267e+07 351.52 368.02 5.0561 0.69857 0.88713 144.77 5.7383 2.3808 0.0018007
-184.62 8.1182e-08 1.7937e-11 -190.89 -190.89 -1.3298 730.00 0.0013699 -190.89 -190.89 -1.3298 1.3513 1.9182 2116.1 -0.0077448 8557.8 0.20708 3.3533e-08 2.9821e+07 352.22 368.91 4.9939 0.70253 0.89108 145.51 5.5662 2.4083 0.0018485
-183.62 1.1803e-07 2.5694e-11 -188.97 -188.97 -1.3083 728.96 0.0013718 -188.97 -188.97 -1.3083 1.3501 1.9191 2109.3 -0.0077395 7909.8 0.20678 4.8211e-08 2.0742e+07 352.92 369.81 4.9333 0.70648 0.89504 146.24 5.4011 2.4357 0.0018965
-182.62 1.7009e-07 3.6481e-11 -187.05 -187.05 -1.2869 727.92 0.0013738 -187.05 -187.05 -1.2869 1.3490 1.9201 2102.5 -0.0077340 7324.3 0.20647 6.8704e-08 1.4555e+07 353.63 370.70 4.8744 0.71043 0.89899 146.97 5.2426 2.4632 0.0019448
-181.62 2.4299e-07 5.1357e-11 -185.13 -185.13 -1.2658 726.88 0.0013757 -185.13 -185.13 -1.2658 1.3480 1.9210 2095.7 -0.0077283 6794.5 0.20616 9.7079e-08 1.0301e+07 354.35 371.60 4.8170 0.71438 0.90294 147.69 5.0904 2.4906 0.0019934
-180.62 3.4425e-07 7.1706e-11 -183.21 -183.21 -1.2450 725.85 0.0013777 -183.21 -183.21 -1.2450 1.3470 1.9220 2088.9 -0.0077225 6314.4 0.20584 1.3605e-07 7.3504e+06 355.06 372.51 4.7612 0.71833 0.90688 148.41 4.9442 2.5181 0.0020423
-179.62 4.8378e-07 9.9322e-11 -181.29 -181.29 -1.2243 724.81 0.0013797 -181.29 -181.29 -1.2243 1.3461 1.9231 2082.0 -0.0077164 5878.8 0.20551 1.8915e-07 5.2868e+06 355.78 373.42 4.7068 0.72227 0.91082 149.13 4.8038 2.5456 0.0020915
-178.62 6.7459e-07 1.3652e-10 -179.37 -179.37 -1.2038 723.78 0.0013816 -179.37 -179.37 -1.2038 1.3453 1.9241 2075.2 -0.0077102 5482.9 0.20517 2.6096e-07 3.8320e+06 356.51 374.33 4.6538 0.72620 0.91475 149.84 4.6688 2.5731 0.0021410
-177.62 9.3358e-07 1.8625e-10 -177.44 -177.44 -1.1836 722.75 0.0013836 -177.44 -177.44 -1.1836 1.3445 1.9252 2068.4 -0.0077039 5122.6 0.20483 3.5737e-07 2.7982e+06 357.23 375.25 4.6022 0.73012 0.91867 150.54 4.5390 2.6005 0.0021907
-176.62 1.2826e-06 2.5226e-10 -175.52 -175.52 -1.1635 721.72 0.0013856 -175.52 -175.52 -1.1635 1.3437 1.9263 2061.5 -0.0076973 4794.1 0.20447 4.8588e-07 2.0581e+06 357.97 376.17 4.5519 0.73403 0.92258 151.25 4.4142 2.6280 0.0022408
-175.62 1.7496e-06 3.3929e-10 -173.59 -173.59 -1.1437 720.69 0.0013876 -173.59 -173.59 -1.1437 1.3430 1.9274 2054.7 -0.0076907 4494.3 0.20411 6.5601e-07 1.5244e+06 358.70 377.09 4.5029 0.73792 0.92648 151.95 4.2941 2.6555 0.0022912
-174.62 2.3705e-06 4.5327e-10 -171.66 -171.66 -1.1240 719.66 0.0013895 -171.66 -171.66 -1.1240 1.3423 1.9286 2047.9 -0.0076838 4220.2 0.20375 8.7976e-07 1.1367e+06 359.44 378.02 4.4551 0.74181 0.93036 152.64 4.1784 2.6830 0.0023418
-173.62 3.1903e-06 6.0158e-10 -169.73 -169.73 -1.1045 718.64 0.0013915 -169.73 -169.73 -1.1045 1.3417 1.9298 2041.0 -0.0076769 3969.3 0.20338 1.1721e-06 8.5314e+05 360.19 378.95 4.4085 0.74568 0.93423 153.33 4.0671 2.7105 0.0023928
-172.62 4.2661e-06 7.9336e-10 -167.80 -167.80 -1.0852 717.61 0.0013935 -167.80 -167.80 -1.0852 1.3411 1.9310 2034.2 -0.0076698 3739.3 0.20300 1.5518e-06 6.4441e+05 360.93 379.89 4.3631 0.74953 0.93809 154.02 3.9599 2.7379 0.0024440
-171.62 5.6692e-06 1.0398e-09 -165.87 -165.87 -1.0661 716.58 0.0013955 -165.87 -165.87 -1.0661 1.3405 1.9322 2027.3 -0.0076625 3528.0 0.20261 2.0419e-06 4.8974e+05 361.69 380.83 4.3188 0.75337 0.94193 154.71 3.8566 2.7654 0.0024955
-170.62 7.4884e-06 1.3548e-09 -163.94 -163.94 -1.0472 715.56 0.0013975 -163.94 -163.94 -1.0472 1.3400 1.9334 2020.5 -0.0076552 3333.8 0.20222 2.6708e-06 3.7442e+05 362.44 381.77 4.2755 0.75720 0.94575 155.39 3.7570 2.7929 0.0025473
-169.62 9.8334e-06 1.7549e-09 -162.00 -162.00 -1.0284 714.54 0.0013995 -162.00 -162.00 -1.0284 1.3395 1.9347 2013.6 -0.0076477 3154.9 0.20182 3.4733e-06 2.8791e+05 363.20 382.72 4.2334 0.76100 0.94956 156.07 3.6609 2.8204 0.0025994
-168.62 1.2839e-05 2.2604e-09 -160.07 -160.07 -1.0098 713.52 0.0014015 -160.07 -160.07 -1.0098 1.3390 1.9359 2006.8 -0.0076401 2989.9 0.20141 4.4917e-06 2.2263e+05 363.96 383.67 4.1922 0.76479 0.95335 156.74 3.5683 2.8479 0.0026518
-167.62 1.6672e-05 2.8957e-09 -158.13 -158.13 -0.99134 712.49 0.0014035 -158.13 -158.13 -0.99134 1.3386 1.9372 2000.0 -0.0076323 2837.5 0.20100 5.7771e-06 1.7310e+05 364.73 384.63 4.1521 0.76856 0.95712 157.41 3.4790 2.8754 0.0027045
-166.62 2.1533e-05 3.6900e-09 -156.19 -156.19 -0.97306 711.47 0.0014055 -156.19 -156.19 -0.97306 1.3382 1.9385 1993.1 -0.0076245 2696.5 0.20058 7.3914e-06 1.3529e+05 365.50 385.59 4.1129 0.77232 0.96087 158.08 3.3927 2.9029 0.0027575
-165.62 2.7666e-05 4.6780e-09 -154.25 -154.25 -0.95494 710.45 0.0014075 -154.25 -154.25 -0.95494 1.3378 1.9398 1986.3 -0.0076165 2566.0 0.20016 9.4084e-06 1.0629e+05 366.27 386.55 4.0746 0.77605 0.96460 158.75 3.3095 2.9304 0.0028108
-164.62 3.5367e-05 5.9009e-09 -152.31 -152.31 -0.93698 709.44 0.0014096 -152.31 -152.31 -0.93698 1.3375 1.9411 1979.4 -0.0076084 2444.9 0.19973 1.1916e-05 83918. 367.05 387.52 4.0372 0.77976 0.96832 159.41 3.2291 2.9579 0.0028643
-163.62 4.4989e-05 7.4074e-09 -150.37 -150.37 -0.91917 708.42 0.0014116 -150.37 -150.37 -0.91917 1.3371 1.9424 1972.6 -0.0076002 2332.3 0.19930 1.5020e-05 66577. 367.83 388.49 4.0008 0.78346 0.97201 160.07 3.1514 2.9854 0.0029182
-162.62 5.6956e-05 9.2548e-09 -148.43 -148.43 -0.90151 707.40 0.0014136 -148.43 -148.43 -0.90151 1.3368 1.9437 1965.8 -0.0075919 2227.7 0.19886 1.8844e-05 53068. 368.62 389.46 3.9651 0.78713 0.97569 160.72 3.0764 3.0129 0.0029723
-161.62 7.1773e-05 1.1510e-08 -146.48 -146.48 -0.88400 706.38 0.0014157 -146.48 -146.48 -0.88400 1.3365 1.9451 1959.0 -0.0075834 2130.2 0.19841 2.3533e-05 42494. 369.41 390.44 3.9304 0.79079 0.97935 161.38 3.0038 3.0404 0.0030268
-160.62 9.0036e-05 1.4251e-08 -144.54 -144.54 -0.86663 705.37 0.0014177 -144.54 -144.54 -0.86663 1.3363 1.9465 1952.1 -0.0075748 2039.2 0.19796 2.9258e-05 34178. 370.20 391.42 3.8964 0.79443 0.98298 162.03 2.9337 3.0679 0.0030815
-159.62 0.00011245 1.7568e-08 -142.59 -142.59 -0.84940 704.35 0.0014197 -142.59 -142.59 -0.84940 1.3360 1.9478 1945.3 -0.0075661 1954.2 0.19751 3.6221e-05 27609. 371.00 392.40 3.8632 0.79805 0.98660 162.68 2.8658 3.0955 0.0031365
-158.62 0.00013985 2.1566e-08 -140.64 -140.64 -0.83231 703.34 0.0014218 -140.64 -140.64 -0.83231 1.3358 1.9492 1938.5 -0.0075573 1874.8 0.19705 4.4652e-05 22395. 371.80 393.39 3.8307 0.80164 0.99020 163.32 2.8002 3.1230 0.0031918
-157.62 0.00017320 2.6365e-08 -138.69 -138.69 -0.81536 702.32 0.0014238 -138.69 -138.69 -0.81536 1.3356 1.9506 1931.7 -0.0075484 1800.3 0.19658 5.4822e-05 18241. 372.60 394.38 3.7990 0.80522 0.99378 163.96 2.7367 3.1505 0.0032474
-156.62 0.00021364 3.2103e-08 -136.74 -136.74 -0.79854 701.31 0.0014259 -136.74 -136.74 -0.79854 1.3354 1.9520 1924.9 -0.0075393 1730.5 0.19611 6.7040e-05 14916. 373.41 395.38 3.7680 0.80878 0.99734 164.60 2.6752 3.1780 0.0033033
-155.62 0.00026248 3.8938e-08 -134.79 -134.79 -0.78185 700.30 0.0014280 -134.79 -134.79 -0.78185 1.3352 1.9534 1918.1 -0.0075302 1664.9 0.19564 8.1666e-05 12245. 374.22 396.38 3.7377 0.81232 1.0009 165.24 2.6157 3.2055 0.0033595
-154.62 0.00032125 4.7050e-08 -132.83 -132.83 -0.76530 699.29 0.0014300 -132.83 -132.83 -0.76530 1.3350 1.9548 1911.3 -0.0075209 1603.3 0.19516 9.9109e-05 10090. 375.03 397.38 3.7081 0.81585 1.0044 165.87 2.5580 3.2330 0.0034160
-153.62 0.00039171 5.6642e-08 -130.88 -130.88 -0.74887 698.27 0.0014321 -130.88 -130.88 -0.74887 1.3349 1.9563 1904.5 -0.0075114 1545.3 0.19468 0.00011984 8344.6 375.85 398.39 3.6792 0.81935 1.0079 166.50 2.5022 3.2606 0.0034727
-152.62 0.00047590 6.7945e-08 -128.92 -128.92 -0.73256 697.26 0.0014342 -128.92 -128.92 -0.73256 1.3348 1.9577 1897.8 -0.0075019 1490.6 0.19419 0.00014439 6925.9 376.67 399.40 3.6509 0.82284 1.0114 167.13 2.4481 3.2881 0.0035298
-151.62 0.00057613 8.1217e-08 -126.96 -126.96 -0.71638 696.25 0.0014363 -126.96 -126.96 -0.71638 1.3346 1.9592 1891.0 -0.0074922 1438.9 0.19370 0.00017336 5768.4 377.49 400.41 3.6232 0.82631 1.0149 167.76 2.3957 3.3156 0.0035872
-150.62 0.00069507 9.6751e-08 -125.00 -125.00 -0.70032 695.24 0.0014384 -125.00 -125.00 -0.70032 1.3345 1.9606 1884.2 -0.0074824 1390.2 0.19320 0.00020744 4820.7 378.32 401.42 3.5962 0.82976 1.0183 168.38 2.3448 3.3431 0.0036448
-149.62 0.00083574 1.1487e-07 -123.04 -123.04 -0.68438 694.23 0.0014404 -123.04 -123.04 -0.68438 1.3345 1.9621 1877.4 -0.0074724 1344.0 0.19270 0.00024740 4042.0 379.15 402.44 3.5697 0.83319 1.0218 169.00 2.2956 3.3706 0.0037027
-148.62 0.0010016 1.3594e-07 -121.08 -121.08 -0.66855 693.22 0.0014425 -121.08 -121.08 -0.66855 1.3344 1.9636 1870.7 -0.0074623 1300.3 0.19220 0.00029412 3400.0 379.99 403.47 3.5438 0.83661 1.0252 169.62 2.2478 3.3982 0.0037610
-147.62 0.0011965 1.6037e-07 -119.11 -119.11 -0.65284 692.21 0.0014447 -119.11 -119.11 -0.65284 1.3343 1.9651 1863.9 -0.0074521 1258.9 0.19169 0.00034856 2869.0 380.83 404.49 3.5185 0.84001 1.0286 170.24 2.2014 3.4257 0.0038195
-146.62 0.0014249 1.8861e-07 -117.15 -117.15 -0.63724 691.20 0.0014468 -117.15 -117.15 -0.63724 1.3343 1.9666 1857.2 -0.0074417 1219.6 0.19117 0.00041181 2428.3 381.67 405.52 3.4938 0.84340 1.0320 170.85 2.1565 3.4532 0.0038783
-145.62 0.0016917 2.2115e-07 -115.18 -115.18 -0.62175 690.19 0.0014489 -115.18 -115.18 -0.62175 1.3343 1.9682 1850.4 -0.0074312 1182.3 0.19066 0.00048510 2061.4 382.51 406.56 3.4695 0.84677 1.0353 171.46 2.1128 3.4807 0.0039374
-144.62 0.0020026 2.5853e-07 -113.21 -113.21 -0.60637 689.18 0.0014510 -113.21 -113.21 -0.60637 1.3343 1.9697 1843.7 -0.0074206 1146.8 0.19014 0.00056976 1755.1 383.36 407.59 3.4458 0.85012 1.0387 172.07 2.0705 3.5082 0.0039967
-143.62 0.0023637 3.0137e-07 -111.24 -111.24 -0.59110 688.17 0.0014531 -111.24 -111.24 -0.59110 1.3343 1.9713 1836.9 -0.0074098 1113.0 0.18962 0.00066731 1498.6 384.21 408.63 3.4226 0.85346 1.0420 172.68 2.0294 3.5358 0.0040564
-142.62 0.0027820 3.5033e-07 -109.27 -109.27 -0.57593 687.16 0.0014553 -109.27 -109.27 -0.57593 1.3343 1.9728 1830.2 -0.0073988 1080.8 0.18909 0.00077939 1283.1 385.07 409.68 3.3999 0.85679 1.0454 173.28 1.9896 3.5633 0.0041164
-141.62 0.0032653 4.0612e-07 -107.30 -107.30 -0.56087 686.15 0.0014574 -107.30 -107.30 -0.56087 1.3343 1.9744 1823.5 -0.0073878 1050.1 0.18856 0.00090784 1101.5 385.93 410.72 3.3777 0.86011 1.0487 173.88 1.9508 3.5908 0.0041766
-140.62 0.0038222 4.6954e-07 -105.32 -105.32 -0.54591 685.14 0.0014596 -105.32 -105.32 -0.54591 1.3344 1.9760 1816.7 -0.0073765 1020.7 0.18803 0.0010547 948.16 386.79 411.77 3.3560 0.86341 1.0520 174.48 1.9133 3.6183 0.0042372
-139.62 0.0044623 5.4145e-07 -103.34 -103.34 -0.53105 684.13 0.0014617 -103.34 -103.34 -0.53105 1.3344 1.9776 1810.0 -0.0073651 992.74 0.18749 0.0012221 818.26 387.65 412.83 3.3347 0.86670 1.0553 175.08 1.8768 3.6459 0.0042980
-138.62 0.0051963 6.2277e-07 -101.37 -101.37 -0.51628 683.12 0.0014639 -101.37 -101.37 -0.51629 1.3345 1.9792 1803.3 -0.0073536 965.97 0.18695 0.0014125 707.94 388.52 413.88 3.3139 0.86998 1.0586 175.67 1.8413 3.6734 0.0043592
-137.62 0.0060358 7.1453e-07 -99.386 -99.386 -0.50162 682.11 0.0014660 -99.386 -99.386 -0.50162 1.3346 1.9808 1796.6 -0.0073419 940.35 0.18641 0.0016287 614.00 389.39 414.94 3.2935 0.87325 1.0619 176.26 1.8069 3.7009 0.0044206
-136.62 0.0069938 8.1780e-07 -97.404 -97.404 -0.48705 681.10 0.0014682 -97.404 -97.404 -0.48705 1.3347 1.9825 1789.9 -0.0073301 915.81 0.18586 0.0018733 533.80 390.26 416.00 3.2735 0.87650 1.0651 176.85 1.7734 3.7284 0.0044823
-135.62 0.0080843 9.3377e-07 -95.421 -95.421 -0.47258 680.09 0.0014704 -95.421 -95.421 -0.47258 1.3348 1.9841 1783.2 -0.0073180 892.30 0.18531 0.0021497 465.17 391.14 417.07 3.2540 0.87975 1.0684 177.44 1.7409 3.7559 0.0045443
-134.62 0.0093230 1.0637e-06 -93.436 -93.436 -0.45819 679.08 0.0014726 -93.436 -93.436 -0.45820 1.3350 1.9858 1776.5 -0.0073059 869.75 0.18476 0.0024613 406.30 392.02 418.14 3.2348 0.88299 1.0716 178.02 1.7093 3.7834 0.0046066
-133.62 0.010727 1.2090e-06 -91.449 -91.449 -0.44390 678.07 0.0014748 -91.450 -91.449 -0.44391 1.3351 1.9875 1769.8 -0.0072935 848.11 0.18421 0.0028116 355.67 392.91 419.21 3.2161 0.88622 1.0749 178.61 1.6786 3.8109 0.0046691
-132.62 0.012315 1.3710e-06 -89.461 -89.460 -0.42970 677.06 0.0014770 -89.461 -89.461 -0.42971 1.3353 1.9892 1763.1 -0.0072810 827.32 0.18365 0.0032049 312.03 393.79 420.29 3.1977 0.88944 1.0781 179.19 1.6488 3.8385 0.0047320
-131.62 0.014106 1.5513e-06 -87.470 -87.470 -0.41559 676.04 0.0014792 -87.471 -87.471 -0.41560 1.3354 1.9909 1756.4 -0.0072684 807.34 0.18309 0.0036453 274.33 394.68 421.36 3.1798 0.89266 1.0813 179.76 1.6197 3.8660 0.0047951
-130.62 0.016124 1.7516e-06 -85.479 -85.478 -0.40157 675.03 0.0014814 -85.479 -85.479 -0.40157 1.3356 1.9926 1749.7 -0.0072555 788.12 0.18253 0.0041375 241.69 395.58 422.44 3.1622 0.89586 1.0846 180.34 1.5915 3.8935 0.0048586
-129.62 0.018392 1.9737e-06 -83.485 -83.485 -0.38763 674.02 0.0014836 -83.486 -83.486 -0.38763 1.3358 1.9944 1743.0 -0.0072425 769.63 0.18196 0.0046867 213.37 396.47 423.53 3.1450 0.89906 1.0878 180.91 1.5641 3.9210 0.0049223
-128.62 0.020935 2.2194e-06 -81.490 -81.489 -0.37377 673.01 0.0014859 -81.491 -81.490 -0.37378 1.3360 1.9961 1736.3 -0.0072294 751.83 0.18140 0.0052981 188.75 397.37 424.62 3.1281 0.90226 1.0910 181.48 1.5374 3.9485 0.0049863
-127.62 0.023783 2.4906e-06 -79.492 -79.492 -0.36000 672.00 0.0014881 -79.494 -79.493 -0.36001 1.3363 1.9979 1729.6 -0.0072160 734.67 0.18083 0.0059776 167.29 398.27 425.71 3.1116 0.90545 1.0942 182.05 1.5114 3.9760 0.0050506
-126.62 0.026966 2.7896e-06 -77.494 -77.493 -0.34631 670.98 0.0014904 -77.495 -77.495 -0.34632 1.3365 1.9997 1722.9 -0.0072025 718.14 0.18025 0.0067313 148.56 399.18 426.80 3.0954 0.90863 1.0974 182.62 1.4861 4.0035 0.0051152
-125.62 0.030515 3.1184e-06 -75.493 -75.492 -0.33271 669.97 0.0014926 -75.494 -75.494 -0.33272 1.3368 2.0015 1716.2 -0.0071888 702.18 0.17968 0.0075660 132.17 400.09 427.89 3.0795 0.91181 1.1006 183.18 1.4615 4.0310 0.0051800
-124.62 0.034467 3.4794e-06 -73.490 -73.490 -0.31918 668.95 0.0014949 -73.492 -73.492 -0.31919 1.3371 2.0033 1709.5 -0.0071749 686.79 0.17910 0.0084885 117.81 401.00 428.99 3.0640 0.91499 1.1038 183.74 1.4375 4.0584 0.0052452
-123.62 0.038859 3.8751e-06 -71.486 -71.485 -0.30573 667.94 0.0014971 -71.488 -71.487 -0.30574 1.3374 2.0051 1702.8 -0.0071609 671.93 0.17852 0.0095065 105.19 401.91 430.10 3.0488 0.91816 1.1070 184.30 1.4141 4.0859 0.0053106
-122.62 0.043731 4.3080e-06 -69.480 -69.479 -0.29235 666.92 0.0014994 -69.482 -69.481 -0.29237 1.3377 2.0070 1696.2 -0.0071466 657.57 0.17794 0.010628 94.092 402.83 431.20 3.0339 0.92134 1.1102 184.86 1.3913 4.1134 0.0053764
-121.62 0.049128 4.7808e-06 -67.471 -67.471 -0.27906 665.91 0.0015017 -67.474 -67.473 -0.27907 1.3380 2.0089 1689.5 -0.0071322 643.70 0.17736 0.011861 84.309 403.75 432.31 3.0193 0.92451 1.1134 185.41 1.3691 4.1409 0.0054424
-120.62 0.055096 5.2963e-06 -65.461 -65.461 -0.26584 664.89 0.0015040 -65.464 -65.463 -0.26585 1.3384 2.0107 1682.8 -0.0071176 630.28 0.17678 0.013215 75.669 404.67 433.42 3.0050 0.92767 1.1166 185.96 1.3475 4.1683 0.0055087
-119.62 0.061684 5.8574e-06 -63.449 -63.449 -0.25269 663.87 0.0015063 -63.452 -63.452 -0.25271 1.3387 2.0126 1676.1 -0.0071028 617.30 0.17619 0.014700 68.027 405.60 434.53 2.9909 0.93084 1.1198 186.51 1.3264 4.1958 0.0055752
-118.62 0.068946 6.4672e-06 -61.436 -61.435 -0.23961 662.86 0.0015086 -61.439 -61.438 -0.23963 1.3391 2.0146 1669.4 -0.0070878 604.74 0.17560 0.016325 61.255 406.53 435.64 2.9772 0.93401 1.1231 187.06 1.3058 4.2233 0.0056421
-117.62 0.076937 7.1288e-06 -59.420 -59.419 -0.22661 661.84 0.0015109 -59.423 -59.422 -0.22663 1.3395 2.0165 1662.8 -0.0070726 592.58 0.17501 0.018101 55.245 407.46 436.76 2.9638 0.93718 1.1263 187.60 1.2857 4.2507 0.0057092
-116.62 0.085718 7.8455e-06 -57.402 -57.401 -0.21368 660.82 0.0015133 -57.406 -57.405 -0.21370 1.3400 2.0184 1656.1 -0.0070573 580.80 0.17442 0.020040 49.901 408.39 437.88 2.9506 0.94035 1.1295 188.14 1.2660 4.2782 0.0057767
-115.62 0.095353 8.6208e-06 -55.382 -55.381 -0.20081 659.80 0.0015156 -55.386 -55.385 -0.20084 1.3404 2.0204 1649.4 -0.0070417 569.38 0.17383 0.022152 45.142 409.33 439.01 2.9377 0.94352 1.1327 188.68 1.2468 4.3056 0.0058444
-114.62 0.10591 9.4580e-06 -53.361 -53.359 -0.18802 658.78 0.0015180 -53.365 -53.364 -0.18805 1.3409 2.0224 1642.7 -0.0070260 558.32 0.17323 0.024451 40.898 410.27 440.13 2.9250 0.94669 1.1360 189.22 1.2281 4.3330 0.0059123
-113.62 0.11746 1.0361e-05 -51.337 -51.335 -0.17529 657.76 0.0015203 -51.342 -51.340 -0.17533 1.3413 2.0244 1636.0 -0.0070100 547.59 0.17264 0.026949 37.107 411.21 441.26 2.9126 0.94987 1.1392 189.75 1.2097 4.3604 0.0059806
-112.62 0.13008 1.1333e-05 -49.311 -49.309 -0.16263 656.73 0.0015227 -49.316 -49.315 -0.16267 1.3418 2.0264 1629.3 -0.0069938 537.18 0.17204 0.029661 33.715 412.16 442.39 2.9005 0.95305 1.1424 190.28 1.1918 4.3879 0.0060491
-111.62 0.14384 1.2379e-05 -47.283 -47.281 -0.15004 655.71 0.0015251 -47.289 -47.287 -0.15008 1.3424 2.0285 1622.7 -0.0069774 527.08 0.17144 0.032600 30.675 413.10 443.53 2.8885 0.95623 1.1457 190.81 1.1742 4.4153 0.0061180
-110.62 0.15884 1.3501e-05 -45.253 -45.251 -0.13751 654.69 0.0015274 -45.259 -45.258 -0.13755 1.3429 2.0305 1616.0 -0.0069609 517.28 0.17084 0.035781 27.948 414.06 444.66 2.8769 0.95942 1.1490 191.34 1.1570 4.4427 0.0061871
-109.62 0.17516 1.4705e-05 -43.221 -43.219 -0.12505 653.66 0.0015298 -43.228 -43.226 -0.12509 1.3435 2.0326 1609.3 -0.0069441 507.76 0.17024 0.039220 25.497 415.01 445.80 2.8654 0.96261 1.1522 191.86 1.1402 4.4701 0.0062564
-108.62 0.19290 1.5994e-05 -41.187 -41.184 -0.11265 652.64 0.0015322 -41.194 -41.192 -0.11269 1.3441 2.0347 1602.6 -0.0069271 498.51 0.16964 0.042933 23.292 415.96 446.94 2.8542 0.96581 1.1555 192.38 1.1236 4.4974 0.0063261
-107.62 0.21215 1.7373e-05 -39.150 -39.148 -0.10031 651.61 0.0015347 -39.158 -39.156 -0.10036 1.3447 2.0369 1595.9 -0.0069098 489.52 0.16903 0.046937 21.305 416.92 448.09 2.8433 0.96901 1.1588 192.90 1.1075 4.5248 0.0063960
-106.62 0.23301 1.8845e-05 -37.112 -37.109 -0.088027 650.58 0.0015371 -37.120 -37.118 -0.088082 1.3453 2.0390 1589.2 -0.0068924 480.79 0.16843 0.051250 19.512 417.88 449.23 2.8325 0.97222 1.1621 193.41 1.0916 4.5522 0.0064662
-105.62 0.25561 2.0415e-05 -35.071 -35.068 -0.075809 649.55 0.0015395 -35.080 -35.078 -0.075868 1.3460 2.0412 1582.6 -0.0068747 472.30 0.16782 0.055891 17.892 418.85 450.38 2.8220 0.97544 1.1655 193.93 1.0760 4.5795 0.0065367
-104.62 0.28004 2.2088e-05 -33.028 -33.025 -0.063651 648.52 0.0015420 -33.038 -33.035 -0.063714 1.3467 2.0434 1575.9 -0.0068569 464.04 0.16721 0.060878 16.426 419.81 451.53 2.8116 0.97867 1.1688 194.44 1.0608 4.6069 0.0066074
-103.62 0.30643 2.3868e-05 -30.983 -30.979 -0.051551 647.49 0.0015444 -30.994 -30.991 -0.051619 1.3474 2.0456 1569.2 -0.0068387 456.00 0.16660 0.066231 15.099 420.78 452.68 2.8015 0.98191 1.1722 194.94 1.0458 4.6342 0.0066785
-102.62 0.33490 2.5759e-05 -28.936 -28.931 -0.039509 646.46 0.0015469 -28.947 -28.944 -0.039582 1.3481 2.0478 1562.5 -0.0068204 448.18 0.16600 0.071971 13.894 421.75 453.84 2.7916 0.98516 1.1755 195.44 1.0310 4.6615 0.0067498
-101.62 0.36558 2.7767e-05 -26.886 -26.881 -0.027524 645.43 0.0015494 -26.898 -26.894 -0.027602 1.3489 2.0501 1555.8 -0.0068018 440.57 0.16539 0.078120 12.801 422.73 454.99 2.7818 0.98841 1.1789 195.95 1.0166 4.6888 0.0068213
-100.62 0.39862 2.9895e-05 -24.834 -24.829 -0.015595 644.39 0.0015519 -24.847 -24.843 -0.015678 1.3497 2.0524 1549.1 -0.0067830 433.16 0.16478 0.084699 11.807 423.70 456.15 2.7723 0.99168 1.1823 196.44 1.0024 4.7161 0.0068932
-99.625 0.43414 3.2148e-05 -22.779 -22.774 -0.0037213 643.36 0.0015544 -22.794 -22.789 -0.0038103 1.3505 2.0547 1542.4 -0.0067639 425.95 0.16416 0.091731 10.901 424.68 457.31 2.7630 0.99496 1.1858 196.94 0.98838 4.7434 0.0069653
-98.625 0.47230 3.4531e-05 -20.723 -20.716 0.0080976 642.32 0.0015569 -20.738 -20.733 0.0080027 1.3514 2.0570 1535.7 -0.0067447 418.92 0.16355 0.099240 10.077 425.66 458.48 2.7538 0.99825 1.1892 197.43 0.97464 4.7707 0.0070377
-97.625 0.51325 3.7049e-05 -18.663 -18.657 0.019863 641.28 0.0015594 -18.680 -18.674 0.019762 1.3522 2.0594 1529.0 -0.0067251 412.07 0.16294 0.10725 9.3239 426.65 459.64 2.7448 1.0016 1.1927 197.92 0.96112 4.7979 0.0071103
-96.625 0.55714 3.9705e-05 -16.602 -16.595 0.031575 640.24 0.0015619 -16.620 -16.614 0.031467 1.3531 2.0618 1522.3 -0.0067053 405.39 0.16233 0.11579 8.6365 427.63 460.81 2.7360 1.0049 1.1962 198.40 0.94783 4.8251 0.0071832
-95.625 0.60416 4.2505e-05 -14.538 -14.530 0.043234 639.20 0.0015645 -14.557 -14.550 0.043120 1.3540 2.0642 1515.7 -0.0066853 398.88 0.16171 0.12488 8.0078 428.62 461.98 2.7274 1.0082 1.1997 198.88 0.93475 4.8524 0.0072564
-94.625 0.65446 4.5453e-05 -12.471 -12.463 0.054842 638.16 0.0015670 -12.491 -12.484 0.054721 1.3550 2.0667 1509.0 -0.0066650 392.53 0.16110 0.13455 7.4323 429.61 463.15 2.7189 1.0116 1.2032 199.36 0.92188 4.8796 0.0073299
-93.625 0.70822 4.8554e-05 -10.402 -10.393 0.066399 637.12 0.0015696 -10.424 -10.416 0.066271 1.3560 2.0691 1502.3 -0.0066444 386.34 0.16048 0.14482 6.9050 430.60 464.32 2.7107 1.0149 1.2068 199.83 0.90921 4.9068 0.0074036
-92.625 0.76564 5.1811e-05 -8.3307 -8.3207 0.077907 636.07 0.0015722 -8.3535 -8.3452 0.077771 1.3570 2.0716 1495.6 -0.0066236 380.31 0.15987 0.15573 6.4212 431.60 465.49 2.7025 1.0183 1.2104 200.30 0.89673 4.9340 0.0074776
-91.625 0.82689 5.5230e-05 -6.2566 -6.2457 0.089364 635.02 0.0015747 -6.2808 -6.2719 0.089220 1.3580 2.0742 1488.9 -0.0066025 374.41 0.15925 0.16731 5.9769 432.59 466.67 2.6946 1.0217 1.2140 200.77 0.88445 4.9611 0.0075518
-90.625 0.89218 5.8815e-05 -4.1799 -4.1682 0.10077 633.98 0.0015773 -4.2056 -4.1959 0.10062 1.3591 2.0767 1482.2 -0.0065811 368.66 0.15864 0.17958 5.5685 433.59 467.84 2.6868 1.0251 1.2177 201.24 0.87236 4.9883 0.0076263
-89.625 0.96172 6.2569e-05 -2.1005 -2.0879 0.11213 632.93 0.0015800 -2.1279 -2.1174 0.11197 1.3602 2.0793 1475.5 -0.0065595 363.05 0.15802 0.19258 5.1928 434.59 469.02 2.6791 1.0285 1.2213 201.70 0.86045 5.0154 0.0077011
-88.625 1.0357 6.6496e-05 -0.018548 -0.0049461 0.12345 631.88 0.0015826 -0.047516 -0.036215 0.12328 1.3613 2.0819 1468.8 -0.0065375 357.56 0.15740 0.20633 4.8466 435.59 470.20 2.6717 1.0320 1.2250 202.15 0.84873 5.0425 0.0077761
-87.625 1.1144 7.0601e-05 2.0661 2.0808 0.13471 630.83 0.0015852 2.0355 2.0476 0.13454 1.3625 2.0846 1462.1 -0.0065153 352.21 0.15679 0.22087 4.5276 436.60 471.39 2.6643 1.0354 1.2288 202.61 0.83718 5.0696 0.0078514
-86.625 1.1979 7.4887e-05 4.1535 4.1693 0.14594 629.77 0.0015879 4.1211 4.1342 0.14575 1.3637 2.0873 1455.4 -0.0064928 346.98 0.15617 0.23623 4.2331 437.61 472.57 2.6571 1.0389 1.2325 203.06 0.82580 5.0967 0.0079270
-85.625 1.2866 7.9358e-05 6.2437 6.2606 0.15711 628.72 0.0015905 6.2094 6.2235 0.15691 1.3649 2.0900 1448.8 -0.0064701 341.87 0.15555 0.25245 3.9612 438.61 473.75 2.6501 1.0424 1.2363 203.50 0.81460 5.1237 0.0080028
-84.625 1.3806 8.4017e-05 8.3366 8.3547 0.16824 627.66 0.0015932 8.3004 8.3155 0.16803 1.3661 2.0927 1442.1 -0.0064470 336.87 0.15494 0.26956 3.7097 439.63 474.94 2.6432 1.0460 1.2402 203.95 0.80356 5.1508 0.0080789
-83.625 1.4803 8.8867e-05 10.432 10.452 0.17933 626.60 0.0015959 10.394 10.410 0.17911 1.3674 2.0955 1435.4 -0.0064236 331.99 0.15432 0.28760 3.4771 440.64 476.13 2.6364 1.0495 1.2440 204.38 0.79269 5.1778 0.0081553
-82.625 1.5858 9.3912e-05 12.531 12.552 0.19037 625.54 0.0015986 12.491 12.508 0.19014 1.3687 2.0983 1428.7 -0.0063999 327.22 0.15370 0.30659 3.2616 441.65 477.31 2.6298 1.0531 1.2479 204.82 0.78199 5.2048 0.0082319
-81.625 1.6975 9.9153e-05 14.632 14.655 0.20137 624.48 0.0016013 14.590 14.609 0.20113 1.3700 2.1012 1422.0 -0.0063759 322.55 0.15309 0.32659 3.0619 442.67 478.50 2.6233 1.0567 1.2519 205.25 0.77144 5.2318 0.0083088
-80.625 1.8155 0.00010459 16.737 16.761 0.21233 623.42 0.0016041 16.692 16.712 0.21208 1.3714 2.1041 1415.4 -0.0063516 317.99 0.15247 0.34763 2.8766 443.69 479.70 2.6169 1.0603 1.2558 205.67 0.76106 5.2587 0.0083860
-79.625 1.9402 0.00011023 18.844 18.870 0.22325 622.36 0.0016068 18.797 18.819 0.22299 1.3728 2.1070 1408.7 -0.0063270 313.52 0.15186 0.36974 2.7046 444.71 480.89 2.6106 1.0639 1.2598 206.10 0.75083 5.2857 0.0084634
-78.625 2.0718 0.00011608 20.954 20.982 0.23413 621.29 0.0016096 20.905 20.928 0.23385 1.3742 2.1099 1402.0 -0.0063021 309.15 0.15124 0.39296 2.5448 445.73 482.08 2.6045 1.0676 1.2639 206.51 0.74076 5.3126 0.0085411
-77.625 2.2107 0.00012213 23.068 23.097 0.24496 620.22 0.0016123 23.016 23.040 0.24468 1.3757 2.1129 1395.3 -0.0062768 304.88 0.15062 0.41735 2.3961 446.75 483.27 2.5985 1.0712 1.2680 206.93 0.73084 5.3395 0.0086190
-76.625 2.3571 0.00012838 25.184 25.215 0.25576 619.15 0.0016151 25.130 25.156 0.25546 1.3772 2.1159 1388.7 -0.0062512 300.69 0.15001 0.44292 2.2577 447.78 484.47 2.5926 1.0749 1.2721 207.34 0.72107 5.3664 0.0086972
-75.625 2.5113 0.00013485 27.303 27.336 0.26652 618.08 0.0016179 27.247 27.275 0.26620 1.3787 2.1190 1382.0 -0.0062253 296.59 0.14939 0.46974 2.1288 448.81 485.67 2.5869 1.0787 1.2762 207.74 0.71146 5.3933 0.0087757
-74.625 2.6736 0.00014152 29.426 29.461 0.27724 617.01 0.0016207 29.366 29.396 0.27691 1.3802 2.1221 1375.4 -0.0061990 292.58 0.14878 0.49783 2.0087 449.83 486.86 2.5812 1.0824 1.2804 208.14 0.70200 5.4201 0.0088544
-73.625 2.8444 0.00014839 31.552 31.589 0.28792 615.93 0.0016236 31.489 31.521 0.28758 1.3818 2.1252 1368.7 -0.0061724 288.65 0.14816 0.52725 1.8966 450.86 488.06 2.5757 1.0862 1.2847 208.54 0.69268 5.4469 0.0089334
-72.625 3.0240 0.00015548 33.680 33.720 0.29856 614.85 0.0016264 33.615 33.649 0.29821 1.3834 2.1284 1362.0 -0.0061454 284.81 0.14755 0.55804 1.7920 451.90 489.26 2.5703 1.0900 1.2889 208.93 0.68351 5.4737 0.0090126
-71.625 3.2127 0.00016277 35.813 35.855 0.30916 613.78 0.0016293 35.745 35.781 0.30880 1.3851 2.1316 1355.4 -0.0061181 281.03 0.14694 0.59024 1.6942 452.93 490.46 2.5650 1.0938 1.2932 209.32 0.67448 5.5005 0.0090922
-70.625 3.4108 0.00017027 37.948 37.993 0.31973 612.69 0.0016321 37.877 37.915 0.31935 1.3867 2.1349 1348.7 -0.0060904 277.34 0.14632 0.62390 1.6028 453.96 491.66 2.5598 1.0976 1.2976 209.70 0.66560 5.5273 0.0091720
-69.625 3.6187 0.00017796 40.086 40.134 0.33027 611.61 0.0016350 40.013 40.053 0.32987 1.3884 2.1382 1342.1 -0.0060624 273.72 0.14571 0.65906 1.5173 455.00 492.86 2.5547 1.1015 1.3020 210.08 0.65687 5.5540 0.0092520
-68.625 3.8367 0.00018587 42.228 42.279 0.34077 610.53 0.0016379 42.152 42.195 0.34036 1.3902 2.1415 1335.5 -0.0060339 270.17 0.14510 0.69577 1.4372 456.04 494.06 2.5497 1.1054 1.3064 210.45 0.64827 5.5807 0.0093324
-67.625 4.0652 0.00019396 44.374 44.427 0.35123 609.44 0.0016409 44.294 44.340 0.35080 1.3919 2.1449 1328.8 -0.0060051 266.69 0.14449 0.73408 1.3622 457.08 495.26 2.5448 1.1093 1.3109 210.82 0.63981 5.6074 0.0094130
-66.625 4.3046 0.00020226 46.522 46.579 0.36166 608.35 0.0016438 46.439 46.488 0.36122 1.3937 2.1483 1322.2 -0.0059760 263.28 0.14388 0.77404 1.2919 458.12 496.46 2.5400 1.1133 1.3154 211.18 0.63150 5.6341 0.0094939
-65.625 4.5551 0.00021075 48.675 48.734 0.37206 607.26 0.0016467 48.588 48.640 0.37160 1.3955 2.1518 1315.6 -0.0059464 259.93 0.14327 0.81570 1.2259 459.16 497.67 2.5353 1.1172 1.3200 211.54 0.62332 5.6608 0.0095750
-64.625 4.8173 0.00021942 50.830 50.894 0.38242 606.16 0.0016497 50.740 50.795 0.38195 1.3974 2.1553 1308.9 -0.0059164 256.65 0.14266 0.85910 1.1640 460.21 498.87 2.5307 1.1212 1.3246 211.89 0.61527 5.6874 0.0096564
-63.625 5.0915 0.00022827 52.989 53.056 0.39275 605.07 0.0016527 52.896 52.954 0.39226 1.3993 2.1588 1302.3 -0.0058861 253.42 0.14205 0.90429 1.1058 461.25 500.07 2.5262 1.1252 1.3293 212.24 0.60736 5.7140 0.0097382
-62.625 5.3781 0.00023731 55.152 55.223 0.40304 603.97 0.0016557 55.055 55.117 0.40254 1.4012 2.1624 1295.7 -0.0058553 250.26 0.14144 0.95134 1.0511 462.30 501.28 2.5218 1.1293 1.3340 212.58 0.59958 5.7406 0.0098201
-61.625 5.6774 0.00024651 57.318 57.393 0.41331 602.87 0.0016587 57.218 57.283 0.41279 1.4031 2.1660 1289.1 -0.0058241 247.16 0.14084 1.0003 0.99972 463.35 502.48 2.5175 1.1333 1.3387 212.92 0.59194 5.7672 0.0099024
-60.625 5.9899 0.00025587 59.488 59.567 0.42354 601.77 0.0016618 59.385 59.453 0.42301 1.4051 2.1697 1282.5 -0.0057925 244.12 0.14023 1.0512 0.95131 464.40 503.68 2.5133 1.1374 1.3435 213.26 0.58442 5.7938 0.0099850
-59.625 6.3160 0.00026539 61.662 61.745 0.43375 600.66 0.0016648 61.554 61.627 0.43320 1.4071 2.1734 1275.9 -0.0057605 241.13 0.13962 1.1041 0.90573 465.45 504.89 2.5091 1.1415 1.3483 213.58 0.57704 5.8203 0.010068
-58.625 6.6561 0.00027506 63.839 63.926 0.44392 599.55 0.0016679 63.728 63.805 0.44335 1.4091 2.1772 1269.3 -0.0057280 238.19 0.13902 1.1591 0.86277 466.50 506.09 2.5051 1.1457 1.3532 213.90 0.56978 5.8468 0.010151
-57.625 7.0107 0.00028487 66.020 66.112 0.45406 598.44 0.0016710 65.905 65.986 0.45348 1.4111 2.1810 1262.7 -0.0056951 235.31 0.13842 1.2161 0.82228 467.55 507.30 2.5011 1.1498 1.3581 214.22 0.56265 5.8733 0.010234
-56.625 7.3801 0.00029480 68.205 68.301 0.46418 597.33 0.0016741 68.086 68.172 0.46358 1.4132 2.1848 1256.1 -0.0056617 232.48 0.13781 1.2754 0.78408 468.60 508.50 2.4972 1.1540 1.3631 214.53 0.55564 5.8998 0.010318
-55.625 7.7648 0.00030485 70.393 70.495 0.47426 596.22 0.0016772 70.271 70.361 0.47364 1.4153 2.1887 1249.5 -0.0056279 229.69 0.13721 1.3369 0.74802 469.66 509.71 2.4934 1.1582 1.3681 214.84 0.54875 5.9263 0.010402
-54.625 8.1652 0.00031500 72.585 72.693 0.48431 595.10 0.0016804 72.460 72.554 0.48368 1.4174 2.1927 1242.9 -0.0055937 226.96 0.13661 1.4006 0.71396 470.72 510.91 2.4897 1.1624 1.3731 215.14 0.54199 5.9527 0.010486
-53.625 8.5819 0.00032525 74.782 74.894 0.49434 593.98 0.0016836 74.652 74.752 0.49369 1.4196 2.1967 1236.3 -0.0055589 224.27 0.13601 1.4667 0.68178 471.77 512.11 2.4860 1.1667 1.3782 215.43 0.53535 5.9792 0.010571
-52.625 9.0151 0.00033558 76.982 77.100 0.50434 592.86 0.0016867 76.849 76.954 0.50368 1.4218 2.2007 1229.8 -0.0055237 221.63 0.13541 1.5353 0.65136 472.83 513.32 2.4824 1.1710 1.3834 215.72 0.52882 6.0056 0.010656
-51.625 9.4655 0.00034597 79.186 79.310 0.51431 591.73 0.0016900 79.049 79.159 0.51363 1.4240 2.2048 1223.2 -0.0054880 219.04 0.13482 1.6062 0.62258 473.89 514.52 2.4789 1.1752 1.3886 216.00 0.52241 6.0320 0.010741
-50.625 9.9335 0.00035640 81.394 81.524 0.52426 590.60 0.0016932 81.253 81.369 0.52356 1.4262 2.2089 1216.6 -0.0054519 216.48 0.13422 1.6797 0.59534 474.95 515.73 2.4755 1.1796 1.3938 216.28 0.51612 6.0584 0.010827
-49.625 10.419 0.00036687 83.606 83.743 0.53418 589.47 0.0016964 83.462 83.584 0.53347 1.4285 2.2131 1210.1 -0.0054152 213.98 0.13363 1.7558 0.56954 476.01 516.93 2.4722 1.1839 1.3991 216.55 0.50994 6.0848 0.010913
-48.625 10.924 0.00037736 85.822 85.965 0.54407 588.34 0.0016997 85.674 85.802 0.54334 1.4308 2.2173 1203.5 -0.0053780 211.51 0.13303 1.8345 0.54510 477.07 518.13 2.4689 1.1883 1.4044 216.82 0.50387 6.1112 0.010999
-47.625 11.448 0.00038784 88.042 88.192 0.55394 587.20 0.0017030 87.891 88.025 0.55319 1.4331 2.2216 1196.9 -0.0053403 209.08 0.13244 1.9159 0.52194 478.14 519.33 2.4657 1.1927 1.4098 217.08 0.49792 6.1375 0.011085
-46.625 11.991 0.00039830 90.266 90.424 0.56378 586.06 0.0017063 90.111 90.252 0.56302 1.4354 2.2259 1190.4 -0.0053020 206.69 0.13185 2.0001 0.49997 479.20 520.53 2.4625 1.1971 1.4153 217.33 0.49207 6.1639 0.011172
-45.625 12.554 0.00040871 92.495 92.660 0.57359 584.92 0.0017096 92.336 92.484 0.57282 1.4378 2.2303 1183.8 -0.0052633 204.34 0.13126 2.0872 0.47912 480.27 521.74 2.4594 1.2015 1.4207 217.58 0.48633 6.1902 0.011259
-44.625 13.137 0.00041906 94.727 94.900 0.58338 583.77 0.0017130 94.565 94.720 0.58260 1.4402 2.2347 1177.3 -0.0052240 202.03 0.13067 2.1771 0.45933 481.33 522.94 2.4564 1.2060 1.4263 217.82 0.48069 6.2165 0.011347
-43.625 13.741 0.00042932 96.964 97.145 0.59315 582.62 0.0017164 96.799 96.961 0.59235 1.4426 2.2392 1170.7 -0.0051841 199.75 0.13008 2.2700 0.44053 482.40 524.14 2.4535 1.2104 1.4319 218.05 0.47516 6.2429 0.011435
-42.625 14.367 0.00043946 99.205 99.394 0.60289 581.47 0.0017198 99.036 99.207 0.60208 1.4450 2.2437 1164.2 -0.0051437 197.51 0.12949 2.3659 0.42267 483.46 525.33 2.4506 1.2149 1.4375 218.28 0.46973 6.2692 0.011523
-41.625 15.015 0.00044946 101.45 101.65 0.61261 580.32 0.0017232 101.28 101.46 0.61179 1.4475 2.2483 1157.7 -0.0051027 195.30 0.12891 2.4649 0.40569 484.53 526.53 2.4478 1.2195 1.4432 218.50 0.46440 6.2955 0.011612
-40.625 15.686 0.00045930 103.70 103.91 0.62231 579.16 0.0017266 103.52 103.71 0.62147 1.4500 2.2529 1151.1 -0.0050611 193.13 0.12832 2.5671 0.38954 485.60 527.73 2.4450 1.2240 1.4489 218.72 0.45917 6.3218 0.011701
-39.625 16.380 0.00046893 105.95 106.17 0.63198 578.00 0.0017301 105.78 105.97 0.63113 1.4525 2.2576 1144.6 -0.0050189 190.99 0.12774 2.6725 0.37418 486.67 528.93 2.4423 1.2286 1.4547 218.93 0.45403 6.3481 0.011790
-38.625 17.097 0.00047834 108.21 108.44 0.64163 576.83 0.0017336 108.03 108.24 0.64077 1.4550 2.2623 1138.0 -0.0049761 188.88 0.12716 2.7813 0.35955 487.74 530.12 2.4397 1.2332 1.4606 219.13 0.44900 6.3744 0.011880
-37.625 17.838 0.00048750 110.48 110.71 0.65126 575.66 0.0017371 110.29 110.51 0.65039 1.4576 2.2671 1131.5 -0.0049327 186.81 0.12658 2.8934 0.34562 488.81 531.32 2.4371 1.2378 1.4665 219.33 0.44405 6.4007 0.011970
-36.625 18.604 0.00049635 112.74 112.99 0.66087 574.49 0.0017407 112.56 112.78 0.65999 1.4602 2.2719 1125.0 -0.0048887 184.76 0.12600 3.0089 0.33235 489.88 532.51 2.4346 1.2424 1.4724 219.52 0.43920 6.4270 0.012060
-35.625 19.395 0.00050489 115.02 115.27 0.67045 573.32 0.0017442 114.83 115.06 0.66956 1.4628 2.2768 1118.5 -0.0048440 182.75 0.12542 3.1280 0.31969 490.95 533.70 2.4321 1.2471 1.4784 219.70 0.43444 6.4533 0.012151
-34.625 20.212 0.00051306 117.29 117.56 0.68002 572.14 0.0017478 117.10 117.34 0.67912 1.4654 2.2818 1111.9 -0.0047987 180.76 0.12485 3.2506 0.30763 492.02 534.89 2.4297 1.2517 1.4845 219.88 0.42977 6.4797 0.012243
-33.625 21.056 0.00052082 119.57 119.85 0.68956 570.96 0.0017514 119.38 119.63 0.68865 1.4681 2.2868 1105.4 -0.0047527 178.80 0.12427 3.3770 0.29612 493.09 536.08 2.4273 1.2564 1.4906 220.05 0.42519 6.5060 0.012334
-32.625 21.926 0.00052815 121.86 122.15 0.69908 569.77 0.0017551 121.66 121.93 0.69817 1.4708 2.2918 1098.9 -0.0047061 176.87 0.12370 3.5071 0.28514 494.17 537.27 2.4250 1.2611 1.4968 220.21 0.42070 6.5323 0.012426
-31.625 22.823 0.00053499 124.15 124.45 0.70858 568.58 0.0017588 123.95 124.23 0.70767 1.4735 2.2970 1092.3 -0.0046587 174.97 0.12313 3.6410 0.27465 495.24 538.46 2.4227 1.2659 1.5031 220.36 0.41629 6.5587 0.012519
-30.625 23.749 0.00054131 126.44 126.76 0.71807 567.39 0.0017625 126.24 126.53 0.71714 1.4762 2.3021 1085.8 -0.0046107 173.09 0.12256 3.7787 0.26464 496.31 539.64 2.4205 1.2706 1.5094 220.51 0.41196 6.5850 0.012612
-29.625 24.703 0.00054705 128.74 129.07 0.72753 566.19 0.0017662 128.54 128.84 0.72660 1.4790 2.3074 1079.3 -0.0045619 171.24 0.12200 3.9205 0.25507 497.38 540.83 2.4184 1.2754 1.5157 220.65 0.40772 6.6114 0.012706
-28.625 25.687 0.00055217 131.05 131.38 0.73697 564.99 0.0017699 130.84 131.16 0.73604 1.4818 2.3126 1072.8 -0.0045124 169.42 0.12143 4.0663 0.24592 498.46 542.01 2.4162 1.2802 1.5222 220.79 0.40356 6.6378 0.012800
-27.625 26.700 0.00055661 133.36 133.71 0.74639 563.78 0.0017737 133.15 133.48 0.74547 1.4846 2.3180 1066.2 -0.0044621 167.62 0.12087 4.2163 0.23717 499.53 543.19 2.4142 1.2850 1.5286 220.91 0.39947 6.6642 0.012894
-26.625 27.743 0.00056034 135.67 136.03 0.75580 562.57 0.0017775 135.47 135.81 0.75487 1.4874 2.3234 1059.7 -0.0044111 165.84 0.12031 4.3705 0.22881 500.60 544.37 2.4122 1.2899 1.5352 221.03 0.39547 6.6906 0.012989
-25.625 28.817 0.00056328 137.99 138.37 0.76519 561.36 0.0017814 137.78 138.14 0.76426 1.4902 2.3289 1053.2 -0.0043593 164.09 0.11975 4.5290 0.22080 501.68 545.55 2.4102 1.2947 1.5418 221.14 0.39154 6.7171 0.013084
-24.625 29.923 0.00056539 140.31 140.71 0.77455 560.14 0.0017853 140.11 140.48 0.77363 1.4931 2.3344 1046.7 -0.0043067 162.36 0.11919 4.6918 0.21314 502.75 546.72 2.4083 1.2996 1.5485 221.25 0.38768 6.7436 0.013180
-23.625 31.061 0.00056661 142.64 143.05 0.78390 558.92 0.0017892 142.44 142.82 0.78298 1.4960 2.3400 1040.1 -0.0042533 160.65 0.11863 4.8592 0.20580 503.82 547.90 2.4064 1.3045 1.5552 221.35 0.38391 6.7701 0.013277
-22.625 32.232 0.00056687 144.97 145.40 0.79324 557.69 0.0017931 144.77 145.17 0.79232 1.4990 2.3457 1033.6 -0.0041990 158.97 0.11807 5.0311 0.19877 504.90 549.07 2.4045 1.3095 1.5621 221.44 0.38020 6.7967 0.013374
-21.625 33.435 0.00056611 147.31 147.75 0.80255 556.46 0.0017971 147.11 147.52 0.80164 1.5019 2.3514 1027.1 -0.0041439 157.30 0.11752 5.2076 0.19203 505.97 550.24 2.4027 1.3144 1.5690 221.52 0.37656 6.8232 0.013471
-20.625 34.673 0.00056426 149.66 150.11 0.81185 555.23 0.0018011 149.45 149.88 0.81095 1.5049 2.3572 1020.6 -0.0040879 155.66 0.11697 5.3889 0.18557 507.04 551.40 2.4010 1.3194 1.5759 221.59 0.37300 6.8499 0.013569
-19.625 35.946 0.00056125 152.00 152.48 0.82113 553.99 0.0018051 151.80 152.25 0.82024 1.5079 2.3630 1014.0 -0.0040311 154.04 0.11642 5.5750 0.17937 508.11 552.57 2.3992 1.3244 1.5829 221.66 0.36950 6.8765 0.013668
-18.625 37.253 0.00055701 154.36 154.85 0.83039 552.74 0.0018092 154.16 154.62 0.82952 1.5109 2.3689 1007.5 -0.0039733 152.44 0.11587 5.7660 0.17343 509.19 553.73 2.3976 1.3294 1.5901 221.72 0.36608 6.9032 0.013767
-17.625 38.596 0.00055146 156.72 157.22 0.83964 551.49 0.0018133 156.52 157.00 0.83878 1.5140 2.3749 1001.0 -0.0039145 150.86 0.11532 5.9621 0.16773 510.26 554.89 2.3959 1.3345 1.5972 221.77 0.36272 6.9300 0.013867
-16.625 39.976 0.00054453 159.08 159.60 0.84887 550.24 0.0018174 158.89 159.39 0.84803 1.5171 2.3810 994.44 -0.0038549 149.29 0.11478 6.1632 0.16225 511.33 556.05 2.3943 1.3395 1.6045 221.81 0.35942 6.9568 0.013968
-15.625 41.392 0.00053612 161.45 161.99 0.85809 548.98 0.0018216 161.26 161.78 0.85726 1.5202 2.3871 987.91 -0.0037942 147.75 0.11423 6.3696 0.15700 512.40 557.20 2.3927 1.3446 1.6119 221.85 0.35619 6.9836 0.014069
-14.625 42.846 0.00052616 163.82 164.38 0.86729 547.71 0.0018258 163.64 164.18 0.86649 1.5233 2.3933 981.37 -0.0037325 146.22 0.11369 6.5812 0.15195 513.47 558.36 2.3912 1.3497 1.6193 221.87 0.35302 7.0105 0.014170
-13.625 44.338 0.00051455 166.20 166.78 0.87647 546.44 0.0018300 166.02 166.58 0.87569 1.5264 2.3996 974.83 -0.0036698 144.72 0.11315 6.7983 0.14710 514.54 559.51 2.3897 1.3549 1.6268 221.89 0.34992 7.0375 0.014273
-12.625 45.870 0.00050120 168.58 169.19 0.88564 545.17 0.0018343 168.41 168.99 0.88489 1.5296 2.4059 968.29 -0.0036061 143.23 0.11261 7.0208 0.14243 515.61 560.65 2.3883 1.3600 1.6344 221.90 0.34688 7.0646 0.014376
-11.625 47.440 0.00048602 170.97 171.60 0.89480 543.89 0.0018386 170.81 171.41 0.89407 1.5328 2.4124 961.75 -0.0035413 141.76 0.11208 7.2490 0.13795 516.68 561.80 2.3868 1.3652 1.6421 221.91 0.34389 7.0917 0.014479
-10.625 49.051 0.00046890 173.37 174.01 0.90394 542.60 0.0018430 173.21 173.83 0.90324 1.5360 2.4189 955.20 -0.0034753 140.30 0.11154 7.4829 0.13364 517.75 562.94 2.3854 1.3704 1.6498 221.90 0.34097 7.1188 0.014584
-9.6250 50.703 0.00044973 175.77 176.43 0.91306 541.31 0.0018474 175.61 176.26 0.91240 1.5393 2.4255 948.65 -0.0034082 138.86 0.11101 7.7226 0.12949 518.81 564.08 2.3841 1.3757 1.6577 221.88 0.33810 7.1461 0.014689
-8.6250 52.396 0.00042841 178.17 178.86 0.92217 540.02 0.0018518 178.03 178.70 0.92154 1.5426 2.4321 942.10 -0.0033400 137.44 0.11048 7.9683 0.12550 519.88 565.21 2.3827 1.3809 1.6657 221.86 0.33529 7.1734 0.014795
-7.6250 54.131 0.00040481 180.59 181.30 0.93127 538.72 0.0018563 180.45 181.14 0.93068 1.5459 2.4389 935.55 -0.0032705 136.03 0.10995 8.2200 0.12165 520.94 566.35 2.3814 1.3862 1.6737 221.83 0.33254 7.2008 0.014902
-6.6250 55.909 0.00037883 183.00 183.74 0.94035 537.41 0.0018608 182.87 183.59 0.93980 1.5492 2.4457 928.99 -0.0031998 134.64 0.10942 8.4779 0.11795 522.01 567.48 2.3801 1.3915 1.6819 221.79 0.32984 7.2284 0.015009
-5.6250 57.730 0.00035033 185.42 186.18 0.94942 536.10 0.0018653 185.30 186.05 0.94892 1.5525 2.4526 922.43 -0.0031279 133.27 0.10889 8.7420 0.11439 523.07 568.60 2.3789 1.3969 1.6902 221.74 0.32720 7.2560 0.015117
-4.6250 59.595 0.00031919 187.85 188.63 0.95847 534.78 0.0018699 187.74 188.51 0.95802 1.5559 2.4596 915.87 -0.0030546 131.91 0.10837 9.0126 0.11096 524.13 569.72 2.3777 1.4022 1.6985 221.68 0.32461 7.2837 0.015226
-3.6250 61.505 0.00028527 190.28 191.09 0.96752 533.45 0.0018746 190.19 190.98 0.96711 1.5593 2.4667 909.30 -0.0029800 130.56 0.10785 9.2896 0.10765 525.19 570.84 2.3765 1.4076 1.7070 221.62 0.32207 7.3115 0.015336
-2.6250 63.461 0.00024843 192.72 193.55 0.97655 532.12 0.0018793 192.64 193.46 0.97620 1.5627 2.4739 902.73 -0.0029041 129.23 0.10733 9.5733 0.10446 526.25 571.96 2.3753 1.4131 1.7156 221.54 0.31958 7.3394 0.015447
-1.6250 65.462 0.00020852 195.16 196.02 0.98556 530.78 0.0018840 195.10 195.95 0.98527 1.5662 2.4811 896.16 -0.0028267 127.91 0.10681 9.8638 0.10138 527.31 573.07 2.3742 1.4185 1.7243 221.45 0.31715 7.3674 0.015559
-0.62500 67.510 0.00016538 197.61 198.50 0.99457 529.44 0.0018888 197.56 198.44 0.99434 1.5696 2.4885 889.58 -0.0027478 126.61 0.10629 10.161 0.098414 528.37 574.18 2.3731 1.4240 1.7331 221.36 0.31476 7.3956 0.015671
0.37500 69.606 0.00011887 200.07 200.98 1.0036 528.09 0.0018936 200.03 200.94 1.0034 1.5731 2.4960 883.00 -0.0026675 125.32 0.10578 10.466 0.095552 529.42 575.28 2.3720 1.4295 1.7421 221.26 0.31242 7.4239 0.015785
1.3750 71.749 6.8799e-05 202.53 203.47 1.0125 526.73 0.0018985 202.51 203.45 1.0124 1.5767 2.5035 876.42 -0.0025856 124.04 0.10527 10.777 0.092790 530.48 576.38 2.3709 1.4350 1.7512 221.14 0.31013 7.4523 0.015899
2.3750 73.941 1.5007e-05 205.00 205.97 1.0215 525.37 0.0019034 204.99 205.96 1.0215 1.5802 2.5112 869.83 -0.0025022 122.78 0.10476 11.096 0.090123 531.53 577.47 2.3699 1.4406 1.7604 221.02 0.30789 7.4808 0.016015
3.3750 145.19 undefined 206.81 208.72 1.0281 525.00 0.0019048 206.81 208.72 1.0281 1.5839 2.5113 870.21 -0.0025158 122.44 0.10470 525.00 0.0019048 206.81 208.72 1.0281 1.5839 2.5113 870.21 -0.0025158 122.44 0.10470
4.3750 241.55 undefined 208.40 211.57 1.0338 525.00 0.0019048 208.40 211.57 1.0338 1.5877 2.5087 873.11 -0.0025642 122.43 0.10480 525.00 0.0019048 208.40 211.57 1.0338 1.5877 2.5087 873.11 -0.0025642 122.43 0.10480
5.3750 337.89 undefined 209.99 214.43 1.0395 525.00 0.0019048 209.99 214.43 1.0395 1.5914 2.5063 875.98 -0.0026114 122.42 0.10490 525.00 0.0019048 209.99 214.43 1.0395 1.5914 2.5063 875.98 -0.0026114 122.42 0.10490
6.3750 434.21 undefined 211.58 217.29 1.0452 525.00 0.0019048 211.58 217.29 1.0452 1.5952 2.5040 878.82 -0.0026575 122.42 0.10501 525.00 0.0019048 211.58 217.29 1.0452 1.5952 2.5040 878.82 -0.0026575 122.42 0.10501
7.3750 530.50 undefined 213.18 220.15 1.0510 525.00 0.0019048 213.18 220.15 1.0510 1.5990 2.5018 881.64 -0.0027025 122.41 0.10511 525.00 0.0019048 213.18 220.15 1.0510 1.5990 2.5018 881.64 -0.0027025 122.41 0.10511
8.3750 626.77 undefined 214.78 223.01 1.0566 525.00 0.0019048 214.78 223.01 1.0566 1.6028 2.4998 884.43 -0.0027465 122.40 0.10521 525.00 0.0019048 214.78 223.01 1.0566 1.6028 2.4998 884.43 -0.0027465 122.40 0.10521
9.3750 723.01 undefined 216.39 225.88 1.0623 525.00 0.0019048 216.39 225.88 1.0623 1.6067 2.4979 887.18 -0.0027895 122.40 0.10532 525.00 0.0019048 216.39 225.88 1.0623 1.6067 2.4979 887.18 -0.0027895 122.40 0.10532
10.375 819.22 undefined 217.99 228.75 1.0680 525.00 0.0019048 217.99 228.75 1.0680 1.6105 2.4962 889.92 -0.0028314 122.39 0.10542 525.00 0.0019048 217.99 228.75 1.0680 1.6105 2.4962 889.92 -0.0028314 122.39 0.10542
11.375 915.41 undefined 219.61 231.63 1.0737 525.00 0.0019048 219.61 231.63 1.0737 1.6144 2.4945 892.63 -0.0028725 122.38 0.10553 525.00 0.0019048 219.61 231.63 1.0737 1.6144 2.4945 892.63 -0.0028725 122.38 0.10553
12.375 1011.6 undefined 221.22 234.51 1.0794 525.00 0.0019048 221.22 234.51 1.0794 1.6183 2.4930 895.31 -0.0029126 122.38 0.10563 525.00 0.0019048 221.22 234.51 1.0794 1.6183 2.4930 895.31 -0.0029126 122.38 0.10563
13.375 1107.7 undefined 222.84 237.39 1.0850 525.00 0.0019048 222.84 237.39 1.0850 1.6222 2.4916 897.96 -0.0029518 122.37 0.10574 525.00 0.0019048 222.84 237.39 1.0850 1.6222 2.4916 897.96 -0.0029518 122.37 0.10574
14.375 1203.8 undefined 224.47 240.28 1.0907 525.00 0.0019048 224.47 240.28 1.0907 1.6261 2.4903 900.60 -0.0029901 122.37 0.10584 525.00 0.0019048 224.47 240.28 1.0907 1.6261 2.4903 900.60 -0.0029901 122.37 0.10584
15.375 1299.8 undefined 226.10 243.17 1.0963 525.00 0.0019048 226.10 243.17 1.0963 1.6300 2.4891 903.20 -0.0030276 122.36 0.10595 525.00 0.0019048 226.10 243.17 1.0963 1.6300 2.4891 903.20 -0.0030276 122.36 0.10595
16.375 1395.8 undefined 227.73 246.06 1.1020 525.00 0.0019048 227.73 246.06 1.1020 1.6339 2.4881 905.79 -0.0030643 122.36 0.10606 525.00 0.0019048 227.73 246.06 1.1020 1.6339 2.4881 905.79 -0.0030643 122.36 0.10606
17.375 1491.8 undefined 229.36 248.96 1.1076 525.00 0.0019048 229.36 248.96 1.1076 1.6379 2.4871 908.35 -0.0031002 122.35 0.10616 525.00 0.0019048 229.36 248.96 1.1076 1.6379 2.4871 908.35 -0.0031002 122.35 0.10616
18.375 1587.8 undefined 231.00 251.86 1.1133 525.00 0.0019048 231.00 251.86 1.1133 1.6418 2.4862 910.89 -0.0031352 122.35 0.10627 525.00 0.0019048 231.00 251.86 1.1133 1.6418 2.4862 910.89 -0.0031352 122.35 0.10627
19.375 1683.7 undefined 232.65 254.76 1.1189 525.00 0.0019048 232.65 254.76 1.1189 1.6458 2.4854 913.41 -0.0031696 122.34 0.10638 525.00 0.0019048 232.65 254.76 1.1189 1.6458 2.4854 913.41 -0.0031696 122.34 0.10638
20.375 1779.5 undefined 234.30 257.67 1.1245 525.00 0.0019048 234.30 257.67 1.1245 1.6498 2.4847 915.90 -0.0032031 122.34 0.10649 525.00 0.0019048 234.30 257.67 1.1245 1.6498 2.4847 915.90 -0.0032031 122.34 0.10649
21.375 1875.4 undefined 235.95 260.58 1.1301 525.00 0.0019048 235.95 260.58 1.1301 1.6538 2.4841 918.38 -0.0032360 122.34 0.10659 525.00 0.0019048 235.95 260.58 1.1301 1.6538 2.4841 918.38 -0.0032360 122.34 0.10659
22.375 1971.1 undefined 237.60 263.49 1.1358 525.00 0.0019048 237.60 263.49 1.1358 1.6578 2.4836 920.83 -0.0032682 122.33 0.10670 525.00 0.0019048 237.60 263.49 1.1358 1.6578 2.4836 920.83 -0.0032682 122.33 0.10670
23.375 2066.9 undefined 239.26 266.41 1.1414 525.00 0.0019048 239.26 266.41 1.1414 1.6618 2.4832 923.26 -0.0032997 122.33 0.10681 525.00 0.0019048 239.26 266.41 1.1414 1.6618 2.4832 923.26 -0.0032997 122.33 0.10681
24.375 2162.6 undefined 240.93 269.33 1.1470 525.00 0.0019048 240.93 269.33 1.1470 1.6659 2.4828 925.67 -0.0033305 122.32 0.10692 525.00 0.0019048 240.93 269.33 1.1470 1.6659 2.4828 925.67 -0.0033305 122.32 0.10692
25.375 2258.2 undefined 242.59 272.25 1.1526 525.00 0.0019048 242.59 272.25 1.1526 1.6699 2.4826 928.07 -0.0033606 122.32 0.10703 525.00 0.0019048 242.59 272.25 1.1526 1.6699 2.4826 928.07 -0.0033606 122.32 0.10703
26.375 2353.8 undefined 244.27 275.18 1.1581 525.00 0.0019048 244.27 275.18 1.1581 1.6740 2.4824 930.44 -0.0033902 122.32 0.10714 525.00 0.0019048 244.27 275.18 1.1581 1.6740 2.4824 930.44 -0.0033902 122.32 0.10714
27.375 2449.4 undefined 245.94 278.11 1.1637 525.00 0.0019048 245.94 278.11 1.1637 1.6781 2.4823 932.80 -0.0034191 122.32 0.10725 525.00 0.0019048 245.94 278.11 1.1637 1.6781 2.4823 932.80 -0.0034191 122.32 0.10725
28.375 2544.9 undefined 247.62 281.04 1.1693 525.00 0.0019048 247.62 281.04 1.1693 1.6822 2.4822 935.13 -0.0034474 122.31 0.10736 525.00 0.0019048 247.62 281.04 1.1693 1.6822 2.4822 935.13 -0.0034474 122.31 0.10736
29.375 2640.3 undefined 249.31 283.98 1.1749 525.00 0.0019048 249.31 283.98 1.1749 1.6863 2.4823 937.45 -0.0034751 122.31 0.10747 525.00 0.0019048 249.31 283.98 1.1749 1.6863 2.4823 937.45 -0.0034751 122.31 0.10747
30.375 2735.8 undefined 251.00 286.92 1.1805 525.00 0.0019048 251.00 286.92 1.1805 1.6904 2.4824 939.75 -0.0035022 122.31 0.10758 525.00 0.0019048 251.00 286.92 1.1805 1.6904 2.4824 939.75 -0.0035022 122.31 0.10758
31.375 2831.1 undefined 252.69 289.87 1.1860 525.00 0.0019048 252.69 289.87 1.1860 1.6945 2.4825 942.04 -0.0035288 122.31 0.10769 525.00 0.0019048 252.69 289.87 1.1860 1.6945 2.4825 942.04 -0.0035288 122.31 0.10769
32.375 2926.4 undefined 254.38 292.82 1.1916 525.00 0.0019048 254.38 292.82 1.1916 1.6987 2.4828 944.31 -0.0035548 122.30 0.10780 525.00 0.0019048 254.38 292.82 1.1916 1.6987 2.4828 944.31 -0.0035548 122.30 0.10780
33.375 3021.7 undefined 256.09 295.77 1.1971 525.00 0.0019048 256.09 295.77 1.1971 1.7028 2.4831 946.56 -0.0035803 122.30 0.10792 525.00 0.0019048 256.09 295.77 1.1971 1.7028 2.4831 946.56 -0.0035803 122.30 0.10792
34.375 3116.9 undefined 257.79 298.72 1.2027 525.00 0.0019048 257.79 298.72 1.2027 1.7070 2.4835 948.79 -0.0036053 122.30 0.10803 525.00 0.0019048 257.79 298.72 1.2027 1.7070 2.4835 948.79 -0.0036053 122.30 0.10803
35.375 3212.0 undefined 259.50 301.68 1.2083 525.00 0.0019048 259.50 301.68 1.2083 1.7111 2.4839 951.01 -0.0036297 122.30 0.10814 525.00 0.0019048 259.50 301.68 1.2083 1.7111 2.4839 951.01 -0.0036297 122.30 0.10814
36.375 3307.1 undefined 261.21 304.64 1.2138 525.00 0.0019048 261.21 304.64 1.2138 1.7153 2.4844 953.22 -0.0036537 122.30 0.10825 525.00 0.0019048 261.21 304.64 1.2138 1.7153 2.4844 953.22 -0.0036537 122.30 0.10825
37.375 3402.2 undefined 262.93 307.61 1.2193 525.00 0.0019048 262.93 307.61 1.2193 1.7195 2.4850 955.41 -0.0036771 122.30 0.10837 525.00 0.0019048 262.93 307.61 1.2193 1.7195 2.4850 955.41 -0.0036771 122.30 0.10837
38.375 3497.1 undefined 264.65 310.58 1.2249 525.00 0.0019048 264.65 310.58 1.2249 1.7237 2.4856 957.58 -0.0037001 122.30 0.10848 525.00 0.0019048 264.65 310.58 1.2249 1.7237 2.4856 957.58 -0.0037001 122.30 0.10848
39.375 3592.1 undefined 266.38 313.55 1.2304 525.00 0.0019048 266.38 313.55 1.2304 1.7279 2.4863 959.74 -0.0037226 122.30 0.10859 525.00 0.0019048 266.38 313.55 1.2304 1.7279 2.4863 959.74 -0.0037226 122.30 0.10859
40.375 3687.0 undefined 268.11 316.53 1.2359 525.00 0.0019048 268.11 316.53 1.2359 1.7321 2.4870 961.89 -0.0037447 122.30 0.10871 525.00 0.0019048 268.11 316.53 1.2359 1.7321 2.4870 961.89 -0.0037447 122.30 0.10871
41.375 3781.8 undefined 269.84 319.51 1.2415 525.00 0.0019048 269.84 319.51 1.2415 1.7364 2.4878 964.02 -0.0037663 122.29 0.10882 525.00 0.0019048 269.84 319.51 1.2415 1.7364 2.4878 964.02 -0.0037663 122.29 0.10882
42.375 3876.5 undefined 271.58 322.49 1.2470 525.00 0.0019048 271.58 322.49 1.2470 1.7406 2.4886 966.14 -0.0037874 122.29 0.10894 525.00 0.0019048 271.58 322.49 1.2470 1.7406 2.4886 966.14 -0.0037874 122.29 0.10894
43.375 3971.2 undefined 273.32 325.48 1.2525 525.00 0.0019048 273.32 325.48 1.2525 1.7448 2.4895 968.25 -0.0038082 122.29 0.10905 525.00 0.0019048 273.32 325.48 1.2525 1.7448 2.4895 968.25 -0.0038082 122.29 0.10905
44.375 4065.9 undefined 275.07 328.47 1.2580 525.00 0.0019048 275.07 328.47 1.2580 1.7491 2.4905 970.34 -0.0038285 122.29 0.10917 525.00 0.0019048 275.07 328.47 1.2580 1.7491 2.4905 970.34 -0.0038285 122.29 0.10917
45.375 4160.5 undefined 276.82 331.46 1.2635 525.00 0.0019048 276.82 331.46 1.2635 1.7533 2.4915 972.42 -0.0038484 122.29 0.10928 525.00 0.0019048 276.82 331.46 1.2635 1.7533 2.4915 972.42 -0.0038484 122.29 0.10928
46.375 4255.0 undefined 278.58 334.46 1.2690 525.00 0.0019048 278.58 334.46 1.2690 1.7576 2.4925 974.49 -0.0038678 122.30 0.10940 525.00 0.0019048 278.58 334.46 1.2690 1.7576 2.4925 974.49 -0.0038678 122.30 0.10940
47.375 4349.5 undefined 280.34 337.46 1.2745 525.00 0.0019048 280.34 337.46 1.2745 1.7619 2.4936 976.55 -0.0038869 122.30 0.10951 525.00 0.0019048 280.34 337.46 1.2745 1.7619 2.4936 976.55 -0.0038869 122.30 0.10951
48.375 4443.9 undefined 282.10 340.46 1.2800 525.00 0.0019048 282.10 340.46 1.2800 1.7662 2.4947 978.59 -0.0039056 122.30 0.10963 525.00 0.0019048 282.10 340.46 1.2800 1.7662 2.4947 978.59 -0.0039056 122.30 0.10963
49.375 4538.2 undefined 283.87 343.47 1.2855 525.00 0.0019048 283.87 343.47 1.2855 1.7704 2.4959 980.62 -0.0039239 122.30 0.10975 525.00 0.0019048 283.87 343.47 1.2855 1.7704 2.4959 980.62 -0.0039239 122.30 0.10975
50.375 4632.5 undefined 285.64 346.48 1.2910 525.00 0.0019048 285.64 346.48 1.2910 1.7747 2.4972 982.65 -0.0039419 122.30 0.10986 525.00 0.0019048 285.64 346.48 1.2910 1.7747 2.4972 982.65 -0.0039419 122.30 0.10986
51.375 4726.7 undefined 287.42 349.49 1.2965 525.00 0.0019048 287.42 349.49 1.2965 1.7790 2.4984 984.66 -0.0039595 122.30 0.10998 525.00 0.0019048 287.42 349.49 1.2965 1.7790 2.4984 984.66 -0.0039595 122.30 0.10998
52.375 4820.9 undefined 289.20 352.51 1.3019 525.00 0.0019048 289.20 352.51 1.3019 1.7833 2.4997 986.66 -0.0039767 122.30 0.11010 525.00 0.0019048 289.20 352.51 1.3019 1.7833 2.4997 986.66 -0.0039767 122.30 0.11010
53.375 4915.0 undefined 290.98 355.53 1.3074 525.00 0.0019048 290.98 355.53 1.3074 1.7876 2.5011 988.64 -0.0039935 122.30 0.11022 525.00 0.0019048 290.98 355.53 1.3074 1.7876 2.5011 988.64 -0.0039935 122.30 0.11022
54.375 5009.1 undefined 292.77 358.56 1.3129 525.00 0.0019048 292.77 358.56 1.3129 1.7919 2.5025 990.62 -0.0040100 122.30 0.11033 525.00 0.0019048 292.77 358.56 1.3129 1.7919 2.5025 990.62 -0.0040100 122.30 0.11033
55.375 5103.0 undefined 294.57 361.59 1.3184 525.00 0.0019048 294.57 361.59 1.3184 1.7963 2.5039 992.59 -0.0040262 122.31 0.11045 525.00 0.0019048 294.57 361.59 1.3184 1.7963 2.5039 992.59 -0.0040262 122.31 0.11045
56.375 5197.0 undefined 296.37 364.62 1.3238 525.00 0.0019048 296.37 364.62 1.3238 1.8006 2.5054 994.55 -0.0040421 122.31 0.11057 525.00 0.0019048 296.37 364.62 1.3238 1.8006 2.5054 994.55 -0.0040421 122.31 0.11057
57.375 5290.8 undefined 298.17 367.65 1.3293 525.00 0.0019048 298.17 367.65 1.3293 1.8049 2.5069 996.49 -0.0040576 122.31 0.11069 525.00 0.0019048 298.17 367.65 1.3293 1.8049 2.5069 996.49 -0.0040576 122.31 0.11069
58.375 5384.6 undefined 299.98 370.69 1.3347 525.00 0.0019048 299.98 370.69 1.3347 1.8092 2.5085 998.43 -0.0040728 122.31 0.11081 525.00 0.0019048 299.98 370.69 1.3347 1.8092 2.5085 998.43 -0.0040728 122.31 0.11081
59.375 5478.4 undefined 301.79 373.73 1.3402 525.00 0.0019048 301.79 373.73 1.3402 1.8136 2.5101 1000.4 -0.0040877 122.31 0.11093 525.00 0.0019048 301.79 373.73 1.3402 1.8136 2.5101 1000.4 -0.0040877 122.31 0.11093
60.375 5572.0 undefined 303.60 376.78 1.3457 525.00 0.0019048 303.60 376.78 1.3457 1.8179 2.5117 1002.3 -0.0041022 122.32 0.11105 525.00 0.0019048 303.60 376.78 1.3457 1.8179 2.5117 1002.3 -0.0041022 122.32 0.11105
61.375 5665.7 undefined 305.42 379.83 1.3511 525.00 0.0019048 305.42 379.83 1.3511 1.8222 2.5133 1004.2 -0.0041165 122.32 0.11117 525.00 0.0019048 305.42 379.83 1.3511 1.8222 2.5133 1004.2 -0.0041165 122.32 0.11117
62.375 5759.2 undefined 307.25 382.88 1.3565 525.00 0.0019048 307.25 382.88 1.3565 1.8266 2.5150 1006.1 -0.0041305 122.32 0.11129 525.00 0.0019048 307.25 382.88 1.3565 1.8266 2.5150 1006.1 -0.0041305 122.32 0.11129
63.375 5852.7 undefined 309.08 385.94 1.3620 525.00 0.0019048 309.08 385.94 1.3620 1.8309 2.5168 1008.0 -0.0041442 122.33 0.11141 525.00 0.0019048 309.08 385.94 1.3620 1.8309 2.5168 1008.0 -0.0041442 122.33 0.11141
64.375 5946.1 undefined 310.91 389.00 1.3674 525.00 0.0019048 310.91 389.00 1.3674 1.8353 2.5185 1009.9 -0.0041576 122.33 0.11153 525.00 0.0019048 310.91 389.00 1.3674 1.8353 2.5185 1009.9 -0.0041576 122.33 0.11153
65.375 6039.5 undefined 312.75 392.06 1.3729 525.00 0.0019048 312.75 392.06 1.3729 1.8396 2.5203 1011.7 -0.0041707 122.33 0.11165 525.00 0.0019048 312.75 392.06 1.3729 1.8396 2.5203 1011.7 -0.0041707 122.33 0.11165
66.375 6132.8 undefined 314.59 395.13 1.3783 525.00 0.0019048 314.59 395.13 1.3783 1.8440 2.5221 1013.6 -0.0041835 122.34 0.11177 525.00 0.0019048 314.59 395.13 1.3783 1.8440 2.5221 1013.6 -0.0041835 122.34 0.11177
67.375 6226.0 undefined 316.44 398.20 1.3837 525.00 0.0019048 316.44 398.20 1.3837 1.8484 2.5240 1015.5 -0.0041961 122.34 0.11190 525.00 0.0019048 316.44 398.20 1.3837 1.8484 2.5240 1015.5 -0.0041961 122.34 0.11190
68.375 6319.2 undefined 318.29 401.27 1.3892 525.00 0.0019048 318.29 401.27 1.3892 1.8527 2.5259 1017.3 -0.0042084 122.34 0.11202 525.00 0.0019048 318.29 401.27 1.3892 1.8527 2.5259 1017.3 -0.0042084 122.34 0.11202
69.375 6412.3 undefined 320.14 404.35 1.3946 525.00 0.0019048 320.14 404.35 1.3946 1.8571 2.5278 1019.1 -0.0042205 122.35 0.11214 525.00 0.0019048 320.14 404.35 1.3946 1.8571 2.5278 1019.1 -0.0042205 122.35 0.11214
70.375 6505.3 undefined 322.00 407.43 1.4000 525.00 0.0019048 322.00 407.43 1.4000 1.8614 2.5297 1021.0 -0.0042323 122.35 0.11226 525.00 0.0019048 322.00 407.43 1.4000 1.8614 2.5297 1021.0 -0.0042323 122.35 0.11226
71.375 6598.3 undefined 323.86 410.52 1.4054 525.00 0.0019048 323.86 410.52 1.4054 1.8658 2.5317 1022.8 -0.0042438 122.35 0.11239 525.00 0.0019048 323.86 410.52 1.4054 1.8658 2.5317 1022.8 -0.0042438 122.35 0.11239
72.375 6691.2 undefined 325.73 413.61 1.4108 525.00 0.0019048 325.73 413.61 1.4108 1.8702 2.5337 1024.6 -0.0042552 122.36 0.11251 525.00 0.0019048 325.73 413.61 1.4108 1.8702 2.5337 1024.6 -0.0042552 122.36 0.11251
73.375 6784.1 undefined 327.60 416.70 1.4162 525.00 0.0019048 327.60 416.70 1.4162 1.8745 2.5357 1026.4 -0.0042662 122.36 0.11264 525.00 0.0019048 327.60 416.70 1.4162 1.8745 2.5357 1026.4 -0.0042662 122.36 0.11264
74.375 6876.9 undefined 329.48 419.79 1.4216 525.00 0.0019048 329.48 419.79 1.4216 1.8789 2.5378 1028.2 -0.0042770 122.37 0.11276 525.00 0.0019048 329.48 419.79 1.4216 1.8789 2.5378 1028.2 -0.0042770 122.37 0.11276
75.375 6969.6 undefined 331.36 422.89 1.4271 525.00 0.0019048 331.36 422.89 1.4271 1.8833 2.5398 1030.0 -0.0042876 122.37 0.11289 525.00 0.0019048 331.36 422.89 1.4271 1.8833 2.5398 1030.0 -0.0042876 122.37 0.11289
76.375 7062.3 undefined 333.25 426.00 1.4325 525.00 0.0019048 333.25 426.00 1.4325 1.8877 2.5419 1031.8 -0.0042980 122.38 0.11301 525.00 0.0019048 333.25 426.00 1.4325 1.8877 2.5419 1031.8 -0.0042980 122.38 0.11301
77.375 7154.9 undefined 335.14 429.10 1.4379 525.00 0.0019048 335.14 429.10 1.4379 1.8920 2.5441 1033.6 -0.0043082 122.38 0.11314 525.00 0.0019048 335.14 429.10 1.4379 1.8920 2.5441 1033.6 -0.0043082 122.38 0.11314
78.375 7247.4 undefined 337.03 432.21 1.4433 525.00 0.0019048 337.03 432.21 1.4433 1.8964 2.5462 1035.4 -0.0043181 122.39 0.11327 525.00 0.0019048 337.03 432.21 1.4433 1.8964 2.5462 1035.4 -0.0043181 122.39 0.11327
79.375 7339.9 undefined 338.93 435.32 1.4486 525.00 0.0019048 338.93 435.32 1.4486 1.9008 2.5484 1037.1 -0.0043278 122.39 0.11339 525.00 0.0019048 338.93 435.32 1.4486 1.9008 2.5484 1037.1 -0.0043278 122.39 0.11339
80.375 7432.3 undefined 340.83 438.44 1.4540 525.00 0.0019048 340.83 438.44 1.4540 1.9052 2.5506 1038.9 -0.0043373 122.40 0.11352 525.00 0.0019048 340.83 438.44 1.4540 1.9052 2.5506 1038.9 -0.0043373 122.40 0.11352
81.375 7524.6 undefined 342.74 441.56 1.4594 525.00 0.0019048 342.74 441.56 1.4594 1.9095 2.5528 1040.6 -0.0043466 122.40 0.11365 525.00 0.0019048 342.74 441.56 1.4594 1.9095 2.5528 1040.6 -0.0043466 122.40 0.11365
82.375 7616.9 undefined 344.65 444.68 1.4648 525.00 0.0019048 344.65 444.68 1.4648 1.9139 2.5551 1042.4 -0.0043557 122.41 0.11377 525.00 0.0019048 344.65 444.68 1.4648 1.9139 2.5551 1042.4 -0.0043557 122.41 0.11377
83.375 7709.1 undefined 346.57 447.81 1.4702 525.00 0.0019048 346.57 447.81 1.4702 1.9183 2.5573 1044.1 -0.0043646 122.41 0.11390 525.00 0.0019048 346.57 447.81 1.4702 1.9183 2.5573 1044.1 -0.0043646 122.41 0.11390
84.375 7801.3 undefined 348.49 450.94 1.4756 525.00 0.0019048 348.49 450.94 1.4756 1.9227 2.5596 1045.8 -0.0043732 122.42 0.11403 525.00 0.0019048 348.49 450.94 1.4756 1.9227 2.5596 1045.8 -0.0043732 122.42 0.11403
85.375 7893.4 undefined 350.41 454.08 1.4809 525.00 0.0019048 350.41 454.08 1.4809 1.9270 2.5619 1047.6 -0.0043817 122.42 0.11416 525.00 0.0019048 350.41 454.08 1.4809 1.9270 2.5619 1047.6 -0.0043817 122.42 0.11416
86.375 7985.4 undefined 352.34 457.21 1.4863 525.00 0.0019048 352.34 457.21 1.4863 1.9314 2.5642 1049.3 -0.0043900 122.43 0.11429 525.00 0.0019048 352.34 457.21 1.4863 1.9314 2.5642 1049.3 -0.0043900 122.43 0.11429
87.375 8077.4 undefined 354.28 460.36 1.4917 525.00 0.0019048 354.28 460.36 1.4917 1.9358 2.5666 1051.0 -0.0043982 122.43 0.11442 525.00 0.0019048 354.28 460.36 1.4917 1.9358 2.5666 1051.0 -0.0043982 122.43 0.11442
88.375 8169.3 undefined 356.21 463.50 1.4971 525.00 0.0019048 356.21 463.50 1.4971 1.9402 2.5690 1052.7 -0.0044061 122.44 0.11455 525.00 0.0019048 356.21 463.50 1.4971 1.9402 2.5690 1052.7 -0.0044061 122.44 0.11455
89.375 8261.1 undefined 358.16 466.65 1.5024 525.00 0.0019048 358.16 466.65 1.5024 1.9445 2.5713 1054.4 -0.0044139 122.45 0.11467 525.00 0.0019048 358.16 466.65 1.5024 1.9445 2.5713 1054.4 -0.0044139 122.45 0.11467
90.375 8352.9 undefined 360.10 469.80 1.5078 525.00 0.0019048 360.10 469.80 1.5078 1.9489 2.5737 1056.1 -0.0044215 122.45 0.11480 525.00 0.0019048 360.10 469.80 1.5078 1.9489 2.5737 1056.1 -0.0044215 122.45 0.11480
91.375 8444.6 undefined 362.05 472.96 1.5131 525.00 0.0019048 362.05 472.96 1.5131 1.9533 2.5762 1057.8 -0.0044289 122.46 0.11493 525.00 0.0019048 362.05 472.96 1.5131 1.9533 2.5762 1057.8 -0.0044289 122.46 0.11493
92.375 8536.2 undefined 364.01 476.12 1.5185 525.00 0.0019048 364.01 476.12 1.5185 1.9576 2.5786 1059.5 -0.0044361 122.46 0.11506 525.00 0.0019048 364.01 476.12 1.5185 1.9576 2.5786 1059.5 -0.0044361 122.46 0.11506
93.375 8627.8 undefined 365.97 479.28 1.5239 525.00 0.0019048 365.97 479.28 1.5239 1.9620 2.5811 1061.1 -0.0044432 122.47 0.11520 525.00 0.0019048 365.97 479.28 1.5239 1.9620 2.5811 1061.1 -0.0044432 122.47 0.11520
94.375 8719.4 undefined 367.93 482.44 1.5292 525.00 0.0019048 367.93 482.44 1.5292 1.9664 2.5835 1062.8 -0.0044501 122.48 0.11533 525.00 0.0019048 367.93 482.44 1.5292 1.9664 2.5835 1062.8 -0.0044501 122.48 0.11533
95.375 8810.8 undefined 369.90 485.61 1.5346 525.00 0.0019048 369.90 485.61 1.5346 1.9707 2.5860 1064.5 -0.0044568 122.48 0.11546 525.00 0.0019048 369.90 485.61 1.5346 1.9707 2.5860 1064.5 -0.0044568 122.48 0.11546
96.375 8902.2 undefined 371.88 488.79 1.5399 525.00 0.0019048 371.88 488.79 1.5399 1.9751 2.5885 1066.1 -0.0044634 122.49 0.11559 525.00 0.0019048 371.88 488.79 1.5399 1.9751 2.5885 1066.1 -0.0044634 122.49 0.11559
97.375 8993.5 undefined 373.85 491.96 1.5452 525.00 0.0019048 373.85 491.96 1.5452 1.9795 2.5911 1067.8 -0.0044699 122.50 0.11572 525.00 0.0019048 373.85 491.96 1.5452 1.9795 2.5911 1067.8 -0.0044699 122.50 0.11572
98.375 9084.8 undefined 375.83 495.14 1.5506 525.00 0.0019048 375.83 495.14 1.5506 1.9838 2.5936 1069.4 -0.0044761 122.50 0.11585 525.00 0.0019048 375.83 495.14 1.5506 1.9838 2.5936 1069.4 -0.0044761 122.50 0.11585
99.375 9176.0 undefined 377.82 498.33 1.5559 525.00 0.0019048 377.82 498.33 1.5559 1.9882 2.5962 1071.1 -0.0044823 122.51 0.11599 525.00 0.0019048 377.82 498.33 1.5559 1.9882 2.5962 1071.1 -0.0044823 122.51 0.11599
100.38 9267.2 undefined 379.81 501.52 1.5613 525.00 0.0019048 379.81 501.52 1.5613 1.9926 2.5987 1072.7 -0.0044883 122.52 0.11612 525.00 0.0019048 379.81 501.52 1.5613 1.9926 2.5987 1072.7 -0.0044883 122.52 0.11612
101.38 9358.2 undefined 381.81 504.71 1.5666 525.00 0.0019048 381.81 504.71 1.5666 1.9969 2.6013 1074.3 -0.0044941 122.53 0.11625 525.00 0.0019048 381.81 504.71 1.5666 1.9969 2.6013 1074.3 -0.0044941 122.53 0.11625
102.38 9449.3 undefined 383.80 507.90 1.5719 525.00 0.0019048 383.80 507.90 1.5719 2.0013 2.6039 1075.9 -0.0044998 122.53 0.11638 525.00 0.0019048 383.80 507.90 1.5719 2.0013 2.6039 1075.9 -0.0044998 122.53 0.11638
103.38 9540.2 undefined 385.81 511.10 1.5773 525.00 0.0019048 385.81 511.10 1.5773 2.0056 2.6065 1077.6 -0.0045054 122.54 0.11652 525.00 0.0019048 385.81 511.10 1.5773 2.0056 2.6065 1077.6 -0.0045054 122.54 0.11652
104.38 9631.1 undefined 387.82 514.30 1.5826 525.00 0.0019048 387.82 514.30 1.5826 2.0100 2.6092 1079.2 -0.0045108 122.55 0.11665 525.00 0.0019048 387.82 514.30 1.5826 2.0100 2.6092 1079.2 -0.0045108 122.55 0.11665
105.38 9721.9 undefined 389.83 517.50 1.5879 525.00 0.0019048 389.83 517.50 1.5879 2.0143 2.6118 1080.8 -0.0045161 122.56 0.11679 525.00 0.0019048 389.83 517.50 1.5879 2.0143 2.6118 1080.8 -0.0045161 122.56 0.11679
106.38 9812.7 undefined 391.84 520.71 1.5932 525.00 0.0019048 391.84 520.71 1.5932 2.0187 2.6144 1082.4 -0.0045212 122.56 0.11692 525.00 0.0019048 391.84 520.71 1.5932 2.0187 2.6144 1082.4 -0.0045212 122.56 0.11692
107.38 9903.4 undefined 393.87 523.93 1.5985 525.00 0.0019048 393.87 523.93 1.5985 2.0230 2.6171 1084.0 -0.0045263 122.57 0.11706 525.00 0.0019048 393.87 523.93 1.5985 2.0230 2.6171 1084.0 -0.0045263 122.57 0.11706
108.38 9994.1 undefined 395.89 527.14 1.6039 525.00 0.0019048 395.89 527.14 1.6039 2.0274 2.6198 1085.6 -0.0045312 122.58 0.11719 525.00 0.0019048 395.89 527.14 1.6039 2.0274 2.6198 1085.6 -0.0045312 122.58 0.11719
109.38 10085. undefined 397.92 530.36 1.6092 525.00 0.0019048 397.92 530.36 1.6092 2.0317 2.6225 1087.2 -0.0045359 122.59 0.11733 525.00 0.0019048 397.92 530.36 1.6092 2.0317 2.6225 1087.2 -0.0045359 122.59 0.11733
110.38 10175. undefined 399.95 533.58 1.6145 525.00 0.0019048 399.95 533.58 1.6145 2.0360 2.6252 1088.8 -0.0045406 122.59 0.11746 525.00 0.0019048 399.95 533.58 1.6145 2.0360 2.6252 1088.8 -0.0045406 122.59 0.11746
111.38 10266. undefined 401.99 536.81 1.6198 525.00 0.0019048 401.99 536.81 1.6198 2.0404 2.6279 1090.3 -0.0045451 122.60 0.11760 525.00 0.0019048 401.99 536.81 1.6198 2.0404 2.6279 1090.3 -0.0045451 122.60 0.11760
112.38 10356. undefined 404.03 540.04 1.6251 525.00 0.0019048 404.03 540.04 1.6251 2.0447 2.6306 1091.9 -0.0045495 122.61 0.11773 525.00 0.0019048 404.03 540.04 1.6251 2.0447 2.6306 1091.9 -0.0045495 122.61 0.11773
113.38 10446. undefined 406.08 543.27 1.6304 525.00 0.0019048 406.08 543.27 1.6304 2.0490 2.6334 1093.5 -0.0045538 122.62 0.11787 525.00 0.0019048 406.08 543.27 1.6304 2.0490 2.6334 1093.5 -0.0045538 122.62 0.11787
114.38 10537. undefined 408.13 546.51 1.6357 525.00 0.0019048 408.13 546.51 1.6357 2.0534 2.6361 1095.0 -0.0045580 122.63 0.11801 525.00 0.0019048 408.13 546.51 1.6357 2.0534 2.6361 1095.0 -0.0045580 122.63 0.11801
115.38 10627. undefined 410.19 549.75 1.6410 525.00 0.0019048 410.19 549.75 1.6410 2.0577 2.6389 1096.6 -0.0045621 122.64 0.11814 525.00 0.0019048 410.19 549.75 1.6410 2.0577 2.6389 1096.6 -0.0045621 122.64 0.11814
116.38 10717. undefined 412.25 552.99 1.6463 525.00 0.0019048 412.25 552.99 1.6463 2.0620 2.6416 1098.1 -0.0045661 122.64 0.11828 525.00 0.0019048 412.25 552.99 1.6463 2.0620 2.6416 1098.1 -0.0045661 122.64 0.11828
117.38 10807. undefined 414.31 556.24 1.6516 525.00 0.0019048 414.31 556.24 1.6516 2.0663 2.6444 1099.7 -0.0045699 122.65 0.11842 525.00 0.0019048 414.31 556.24 1.6516 2.0663 2.6444 1099.7 -0.0045699 122.65 0.11842
118.38 10897. undefined 416.38 559.49 1.6569 525.00 0.0019048 416.38 559.49 1.6569 2.0706 2.6472 1101.2 -0.0045737 122.66 0.11856 525.00 0.0019048 416.38 559.49 1.6569 2.0706 2.6472 1101.2 -0.0045737 122.66 0.11856
119.38 10987. undefined 418.45 562.75 1.6622 525.00 0.0019048 418.45 562.75 1.6622 2.0750 2.6500 1102.8 -0.0045773 122.67 0.11870 525.00 0.0019048 418.45 562.75 1.6622 2.0750 2.6500 1102.8 -0.0045773 122.67 0.11870
120.38 11077. undefined 420.53 566.00 1.6674 525.00 0.0019048 420.53 566.00 1.6674 2.0793 2.6528 1104.3 -0.0045808 122.68 0.11883 525.00 0.0019048 420.53 566.00 1.6674 2.0793 2.6528 1104.3 -0.0045808 122.68 0.11883
121.38 11167. undefined 422.61 569.26 1.6727 525.00 0.0019048 422.61 569.26 1.6727 2.0836 2.6556 1105.8 -0.0045843 122.69 0.11897 525.00 0.0019048 422.61 569.26 1.6727 2.0836 2.6556 1105.8 -0.0045843 122.69 0.11897
122.38 11257. undefined 424.70 572.53 1.6780 525.00 0.0019048 424.70 572.53 1.6780 2.0879 2.6585 1107.4 -0.0045876 122.70 0.11911 525.00 0.0019048 424.70 572.53 1.6780 2.0879 2.6585 1107.4 -0.0045876 122.70 0.11911
123.38 11346. undefined 426.79 575.80 1.6833 525.00 0.0019048 426.79 575.80 1.6833 2.0922 2.6613 1108.9 -0.0045908 122.71 0.11925 525.00 0.0019048 426.79 575.80 1.6833 2.0922 2.6613 1108.9 -0.0045908 122.71 0.11925
124.38 11436. undefined 428.88 579.07 1.6886 525.00 0.0019048 428.88 579.07 1.6886 2.0965 2.6641 1110.4 -0.0045940 122.72 0.11939 525.00 0.0019048 428.88 579.07 1.6886 2.0965 2.6641 1110.4 -0.0045940 122.72 0.11939
125.38 11526. undefined 430.98 582.34 1.6938 525.00 0.0019048 430.98 582.34 1.6938 2.1008 2.6670 1111.9 -0.0045970 122.73 0.11953 525.00 0.0019048 430.98 582.34 1.6938 2.1008 2.6670 1111.9 -0.0045970 122.73 0.11953
126.38 11615. undefined 433.08 585.62 1.6991 525.00 0.0019048 433.08 585.62 1.6991 2.1051 2.6698 1113.4 -0.0046000 122.73 0.11967 525.00 0.0019048 433.08 585.62 1.6991 2.1051 2.6698 1113.4 -0.0046000 122.73 0.11967
127.38 11705. undefined 435.19 588.91 1.7044 525.00 0.0019048 435.19 588.91 1.7044 2.1093 2.6727 1114.9 -0.0046029 122.74 0.11981 525.00 0.0019048 435.19 588.91 1.7044 2.1093 2.6727 1114.9 -0.0046029 122.74 0.11981
128.38 11794. undefined 437.30 592.19 1.7096 525.00 0.0019048 437.30 592.19 1.7096 2.1136 2.6756 1116.4 -0.0046056 122.75 0.11995 525.00 0.0019048 437.30 592.19 1.7096 2.1136 2.6756 1116.4 -0.0046056 122.75 0.11995
129.38 11883. undefined 439.42 595.48 1.7149 525.00 0.0019048 439.42 595.48 1.7149 2.1179 2.6785 1117.9 -0.0046083 122.76 0.12010 525.00 0.0019048 439.42 595.48 1.7149 2.1179 2.6785 1117.9 -0.0046083 122.76 0.12010
130.38 11973. undefined 441.54 598.77 1.7202 525.00 0.0019048 441.54 598.77 1.7202 2.1222 2.6814 1119.4 -0.0046109 122.77 0.12024 525.00 0.0019048 441.54 598.77 1.7202 2.1222 2.6814 1119.4 -0.0046109 122.77 0.12024
131.38 12062. undefined 443.66 602.07 1.7254 525.00 0.0019048 443.66 602.07 1.7254 2.1265 2.6843 1120.9 -0.0046134 122.78 0.12038 525.00 0.0019048 443.66 602.07 1.7254 2.1265 2.6843 1120.9 -0.0046134 122.78 0.12038
132.38 12151. undefined 445.79 605.37 1.7307 525.00 0.0019048 445.79 605.37 1.7307 2.1307 2.6872 1122.4 -0.0046159 122.79 0.12052 525.00 0.0019048 445.79 605.37 1.7307 2.1307 2.6872 1122.4 -0.0046159 122.79 0.12052
133.38 12240. undefined 447.92 608.67 1.7359 525.00 0.0019048 447.92 608.67 1.7359 2.1350 2.6901 1123.9 -0.0046182 122.80 0.12066 525.00 0.0019048 447.92 608.67 1.7359 2.1350 2.6901 1123.9 -0.0046182 122.80 0.12066
134.38 12329. undefined 450.06 611.98 1.7412 525.00 0.0019048 450.06 611.98 1.7412 2.1393 2.6930 1125.3 -0.0046205 122.81 0.12081 525.00 0.0019048 450.06 611.98 1.7412 2.1393 2.6930 1125.3 -0.0046205 122.81 0.12081
135.38 12418. undefined 452.20 615.29 1.7464 525.00 0.0019048 452.20 615.29 1.7464 2.1435 2.6959 1126.8 -0.0046227 122.82 0.12095 525.00 0.0019048 452.20 615.29 1.7464 2.1435 2.6959 1126.8 -0.0046227 122.82 0.12095
136.38 12507. undefined 454.35 618.60 1.7517 525.00 0.0019048 454.35 618.60 1.7517 2.1478 2.6989 1128.3 -0.0046248 122.83 0.12109 525.00 0.0019048 454.35 618.60 1.7517 2.1478 2.6989 1128.3 -0.0046248 122.83 0.12109
137.38 12596. undefined 456.50 621.92 1.7569 525.00 0.0019048 456.50 621.92 1.7569 2.1520 2.7018 1129.7 -0.0046268 122.84 0.12124 525.00 0.0019048 456.50 621.92 1.7569 2.1520 2.7018 1129.7 -0.0046268 122.84 0.12124
138.38 12685. undefined 458.65 625.24 1.7621 525.00 0.0019048 458.65 625.24 1.7621 2.1563 2.7047 1131.2 -0.0046288 122.85 0.12138 525.00 0.0019048 458.65 625.24 1.7621 2.1563 2.7047 1131.2 -0.0046288 122.85 0.12138
139.38 12774. undefined 460.81 628.56 1.7674 525.00 0.0019048 460.81 628.56 1.7674 2.1605 2.7077 1132.7 -0.0046307 122.86 0.12152 525.00 0.0019048 460.81 628.56 1.7674 2.1605 2.7077 1132.7 -0.0046307 122.86 0.12152
140.38 12862. undefined 462.97 631.89 1.7726 525.00 0.0019048 462.97 631.89 1.7726 2.1647 2.7107 1134.1 -0.0046325 122.87 0.12167 525.00 0.0019048 462.97 631.89 1.7726 2.1647 2.7107 1134.1 -0.0046325 122.87 0.12167
141.38 12951. undefined 465.14 635.22 1.7779 525.00 0.0019048 465.14 635.22 1.7779 2.1690 2.7136 1135.6 -0.0046343 122.88 0.12181 525.00 0.0019048 465.14 635.22 1.7779 2.1690 2.7136 1135.6 -0.0046343 122.88 0.12181
142.38 13040. undefined 467.31 638.56 1.7831 525.00 0.0019048 467.31 638.56 1.7831 2.1732 2.7166 1137.0 -0.0046359 122.89 0.12196 525.00 0.0019048 467.31 638.56 1.7831 2.1732 2.7166 1137.0 -0.0046359 122.89 0.12196
143.38 13128. undefined 469.49 641.90 1.7883 525.00 0.0019048 469.49 641.90 1.7883 2.1774 2.7196 1138.4 -0.0046375 122.90 0.12210 525.00 0.0019048 469.49 641.90 1.7883 2.1774 2.7196 1138.4 -0.0046375 122.90 0.12210
144.38 13217. undefined 471.67 645.24 1.7935 525.00 0.0019048 471.67 645.24 1.7935 2.1817 2.7225 1139.9 -0.0046391 122.91 0.12225 525.00 0.0019048 471.67 645.24 1.7935 2.1817 2.7225 1139.9 -0.0046391 122.91 0.12225
145.38 13305. undefined 473.85 648.58 1.7988 525.00 0.0019048 473.85 648.58 1.7988 2.1859 2.7255 1141.3 -0.0046405 122.92 0.12239 525.00 0.0019048 473.85 648.58 1.7988 2.1859 2.7255 1141.3 -0.0046405 122.92 0.12239
146.38 13393. undefined 476.04 651.93 1.8040 525.00 0.0019048 476.04 651.93 1.8040 2.1901 2.7285 1142.7 -0.0046420 122.94 0.12254 525.00 0.0019048 476.04 651.93 1.8040 2.1901 2.7285 1142.7 -0.0046420 122.94 0.12254
147.38 13482. undefined 478.23 655.28 1.8092 525.00 0.0019048 478.23 655.28 1.8092 2.1943 2.7315 1144.2 -0.0046433 122.95 0.12269 525.00 0.0019048 478.23 655.28 1.8092 2.1943 2.7315 1144.2 -0.0046433 122.95 0.12269
148.38 13570. undefined 480.43 658.64 1.8144 525.00 0.0019048 480.43 658.64 1.8144 2.1985 2.7345 1145.6 -0.0046446 122.96 0.12283 525.00 0.0019048 480.43 658.64 1.8144 2.1985 2.7345 1145.6 -0.0046446 122.96 0.12283
149.38 13658. undefined 482.63 662.00 1.8196 525.00 0.0019048 482.63 662.00 1.8196 2.2027 2.7375 1147.0 -0.0046458 122.97 0.12298 525.00 0.0019048 482.63 662.00 1.8196 2.2027 2.7375 1147.0 -0.0046458 122.97 0.12298
150.38 13746. undefined 484.83 665.36 1.8248 525.00 0.0019048 484.83 665.36 1.8248 2.2069 2.7405 1148.4 -0.0046470 122.98 0.12313 525.00 0.0019048 484.83 665.36 1.8248 2.2069 2.7405 1148.4 -0.0046470 122.98 0.12313
151.38 13834. undefined 487.04 668.72 1.8301 525.00 0.0019048 487.04 668.72 1.8301 2.2111 2.7435 1149.8 -0.0046481 122.99 0.12328 525.00 0.0019048 487.04 668.72 1.8301 2.2111 2.7435 1149.8 -0.0046481 122.99 0.12328
152.38 13922. undefined 489.25 672.09 1.8353 525.00 0.0019048 489.25 672.09 1.8353 2.2153 2.7465 1151.2 -0.0046491 123.00 0.12342 525.00 0.0019048 489.25 672.09 1.8353 2.2153 2.7465 1151.2 -0.0046491 123.00 0.12342
153.38 14010. undefined 491.47 675.46 1.8405 525.00 0.0019048 491.47 675.46 1.8405 2.2195 2.7495 1152.6 -0.0046501 123.01 0.12357 525.00 0.0019048 491.47 675.46 1.8405 2.2195 2.7495 1152.6 -0.0046501 123.01 0.12357
154.38 14098. undefined 493.69 678.84 1.8457 525.00 0.0019048 493.69 678.84 1.8457 2.2237 2.7526 1154.0 -0.0046510 123.02 0.12372 525.00 0.0019048 493.69 678.84 1.8457 2.2237 2.7526 1154.0 -0.0046510 123.02 0.12372
155.38 14186. undefined 495.92 682.22 1.8509 525.00 0.0019048 495.92 682.22 1.8509 2.2278 2.7556 1155.4 -0.0046519 123.03 0.12387 525.00 0.0019048 495.92 682.22 1.8509 2.2278 2.7556 1155.4 -0.0046519 123.03 0.12387
156.38 14273. undefined 498.15 685.60 1.8561 525.00 0.0019048 498.15 685.60 1.8561 2.2320 2.7586 1156.8 -0.0046527 123.04 0.12402 525.00 0.0019048 498.15 685.60 1.8561 2.2320 2.7586 1156.8 -0.0046527 123.04 0.12402
157.38 14361. undefined 500.38 688.99 1.8613 525.00 0.0019048 500.38 688.99 1.8613 2.2362 2.7616 1158.2 -0.0046534 123.06 0.12417 525.00 0.0019048 500.38 688.99 1.8613 2.2362 2.7616 1158.2 -0.0046534 123.06 0.12417
158.38 14449. undefined 502.62 692.38 1.8665 525.00 0.0019048 502.62 692.38 1.8665 2.2404 2.7647 1159.6 -0.0046541 123.07 0.12432 525.00 0.0019048 502.62 692.38 1.8665 2.2404 2.7647 1159.6 -0.0046541 123.07 0.12432
159.38 14536. undefined 504.86 695.77 1.8716 525.00 0.0019048 504.86 695.77 1.8716 2.2445 2.7677 1161.0 -0.0046548 123.08 0.12447 525.00 0.0019048 504.86 695.77 1.8716 2.2445 2.7677 1161.0 -0.0046548 123.08 0.12447
160.38 14624. undefined 507.11 699.16 1.8768 525.00 0.0019048 507.11 699.16 1.8768 2.2487 2.7707 1162.3 -0.0046554 123.09 0.12462 525.00 0.0019048 507.11 699.16 1.8768 2.2487 2.7707 1162.3 -0.0046554 123.09 0.12462
161.38 14711. undefined 509.36 702.56 1.8820 525.00 0.0019048 509.36 702.56 1.8820 2.2528 2.7738 1163.7 -0.0046560 123.10 0.12477 525.00 0.0019048 509.36 702.56 1.8820 2.2528 2.7738 1163.7 -0.0046560 123.10 0.12477
162.38 14799. undefined 511.62 705.97 1.8872 525.00 0.0019048 511.62 705.97 1.8872 2.2570 2.7768 1165.1 -0.0046565 123.11 0.12492 525.00 0.0019048 511.62 705.97 1.8872 2.2570 2.7768 1165.1 -0.0046565 123.11 0.12492
163.38 14886. undefined 513.87 709.37 1.8924 525.00 0.0019048 513.87 709.37 1.8924 2.2611 2.7799 1166.5 -0.0046569 123.13 0.12507 525.00 0.0019048 513.87 709.37 1.8924 2.2611 2.7799 1166.5 -0.0046569 123.13 0.12507
164.38 14973. undefined 516.14 712.78 1.8976 525.00 0.0019048 516.14 712.78 1.8976 2.2652 2.7829 1167.8 -0.0046573 123.14 0.12522 525.00 0.0019048 516.14 712.78 1.8976 2.2652 2.7829 1167.8 -0.0046573 123.14 0.12522
165.38 15061. undefined 518.41 716.20 1.9027 525.00 0.0019048 518.41 716.20 1.9027 2.2694 2.7860 1169.2 -0.0046577 123.15 0.12537 525.00 0.0019048 518.41 716.20 1.9027 2.2694 2.7860 1169.2 -0.0046577 123.15 0.12537
166.38 15148. undefined 520.68 719.61 1.9079 525.00 0.0019048 520.68 719.61 1.9079 2.2735 2.7891 1170.5 -0.0046580 123.16 0.12553 525.00 0.0019048 520.68 719.61 1.9079 2.2735 2.7891 1170.5 -0.0046580 123.16 0.12553
167.38 15235. undefined 522.95 723.03 1.9131 525.00 0.0019048 522.95 723.03 1.9131 2.2776 2.7921 1171.9 -0.0046583 123.17 0.12568 525.00 0.0019048 522.95 723.03 1.9131 2.2776 2.7921 1171.9 -0.0046583 123.17 0.12568
168.38 15322. undefined 525.23 726.45 1.9183 525.00 0.0019048 525.23 726.45 1.9183 2.2817 2.7952 1173.2 -0.0046585 123.18 0.12583 525.00 0.0019048 525.23 726.45 1.9183 2.2817 2.7952 1173.2 -0.0046585 123.18 0.12583
169.38 15409. undefined 527.52 729.88 1.9234 525.00 0.0019048 527.52 729.88 1.9234 2.2859 2.7982 1174.6 -0.0046587 123.20 0.12598 525.00 0.0019048 527.52 729.88 1.9234 2.2859 2.7982 1174.6 -0.0046587 123.20 0.12598
170.38 15496. undefined 529.80 733.31 1.9286 525.00 0.0019048 529.80 733.31 1.9286 2.2900 2.8013 1175.9 -0.0046588 123.21 0.12614 525.00 0.0019048 529.80 733.31 1.9286 2.2900 2.8013 1175.9 -0.0046588 123.21 0.12614
171.38 15583. undefined 532.10 736.74 1.9337 525.00 0.0019048 532.10 736.74 1.9337 2.2941 2.8044 1177.3 -0.0046589 123.22 0.12629 525.00 0.0019048 532.10 736.74 1.9337 2.2941 2.8044 1177.3 -0.0046589 123.22 0.12629
172.38 15670. undefined 534.39 740.18 1.9389 525.00 0.0019048 534.39 740.18 1.9389 2.2982 2.8074 1178.6 -0.0046590 123.23 0.12644 525.00 0.0019048 534.39 740.18 1.9389 2.2982 2.8074 1178.6 -0.0046590 123.23 0.12644
173.38 15757. undefined 536.69 743.62 1.9441 525.00 0.0019048 536.69 743.62 1.9441 2.3023 2.8105 1180.0 -0.0046590 123.24 0.12660 525.00 0.0019048 536.69 743.62 1.9441 2.3023 2.8105 1180.0 -0.0046590 123.24 0.12660
174.38 15843. undefined 539.00 747.06 1.9492 525.00 0.0019048 539.00 747.06 1.9492 2.3063 2.8136 1181.3 -0.0046590 123.26 0.12675 525.00 0.0019048 539.00 747.06 1.9492 2.3063 2.8136 1181.3 -0.0046590 123.26 0.12675
175.38 15930. undefined 541.30 750.51 1.9544 525.00 0.0019048 541.30 750.51 1.9544 2.3104 2.8167 1182.6 -0.0046589 123.27 0.12691 525.00 0.0019048 541.30 750.51 1.9544 2.3104 2.8167 1182.6 -0.0046589 123.27 0.12691
176.38 16017. undefined 543.62 753.96 1.9595 525.00 0.0019048 543.62 753.96 1.9595 2.3145 2.8197 1183.9 -0.0046588 123.28 0.12706 525.00 0.0019048 543.62 753.96 1.9595 2.3145 2.8197 1183.9 -0.0046588 123.28 0.12706
177.38 16103. undefined 545.93 757.41 1.9647 525.00 0.0019048 545.93 757.41 1.9647 2.3186 2.8228 1185.3 -0.0046586 123.29 0.12722 525.00 0.0019048 545.93 757.41 1.9647 2.3186 2.8228 1185.3 -0.0046586 123.29 0.12722
178.38 16190. undefined 548.25 760.87 1.9698 525.00 0.0019048 548.25 760.87 1.9698 2.3227 2.8259 1186.6 -0.0046585 123.31 0.12737 525.00 0.0019048 548.25 760.87 1.9698 2.3227 2.8259 1186.6 -0.0046585 123.31 0.12737
179.38 16276. undefined 550.58 764.33 1.9750 525.00 0.0019048 550.58 764.33 1.9750 2.3267 2.8290 1187.9 -0.0046583 123.32 0.12753 525.00 0.0019048 550.58 764.33 1.9750 2.3267 2.8290 1187.9 -0.0046583 123.32 0.12753
180.38 16363. undefined 552.91 767.79 1.9801 525.00 0.0019048 552.91 767.79 1.9801 2.3308 2.8321 1189.2 -0.0046580 123.33 0.12769 525.00 0.0019048 552.91 767.79 1.9801 2.3308 2.8321 1189.2 -0.0046580 123.33 0.12769
181.38 16449. undefined 555.24 771.26 1.9852 525.00 0.0019048 555.24 771.26 1.9852 2.3348 2.8351 1190.5 -0.0046577 123.34 0.12784 525.00 0.0019048 555.24 771.26 1.9852 2.3348 2.8351 1190.5 -0.0046577 123.34 0.12784
182.38 16535. undefined 557.58 774.73 1.9904 525.00 0.0019048 557.58 774.73 1.9904 2.3389 2.8382 1191.8 -0.0046574 123.35 0.12800 525.00 0.0019048 557.58 774.73 1.9904 2.3389 2.8382 1191.8 -0.0046574 123.35 0.12800
183.38 16621. undefined 559.92 778.20 1.9955 525.00 0.0019048 559.92 778.20 1.9955 2.3429 2.8413 1193.1 -0.0046570 123.37 0.12816 525.00 0.0019048 559.92 778.20 1.9955 2.3429 2.8413 1193.1 -0.0046570 123.37 0.12816
184.38 16708. undefined 562.26 781.68 2.0006 525.00 0.0019048 562.26 781.68 2.0006 2.3470 2.8444 1194.5 -0.0046566 123.38 0.12831 525.00 0.0019048 562.26 781.68 2.0006 2.3470 2.8444 1194.5 -0.0046566 123.38 0.12831
185.38 16794. undefined 564.61 785.16 2.0058 525.00 0.0019048 564.61 785.16 2.0058 2.3510 2.8475 1195.8 -0.0046562 123.39 0.12847 525.00 0.0019048 564.61 785.16 2.0058 2.3510 2.8475 1195.8 -0.0046562 123.39 0.12847
186.38 16880. undefined 566.97 788.64 2.0109 525.00 0.0019048 566.97 788.64 2.0109 2.3551 2.8506 1197.0 -0.0046558 123.41 0.12863 525.00 0.0019048 566.97 788.64 2.0109 2.3551 2.8506 1197.0 -0.0046558 123.41 0.12863
187.38 16966. undefined 569.32 792.13 2.0160 525.00 0.0019048 569.32 792.13 2.0160 2.3591 2.8537 1198.3 -0.0046553 123.42 0.12879 525.00 0.0019048 569.32 792.13 2.0160 2.3591 2.8537 1198.3 -0.0046553 123.42 0.12879
188.38 17052. undefined 571.68 795.62 2.0211 525.00 0.0019048 571.68 795.62 2.0211 2.3631 2.8568 1199.6 -0.0046547 123.43 0.12894 525.00 0.0019048 571.68 795.62 2.0211 2.3631 2.8568 1199.6 -0.0046547 123.43 0.12894
189.38 17138. undefined 574.05 799.11 2.0263 525.00 0.0019048 574.05 799.11 2.0263 2.3671 2.8598 1200.9 -0.0046542 123.44 0.12910 525.00 0.0019048 574.05 799.11 2.0263 2.3671 2.8598 1200.9 -0.0046542 123.44 0.12910
190.38 17223. undefined 576.42 802.61 2.0314 525.00 0.0019048 576.42 802.61 2.0314 2.3711 2.8629 1202.2 -0.0046536 123.46 0.12926 525.00 0.0019048 576.42 802.61 2.0314 2.3711 2.8629 1202.2 -0.0046536 123.46 0.12926
191.38 17309. undefined 578.79 806.11 2.0365 525.00 0.0019048 578.79 806.11 2.0365 2.3751 2.8660 1203.5 -0.0046530 123.47 0.12942 525.00 0.0019048 578.79 806.11 2.0365 2.3751 2.8660 1203.5 -0.0046530 123.47 0.12942
192.38 17395. undefined 581.17 809.61 2.0416 525.00 0.0019048 581.17 809.61 2.0416 2.3791 2.8691 1204.8 -0.0046524 123.48 0.12958 525.00 0.0019048 581.17 809.61 2.0416 2.3791 2.8691 1204.8 -0.0046524 123.48 0.12958
193.38 17481. undefined 583.55 813.12 2.0467 525.00 0.0019048 583.55 813.12 2.0467 2.3831 2.8722 1206.0 -0.0046517 123.50 0.12974 525.00 0.0019048 583.55 813.12 2.0467 2.3831 2.8722 1206.0 -0.0046517 123.50 0.12974
194.38 17566. undefined 585.93 816.63 2.0518 525.00 0.0019048 585.93 816.63 2.0518 2.3871 2.8753 1207.3 -0.0046510 123.51 0.12990 525.00 0.0019048 585.93 816.63 2.0518 2.3871 2.8753 1207.3 -0.0046510 123.51 0.12990
195.38 17652. undefined 588.32 820.14 2.0569 525.00 0.0019048 588.32 820.14 2.0569 2.3911 2.8784 1208.6 -0.0046503 123.52 0.13006 525.00 0.0019048 588.32 820.14 2.0569 2.3911 2.8784 1208.6 -0.0046503 123.52 0.13006
196.38 17737. undefined 590.72 823.66 2.0620 525.00 0.0019048 590.72 823.66 2.0620 2.3951 2.8815 1209.9 -0.0046495 123.53 0.13022 525.00 0.0019048 590.72 823.66 2.0620 2.3951 2.8815 1209.9 -0.0046495 123.53 0.13022
197.38 17823. undefined 593.11 827.18 2.0671 525.00 0.0019048 593.11 827.18 2.0671 2.3991 2.8846 1211.1 -0.0046487 123.55 0.13038 525.00 0.0019048 593.11 827.18 2.0671 2.3991 2.8846 1211.1 -0.0046487 123.55 0.13038
198.38 17908. undefined 595.51 830.70 2.0722 525.00 0.0019048 595.51 830.70 2.0722 2.4030 2.8877 1212.4 -0.0046479 123.56 0.13055 525.00 0.0019048 595.51 830.70 2.0722 2.4030 2.8877 1212.4 -0.0046479 123.56 0.13055
199.38 17994. undefined 597.92 834.23 2.0773 525.00 0.0019048 597.92 834.23 2.0773 2.4070 2.8908 1213.7 -0.0046471 123.57 0.13071 525.00 0.0019048 597.92 834.23 2.0773 2.4070 2.8908 1213.7 -0.0046471 123.57 0.13071
200.38 18079. undefined 600.33 837.76 2.0824 525.00 0.0019048 600.33 837.76 2.0824 2.4110 2.8939 1214.9 -0.0046462 123.59 0.13087 525.00 0.0019048 600.33 837.76 2.0824 2.4110 2.8939 1214.9 -0.0046462 123.59 0.13087
201.38 18164. undefined 602.74 841.29 2.0875 525.00 0.0019048 602.74 841.29 2.0875 2.4149 2.8970 1216.2 -0.0046454 123.60 0.13103 525.00 0.0019048 602.74 841.29 2.0875 2.4149 2.8970 1216.2 -0.0046454 123.60 0.13103
202.38 18249. undefined 605.16 844.82 2.0926 525.00 0.0019048 605.16 844.82 2.0926 2.4189 2.9000 1217.4 -0.0046444 123.61 0.13119 525.00 0.0019048 605.16 844.82 2.0926 2.4189 2.9000 1217.4 -0.0046444 123.61 0.13119
203.38 18334. undefined 607.58 848.36 2.0977 525.00 0.0019048 607.58 848.36 2.0977 2.4228 2.9031 1218.7 -0.0046435 123.63 0.13136 525.00 0.0019048 607.58 848.36 2.0977 2.4228 2.9031 1218.7 -0.0046435 123.63 0.13136
204.38 18419. undefined 610.00 851.90 2.1028 525.00 0.0019048 610.00 851.90 2.1028 2.4268 2.9062 1219.9 -0.0046426 123.64 0.13152 525.00 0.0019048 610.00 851.90 2.1028 2.4268 2.9062 1219.9 -0.0046426 123.64 0.13152
205.38 18504. undefined 612.43 855.45 2.1078 525.00 0.0019048 612.43 855.45 2.1078 2.4307 2.9093 1221.2 -0.0046416 123.65 0.13168 525.00 0.0019048 612.43 855.45 2.1078 2.4307 2.9093 1221.2 -0.0046416 123.65 0.13168
206.38 18589. undefined 614.87 859.00 2.1129 525.00 0.0019048 614.87 859.00 2.1129 2.4346 2.9124 1222.4 -0.0046406 123.67 0.13185 525.00 0.0019048 614.87 859.00 2.1129 2.4346 2.9124 1222.4 -0.0046406 123.67 0.13185
207.38 18674. undefined 617.30 862.55 2.1180 525.00 0.0019048 617.30 862.55 2.1180 2.4386 2.9155 1223.6 -0.0046396 123.68 0.13201 525.00 0.0019048 617.30 862.55 2.1180 2.4386 2.9155 1223.6 -0.0046396 123.68 0.13201
208.38 18759. undefined 619.74 866.11 2.1231 525.00 0.0019048 619.74 866.11 2.1231 2.4425 2.9186 1224.9 -0.0046385 123.69 0.13218 525.00 0.0019048 619.74 866.11 2.1231 2.4425 2.9186 1224.9 -0.0046385 123.69 0.13218
209.38 18844. undefined 622.19 869.66 2.1281 525.00 0.0019048 622.19 869.66 2.1281 2.4464 2.9217 1226.1 -0.0046374 123.71 0.13234 525.00 0.0019048 622.19 869.66 2.1281 2.4464 2.9217 1226.1 -0.0046374 123.71 0.13234
210.38 18929. undefined 624.64 873.23 2.1332 525.00 0.0019048 624.64 873.23 2.1332 2.4503 2.9248 1227.4 -0.0046364 123.72 0.13251 525.00 0.0019048 624.64 873.23 2.1332 2.4503 2.9248 1227.4 -0.0046364 123.72 0.13251
211.38 19014. undefined 627.09 876.79 2.1383 525.00 0.0019048 627.09 876.79 2.1383 2.4542 2.9279 1228.6 -0.0046352 123.73 0.13267 525.00 0.0019048 627.09 876.79 2.1383 2.4542 2.9279 1228.6 -0.0046352 123.73 0.13267
212.38 19098. undefined 629.54 880.36 2.1433 525.00 0.0019048 629.54 880.36 2.1433 2.4581 2.9309 1229.8 -0.0046341 123.75 0.13284 525.00 0.0019048 629.54 880.36 2.1433 2.4581 2.9309 1229.8 -0.0046341 123.75 0.13284
213.38 19183. undefined 632.00 883.93 2.1484 525.00 0.0019048 632.00 883.93 2.1484 2.4620 2.9340 1231.0 -0.0046330 123.76 0.13300 525.00 0.0019048 632.00 883.93 2.1484 2.4620 2.9340 1231.0 -0.0046330 123.76 0.13300
214.38 19267. undefined 634.47 887.50 2.1535 525.00 0.0019048 634.47 887.50 2.1535 2.4659 2.9371 1232.3 -0.0046318 123.78 0.13317 525.00 0.0019048 634.47 887.50 2.1535 2.4659 2.9371 1232.3 -0.0046318 123.78 0.13317
215.38 19352. undefined 636.94 891.08 2.1585 525.00 0.0019048 636.94 891.08 2.1585 2.4698 2.9402 1233.5 -0.0046306 123.79 0.13333 525.00 0.0019048 636.94 891.08 2.1585 2.4698 2.9402 1233.5 -0.0046306 123.79 0.13333
216.38 19436. undefined 639.41 894.66 2.1636 525.00 0.0019048 639.41 894.66 2.1636 2.4736 2.9433 1234.7 -0.0046294 123.80 0.13350 525.00 0.0019048 639.41 894.66 2.1636 2.4736 2.9433 1234.7 -0.0046294 123.80 0.13350
217.38 19521. undefined 641.88 898.25 2.1686 525.00 0.0019048 641.88 898.25 2.1686 2.4775 2.9464 1235.9 -0.0046282 123.82 0.13367 525.00 0.0019048 641.88 898.25 2.1686 2.4775 2.9464 1235.9 -0.0046282 123.82 0.13367
218.38 19605. undefined 644.36 901.83 2.1737 525.00 0.0019048 644.36 901.83 2.1737 2.4814 2.9494 1237.1 -0.0046269 123.83 0.13384 525.00 0.0019048 644.36 901.83 2.1737 2.4814 2.9494 1237.1 -0.0046269 123.83 0.13384
219.38 19689. undefined 646.85 905.42 2.1787 525.00 0.0019048 646.85 905.42 2.1787 2.4853 2.9525 1238.3 -0.0046256 123.84 0.13400 525.00 0.0019048 646.85 905.42 2.1787 2.4853 2.9525 1238.3 -0.0046256 123.84 0.13400
220.38 19774. undefined 649.33 909.02 2.1838 525.00 0.0019048 649.33 909.02 2.1838 2.4891 2.9556 1239.5 -0.0046244 123.86 0.13417 525.00 0.0019048 649.33 909.02 2.1838 2.4891 2.9556 1239.5 -0.0046244 123.86 0.13417
221.38 19858. undefined 651.82 912.61 2.1888 525.00 0.0019048 651.82 912.61 2.1888 2.4930 2.9587 1240.7 -0.0046231 123.87 0.13434 525.00 0.0019048 651.82 912.61 2.1888 2.4930 2.9587 1240.7 -0.0046231 123.87 0.13434
222.38 19942. undefined 654.32 916.21 2.1938 525.00 0.0019048 654.32 916.21 2.1938 2.4968 2.9618 1241.9 -0.0046217 123.89 0.13451 525.00 0.0019048 654.32 916.21 2.1938 2.4968 2.9618 1241.9 -0.0046217 123.89 0.13451
223.38 20026. undefined 656.82 919.82 2.1989 525.00 0.0019048 656.82 919.82 2.1989 2.5007 2.9648 1243.1 -0.0046204 123.90 0.13468 525.00 0.0019048 656.82 919.82 2.1989 2.5007 2.9648 1243.1 -0.0046204 123.90 0.13468
224.38 20110. undefined 659.32 923.42 2.2039 525.00 0.0019048 659.32 923.42 2.2039 2.5045 2.9679 1244.3 -0.0046191 123.91 0.13485 525.00 0.0019048 659.32 923.42 2.2039 2.5045 2.9679 1244.3 -0.0046191 123.91 0.13485
225.38 20194. undefined 661.83 927.03 2.2089 525.00 0.0019048 661.83 927.03 2.2089 2.5083 2.9710 1245.5 -0.0046177 123.93 0.13501 525.00 0.0019048 661.83 927.03 2.2089 2.5083 2.9710 1245.5 -0.0046177 123.93 0.13501
226.38 20278. undefined 664.34 930.64 2.2140 525.00 0.0019048 664.34 930.64 2.2140 2.5122 2.9741 1246.7 -0.0046163 123.94 0.13518 525.00 0.0019048 664.34 930.64 2.2140 2.5122 2.9741 1246.7 -0.0046163 123.94 0.13518
227.38 20362. undefined 666.85 934.26 2.2190 525.00 0.0019048 666.85 934.26 2.2190 2.5160 2.9771 1247.9 -0.0046149 123.96 0.13535 525.00 0.0019048 666.85 934.26 2.2190 2.5160 2.9771 1247.9 -0.0046149 123.96 0.13535
228.38 20446. undefined 669.37 937.88 2.2240 525.00 0.0019048 669.37 937.88 2.2240 2.5198 2.9802 1249.1 -0.0046135 123.97 0.13552 525.00 0.0019048 669.37 937.88 2.2240 2.5198 2.9802 1249.1 -0.0046135 123.97 0.13552
229.38 20529. undefined 671.89 941.50 2.2291 525.00 0.0019048 671.89 941.50 2.2291 2.5236 2.9833 1250.3 -0.0046121 123.98 0.13569 525.00 0.0019048 671.89 941.50 2.2291 2.5236 2.9833 1250.3 -0.0046121 123.98 0.13569
230.38 20613. undefined 674.42 945.12 2.2341 525.00 0.0019048 674.42 945.12 2.2341 2.5274 2.9864 1251.5 -0.0046106 124.00 0.13587 525.00 0.0019048 674.42 945.12 2.2341 2.5274 2.9864 1251.5 -0.0046106 124.00 0.13587
231.38 20697. undefined 676.95 948.75 2.2391 525.00 0.0019048 676.95 948.75 2.2391 2.5312 2.9894 1252.7 -0.0046092 124.01 0.13604 525.00 0.0019048 676.95 948.75 2.2391 2.5312 2.9894 1252.7 -0.0046092 124.01 0.13604
232.38 20780. undefined 679.48 952.38 2.2441 525.00 0.0019048 679.48 952.38 2.2441 2.5350 2.9925 1253.9 -0.0046077 124.03 0.13621 525.00 0.0019048 679.48 952.38 2.2441 2.5350 2.9925 1253.9 -0.0046077 124.03 0.13621
233.38 20864. undefined 682.02 956.02 2.2491 525.00 0.0019048 682.02 956.02 2.2491 2.5388 2.9955 1255.0 -0.0046062 124.04 0.13638 525.00 0.0019048 682.02 956.02 2.2491 2.5388 2.9955 1255.0 -0.0046062 124.04 0.13638
234.38 20947. undefined 684.56 959.66 2.2541 525.00 0.0019048 684.56 959.66 2.2541 2.5426 2.9986 1256.2 -0.0046047 124.05 0.13655 525.00 0.0019048 684.56 959.66 2.2541 2.5426 2.9986 1256.2 -0.0046047 124.05 0.13655
235.38 21031. undefined 687.10 963.30 2.2591 525.00 0.0019048 687.10 963.30 2.2591 2.5464 3.0017 1257.4 -0.0046032 124.07 0.13672 525.00 0.0019048 687.10 963.30 2.2591 2.5464 3.0017 1257.4 -0.0046032 124.07 0.13672
236.38 21114. undefined 689.65 966.94 2.2641 525.00 0.0019048 689.65 966.94 2.2641 2.5501 3.0047 1258.6 -0.0046017 124.08 0.13690 525.00 0.0019048 689.65 966.94 2.2641 2.5501 3.0047 1258.6 -0.0046017 124.08 0.13690
237.38 21198. undefined 692.20 970.59 2.2692 525.00 0.0019048 692.20 970.59 2.2692 2.5539 3.0078 1259.7 -0.0046001 124.10 0.13707 525.00 0.0019048 692.20 970.59 2.2692 2.5539 3.0078 1259.7 -0.0046001 124.10 0.13707
238.38 21281. undefined 694.76 974.24 2.2742 525.00 0.0019048 694.76 974.24 2.2742 2.5577 3.0108 1260.9 -0.0045986 124.11 0.13724 525.00 0.0019048 694.76 974.24 2.2742 2.5577 3.0108 1260.9 -0.0045986 124.11 0.13724
239.38 21364. undefined 697.32 977.89 2.2792 525.00 0.0019048 697.32 977.89 2.2792 2.5614 3.0139 1262.1 -0.0045970 124.13 0.13742 525.00 0.0019048 697.32 977.89 2.2792 2.5614 3.0139 1262.1 -0.0045970 124.13 0.13742
240.38 21448. undefined 699.88 981.55 2.2841 525.00 0.0019048 699.88 981.55 2.2841 2.5652 3.0170 1263.2 -0.0045954 124.14 0.13759 525.00 0.0019048 699.88 981.55 2.2841 2.5652 3.0170 1263.2 -0.0045954 124.14 0.13759
241.38 21531. undefined 702.45 985.21 2.2891 525.00 0.0019048 702.45 985.21 2.2891 2.5689 3.0200 1264.4 -0.0045938 124.15 0.13776 525.00 0.0019048 702.45 985.21 2.2891 2.5689 3.0200 1264.4 -0.0045938 124.15 0.13776
242.38 21614. undefined 705.02 988.87 2.2941 525.00 0.0019048 705.02 988.87 2.2941 2.5727 3.0231 1265.5 -0.0045922 124.17 0.13794 525.00 0.0019048 705.02 988.87 2.2941 2.5727 3.0231 1265.5 -0.0045922 124.17 0.13794
243.38 21697. undefined 707.59 992.53 2.2991 525.00 0.0019048 707.59 992.53 2.2991 2.5764 3.0261 1266.7 -0.0045906 124.18 0.13811 525.00 0.0019048 707.59 992.53 2.2991 2.5764 3.0261 1266.7 -0.0045906 124.18 0.13811
244.38 21780. undefined 710.17 996.20 2.3041 525.00 0.0019048 710.17 996.20 2.3041 2.5801 3.0291 1267.8 -0.0045890 124.20 0.13829 525.00 0.0019048 710.17 996.20 2.3041 2.5801 3.0291 1267.8 -0.0045890 124.20 0.13829
245.38 21863. undefined 712.75 999.87 2.3091 525.00 0.0019048 712.75 999.87 2.3091 2.5839 3.0322 1269.0 -0.0045873 124.21 0.13846 525.00 0.0019048 712.75 999.87 2.3091 2.5839 3.0322 1269.0 -0.0045873 124.21 0.13846
246.38 21946. undefined 715.34 1003.5 2.3141 525.00 0.0019048 715.34 1003.5 2.3141 2.5876 3.0352 1270.1 -0.0045857 124.23 0.13864 525.00 0.0019048 715.34 1003.5 2.3141 2.5876 3.0352 1270.1 -0.0045857 124.23 0.13864
247.38 22029. undefined 717.93 1007.2 2.3191 525.00 0.0019048 717.93 1007.2 2.3191 2.5913 3.0383 1271.3 -0.0045840 124.24 0.13881 525.00 0.0019048 717.93 1007.2 2.3191 2.5913 3.0383 1271.3 -0.0045840 124.24 0.13881
248.38 22111. undefined 720.52 1010.9 2.3240 525.00 0.0019048 720.52 1010.9 2.3240 2.5950 3.0413 1272.4 -0.0045824 124.26 0.13899 525.00 0.0019048 720.52 1010.9 2.3240 2.5950 3.0413 1272.4 -0.0045824 124.26 0.13899
249.38 22194. undefined 723.12 1014.6 2.3290 525.00 0.0019048 723.12 1014.6 2.3290 2.5987 3.0443 1273.6 -0.0045807 124.27 0.13917 525.00 0.0019048 723.12 1014.6 2.3290 2.5987 3.0443 1273.6 -0.0045807 124.27 0.13917
250.38 22277. undefined 725.72 1018.3 2.3340 525.00 0.0019048 725.72 1018.3 2.3340 2.6024 3.0474 1274.7 -0.0045790 124.28 0.13934 525.00 0.0019048 725.72 1018.3 2.3340 2.6024 3.0474 1274.7 -0.0045790 124.28 0.13934
251.38 22360. undefined 728.32 1022.0 2.3389 525.00 0.0019048 728.32 1022.0 2.3389 2.6061 3.0504 1275.9 -0.0045773 124.30 0.13952 525.00 0.0019048 728.32 1022.0 2.3389 2.6061 3.0504 1275.9 -0.0045773 124.30 0.13952
252.38 22442. undefined 730.93 1025.7 2.3439 525.00 0.0019048 730.93 1025.7 2.3439 2.6098 3.0534 1277.0 -0.0045756 124.31 0.13970 525.00 0.0019048 730.93 1025.7 2.3439 2.6098 3.0534 1277.0 -0.0045756 124.31 0.13970
253.38 22525. undefined 733.54 1029.4 2.3489 525.00 0.0019048 733.54 1029.4 2.3489 2.6135 3.0565 1278.1 -0.0045739 124.33 0.13987 525.00 0.0019048 733.54 1029.4 2.3489 2.6135 3.0565 1278.1 -0.0045739 124.33 0.13987
254.38 22607. undefined 736.16 1033.1 2.3538 525.00 0.0019048 736.16 1033.1 2.3538 2.6172 3.0595 1279.3 -0.0045721 124.34 0.14005 525.00 0.0019048 736.16 1033.1 2.3538 2.6172 3.0595 1279.3 -0.0045721 124.34 0.14005
255.38 22690. undefined 738.78 1036.8 2.3588 525.00 0.0019048 738.78 1036.8 2.3588 2.6209 3.0625 1280.4 -0.0045704 124.36 0.14023 525.00 0.0019048 738.78 1036.8 2.3588 2.6209 3.0625 1280.4 -0.0045704 124.36 0.14023
256.38 22772. undefined 741.40 1040.5 2.3638 525.00 0.0019048 741.40 1040.5 2.3638 2.6245 3.0655 1281.5 -0.0045687 124.37 0.14041 525.00 0.0019048 741.40 1040.5 2.3638 2.6245 3.0655 1281.5 -0.0045687 124.37 0.14041
257.38 22855. undefined 744.03 1044.2 2.3687 525.00 0.0019048 744.03 1044.2 2.3687 2.6282 3.0686 1282.7 -0.0045669 124.39 0.14059 525.00 0.0019048 744.03 1044.2 2.3687 2.6282 3.0686 1282.7 -0.0045669 124.39 0.14059
258.38 22937. undefined 746.66 1047.9 2.3737 525.00 0.0019048 746.66 1047.9 2.3737 2.6319 3.0716 1283.8 -0.0045651 124.40 0.14076 525.00 0.0019048 746.66 1047.9 2.3737 2.6319 3.0716 1283.8 -0.0045651 124.40 0.14076
259.38 23019. undefined 749.29 1051.6 2.3786 525.00 0.0019048 749.29 1051.6 2.3786 2.6355 3.0746 1284.9 -0.0045634 124.42 0.14094 525.00 0.0019048 749.29 1051.6 2.3786 2.6355 3.0746 1284.9 -0.0045634 124.42 0.14094
260.38 23101. undefined 751.93 1055.3 2.3836 525.00 0.0019048 751.93 1055.3 2.3836 2.6392 3.0776 1286.0 -0.0045616 124.43 0.14112 525.00 0.0019048 751.93 1055.3 2.3836 2.6392 3.0776 1286.0 -0.0045616 124.43 0.14112
261.38 23184. undefined 754.57 1059.0 2.3885 525.00 0.0019048 754.57 1059.0 2.3885 2.6428 3.0806 1287.1 -0.0045598 124.45 0.14130 525.00 0.0019048 754.57 1059.0 2.3885 2.6428 3.0806 1287.1 -0.0045598 124.45 0.14130
262.38 23266. undefined 757.21 1062.8 2.3935 525.00 0.0019048 757.21 1062.8 2.3935 2.6465 3.0836 1288.3 -0.0045580 124.46 0.14148 525.00 0.0019048 757.21 1062.8 2.3935 2.6465 3.0836 1288.3 -0.0045580 124.46 0.14148
263.38 23348. undefined 759.86 1066.5 2.3984 525.00 0.0019048 759.86 1066.5 2.3984 2.6501 3.0866 1289.4 -0.0045562 124.48 0.14166 525.00 0.0019048 759.86 1066.5 2.3984 2.6501 3.0866 1289.4 -0.0045562 124.48 0.14166
264.38 23430. undefined 762.51 1070.2 2.4033 525.00 0.0019048 762.51 1070.2 2.4033 2.6537 3.0897 1290.5 -0.0045544 124.49 0.14184 525.00 0.0019048 762.51 1070.2 2.4033 2.6537 3.0897 1290.5 -0.0045544 124.49 0.14184
265.38 23512. undefined 765.17 1073.9 2.4083 525.00 0.0019048 765.17 1073.9 2.4083 2.6574 3.0927 1291.6 -0.0045526 124.51 0.14203 525.00 0.0019048 765.17 1073.9 2.4083 2.6574 3.0927 1291.6 -0.0045526 124.51 0.14203
266.38 23594. undefined 767.83 1077.7 2.4132 525.00 0.0019048 767.83 1077.7 2.4132 2.6610 3.0957 1292.7 -0.0045507 124.52 0.14221 525.00 0.0019048 767.83 1077.7 2.4132 2.6610 3.0957 1292.7 -0.0045507 124.52 0.14221
267.38 23676. undefined 770.49 1081.4 2.4181 525.00 0.0019048 770.49 1081.4 2.4181 2.6646 3.0987 1293.8 -0.0045489 124.54 0.14239 525.00 0.0019048 770.49 1081.4 2.4181 2.6646 3.0987 1293.8 -0.0045489 124.54 0.14239
268.38 23757. undefined 773.16 1085.2 2.4231 525.00 0.0019048 773.16 1085.2 2.4231 2.6682 3.1016 1294.9 -0.0045471 124.55 0.14257 525.00 0.0019048 773.16 1085.2 2.4231 2.6682 3.1016 1294.9 -0.0045471 124.55 0.14257
269.38 23839. undefined 775.83 1088.9 2.4280 525.00 0.0019048 775.83 1088.9 2.4280 2.6718 3.1046 1296.0 -0.0045452 124.57 0.14275 525.00 0.0019048 775.83 1088.9 2.4280 2.6718 3.1046 1296.0 -0.0045452 124.57 0.14275
270.38 23921. undefined 778.50 1092.7 2.4329 525.00 0.0019048 778.50 1092.7 2.4329 2.6754 3.1076 1297.1 -0.0045434 124.58 0.14293 525.00 0.0019048 778.50 1092.7 2.4329 2.6754 3.1076 1297.1 -0.0045434 124.58 0.14293
271.38 24003. undefined 781.18 1096.4 2.4378 525.00 0.0019048 781.18 1096.4 2.4378 2.6790 3.1106 1298.2 -0.0045415 124.60 0.14312 525.00 0.0019048 781.18 1096.4 2.4378 2.6790 3.1106 1298.2 -0.0045415 124.60 0.14312
272.38 24084. undefined 783.86 1100.2 2.4428 525.00 0.0019048 783.86 1100.2 2.4428 2.6826 3.1136 1299.3 -0.0045396 124.61 0.14330 525.00 0.0019048 783.86 1100.2 2.4428 2.6826 3.1136 1299.3 -0.0045396 124.61 0.14330
273.38 24166. undefined 786.54 1103.9 2.4477 525.00 0.0019048 786.54 1103.9 2.4477 2.6862 3.1166 1300.4 -0.0045378 124.62 0.14348 525.00 0.0019048 786.54 1103.9 2.4477 2.6862 3.1166 1300.4 -0.0045378 124.62 0.14348
274.38 24248. undefined 789.23 1107.7 2.4526 525.00 0.0019048 789.23 1107.7 2.4526 2.6897 3.1196 1301.5 -0.0045359 124.64 0.14367 525.00 0.0019048 789.23 1107.7 2.4526 2.6897 3.1196 1301.5 -0.0045359 124.64 0.14367
275.38 24329. undefined 791.92 1111.4 2.4575 525.00 0.0019048 791.92 1111.4 2.4575 2.6933 3.1226 1302.6 -0.0045340 124.65 0.14385 525.00 0.0019048 791.92 1111.4 2.4575 2.6933 3.1226 1302.6 -0.0045340 124.65 0.14385
276.38 24411. undefined 794.62 1115.2 2.4624 525.00 0.0019048 794.62 1115.2 2.4624 2.6969 3.1255 1303.7 -0.0045321 124.67 0.14404 525.00 0.0019048 794.62 1115.2 2.4624 2.6969 3.1255 1303.7 -0.0045321 124.67 0.14404
277.38 24492. undefined 797.32 1119.0 2.4673 525.00 0.0019048 797.32 1119.0 2.4673 2.7005 3.1285 1304.8 -0.0045302 124.68 0.14422 525.00 0.0019048 797.32 1119.0 2.4673 2.7005 3.1285 1304.8 -0.0045302 124.68 0.14422
278.38 24573. undefined 800.02 1122.7 2.4722 525.00 0.0019048 800.02 1122.7 2.4722 2.7040 3.1315 1305.9 -0.0045283 124.70 0.14441 525.00 0.0019048 800.02 1122.7 2.4722 2.7040 3.1315 1305.9 -0.0045283 124.70 0.14441
279.38 24655. undefined 802.72 1126.5 2.4771 525.00 0.0019048 802.72 1126.5 2.4771 2.7076 3.1345 1307.0 -0.0045264 124.72 0.14459 525.00 0.0019048 802.72 1126.5 2.4771 2.7076 3.1345 1307.0 -0.0045264 124.72 0.14459
280.38 24736. undefined 805.43 1130.3 2.4820 525.00 0.0019048 805.43 1130.3 2.4820 2.7111 3.1374 1308.0 -0.0045245 124.73 0.14478 525.00 0.0019048 805.43 1130.3 2.4820 2.7111 3.1374 1308.0 -0.0045245 124.73 0.14478
281.38 24817. undefined 808.15 1134.1 2.4869 525.00 0.0019048 808.15 1134.1 2.4869 2.7147 3.1404 1309.1 -0.0045226 124.75 0.14496 525.00 0.0019048 808.15 1134.1 2.4869 2.7147 3.1404 1309.1 -0.0045226 124.75 0.14496
282.38 24898. undefined 810.86 1137.8 2.4918 525.00 0.0019048 810.86 1137.8 2.4918 2.7182 3.1434 1310.2 -0.0045206 124.76 0.14487 525.00 0.0019048 810.86 1137.8 2.4918 2.7182 3.1434 1310.2 -0.0045206 124.76 0.14487
283.38 24979. undefined 813.58 1141.6 2.4967 525.00 0.0019048 813.58 1141.6 2.4967 2.7217 3.1463 1311.3 -0.0045187 124.78 0.14505 525.00 0.0019048 813.58 1141.6 2.4967 2.7217 3.1463 1311.3 -0.0045187 124.78 0.14505
284.38 25061. undefined 816.31 1145.4 2.5016 525.00 0.0019048 816.31 1145.4 2.5016 2.7253 3.1493 1312.4 -0.0045168 124.79 0.14524 525.00 0.0019048 816.31 1145.4 2.5016 2.7253 3.1493 1312.4 -0.0045168 124.79 0.14524
285.38 25142. undefined 819.03 1149.2 2.5065 525.00 0.0019048 819.03 1149.2 2.5065 2.7288 3.1522 1313.4 -0.0045148 124.81 0.14542 525.00 0.0019048 819.03 1149.2 2.5065 2.7288 3.1522 1313.4 -0.0045148 124.81 0.14542
286.38 25223. undefined 821.76 1153.0 2.5114 525.00 0.0019048 821.76 1153.0 2.5114 2.7323 3.1552 1314.5 -0.0045129 124.82 0.14561 525.00 0.0019048 821.76 1153.0 2.5114 2.7323 3.1552 1314.5 -0.0045129 124.82 0.14561
287.38 25304. undefined 824.50 1156.8 2.5162 525.00 0.0019048 824.50 1156.8 2.5162 2.7358 3.1581 1315.6 -0.0045109 124.84 0.14580 525.00 0.0019048 824.50 1156.8 2.5162 2.7358 3.1581 1315.6 -0.0045109 124.84 0.14580
288.38 25384. undefined 827.23 1160.6 2.5211 525.00 0.0019048 827.23 1160.6 2.5211 2.7393 3.1611 1316.6 -0.0045090 124.85 0.14598 525.00 0.0019048 827.23 1160.6 2.5211 2.7393 3.1611 1316.6 -0.0045090 124.85 0.14598
289.38 25465. undefined 829.98 1164.4 2.5260 525.00 0.0019048 829.98 1164.4 2.5260 2.7428 3.1640 1317.7 -0.0045070 124.87 0.14617 525.00 0.0019048 829.98 1164.4 2.5260 2.7428 3.1640 1317.7 -0.0045070 124.87 0.14617
290.38 25546. undefined 832.72 1168.2 2.5309 525.00 0.0019048 832.72 1168.2 2.5309 2.7463 3.1670 1318.8 -0.0045051 124.88 0.14636 525.00 0.0019048 832.72 1168.2 2.5309 2.7463 3.1670 1318.8 -0.0045051 124.88 0.14636
291.38 25627. undefined 835.47 1172.0 2.5357 525.00 0.0019048 835.47 1172.0 2.5357 2.7498 3.1699 1319.8 -0.0045031 124.90 0.14655 525.00 0.0019048 835.47 1172.0 2.5357 2.7498 3.1699 1319.8 -0.0045031 124.90 0.14655
292.38 25708. undefined 838.22 1175.8 2.5406 525.00 0.0019048 838.22 1175.8 2.5406 2.7533 3.1728 1320.9 -0.0045011 124.91 0.14674 525.00 0.0019048 838.22 1175.8 2.5406 2.7533 3.1728 1320.9 -0.0045011 124.91 0.14674
293.38 25788. undefined 840.97 1179.6 2.5455 525.00 0.0019048 840.97 1179.6 2.5455 2.7568 3.1758 1322.0 -0.0044991 124.93 0.14692 525.00 0.0019048 840.97 1179.6 2.5455 2.7568 3.1758 1322.0 -0.0044991 124.93 0.14692
294.38 25869. undefined 843.73 1183.5 2.5503 525.00 0.0019048 843.73 1183.5 2.5503 2.7603 3.1787 1323.0 -0.0044972 124.94 0.14711 525.00 0.0019048 843.73 1183.5 2.5503 2.7603 3.1787 1323.0 -0.0044972 124.94 0.14711
295.38 25950. undefined 846.50 1187.3 2.5552 525.00 0.0019048 846.50 1187.3 2.5552 2.7637 3.1816 1324.1 -0.0044952 124.96 0.14730 525.00 0.0019048 846.50 1187.3 2.5552 2.7637 3.1816 1324.1 -0.0044952 124.96 0.14730
296.38 26030. undefined 849.26 1191.1 2.5601 525.00 0.0019048 849.26 1191.1 2.5601 2.7672 3.1846 1325.1 -0.0044932 124.97 0.14749 525.00 0.0019048 849.26 1191.1 2.5601 2.7672 3.1846 1325.1 -0.0044932 124.97 0.14749
297.38 26111. undefined 852.03 1194.9 2.5649 525.00 0.0019048 852.03 1194.9 2.5649 2.7707 3.1875 1326.2 -0.0044912 124.99 0.14768 525.00 0.0019048 852.03 1194.9 2.5649 2.7707 3.1875 1326.2 -0.0044912 124.99 0.14768
298.38 26191. undefined 854.80 1198.8 2.5698 525.00 0.0019048 854.80 1198.8 2.5698 2.7741 3.1904 1327.2 -0.0044892 125.00 0.14787 525.00 0.0019048 854.80 1198.8 2.5698 2.7741 3.1904 1327.2 -0.0044892 125.00 0.14787
299.38 26271. undefined 857.58 1202.6 2.5746 525.00 0.0019048 857.58 1202.6 2.5746 2.7776 3.1933 1328.3 -0.0044872 125.02 0.14806 525.00 0.0019048 857.58 1202.6 2.5746 2.7776 3.1933 1328.3 -0.0044872 125.02 0.14806
300.38 26352. undefined 860.36 1206.4 2.5795 525.00 0.0019048 860.36 1206.4 2.5795 2.7810 3.1963 1329.3 -0.0044852 125.03 0.14825 525.00 0.0019048 860.36 1206.4 2.5795 2.7810 3.1963 1329.3 -0.0044852 125.03 0.14825