Temperature (C) Pressure (psia) Quality (l+v) Internal Energy (l+v, kJ/kg) Enthalpy (l+v, kJ/kg) Entropy (l+v, J/g*K) Density (l, kg/m3) Volume (l, m3/kg) Internal Energy (l, kJ/kg) Enthalpy (l, kJ/kg) Entropy (l, J/g*K) Cv (l, J/g*K) Cp (l, J/g*K) Sound Spd. (l, m/s) Joule-Thomson (l, F/psia) Viscosity (l, uPa*s) Therm. Cond. (l, W/m*K) Density (v, kg/m3) Volume (v, m3/kg) Internal Energy (v, kJ/kg) Enthalpy (v, kJ/kg) Entropy (v, J/g*K) Cv (v, J/g*K) Cp (v, J/g*K) Sound Spd. (v, m/s) Joule-Thomson (v, F/psia) Viscosity (v, uPa*s) Therm. Cond. (v, W/m*K)
-187.62 2.4953e-08 5.3892e-12 -196.64 -196.64 -1.3959 733.13 0.0013640 -196.64 -196.64 -1.3959 1.3553 1.9158 2136.4 -0.0077592 10960. 0.20792 1.0669e-08 9.3732e+07 350.13 366.26 5.1858 0.69067 0.87923 143.28 6.1051 2.3259 0.0017061
-186.62 3.7339e-08 7.9403e-12 -194.73 -194.73 -1.3736 732.08 0.0013660 -194.73 -194.73 -1.3736 1.3539 1.9166 2129.6 -0.0077546 10073. 0.20765 1.5780e-08 6.3371e+07 350.82 367.14 5.1200 0.69462 0.88317 144.03 5.9178 2.3534 0.0017533
-185.62 5.5322e-08 1.1585e-11 -192.81 -192.81 -1.3516 731.04 0.0013679 -192.81 -192.81 -1.3516 1.3525 1.9174 2122.9 -0.0077498 9276.1 0.20737 2.3112e-08 4.3267e+07 351.52 368.02 5.0561 0.69857 0.88713 144.77 5.7383 2.3808 0.0018007
-184.62 8.1182e-08 1.6743e-11 -190.89 -190.89 -1.3298 730.00 0.0013699 -190.89 -190.89 -1.3298 1.3513 1.9182 2116.1 -0.0077448 8557.8 0.20708 3.3533e-08 2.9821e+07 352.22 368.91 4.9939 0.70253 0.89108 145.51 5.5662 2.4083 0.0018485
-183.62 1.1803e-07 2.3977e-11 -188.97 -188.97 -1.3083 728.96 0.0013718 -188.97 -188.97 -1.3083 1.3501 1.9191 2109.3 -0.0077395 7909.8 0.20678 4.8211e-08 2.0742e+07 352.92 369.81 4.9333 0.70648 0.89504 146.24 5.4011 2.4357 0.0018965
-182.62 1.7009e-07 3.4035e-11 -187.05 -187.05 -1.2869 727.92 0.0013738 -187.05 -187.05 -1.2869 1.3490 1.9201 2102.5 -0.0077340 7324.3 0.20647 6.8704e-08 1.4555e+07 353.63 370.70 4.8744 0.71043 0.89899 146.97 5.2426 2.4632 0.0019448
-181.62 2.4299e-07 4.7901e-11 -185.13 -185.13 -1.2658 726.88 0.0013757 -185.13 -185.13 -1.2658 1.3480 1.9210 2095.7 -0.0077283 6794.5 0.20616 9.7079e-08 1.0301e+07 354.35 371.60 4.8170 0.71438 0.90294 147.69 5.0904 2.4906 0.0019934
-180.62 3.4425e-07 6.6862e-11 -183.21 -183.21 -1.2450 725.85 0.0013777 -183.21 -183.21 -1.2450 1.3470 1.9220 2088.9 -0.0077225 6314.4 0.20584 1.3605e-07 7.3504e+06 355.06 372.51 4.7612 0.71833 0.90688 148.41 4.9442 2.5181 0.0020423
-179.62 4.8378e-07 9.2588e-11 -181.29 -181.29 -1.2243 724.81 0.0013797 -181.29 -181.29 -1.2243 1.3461 1.9231 2082.0 -0.0077164 5878.8 0.20551 1.8915e-07 5.2868e+06 355.78 373.42 4.7068 0.72227 0.91082 149.13 4.8038 2.5456 0.0020915
-178.62 6.7459e-07 1.2723e-10 -179.37 -179.37 -1.2038 723.78 0.0013816 -179.37 -179.37 -1.2038 1.3453 1.9241 2075.2 -0.0077102 5482.9 0.20517 2.6096e-07 3.8320e+06 356.51 374.33 4.6538 0.72620 0.91475 149.84 4.6688 2.5731 0.0021410
-177.62 9.3358e-07 1.7352e-10 -177.44 -177.44 -1.1836 722.75 0.0013836 -177.44 -177.44 -1.1836 1.3445 1.9252 2068.4 -0.0077039 5122.6 0.20483 3.5737e-07 2.7982e+06 357.23 375.25 4.6022 0.73012 0.91867 150.54 4.5390 2.6005 0.0021907
-176.62 1.2826e-06 2.3496e-10 -175.52 -175.52 -1.1635 721.72 0.0013856 -175.52 -175.52 -1.1635 1.3437 1.9263 2061.5 -0.0076973 4794.1 0.20447 4.8588e-07 2.0581e+06 357.97 376.17 4.5519 0.73403 0.92258 151.25 4.4142 2.6280 0.0022408
-175.62 1.7496e-06 3.1594e-10 -173.59 -173.59 -1.1437 720.69 0.0013876 -173.59 -173.59 -1.1437 1.3430 1.9274 2054.7 -0.0076907 4494.3 0.20411 6.5601e-07 1.5244e+06 358.70 377.09 4.5029 0.73792 0.92648 151.95 4.2941 2.6555 0.0022912
-174.62 2.3705e-06 4.2195e-10 -171.66 -171.66 -1.1240 719.66 0.0013895 -171.66 -171.66 -1.1240 1.3423 1.9286 2047.9 -0.0076838 4220.2 0.20375 8.7976e-07 1.1367e+06 359.44 378.02 4.4551 0.74181 0.93036 152.64 4.1784 2.6830 0.0023418
-173.62 3.1903e-06 5.5985e-10 -169.73 -169.73 -1.1045 718.64 0.0013915 -169.73 -169.73 -1.1045 1.3417 1.9298 2041.0 -0.0076769 3969.3 0.20338 1.1721e-06 8.5314e+05 360.19 378.95 4.4085 0.74568 0.93423 153.33 4.0671 2.7105 0.0023928
-172.62 4.2661e-06 7.3811e-10 -167.80 -167.80 -1.0852 717.61 0.0013935 -167.80 -167.80 -1.0852 1.3411 1.9310 2034.2 -0.0076698 3739.3 0.20300 1.5518e-06 6.4441e+05 360.93 379.89 4.3631 0.74953 0.93809 154.02 3.9599 2.7379 0.0024440
-171.62 5.6692e-06 9.6714e-10 -165.87 -165.87 -1.0661 716.58 0.0013955 -165.87 -165.87 -1.0661 1.3405 1.9322 2027.3 -0.0076625 3528.0 0.20261 2.0419e-06 4.8974e+05 361.69 380.83 4.3188 0.75337 0.94193 154.71 3.8566 2.7654 0.0024955
-170.62 7.4884e-06 1.2597e-09 -163.94 -163.94 -1.0472 715.56 0.0013975 -163.94 -163.94 -1.0472 1.3400 1.9334 2020.5 -0.0076552 3333.8 0.20222 2.6708e-06 3.7442e+05 362.44 381.77 4.2755 0.75720 0.94575 155.39 3.7570 2.7929 0.0025473
-169.62 9.8334e-06 1.6312e-09 -162.00 -162.00 -1.0284 714.54 0.0013995 -162.00 -162.00 -1.0284 1.3395 1.9347 2013.6 -0.0076477 3154.9 0.20182 3.4733e-06 2.8791e+05 363.20 382.72 4.2334 0.76100 0.94956 156.07 3.6609 2.8204 0.0025994
-168.62 1.2839e-05 2.1005e-09 -160.07 -160.07 -1.0098 713.52 0.0014015 -160.07 -160.07 -1.0098 1.3390 1.9359 2006.8 -0.0076401 2989.9 0.20141 4.4917e-06 2.2263e+05 363.96 383.67 4.1922 0.76479 0.95335 156.74 3.5683 2.8479 0.0026518
-167.62 1.6672e-05 2.6901e-09 -158.13 -158.13 -0.99134 712.49 0.0014035 -158.13 -158.13 -0.99134 1.3386 1.9372 2000.0 -0.0076323 2837.5 0.20100 5.7771e-06 1.7310e+05 364.73 384.63 4.1521 0.76856 0.95712 157.41 3.4790 2.8754 0.0027045
-166.62 2.1533e-05 3.4268e-09 -156.19 -156.19 -0.97306 711.47 0.0014055 -156.19 -156.19 -0.97306 1.3382 1.9385 1993.1 -0.0076245 2696.5 0.20058 7.3914e-06 1.3529e+05 365.50 385.59 4.1129 0.77232 0.96087 158.08 3.3927 2.9029 0.0027575
-165.62 2.7666e-05 4.3430e-09 -154.25 -154.25 -0.95494 710.45 0.0014075 -154.25 -154.25 -0.95494 1.3378 1.9398 1986.3 -0.0076165 2566.0 0.20016 9.4084e-06 1.0629e+05 366.27 386.55 4.0746 0.77605 0.96460 158.75 3.3095 2.9304 0.0028108
-164.62 3.5367e-05 5.4766e-09 -152.31 -152.31 -0.93698 709.44 0.0014096 -152.31 -152.31 -0.93698 1.3375 1.9411 1979.4 -0.0076084 2444.9 0.19973 1.1916e-05 83918. 367.05 387.52 4.0372 0.77976 0.96832 159.41 3.2291 2.9579 0.0028643
-163.62 4.4989e-05 6.8727e-09 -150.37 -150.37 -0.91917 708.42 0.0014116 -150.37 -150.37 -0.91917 1.3371 1.9424 1972.6 -0.0076002 2332.3 0.19930 1.5020e-05 66577. 367.83 388.49 4.0008 0.78346 0.97201 160.07 3.1514 2.9854 0.0029182
-162.62 5.6956e-05 8.5839e-09 -148.43 -148.43 -0.90151 707.40 0.0014136 -148.43 -148.43 -0.90151 1.3368 1.9437 1965.8 -0.0075919 2227.7 0.19886 1.8844e-05 53068. 368.62 389.46 3.9651 0.78713 0.97569 160.72 3.0764 3.0129 0.0029723
-161.62 7.1773e-05 1.0672e-08 -146.48 -146.48 -0.88400 706.38 0.0014157 -146.48 -146.48 -0.88400 1.3365 1.9451 1959.0 -0.0075834 2130.2 0.19841 2.3533e-05 42494. 369.41 390.44 3.9304 0.79079 0.97935 161.38 3.0038 3.0404 0.0030268
-160.62 9.0036e-05 1.3209e-08 -144.54 -144.54 -0.86663 705.37 0.0014177 -144.54 -144.54 -0.86663 1.3363 1.9465 1952.1 -0.0075748 2039.2 0.19796 2.9258e-05 34178. 370.20 391.42 3.8964 0.79443 0.98298 162.03 2.9337 3.0679 0.0030815
-159.62 0.00011245 1.6278e-08 -142.59 -142.59 -0.84940 704.35 0.0014197 -142.59 -142.59 -0.84940 1.3360 1.9478 1945.3 -0.0075661 1954.2 0.19751 3.6221e-05 27609. 371.00 392.40 3.8632 0.79805 0.98660 162.68 2.8658 3.0955 0.0031365
-158.62 0.00013985 1.9976e-08 -140.64 -140.64 -0.83231 703.34 0.0014218 -140.64 -140.64 -0.83231 1.3358 1.9492 1938.5 -0.0075573 1874.8 0.19705 4.4652e-05 22395. 371.80 393.39 3.8307 0.80164 0.99020 163.32 2.8002 3.1230 0.0031918
-157.62 0.00017320 2.4413e-08 -138.69 -138.69 -0.81536 702.32 0.0014238 -138.69 -138.69 -0.81536 1.3356 1.9506 1931.7 -0.0075484 1800.3 0.19658 5.4822e-05 18241. 372.60 394.38 3.7990 0.80522 0.99378 163.96 2.7367 3.1505 0.0032474
-156.62 0.00021364 2.9716e-08 -136.74 -136.74 -0.79854 701.31 0.0014259 -136.74 -136.74 -0.79854 1.3354 1.9520 1924.9 -0.0075393 1730.5 0.19611 6.7040e-05 14916. 373.41 395.38 3.7680 0.80878 0.99734 164.60 2.6752 3.1780 0.0033033
-155.62 0.00026248 3.6031e-08 -134.79 -134.79 -0.78185 700.30 0.0014280 -134.79 -134.79 -0.78185 1.3352 1.9534 1918.1 -0.0075302 1664.9 0.19564 8.1666e-05 12245. 374.22 396.38 3.7377 0.81232 1.0009 165.24 2.6157 3.2055 0.0033595
-154.62 0.00032125 4.3522e-08 -132.83 -132.83 -0.76530 699.29 0.0014300 -132.83 -132.83 -0.76530 1.3350 1.9548 1911.3 -0.0075209 1603.3 0.19516 9.9109e-05 10090. 375.03 397.38 3.7081 0.81585 1.0044 165.87 2.5580 3.2330 0.0034160
-153.62 0.00039171 5.2376e-08 -130.88 -130.88 -0.74887 698.27 0.0014321 -130.88 -130.88 -0.74887 1.3349 1.9563 1904.5 -0.0075114 1545.3 0.19468 0.00011984 8344.6 375.85 398.39 3.6792 0.81935 1.0079 166.50 2.5022 3.2606 0.0034727
-152.62 0.00047590 6.2804e-08 -128.92 -128.92 -0.73256 697.26 0.0014342 -128.92 -128.92 -0.73256 1.3348 1.9577 1897.8 -0.0075019 1490.6 0.19419 0.00014439 6925.9 376.67 399.40 3.6509 0.82284 1.0114 167.13 2.4481 3.2881 0.0035298
-151.62 0.00057613 7.5045e-08 -126.96 -126.96 -0.71638 696.25 0.0014363 -126.96 -126.96 -0.71638 1.3346 1.9592 1891.0 -0.0074922 1438.9 0.19370 0.00017336 5768.4 377.49 400.41 3.6232 0.82631 1.0149 167.76 2.3957 3.3156 0.0035872
-150.62 0.00069507 8.9366e-08 -125.00 -125.00 -0.70032 695.24 0.0014384 -125.00 -125.00 -0.70032 1.3345 1.9606 1884.2 -0.0074824 1390.2 0.19320 0.00020744 4820.7 378.32 401.42 3.5962 0.82976 1.0183 168.38 2.3448 3.3431 0.0036448
-149.62 0.00083574 1.0606e-07 -123.04 -123.04 -0.68438 694.23 0.0014404 -123.04 -123.04 -0.68438 1.3345 1.9621 1877.4 -0.0074724 1344.0 0.19270 0.00024740 4042.0 379.15 402.44 3.5697 0.83319 1.0218 169.00 2.2956 3.3706 0.0037027
-148.62 0.0010016 1.2547e-07 -121.08 -121.08 -0.66855 693.22 0.0014425 -121.08 -121.08 -0.66855 1.3344 1.9636 1870.7 -0.0074623 1300.3 0.19220 0.00029412 3400.0 379.99 403.47 3.5438 0.83661 1.0252 169.62 2.2478 3.3982 0.0037610
-147.62 0.0011965 1.4796e-07 -119.11 -119.11 -0.65284 692.21 0.0014447 -119.11 -119.11 -0.65284 1.3343 1.9651 1863.9 -0.0074521 1258.9 0.19169 0.00034856 2869.0 380.83 404.49 3.5185 0.84001 1.0286 170.24 2.2014 3.4257 0.0038195
-146.62 0.0014249 1.7395e-07 -117.15 -117.15 -0.63724 691.20 0.0014468 -117.15 -117.15 -0.63724 1.3343 1.9666 1857.2 -0.0074417 1219.6 0.19117 0.00041181 2428.3 381.67 405.52 3.4938 0.84340 1.0320 170.85 2.1565 3.4532 0.0038783
-145.62 0.0016917 2.0387e-07 -115.18 -115.18 -0.62175 690.19 0.0014489 -115.18 -115.18 -0.62175 1.3343 1.9682 1850.4 -0.0074312 1182.3 0.19066 0.00048510 2061.4 382.51 406.56 3.4695 0.84677 1.0353 171.46 2.1128 3.4807 0.0039374
-144.62 0.0020026 2.3825e-07 -113.21 -113.21 -0.60637 689.18 0.0014510 -113.21 -113.21 -0.60637 1.3343 1.9697 1843.7 -0.0074206 1146.8 0.19014 0.00056976 1755.1 383.36 407.59 3.4458 0.85012 1.0387 172.07 2.0705 3.5082 0.0039967
-143.62 0.0023637 2.7762e-07 -111.24 -111.24 -0.59110 688.17 0.0014531 -111.24 -111.24 -0.59110 1.3343 1.9713 1836.9 -0.0074098 1113.0 0.18962 0.00066731 1498.6 384.21 408.63 3.4226 0.85346 1.0420 172.68 2.0294 3.5358 0.0040564
-142.62 0.0027820 3.2258e-07 -109.27 -109.27 -0.57593 687.16 0.0014553 -109.27 -109.27 -0.57593 1.3343 1.9728 1830.2 -0.0073988 1080.8 0.18909 0.00077939 1283.1 385.07 409.68 3.3999 0.85679 1.0454 173.28 1.9896 3.5633 0.0041164
-141.62 0.0032653 3.7380e-07 -107.30 -107.30 -0.56087 686.15 0.0014574 -107.30 -107.30 -0.56087 1.3343 1.9744 1823.5 -0.0073878 1050.1 0.18856 0.00090784 1101.5 385.93 410.72 3.3777 0.86011 1.0487 173.88 1.9508 3.5908 0.0041766
-140.62 0.0038222 4.3199e-07 -105.32 -105.32 -0.54591 685.14 0.0014596 -105.32 -105.32 -0.54591 1.3344 1.9760 1816.7 -0.0073765 1020.7 0.18803 0.0010547 948.16 386.79 411.77 3.3560 0.86341 1.0520 174.48 1.9133 3.6183 0.0042372
-139.62 0.0044623 4.9794e-07 -103.34 -103.34 -0.53105 684.13 0.0014617 -103.34 -103.34 -0.53105 1.3344 1.9776 1810.0 -0.0073651 992.74 0.18749 0.0012221 818.26 387.65 412.83 3.3347 0.86670 1.0553 175.08 1.8768 3.6459 0.0042980
-138.62 0.0051963 5.7248e-07 -101.37 -101.37 -0.51628 683.12 0.0014639 -101.37 -101.37 -0.51629 1.3345 1.9792 1803.3 -0.0073536 965.97 0.18695 0.0014125 707.94 388.52 413.88 3.3139 0.86998 1.0586 175.67 1.8413 3.6734 0.0043592
-137.62 0.0060358 6.5654e-07 -99.386 -99.386 -0.50162 682.11 0.0014660 -99.386 -99.386 -0.50162 1.3346 1.9808 1796.6 -0.0073419 940.35 0.18641 0.0016287 614.00 389.39 414.94 3.2935 0.87325 1.0619 176.26 1.8069 3.7009 0.0044206
-136.62 0.0069938 7.5110e-07 -97.404 -97.404 -0.48705 681.10 0.0014682 -97.404 -97.404 -0.48705 1.3347 1.9825 1789.9 -0.0073301 915.81 0.18586 0.0018733 533.80 390.26 416.00 3.2735 0.87650 1.0651 176.85 1.7734 3.7284 0.0044823
-135.62 0.0080843 8.5723e-07 -95.421 -95.421 -0.47258 680.09 0.0014704 -95.421 -95.421 -0.47258 1.3348 1.9841 1783.2 -0.0073180 892.30 0.18531 0.0021497 465.17 391.14 417.07 3.2540 0.87975 1.0684 177.44 1.7409 3.7559 0.0045443
-134.62 0.0093230 9.7607e-07 -93.436 -93.436 -0.45819 679.08 0.0014726 -93.436 -93.436 -0.45820 1.3350 1.9858 1776.5 -0.0073059 869.75 0.18476 0.0024613 406.30 392.02 418.14 3.2348 0.88299 1.0716 178.02 1.7093 3.7834 0.0046066
-133.62 0.010727 1.1088e-06 -91.449 -91.449 -0.44390 678.07 0.0014748 -91.450 -91.449 -0.44391 1.3351 1.9875 1769.8 -0.0072935 848.11 0.18421 0.0028116 355.67 392.91 419.21 3.2161 0.88622 1.0749 178.61 1.6786 3.8109 0.0046691
-132.62 0.012315 1.2569e-06 -89.461 -89.460 -0.42970 677.06 0.0014770 -89.461 -89.461 -0.42971 1.3353 1.9892 1763.1 -0.0072810 827.32 0.18365 0.0032049 312.03 393.79 420.29 3.1977 0.88944 1.0781 179.19 1.6488 3.8385 0.0047320
-131.62 0.014106 1.4215e-06 -87.470 -87.470 -0.41559 676.04 0.0014792 -87.471 -87.471 -0.41560 1.3354 1.9909 1756.4 -0.0072684 807.34 0.18309 0.0036453 274.33 394.68 421.36 3.1798 0.89266 1.0813 179.76 1.6197 3.8660 0.0047951
-130.62 0.016124 1.6043e-06 -85.479 -85.478 -0.40157 675.03 0.0014814 -85.479 -85.479 -0.40157 1.3356 1.9926 1749.7 -0.0072555 788.12 0.18253 0.0041375 241.69 395.58 422.44 3.1622 0.89586 1.0846 180.34 1.5915 3.8935 0.0048586
-129.62 0.018392 1.8068e-06 -83.485 -83.485 -0.38763 674.02 0.0014836 -83.486 -83.486 -0.38763 1.3358 1.9944 1743.0 -0.0072425 769.63 0.18196 0.0046867 213.37 396.47 423.53 3.1450 0.89906 1.0878 180.91 1.5641 3.9210 0.0049223
-128.62 0.020935 2.0307e-06 -81.490 -81.489 -0.37377 673.01 0.0014859 -81.491 -81.490 -0.37378 1.3360 1.9961 1736.3 -0.0072294 751.83 0.18140 0.0052981 188.75 397.37 424.62 3.1281 0.90226 1.0910 181.48 1.5374 3.9485 0.0049863
-127.62 0.023783 2.2778e-06 -79.493 -79.492 -0.36000 672.00 0.0014881 -79.494 -79.493 -0.36001 1.3363 1.9979 1729.6 -0.0072160 734.67 0.18083 0.0059776 167.29 398.27 425.71 3.1116 0.90545 1.0942 182.05 1.5114 3.9760 0.0050506
-126.62 0.026966 2.5499e-06 -77.494 -77.493 -0.34631 670.98 0.0014904 -77.495 -77.495 -0.34632 1.3365 1.9997 1722.9 -0.0072025 718.14 0.18025 0.0067313 148.56 399.18 426.80 3.0954 0.90863 1.0974 182.62 1.4861 4.0035 0.0051152
-125.62 0.030515 2.8490e-06 -75.493 -75.493 -0.33271 669.97 0.0014926 -75.494 -75.494 -0.33272 1.3368 2.0015 1716.2 -0.0071888 702.18 0.17968 0.0075660 132.17 400.09 427.89 3.0795 0.91181 1.1006 183.18 1.4615 4.0310 0.0051800
-124.62 0.034467 3.1772e-06 -73.490 -73.490 -0.31918 668.95 0.0014949 -73.492 -73.492 -0.31919 1.3371 2.0033 1709.5 -0.0071749 686.79 0.17910 0.0084885 117.81 401.00 428.99 3.0640 0.91499 1.1038 183.74 1.4375 4.0584 0.0052452
-123.62 0.038859 3.5366e-06 -71.486 -71.485 -0.30573 667.94 0.0014971 -71.488 -71.487 -0.30574 1.3374 2.0051 1702.8 -0.0071609 671.93 0.17852 0.0095065 105.19 401.91 430.10 3.0488 0.91816 1.1070 184.30 1.4141 4.0859 0.0053106
-122.62 0.043731 3.9296e-06 -69.480 -69.479 -0.29235 666.92 0.0014994 -69.482 -69.481 -0.29237 1.3377 2.0070 1696.2 -0.0071466 657.57 0.17794 0.010628 94.092 402.83 431.20 3.0339 0.92134 1.1102 184.86 1.3913 4.1134 0.0053764
-121.62 0.049128 4.3585e-06 -67.472 -67.471 -0.27906 665.91 0.0015017 -67.474 -67.473 -0.27907 1.3380 2.0089 1689.5 -0.0071322 643.70 0.17736 0.011861 84.309 403.75 432.31 3.0193 0.92451 1.1134 185.41 1.3691 4.1409 0.0054424
-120.62 0.055096 4.8258e-06 -65.462 -65.461 -0.26584 664.89 0.0015040 -65.464 -65.463 -0.26585 1.3384 2.0107 1682.8 -0.0071176 630.28 0.17678 0.013215 75.669 404.67 433.42 3.0050 0.92767 1.1166 185.96 1.3475 4.1683 0.0055087
-119.62 0.061684 5.3340e-06 -63.450 -63.449 -0.25269 663.87 0.0015063 -63.452 -63.452 -0.25271 1.3387 2.0126 1676.1 -0.0071028 617.30 0.17619 0.014700 68.027 405.60 434.53 2.9909 0.93084 1.1198 186.51 1.3264 4.1958 0.0055752
-118.62 0.068946 5.8860e-06 -61.436 -61.435 -0.23961 662.86 0.0015086 -61.439 -61.438 -0.23963 1.3391 2.0146 1669.4 -0.0070878 604.74 0.17560 0.016325 61.255 406.53 435.64 2.9772 0.93401 1.1231 187.06 1.3058 4.2233 0.0056421
-117.62 0.076937 6.4843e-06 -59.420 -59.419 -0.22661 661.84 0.0015109 -59.423 -59.422 -0.22663 1.3395 2.0165 1662.8 -0.0070726 592.58 0.17501 0.018101 55.245 407.46 436.76 2.9638 0.93718 1.1263 187.60 1.2857 4.2507 0.0057092
-116.62 0.085718 7.1321e-06 -57.402 -57.401 -0.21368 660.82 0.0015133 -57.406 -57.405 -0.21370 1.3400 2.0184 1656.1 -0.0070573 580.80 0.17442 0.020040 49.901 408.39 437.88 2.9506 0.94035 1.1295 188.14 1.2660 4.2782 0.0057767
-115.62 0.095353 7.8321e-06 -55.383 -55.381 -0.20082 659.80 0.0015156 -55.386 -55.385 -0.20084 1.3404 2.0204 1649.4 -0.0070417 569.38 0.17383 0.022152 45.142 409.33 439.01 2.9377 0.94352 1.1327 188.68 1.2468 4.3056 0.0058444
-114.62 0.10591 8.5875e-06 -53.361 -53.360 -0.18802 658.78 0.0015180 -53.365 -53.364 -0.18805 1.3409 2.0224 1642.7 -0.0070260 558.32 0.17323 0.024451 40.898 410.27 440.13 2.9250 0.94669 1.1360 189.22 1.2281 4.3330 0.0059123
-113.62 0.11746 9.4014e-06 -51.337 -51.336 -0.17530 657.76 0.0015203 -51.342 -51.340 -0.17533 1.3413 2.0244 1636.0 -0.0070100 547.59 0.17264 0.026949 37.107 411.21 441.26 2.9126 0.94987 1.1392 189.75 1.2097 4.3604 0.0059806
-112.62 0.13008 1.0277e-05 -49.311 -49.310 -0.16264 656.73 0.0015227 -49.316 -49.315 -0.16267 1.3418 2.0264 1629.3 -0.0069938 537.18 0.17204 0.029661 33.715 412.16 442.39 2.9005 0.95305 1.1424 190.28 1.1918 4.3879 0.0060491
-111.62 0.14384 1.1218e-05 -47.284 -47.282 -0.15004 655.71 0.0015251 -47.289 -47.287 -0.15008 1.3424 2.0285 1622.7 -0.0069774 527.08 0.17144 0.032600 30.675 413.10 443.53 2.8885 0.95623 1.1457 190.81 1.1742 4.4153 0.0061180
-110.62 0.15884 1.2227e-05 -45.254 -45.252 -0.13752 654.69 0.0015274 -45.259 -45.258 -0.13755 1.3429 2.0305 1616.0 -0.0069609 517.28 0.17084 0.035781 27.948 414.06 444.66 2.8769 0.95942 1.1490 191.34 1.1570 4.4427 0.0061871
-109.62 0.17516 1.3309e-05 -43.222 -43.219 -0.12505 653.66 0.0015298 -43.228 -43.226 -0.12509 1.3435 2.0326 1609.3 -0.0069441 507.76 0.17024 0.039220 25.497 415.01 445.80 2.8654 0.96261 1.1522 191.86 1.1402 4.4701 0.0062564
-108.62 0.19290 1.4465e-05 -41.187 -41.185 -0.11265 652.64 0.0015322 -41.194 -41.192 -0.11269 1.3441 2.0347 1602.6 -0.0069271 498.51 0.16964 0.042933 23.292 415.96 446.94 2.8542 0.96581 1.1555 192.38 1.1236 4.4974 0.0063261
-107.62 0.21215 1.5701e-05 -39.151 -39.148 -0.10031 651.61 0.0015347 -39.158 -39.156 -0.10036 1.3447 2.0369 1595.9 -0.0069098 489.52 0.16903 0.046937 21.305 416.92 448.09 2.8433 0.96901 1.1588 192.90 1.1075 4.5248 0.0063960
-106.62 0.23301 1.7020e-05 -37.113 -37.110 -0.088033 650.58 0.0015371 -37.120 -37.118 -0.088082 1.3453 2.0390 1589.2 -0.0068924 480.79 0.16843 0.051250 19.512 417.88 449.23 2.8325 0.97222 1.1621 193.41 1.0916 4.5522 0.0064662
-105.62 0.25561 1.8425e-05 -35.072 -35.069 -0.075815 649.55 0.0015395 -35.080 -35.078 -0.075868 1.3460 2.0412 1582.6 -0.0068747 472.30 0.16782 0.055891 17.892 418.85 450.38 2.8220 0.97544 1.1655 193.93 1.0760 4.5795 0.0065367
-104.62 0.28004 1.9921e-05 -33.029 -33.026 -0.063657 648.52 0.0015420 -33.038 -33.035 -0.063714 1.3467 2.0434 1575.9 -0.0068569 464.04 0.16721 0.060878 16.426 419.81 451.53 2.8116 0.97867 1.1688 194.44 1.0608 4.6069 0.0066074
-103.62 0.30643 2.1510e-05 -30.984 -30.980 -0.051558 647.49 0.0015444 -30.994 -30.991 -0.051619 1.3474 2.0456 1569.2 -0.0068387 456.00 0.16660 0.066231 15.099 420.78 452.68 2.8015 0.98191 1.1722 194.94 1.0458 4.6342 0.0066785
-102.62 0.33490 2.3197e-05 -28.937 -28.932 -0.039516 646.46 0.0015469 -28.947 -28.944 -0.039582 1.3481 2.0478 1562.5 -0.0068204 448.18 0.16600 0.071971 13.894 421.75 453.84 2.7916 0.98516 1.1755 195.44 1.0310 4.6615 0.0067498
-101.62 0.36558 2.4985e-05 -26.887 -26.882 -0.027531 645.43 0.0015494 -26.898 -26.894 -0.027602 1.3489 2.0501 1555.8 -0.0068018 440.57 0.16539 0.078120 12.801 422.73 454.99 2.7818 0.98841 1.1789 195.95 1.0166 4.6888 0.0068213
-100.62 0.39862 2.6879e-05 -24.835 -24.830 -0.015603 644.39 0.0015519 -24.847 -24.843 -0.015678 1.3497 2.0524 1549.1 -0.0067830 433.16 0.16478 0.084699 11.807 423.70 456.15 2.7723 0.99168 1.1823 196.44 1.0024 4.7161 0.0068932
-99.625 0.43414 2.8882e-05 -22.781 -22.775 -0.0037303 643.36 0.0015544 -22.794 -22.789 -0.0038103 1.3505 2.0547 1542.4 -0.0067639 425.95 0.16416 0.091731 10.901 424.68 457.31 2.7630 0.99496 1.1858 196.94 0.98838 4.7434 0.0069653
-98.625 0.47230 3.0997e-05 -20.724 -20.718 0.0080879 642.32 0.0015569 -20.738 -20.733 0.0080027 1.3514 2.0570 1535.7 -0.0067447 418.92 0.16355 0.099240 10.077 425.66 458.48 2.7538 0.99825 1.1892 197.43 0.97464 4.7707 0.0070377
-97.625 0.51325 3.3230e-05 -18.665 -18.659 0.019852 641.28 0.0015594 -18.680 -18.674 0.019762 1.3522 2.0594 1529.0 -0.0067251 412.07 0.16294 0.10725 9.3239 426.65 459.64 2.7448 1.0016 1.1927 197.92 0.96112 4.7979 0.0071103
-96.625 0.55714 3.5582e-05 -16.604 -16.597 0.031563 640.24 0.0015619 -16.620 -16.614 0.031467 1.3531 2.0618 1522.3 -0.0067053 405.39 0.16233 0.11579 8.6365 427.63 460.81 2.7360 1.0049 1.1962 198.40 0.94783 4.8251 0.0071832
-95.625 0.60416 3.8058e-05 -14.540 -14.532 0.043222 639.20 0.0015645 -14.557 -14.550 0.043120 1.3540 2.0642 1515.7 -0.0066853 398.88 0.16171 0.12488 8.0078 428.62 461.98 2.7274 1.0082 1.1997 198.88 0.93475 4.8524 0.0072564
-94.625 0.65446 4.0662e-05 -12.473 -12.465 0.054829 638.16 0.0015670 -12.491 -12.484 0.054721 1.3550 2.0667 1509.0 -0.0066650 392.53 0.16110 0.13455 7.4323 429.61 463.15 2.7189 1.0116 1.2032 199.36 0.92188 4.8796 0.0073299
-93.625 0.70822 4.3397e-05 -10.405 -10.395 0.066386 637.12 0.0015696 -10.424 -10.416 0.066271 1.3560 2.0691 1502.3 -0.0066444 386.34 0.16048 0.14482 6.9050 430.60 464.32 2.7107 1.0149 1.2068 199.83 0.90921 4.9068 0.0074036
-92.625 0.76564 4.6265e-05 -8.3332 -8.3233 0.077892 636.07 0.0015722 -8.3535 -8.3452 0.077771 1.3570 2.0716 1495.6 -0.0066236 380.31 0.15987 0.15573 6.4212 431.60 465.49 2.7025 1.0183 1.2104 200.30 0.89673 4.9340 0.0074776
-91.625 0.82689 4.9272e-05 -6.2592 -6.2486 0.089349 635.02 0.0015747 -6.2808 -6.2719 0.089220 1.3580 2.0742 1488.9 -0.0066025 374.41 0.15925 0.16731 5.9769 432.59 466.67 2.6946 1.0217 1.2140 200.77 0.88445 4.9611 0.0075518
-90.625 0.89218 5.2419e-05 -4.1827 -4.1712 0.10076 633.98 0.0015773 -4.2056 -4.1959 0.10062 1.3591 2.0767 1482.2 -0.0065811 368.66 0.15864 0.17958 5.5685 433.59 467.84 2.6868 1.0251 1.2177 201.24 0.87236 4.9883 0.0076263
-89.625 0.96172 5.5710e-05 -2.1035 -2.0911 0.11212 632.93 0.0015800 -2.1279 -2.1174 0.11197 1.3602 2.0793 1475.5 -0.0065595 363.05 0.15802 0.19258 5.1928 434.59 469.02 2.6791 1.0285 1.2213 201.70 0.86045 5.0154 0.0077011
-88.625 1.0357 5.9148e-05 -0.021749 -0.0084016 0.12343 631.88 0.0015826 -0.047516 -0.036215 0.12328 1.3613 2.0819 1468.8 -0.0065375 357.56 0.15740 0.20633 4.8466 435.59 470.20 2.6717 1.0320 1.2250 202.15 0.84873 5.0425 0.0077761
-87.625 1.1144 6.2735e-05 2.0627 2.0771 0.13469 630.83 0.0015852 2.0355 2.0476 0.13454 1.3625 2.0846 1462.1 -0.0065153 352.21 0.15679 0.22087 4.5276 436.60 471.39 2.6643 1.0354 1.2288 202.61 0.83718 5.0696 0.0078514
-86.625 1.1979 6.6474e-05 4.1499 4.1653 0.14591 629.77 0.0015879 4.1211 4.1342 0.14575 1.3637 2.0873 1455.4 -0.0064928 346.98 0.15617 0.23623 4.2331 437.61 472.57 2.6571 1.0389 1.2325 203.06 0.82580 5.0967 0.0079270
-85.625 1.2866 7.0367e-05 6.2398 6.2564 0.15709 628.72 0.0015905 6.2094 6.2235 0.15691 1.3649 2.0900 1448.8 -0.0064701 341.87 0.15555 0.25245 3.9612 438.61 473.75 2.6501 1.0424 1.2363 203.50 0.81460 5.1237 0.0080028
-84.625 1.3806 7.4416e-05 8.3325 8.3502 0.16822 627.66 0.0015932 8.3004 8.3155 0.16803 1.3661 2.0927 1442.1 -0.0064470 336.87 0.15494 0.26956 3.7097 439.63 474.94 2.6432 1.0460 1.2402 203.95 0.80356 5.1508 0.0080789
-83.625 1.4803 7.8623e-05 10.428 10.447 0.17930 626.60 0.0015959 10.394 10.410 0.17911 1.3674 2.0955 1435.4 -0.0064236 331.99 0.15432 0.28760 3.4771 440.64 476.13 2.6364 1.0495 1.2440 204.38 0.79269 5.1778 0.0081553
-82.625 1.5858 8.2991e-05 12.526 12.547 0.19035 625.54 0.0015986 12.491 12.508 0.19014 1.3687 2.0983 1428.7 -0.0063999 327.22 0.15370 0.30659 3.2616 441.65 477.31 2.6298 1.0531 1.2479 204.82 0.78199 5.2048 0.0082319
-81.625 1.6975 8.7519e-05 14.627 14.649 0.20135 624.48 0.0016013 14.590 14.609 0.20113 1.3700 2.1012 1422.0 -0.0063759 322.55 0.15309 0.32659 3.0619 442.67 478.50 2.6233 1.0567 1.2519 205.25 0.77144 5.2318 0.0083088
-80.625 1.8155 9.2209e-05 16.731 16.755 0.21230 623.42 0.0016041 16.692 16.712 0.21208 1.3714 2.1041 1415.4 -0.0063516 317.99 0.15247 0.34763 2.8766 443.69 479.70 2.6169 1.0603 1.2558 205.67 0.76106 5.2587 0.0083860
-79.625 1.9402 9.7063e-05 18.838 18.863 0.22322 622.36 0.0016068 18.797 18.819 0.22299 1.3728 2.1070 1408.7 -0.0063270 313.52 0.15186 0.36974 2.7046 444.71 480.89 2.6106 1.0639 1.2598 206.10 0.75083 5.2857 0.0084634
-78.625 2.0718 0.00010208 20.948 20.975 0.23409 621.29 0.0016096 20.905 20.928 0.23385 1.3742 2.1099 1402.0 -0.0063021 309.15 0.15124 0.39296 2.5448 445.73 482.08 2.6045 1.0676 1.2639 206.51 0.74076 5.3126 0.0085411
-77.625 2.2107 0.00010726 23.061 23.090 0.24493 620.22 0.0016123 23.016 23.040 0.24468 1.3757 2.1129 1395.3 -0.0062768 304.88 0.15062 0.41735 2.3961 446.75 483.27 2.5985 1.0712 1.2680 206.93 0.73084 5.3395 0.0086190
-76.625 2.3571 0.00011260 25.177 25.208 0.25572 619.15 0.0016151 25.130 25.156 0.25546 1.3772 2.1159 1388.7 -0.0062512 300.69 0.15001 0.44292 2.2577 447.78 484.47 2.5926 1.0749 1.2721 207.34 0.72107 5.3664 0.0086972
-75.625 2.5113 0.00011811 27.296 27.329 0.26648 618.08 0.0016179 27.247 27.275 0.26620 1.3787 2.1190 1382.0 -0.0062253 296.59 0.14939 0.46974 2.1288 448.81 485.67 2.5869 1.0787 1.2762 207.74 0.71146 5.3933 0.0087757
-74.625 2.6736 0.00012378 29.418 29.453 0.27719 617.01 0.0016207 29.366 29.396 0.27691 1.3802 2.1221 1375.4 -0.0061990 292.58 0.14878 0.49783 2.0087 449.83 486.86 2.5812 1.0824 1.2804 208.14 0.70200 5.4201 0.0088544
-73.625 2.8444 0.00012961 31.544 31.580 0.28787 615.93 0.0016236 31.489 31.521 0.28758 1.3818 2.1252 1368.7 -0.0061724 288.65 0.14816 0.52725 1.8966 450.86 488.06 2.5757 1.0862 1.2847 208.54 0.69268 5.4469 0.0089334
-72.625 3.0240 0.00013559 33.672 33.711 0.29851 614.85 0.0016264 33.615 33.649 0.29821 1.3834 2.1284 1362.0 -0.0061454 284.81 0.14755 0.55804 1.7920 451.90 489.26 2.5703 1.0900 1.2889 208.93 0.68351 5.4737 0.0090126
-71.625 3.2127 0.00014173 35.804 35.845 0.30912 613.78 0.0016293 35.745 35.781 0.30880 1.3851 2.1316 1355.4 -0.0061181 281.03 0.14694 0.59024 1.6942 452.93 490.46 2.5650 1.0938 1.2932 209.32 0.67448 5.5005 0.0090922
-70.625 3.4108 0.00014803 37.939 37.983 0.31968 612.69 0.0016321 37.877 37.915 0.31935 1.3867 2.1349 1348.7 -0.0060904 277.34 0.14632 0.62390 1.6028 453.96 491.66 2.5598 1.0976 1.2976 209.70 0.66560 5.5273 0.0091720
-69.625 3.6187 0.00015447 40.077 40.123 0.33022 611.61 0.0016350 40.013 40.053 0.32987 1.3884 2.1382 1342.1 -0.0060624 273.72 0.14571 0.65906 1.5173 455.00 492.86 2.5547 1.1015 1.3020 210.08 0.65687 5.5540 0.0092520
-68.625 3.8367 0.00016107 42.218 42.268 0.34071 610.53 0.0016379 42.152 42.195 0.34036 1.3902 2.1415 1335.5 -0.0060339 270.17 0.14510 0.69577 1.4372 456.04 494.06 2.5497 1.1054 1.3064 210.45 0.64827 5.5807 0.0093324
-67.625 4.0652 0.00016780 44.363 44.415 0.35117 609.44 0.0016409 44.294 44.340 0.35080 1.3919 2.1449 1328.8 -0.0060051 266.69 0.14449 0.73408 1.3622 457.08 495.26 2.5448 1.1093 1.3109 210.82 0.63981 5.6074 0.0094130
-66.625 4.3046 0.00017467 46.511 46.567 0.36160 608.35 0.0016438 46.439 46.488 0.36122 1.3937 2.1483 1322.2 -0.0059760 263.28 0.14388 0.77404 1.2919 458.12 496.46 2.5400 1.1133 1.3154 211.18 0.63150 5.6341 0.0094939
-65.625 4.5551 0.00018167 48.663 48.721 0.37199 607.26 0.0016467 48.588 48.640 0.37160 1.3955 2.1518 1315.6 -0.0059464 259.93 0.14327 0.81570 1.2259 459.16 497.67 2.5353 1.1172 1.3200 211.54 0.62332 5.6608 0.0095750
-64.625 4.8173 0.00018879 50.818 50.880 0.38235 606.16 0.0016497 50.740 50.795 0.38195 1.3974 2.1553 1308.9 -0.0059164 256.65 0.14266 0.85910 1.1640 460.21 498.87 2.5307 1.1212 1.3246 211.89 0.61527 5.6874 0.0096564
-63.625 5.0915 0.00019603 52.976 53.042 0.39268 605.07 0.0016527 52.896 52.954 0.39226 1.3993 2.1588 1302.3 -0.0058861 253.42 0.14205 0.90429 1.1058 461.25 500.07 2.5262 1.1252 1.3293 212.24 0.60736 5.7140 0.0097382
-62.625 5.3781 0.00020338 55.138 55.208 0.40297 603.97 0.0016557 55.055 55.117 0.40254 1.4012 2.1624 1295.7 -0.0058553 250.26 0.14144 0.95134 1.0511 462.30 501.28 2.5218 1.1293 1.3340 212.58 0.59958 5.7406 0.0098201
-61.625 5.6774 0.00021084 57.304 57.377 0.41323 602.87 0.0016587 57.218 57.283 0.41279 1.4031 2.1660 1289.1 -0.0058241 247.16 0.14084 1.0003 0.99972 463.35 502.48 2.5175 1.1333 1.3387 212.92 0.59194 5.7672 0.0099024
-60.625 5.9899 0.00021838 59.473 59.550 0.42347 601.77 0.0016618 59.385 59.453 0.42301 1.4051 2.1697 1282.5 -0.0057925 244.12 0.14023 1.0512 0.95131 464.40 503.68 2.5133 1.1374 1.3435 213.26 0.58442 5.7938 0.0099850
-59.625 6.3160 0.00022601 61.646 61.727 0.43367 600.66 0.0016648 61.554 61.627 0.43320 1.4071 2.1734 1275.9 -0.0057605 241.13 0.13962 1.1041 0.90573 465.45 504.89 2.5091 1.1415 1.3483 213.58 0.57704 5.8203 0.010068
-58.625 6.6561 0.00023372 63.822 63.908 0.44383 599.55 0.0016679 63.728 63.805 0.44335 1.4091 2.1772 1269.3 -0.0057280 238.19 0.13902 1.1591 0.86277 466.50 506.09 2.5051 1.1457 1.3532 213.90 0.56978 5.8468 0.010151
-57.625 7.0107 0.00024148 66.002 66.093 0.45397 598.44 0.0016710 65.905 65.986 0.45348 1.4111 2.1810 1262.7 -0.0056951 235.31 0.13842 1.2161 0.82228 467.55 507.30 2.5011 1.1498 1.3581 214.22 0.56265 5.8733 0.010234
-56.625 7.3801 0.00024929 68.186 68.281 0.46408 597.33 0.0016741 68.086 68.172 0.46358 1.4132 2.1848 1256.1 -0.0056617 232.48 0.13781 1.2754 0.78408 468.60 508.50 2.4972 1.1540 1.3631 214.53 0.55564 5.8998 0.010318
-55.625 7.7648 0.00025715 70.374 70.474 0.47416 596.22 0.0016772 70.271 70.361 0.47364 1.4153 2.1887 1249.5 -0.0056279 229.69 0.13721 1.3369 0.74802 469.66 509.71 2.4934 1.1582 1.3681 214.84 0.54875 5.9263 0.010402
-54.625 8.1652 0.00026502 72.565 72.671 0.48421 595.10 0.0016804 72.460 72.554 0.48368 1.4174 2.1927 1242.9 -0.0055937 226.96 0.13661 1.4006 0.71396 470.72 510.91 2.4897 1.1624 1.3731 215.14 0.54199 5.9527 0.010486
-53.625 8.5819 0.00027290 74.761 74.871 0.49424 593.98 0.0016836 74.652 74.752 0.49369 1.4196 2.1967 1236.3 -0.0055589 224.27 0.13601 1.4667 0.68178 471.77 512.11 2.4860 1.1667 1.3782 215.43 0.53535 5.9792 0.010571
-52.625 9.0151 0.00028077 76.960 77.076 0.50423 592.86 0.0016867 76.849 76.954 0.50368 1.4218 2.2007 1229.8 -0.0055237 221.63 0.13541 1.5353 0.65136 472.83 513.32 2.4824 1.1710 1.3834 215.72 0.52882 6.0056 0.010656
-51.625 9.4655 0.00028862 79.163 79.285 0.51420 591.73 0.0016900 79.049 79.159 0.51363 1.4240 2.2048 1223.2 -0.0054880 219.04 0.13482 1.6062 0.62258 473.89 514.52 2.4789 1.1752 1.3886 216.00 0.52241 6.0320 0.010741
-50.625 9.9335 0.00029643 81.370 81.498 0.52414 590.60 0.0016932 81.253 81.369 0.52356 1.4262 2.2089 1216.6 -0.0054519 216.48 0.13422 1.6797 0.59534 474.95 515.73 2.4755 1.1796 1.3938 216.28 0.51612 6.0584 0.010827
-49.625 10.419 0.00030418 83.581 83.715 0.53406 589.47 0.0016964 83.462 83.584 0.53347 1.4285 2.2131 1210.1 -0.0054152 213.98 0.13363 1.7558 0.56954 476.01 516.93 2.4722 1.1839 1.3991 216.55 0.50994 6.0848 0.010913
-48.625 10.924 0.00031184 85.796 85.937 0.54394 588.34 0.0016997 85.674 85.802 0.54334 1.4308 2.2173 1203.5 -0.0053780 211.51 0.13303 1.8345 0.54510 477.07 518.13 2.4689 1.1883 1.4044 216.82 0.50387 6.1112 0.010999
-47.625 11.448 0.00031941 88.015 88.163 0.55380 587.20 0.0017030 87.891 88.025 0.55319 1.4331 2.2216 1196.9 -0.0053403 209.08 0.13244 1.9159 0.52194 478.14 519.33 2.4657 1.1927 1.4098 217.08 0.49792 6.1375 0.011085
-46.625 11.991 0.00032685 90.238 90.393 0.56364 586.06 0.0017063 90.111 90.252 0.56302 1.4354 2.2259 1190.4 -0.0053020 206.69 0.13185 2.0001 0.49997 479.20 520.53 2.4625 1.1971 1.4153 217.33 0.49207 6.1639 0.011172
-45.625 12.554 0.00033414 92.466 92.628 0.57345 584.92 0.0017096 92.336 92.484 0.57282 1.4378 2.2303 1183.8 -0.0052633 204.34 0.13126 2.0872 0.47912 480.27 521.74 2.4594 1.2015 1.4207 217.58 0.48633 6.1902 0.011259
-44.625 13.137 0.00034126 94.697 94.867 0.58324 583.77 0.0017130 94.565 94.720 0.58260 1.4402 2.2347 1177.3 -0.0052240 202.03 0.13067 2.1771 0.45933 481.33 522.94 2.4564 1.2060 1.4263 217.82 0.48069 6.2165 0.011347
-43.625 13.741 0.00034818 96.933 97.110 0.59300 582.62 0.0017164 96.799 96.961 0.59235 1.4426 2.2392 1170.7 -0.0051841 199.75 0.13008 2.2700 0.44053 482.40 524.14 2.4535 1.2104 1.4319 218.05 0.47516 6.2429 0.011435
-42.625 14.367 0.00035488 99.173 99.358 0.60274 581.47 0.0017198 99.036 99.207 0.60208 1.4450 2.2437 1164.2 -0.0051437 197.51 0.12949 2.3659 0.42267 483.46 525.33 2.4506 1.2149 1.4375 218.28 0.46973 6.2692 0.011523
-41.625 15.015 0.00036133 101.42 101.61 0.61245 580.32 0.0017232 101.28 101.46 0.61179 1.4475 2.2483 1157.7 -0.0051027 195.30 0.12891 2.4649 0.40569 484.53 526.53 2.4478 1.2195 1.4432 218.50 0.46440 6.2955 0.011612
-40.625 15.686 0.00036749 103.67 103.87 0.62214 579.16 0.0017266 103.52 103.71 0.62147 1.4500 2.2529 1151.1 -0.0050611 193.13 0.12832 2.5671 0.38954 485.60 527.73 2.4450 1.2240 1.4489 218.72 0.45917 6.3218 0.011701
-39.625 16.380 0.00037334 105.92 106.13 0.63181 578.00 0.0017301 105.78 105.97 0.63113 1.4525 2.2576 1144.6 -0.0050189 190.99 0.12774 2.6725 0.37418 486.67 528.93 2.4423 1.2286 1.4547 218.93 0.45403 6.3481 0.011790
-38.625 17.097 0.00037884 108.18 108.40 0.64145 576.83 0.0017336 108.03 108.24 0.64077 1.4550 2.2623 1138.0 -0.0049761 188.88 0.12716 2.7813 0.35955 487.74 530.12 2.4397 1.2332 1.4606 219.13 0.44900 6.3744 0.011880
-37.625 17.838 0.00038396 110.44 110.67 0.65108 575.66 0.0017371 110.29 110.51 0.65039 1.4576 2.2671 1131.5 -0.0049327 186.81 0.12658 2.8934 0.34562 488.81 531.32 2.4371 1.2378 1.4665 219.33 0.44405 6.4007 0.011970
-36.625 18.604 0.00038866 112.70 112.94 0.66068 574.49 0.0017407 112.56 112.78 0.65999 1.4602 2.2719 1125.0 -0.0048887 184.76 0.12600 3.0089 0.33235 489.88 532.51 2.4346 1.2424 1.4724 219.52 0.43920 6.4270 0.012060
-35.625 19.395 0.00039291 114.97 115.22 0.67025 573.32 0.0017442 114.83 115.06 0.66956 1.4628 2.2768 1118.5 -0.0048440 182.75 0.12542 3.1280 0.31969 490.95 533.70 2.4321 1.2471 1.4784 219.70 0.43444 6.4533 0.012151
-34.625 20.212 0.00039666 117.25 117.51 0.67981 572.14 0.0017478 117.10 117.34 0.67912 1.4654 2.2818 1111.9 -0.0047987 180.76 0.12485 3.2506 0.30763 492.02 534.89 2.4297 1.2517 1.4845 219.88 0.42977 6.4797 0.012243
-33.625 21.056 0.00039988 119.53 119.80 0.68935 570.96 0.0017514 119.38 119.63 0.68865 1.4681 2.2868 1105.4 -0.0047527 178.80 0.12427 3.3770 0.29612 493.09 536.08 2.4273 1.2564 1.4906 220.05 0.42519 6.5060 0.012334
-32.625 21.926 0.00040251 121.81 122.09 0.69886 569.77 0.0017551 121.66 121.93 0.69817 1.4708 2.2918 1098.9 -0.0047061 176.87 0.12370 3.5071 0.28514 494.17 537.27 2.4250 1.2611 1.4968 220.21 0.42070 6.5323 0.012426
-31.625 22.823 0.00040453 124.10 124.39 0.70836 568.58 0.0017588 123.95 124.23 0.70767 1.4735 2.2970 1092.3 -0.0046587 174.97 0.12313 3.6410 0.27465 495.24 538.46 2.4227 1.2659 1.5031 220.36 0.41629 6.5587 0.012519
-30.625 23.749 0.00040587 126.39 126.70 0.71783 567.39 0.0017625 126.24 126.53 0.71714 1.4762 2.3021 1085.8 -0.0046107 173.09 0.12256 3.7787 0.26464 496.31 539.64 2.4205 1.2706 1.5094 220.51 0.41196 6.5850 0.012612
-29.625 24.703 0.00040649 128.69 129.01 0.72729 566.19 0.0017662 128.54 128.84 0.72660 1.4790 2.3074 1079.3 -0.0045619 171.24 0.12200 3.9205 0.25507 497.38 540.83 2.4184 1.2754 1.5157 220.65 0.40772 6.6114 0.012706
-28.625 25.687 0.00040634 130.99 131.32 0.73673 564.99 0.0017699 130.84 131.16 0.73604 1.4818 2.3126 1072.8 -0.0045124 169.42 0.12143 4.0663 0.24592 498.46 542.01 2.4162 1.2802 1.5222 220.79 0.40356 6.6378 0.012800
-27.625 26.700 0.00040537 133.30 133.64 0.74614 563.78 0.0017737 133.15 133.48 0.74547 1.4846 2.3180 1066.2 -0.0044621 167.62 0.12087 4.2163 0.23717 499.53 543.19 2.4142 1.2850 1.5286 220.91 0.39947 6.6642 0.012894
-26.625 27.743 0.00040352 135.61 135.97 0.75554 562.57 0.0017775 135.47 135.81 0.75487 1.4874 2.3234 1059.7 -0.0044111 165.84 0.12031 4.3705 0.22881 500.60 544.37 2.4122 1.2899 1.5352 221.03 0.39547 6.6906 0.012989
-25.625 28.817 0.00040073 137.93 138.30 0.76492 561.36 0.0017814 137.78 138.14 0.76426 1.4902 2.3289 1053.2 -0.0043593 164.09 0.11975 4.5290 0.22080 501.68 545.55 2.4102 1.2947 1.5418 221.14 0.39154 6.7171 0.013084
-24.625 29.923 0.00039694 140.25 140.64 0.77428 560.14 0.0017853 140.11 140.48 0.77363 1.4931 2.3344 1046.7 -0.0043067 162.36 0.11919 4.6918 0.21314 502.75 546.72 2.4083 1.2996 1.5485 221.25 0.38768 6.7436 0.013180
-23.625 31.061 0.00039209 142.58 142.98 0.78362 558.92 0.0017892 142.44 142.82 0.78298 1.4960 2.3400 1040.1 -0.0042533 160.65 0.11863 4.8592 0.20580 503.82 547.90 2.4064 1.3045 1.5552 221.35 0.38391 6.7701 0.013277
-22.625 32.232 0.00038612 144.91 145.32 0.79294 557.69 0.0017931 144.77 145.17 0.79232 1.4990 2.3457 1033.6 -0.0041990 158.97 0.11807 5.0311 0.19877 504.90 549.07 2.4045 1.3095 1.5621 221.44 0.38020 6.7967 0.013374
-21.625 33.435 0.00037895 147.25 147.68 0.80225 556.46 0.0017971 147.11 147.52 0.80164 1.5019 2.3514 1027.1 -0.0041439 157.30 0.11752 5.2076 0.19203 505.97 550.24 2.4027 1.3144 1.5690 221.52 0.37656 6.8232 0.013471
-20.625 34.673 0.00037052 149.59 150.03 0.81154 555.23 0.0018011 149.45 149.88 0.81095 1.5049 2.3572 1020.6 -0.0040879 155.66 0.11697 5.3889 0.18557 507.04 551.40 2.4010 1.3194 1.5759 221.59 0.37300 6.8499 0.013569
-19.625 35.946 0.00036075 151.93 152.40 0.82081 553.99 0.0018051 151.80 152.25 0.82024 1.5079 2.3630 1014.0 -0.0040311 154.04 0.11642 5.5750 0.17937 508.11 552.57 2.3992 1.3244 1.5829 221.66 0.36950 6.8765 0.013668
-18.625 37.253 0.00034956 154.28 154.76 0.83007 552.74 0.0018092 154.16 154.62 0.82952 1.5109 2.3689 1007.5 -0.0039733 152.44 0.11587 5.7660 0.17343 509.19 553.73 2.3976 1.3294 1.5901 221.72 0.36608 6.9032 0.013767
-17.625 38.596 0.00033687 156.64 157.14 0.83931 551.49 0.0018133 156.52 157.00 0.83878 1.5140 2.3749 1001.0 -0.0039145 150.86 0.11532 5.9621 0.16773 510.26 554.89 2.3959 1.3345 1.5972 221.77 0.36272 6.9300 0.013867
-16.625 39.976 0.00032261 159.00 159.52 0.84853 550.24 0.0018174 158.89 159.39 0.84803 1.5171 2.3810 994.44 -0.0038549 149.29 0.11478 6.1632 0.16225 511.33 556.05 2.3943 1.3395 1.6045 221.81 0.35942 6.9568 0.013968
-15.625 41.392 0.00030668 161.37 161.90 0.85774 548.98 0.0018216 161.26 161.78 0.85726 1.5202 2.3871 987.91 -0.0037942 147.75 0.11423 6.3696 0.15700 512.40 557.20 2.3927 1.3446 1.6119 221.85 0.35619 6.9836 0.014069
-14.625 42.846 0.00028900 163.74 164.29 0.86693 547.71 0.0018258 163.64 164.18 0.86649 1.5233 2.3933 981.37 -0.0037325 146.22 0.11369 6.5812 0.15195 513.47 558.36 2.3912 1.3497 1.6193 221.87 0.35302 7.0105 0.014170
-13.625 44.338 0.00026946 166.11 166.69 0.87610 546.44 0.0018300 166.02 166.58 0.87569 1.5264 2.3996 974.83 -0.0036698 144.72 0.11315 6.7983 0.14710 514.54 559.51 2.3897 1.3549 1.6268 221.89 0.34992 7.0375 0.014273
-12.625 45.870 0.00024798 168.50 169.09 0.88526 545.17 0.0018343 168.41 168.99 0.88489 1.5296 2.4059 968.29 -0.0036061 143.23 0.11261 7.0208 0.14243 515.61 560.65 2.3883 1.3600 1.6344 221.90 0.34688 7.0646 0.014376
-11.625 47.440 0.00022445 170.88 171.49 0.89441 543.89 0.0018386 170.81 171.41 0.89407 1.5328 2.4124 961.75 -0.0035413 141.76 0.11208 7.2490 0.13795 516.68 561.80 2.3868 1.3652 1.6421 221.91 0.34389 7.0917 0.014479
-10.625 49.051 0.00019876 173.28 173.91 0.90353 542.60 0.0018430 173.21 173.83 0.90324 1.5360 2.4189 955.20 -0.0034753 140.30 0.11154 7.4829 0.13364 517.75 562.94 2.3854 1.3704 1.6498 221.90 0.34097 7.1188 0.014584
-9.6250 50.703 0.00017080 175.67 176.33 0.91265 541.31 0.0018474 175.61 176.26 0.91240 1.5393 2.4255 948.65 -0.0034082 138.86 0.11101 7.7226 0.12949 518.81 564.08 2.3841 1.3757 1.6577 221.88 0.33810 7.1461 0.014689
-8.6250 52.396 0.00014046 178.08 178.75 0.92175 540.02 0.0018518 178.03 178.70 0.92154 1.5426 2.4321 942.10 -0.0033400 137.44 0.11048 7.9683 0.12550 519.88 565.21 2.3827 1.3809 1.6657 221.86 0.33529 7.1734 0.014795
-7.6250 54.131 0.00010762 180.48 181.18 0.93084 538.72 0.0018563 180.45 181.14 0.93068 1.5459 2.4389 935.55 -0.0032705 136.03 0.10995 8.2200 0.12165 520.94 566.35 2.3814 1.3862 1.6737 221.83 0.33254 7.2008 0.014902
-6.6250 55.909 7.2155e-05 182.90 183.62 0.93991 537.41 0.0018608 182.87 183.59 0.93980 1.5492 2.4457 928.99 -0.0031998 134.64 0.10942 8.4779 0.11795 522.01 567.48 2.3801 1.3915 1.6819 221.79 0.32984 7.2284 0.015009
-5.6250 57.730 3.3933e-05 185.32 186.06 0.94897 536.10 0.0018653 185.30 186.05 0.94892 1.5525 2.4526 922.43 -0.0031279 133.27 0.10889 8.7420 0.11439 523.07 568.60 2.3789 1.3969 1.6902 221.74 0.32720 7.2560 0.015117
-4.6250 76.880 undefined 187.59 188.58 0.95746 535.00 0.0018692 187.59 188.58 0.95746 1.5560 2.4580 917.47 -0.0030744 132.13 0.10848 535.00 0.0018692 187.59 188.58 0.95746 1.5560 2.4580 917.47 -0.0030744 132.13 0.10848
-3.6250 180.67 undefined 189.15 191.48 0.96325 535.00 0.0018692 189.15 191.48 0.96325 1.5597 2.4558 920.33 -0.0031164 132.12 0.10858 535.00 0.0018692 189.15 191.48 0.96325 1.5597 2.4558 920.33 -0.0031164 132.12 0.10858
-2.6250 284.43 undefined 190.71 194.38 0.96903 535.00 0.0018692 190.71 194.38 0.96903 1.5634 2.4538 923.17 -0.0031575 132.10 0.10869 535.00 0.0018692 190.71 194.38 0.96903 1.5634 2.4538 923.17 -0.0031575 132.10 0.10869
-1.6250 388.14 undefined 192.28 197.28 0.97481 535.00 0.0018692 192.28 197.28 0.97481 1.5672 2.4519 925.98 -0.0031975 132.08 0.10879 535.00 0.0018692 192.28 197.28 0.97481 1.5672 2.4519 925.98 -0.0031975 132.08 0.10879
-0.62500 491.81 undefined 193.85 200.18 0.98058 535.00 0.0018692 193.85 200.18 0.98058 1.5710 2.4501 928.76 -0.0032367 132.07 0.10890 535.00 0.0018692 193.85 200.18 0.98058 1.5710 2.4501 928.76 -0.0032367 132.07 0.10890
0.37500 595.43 undefined 195.42 203.09 0.98634 535.00 0.0018692 195.42 203.09 0.98634 1.5748 2.4484 931.52 -0.0032749 132.05 0.10901 535.00 0.0018692 195.42 203.09 0.98634 1.5748 2.4484 931.52 -0.0032749 132.05 0.10901
1.3750 699.01 undefined 197.00 206.00 0.99209 535.00 0.0018692 197.00 206.00 0.99209 1.5786 2.4469 934.25 -0.0033122 132.03 0.10911 535.00 0.0018692 197.00 206.00 0.99209 1.5786 2.4469 934.25 -0.0033122 132.03 0.10911
2.3750 802.54 undefined 198.58 208.92 0.99784 535.00 0.0018692 198.58 208.92 0.99784 1.5824 2.4454 936.96 -0.0033487 132.02 0.10922 535.00 0.0018692 198.58 208.92 0.99784 1.5824 2.4454 936.96 -0.0033487 132.02 0.10922
3.3750 906.02 undefined 200.16 211.84 1.0036 535.00 0.0018692 200.16 211.84 1.0036 1.5862 2.4441 939.65 -0.0033844 132.00 0.10933 535.00 0.0018692 200.16 211.84 1.0036 1.5862 2.4441 939.65 -0.0033844 132.00 0.10933
4.3750 1009.5 undefined 201.75 214.76 1.0093 535.00 0.0018692 201.75 214.76 1.0093 1.5901 2.4429 942.31 -0.0034192 131.99 0.10943 535.00 0.0018692 201.75 214.76 1.0093 1.5901 2.4429 942.31 -0.0034192 131.99 0.10943
5.3750 1112.8 undefined 203.34 217.68 1.0150 535.00 0.0018692 203.34 217.68 1.0150 1.5939 2.4418 944.94 -0.0034532 131.97 0.10954 535.00 0.0018692 203.34 217.68 1.0150 1.5939 2.4418 944.94 -0.0034532 131.97 0.10954
6.3750 1216.2 undefined 204.94 220.61 1.0208 535.00 0.0018692 204.94 220.61 1.0208 1.5978 2.4408 947.55 -0.0034865 131.96 0.10965 535.00 0.0018692 204.94 220.61 1.0208 1.5978 2.4408 947.55 -0.0034865 131.96 0.10965
7.3750 1319.5 undefined 206.54 223.54 1.0265 535.00 0.0018692 206.54 223.54 1.0265 1.6017 2.4399 950.14 -0.0035190 131.94 0.10976 535.00 0.0018692 206.54 223.54 1.0265 1.6017 2.4399 950.14 -0.0035190 131.94 0.10976
8.3750 1422.7 undefined 208.14 226.47 1.0322 535.00 0.0018692 208.14 226.47 1.0322 1.6056 2.4391 952.71 -0.0035508 131.93 0.10987 535.00 0.0018692 208.14 226.47 1.0322 1.6056 2.4391 952.71 -0.0035508 131.93 0.10987
9.3750 1525.9 undefined 209.75 229.41 1.0379 535.00 0.0018692 209.75 229.41 1.0379 1.6096 2.4384 955.26 -0.0035819 131.92 0.10998 535.00 0.0018692 209.75 229.41 1.0379 1.6096 2.4384 955.26 -0.0035819 131.92 0.10998
10.375 1629.0 undefined 211.36 232.35 1.0436 535.00 0.0018692 211.36 232.35 1.0436 1.6135 2.4377 957.78 -0.0036122 131.90 0.11009 535.00 0.0018692 211.36 232.35 1.0436 1.6135 2.4377 957.78 -0.0036122 131.90 0.11009
11.375 1732.0 undefined 212.97 235.30 1.0493 535.00 0.0018692 212.97 235.30 1.0493 1.6174 2.4372 960.28 -0.0036419 131.89 0.11020 535.00 0.0018692 212.97 235.30 1.0493 1.6174 2.4372 960.28 -0.0036419 131.89 0.11020
12.375 1835.0 undefined 214.59 238.24 1.0549 535.00 0.0018692 214.59 238.24 1.0549 1.6214 2.4368 962.76 -0.0036710 131.88 0.11031 535.00 0.0018692 214.59 238.24 1.0549 1.6214 2.4368 962.76 -0.0036710 131.88 0.11031
13.375 1938.0 undefined 216.22 241.19 1.0606 535.00 0.0018692 216.22 241.19 1.0606 1.6254 2.4364 965.22 -0.0036994 131.86 0.11042 535.00 0.0018692 216.22 241.19 1.0606 1.6254 2.4364 965.22 -0.0036994 131.86 0.11042
14.375 2040.9 undefined 217.85 244.15 1.0663 535.00 0.0018692 217.85 244.15 1.0663 1.6294 2.4361 967.66 -0.0037272 131.85 0.11053 535.00 0.0018692 217.85 244.15 1.0663 1.6294 2.4361 967.66 -0.0037272 131.85 0.11053
15.375 2143.7 undefined 219.48 247.10 1.0720 535.00 0.0018692 219.48 247.10 1.0720 1.6334 2.4359 970.09 -0.0037543 131.84 0.11064 535.00 0.0018692 219.48 247.10 1.0720 1.6334 2.4359 970.09 -0.0037543 131.84 0.11064
16.375 2246.5 undefined 221.11 250.06 1.0776 535.00 0.0018692 221.11 250.06 1.0776 1.6374 2.4358 972.49 -0.0037809 131.83 0.11075 535.00 0.0018692 221.11 250.06 1.0776 1.6374 2.4358 972.49 -0.0037809 131.83 0.11075
17.375 2349.2 undefined 222.75 253.03 1.0833 535.00 0.0018692 222.75 253.03 1.0833 1.6414 2.4357 974.87 -0.0038069 131.82 0.11086 535.00 0.0018692 222.75 253.03 1.0833 1.6414 2.4357 974.87 -0.0038069 131.82 0.11086
18.375 2451.8 undefined 224.39 255.99 1.0889 535.00 0.0018692 224.39 255.99 1.0889 1.6455 2.4358 977.24 -0.0038323 131.81 0.11097 535.00 0.0018692 224.39 255.99 1.0889 1.6455 2.4358 977.24 -0.0038323 131.81 0.11097
19.375 2554.4 undefined 226.04 258.96 1.0945 535.00 0.0018692 226.04 258.96 1.0945 1.6495 2.4359 979.58 -0.0038572 131.79 0.11108 535.00 0.0018692 226.04 258.96 1.0945 1.6495 2.4359 979.58 -0.0038572 131.79 0.11108
20.375 2657.0 undefined 227.69 261.93 1.1002 535.00 0.0018692 227.69 261.93 1.1002 1.6536 2.4360 981.91 -0.0038815 131.78 0.11120 535.00 0.0018692 227.69 261.93 1.1002 1.6536 2.4360 981.91 -0.0038815 131.78 0.11120
21.375 2759.4 undefined 229.35 264.91 1.1058 535.00 0.0018692 229.35 264.91 1.1058 1.6577 2.4363 984.22 -0.0039053 131.77 0.11131 535.00 0.0018692 229.35 264.91 1.1058 1.6577 2.4363 984.22 -0.0039053 131.77 0.11131
22.375 2861.8 undefined 231.01 267.89 1.1114 535.00 0.0018692 231.01 267.89 1.1114 1.6618 2.4366 986.51 -0.0039286 131.76 0.11142 535.00 0.0018692 231.01 267.89 1.1114 1.6618 2.4366 986.51 -0.0039286 131.76 0.11142
23.375 2964.1 undefined 232.67 270.87 1.1171 535.00 0.0018692 232.67 270.87 1.1171 1.6659 2.4369 988.79 -0.0039514 131.75 0.11154 535.00 0.0018692 232.67 270.87 1.1171 1.6659 2.4369 988.79 -0.0039514 131.75 0.11154
24.375 3066.4 undefined 234.34 273.86 1.1227 535.00 0.0018692 234.34 273.86 1.1227 1.6700 2.4374 991.05 -0.0039737 131.74 0.11165 535.00 0.0018692 234.34 273.86 1.1227 1.6700 2.4374 991.05 -0.0039737 131.74 0.11165
25.375 3168.6 undefined 236.01 276.85 1.1283 535.00 0.0018692 236.01 276.85 1.1283 1.6741 2.4379 993.30 -0.0039955 131.73 0.11176 535.00 0.0018692 236.01 276.85 1.1283 1.6741 2.4379 993.30 -0.0039955 131.73 0.11176
26.375 3270.7 undefined 237.69 279.84 1.1339 535.00 0.0018692 237.69 279.84 1.1339 1.6782 2.4384 995.53 -0.0040168 131.73 0.11188 535.00 0.0018692 237.69 279.84 1.1339 1.6782 2.4384 995.53 -0.0040168 131.73 0.11188
27.375 3372.8 undefined 239.37 282.84 1.1395 535.00 0.0018692 239.37 282.84 1.1395 1.6824 2.4390 997.74 -0.0040377 131.72 0.11199 535.00 0.0018692 239.37 282.84 1.1395 1.6824 2.4390 997.74 -0.0040377 131.72 0.11199
28.375 3474.8 undefined 241.05 285.83 1.1451 535.00 0.0018692 241.05 285.83 1.1451 1.6865 2.4397 999.94 -0.0040581 131.71 0.11211 535.00 0.0018692 241.05 285.83 1.1451 1.6865 2.4397 999.94 -0.0040581 131.71 0.11211
29.375 3576.7 undefined 242.74 288.84 1.1507 535.00 0.0018692 242.74 288.84 1.1507 1.6907 2.4404 1002.1 -0.0040781 131.70 0.11222 535.00 0.0018692 242.74 288.84 1.1507 1.6907 2.4404 1002.1 -0.0040781 131.70 0.11222
30.375 3678.6 undefined 244.44 291.84 1.1563 535.00 0.0018692 244.44 291.84 1.1563 1.6949 2.4412 1004.3 -0.0040976 131.69 0.11234 535.00 0.0018692 244.44 291.84 1.1563 1.6949 2.4412 1004.3 -0.0040976 131.69 0.11234
31.375 3780.3 undefined 246.13 294.85 1.1618 535.00 0.0018692 246.13 294.85 1.1618 1.6991 2.4421 1006.4 -0.0041168 131.68 0.11245 535.00 0.0018692 246.13 294.85 1.1618 1.6991 2.4421 1006.4 -0.0041168 131.68 0.11245
32.375 3882.1 undefined 247.83 297.86 1.1674 535.00 0.0018692 247.83 297.86 1.1674 1.7033 2.4430 1008.6 -0.0041355 131.68 0.11257 535.00 0.0018692 247.83 297.86 1.1674 1.7033 2.4430 1008.6 -0.0041355 131.68 0.11257
33.375 3983.7 undefined 249.54 300.88 1.1730 535.00 0.0018692 249.54 300.88 1.1730 1.7075 2.4439 1010.7 -0.0041538 131.67 0.11269 535.00 0.0018692 249.54 300.88 1.1730 1.7075 2.4439 1010.7 -0.0041538 131.67 0.11269
34.375 4085.3 undefined 251.25 303.90 1.1786 535.00 0.0018692 251.25 303.90 1.1786 1.7117 2.4449 1012.8 -0.0041717 131.66 0.11280 535.00 0.0018692 251.25 303.90 1.1786 1.7117 2.4449 1012.8 -0.0041717 131.66 0.11280
35.375 4186.8 undefined 252.96 306.92 1.1841 535.00 0.0018692 252.96 306.92 1.1841 1.7159 2.4459 1014.9 -0.0041892 131.65 0.11292 535.00 0.0018692 252.96 306.92 1.1841 1.7159 2.4459 1014.9 -0.0041892 131.65 0.11292
36.375 4288.2 undefined 254.68 309.94 1.1897 535.00 0.0018692 254.68 309.94 1.1897 1.7201 2.4470 1017.0 -0.0042064 131.65 0.11304 535.00 0.0018692 254.68 309.94 1.1897 1.7201 2.4470 1017.0 -0.0042064 131.65 0.11304
37.375 4389.6 undefined 256.40 312.97 1.1952 535.00 0.0018692 256.40 312.97 1.1952 1.7244 2.4482 1019.1 -0.0042232 131.64 0.11315 535.00 0.0018692 256.40 312.97 1.1952 1.7244 2.4482 1019.1 -0.0042232 131.64 0.11315
38.375 4490.8 undefined 258.13 316.00 1.2008 535.00 0.0018692 258.13 316.00 1.2008 1.7286 2.4493 1021.2 -0.0042396 131.63 0.11327 535.00 0.0018692 258.13 316.00 1.2008 1.7286 2.4493 1021.2 -0.0042396 131.63 0.11327
39.375 4592.1 undefined 259.86 319.04 1.2063 535.00 0.0018692 259.86 319.04 1.2063 1.7329 2.4506 1023.2 -0.0042556 131.63 0.11339 535.00 0.0018692 259.86 319.04 1.2063 1.7329 2.4506 1023.2 -0.0042556 131.63 0.11339
40.375 4693.2 undefined 261.59 322.08 1.2119 535.00 0.0018692 261.59 322.08 1.2119 1.7371 2.4519 1025.2 -0.0042713 131.62 0.11351 535.00 0.0018692 261.59 322.08 1.2119 1.7371 2.4519 1025.2 -0.0042713 131.62 0.11351
41.375 4794.3 undefined 263.33 325.12 1.2174 535.00 0.0018692 263.33 325.12 1.2174 1.7414 2.4532 1027.3 -0.0042867 131.62 0.11363 535.00 0.0018692 263.33 325.12 1.2174 1.7414 2.4532 1027.3 -0.0042867 131.62 0.11363
42.375 4895.3 undefined 265.08 328.16 1.2230 535.00 0.0018692 265.08 328.16 1.2230 1.7457 2.4545 1029.3 -0.0043017 131.61 0.11375 535.00 0.0018692 265.08 328.16 1.2230 1.7457 2.4545 1029.3 -0.0043017 131.61 0.11375
43.375 4996.2 undefined 266.83 331.21 1.2285 535.00 0.0018692 266.83 331.21 1.2285 1.7500 2.4559 1031.3 -0.0043164 131.60 0.11387 535.00 0.0018692 266.83 331.21 1.2285 1.7500 2.4559 1031.3 -0.0043164 131.60 0.11387
44.375 5097.0 undefined 268.58 334.26 1.2340 535.00 0.0018692 268.58 334.26 1.2340 1.7542 2.4574 1033.3 -0.0043308 131.60 0.11399 535.00 0.0018692 268.58 334.26 1.2340 1.7542 2.4574 1033.3 -0.0043308 131.60 0.11399
45.375 5197.8 undefined 270.33 337.32 1.2395 535.00 0.0018692 270.33 337.32 1.2395 1.7585 2.4589 1035.3 -0.0043448 131.59 0.11411 535.00 0.0018692 270.33 337.32 1.2395 1.7585 2.4589 1035.3 -0.0043448 131.59 0.11411
46.375 5298.5 undefined 272.09 340.38 1.2451 535.00 0.0018692 272.09 340.38 1.2451 1.7628 2.4604 1037.2 -0.0043585 131.59 0.11423 535.00 0.0018692 272.09 340.38 1.2451 1.7628 2.4604 1037.2 -0.0043585 131.59 0.11423
47.375 5399.1 undefined 273.86 343.44 1.2506 535.00 0.0018692 273.86 343.44 1.2506 1.7671 2.4620 1039.2 -0.0043720 131.59 0.11435 535.00 0.0018692 273.86 343.44 1.2506 1.7671 2.4620 1039.2 -0.0043720 131.59 0.11435
48.375 5499.7 undefined 275.63 346.50 1.2561 535.00 0.0018692 275.63 346.50 1.2561 1.7715 2.4636 1041.2 -0.0043851 131.58 0.11447 535.00 0.0018692 275.63 346.50 1.2561 1.7715 2.4636 1041.2 -0.0043851 131.58 0.11447
49.375 5600.1 undefined 277.40 349.57 1.2616 535.00 0.0018692 277.40 349.57 1.2616 1.7758 2.4652 1043.1 -0.0043979 131.58 0.11459 535.00 0.0018692 277.40 349.57 1.2616 1.7758 2.4652 1043.1 -0.0043979 131.58 0.11459
50.375 5700.5 undefined 279.18 352.65 1.2671 535.00 0.0018692 279.18 352.65 1.2671 1.7801 2.4669 1045.0 -0.0044105 131.57 0.11471 535.00 0.0018692 279.18 352.65 1.2671 1.7801 2.4669 1045.0 -0.0044105 131.57 0.11471
51.375 5800.9 undefined 280.96 355.72 1.2726 535.00 0.0018692 280.96 355.72 1.2726 1.7844 2.4686 1047.0 -0.0044228 131.57 0.11483 535.00 0.0018692 280.96 355.72 1.2726 1.7844 2.4686 1047.0 -0.0044228 131.57 0.11483
52.375 5901.1 undefined 282.75 358.80 1.2781 535.00 0.0018692 282.75 358.80 1.2781 1.7888 2.4703 1048.9 -0.0044348 131.57 0.11496 535.00 0.0018692 282.75 358.80 1.2781 1.7888 2.4703 1048.9 -0.0044348 131.57 0.11496
53.375 6001.3 undefined 284.54 361.88 1.2836 535.00 0.0018692 284.54 361.88 1.2836 1.7931 2.4721 1050.8 -0.0044465 131.56 0.11508 535.00 0.0018692 284.54 361.88 1.2836 1.7931 2.4721 1050.8 -0.0044465 131.56 0.11508
54.375 6101.4 undefined 286.34 364.97 1.2891 535.00 0.0018692 286.34 364.97 1.2891 1.7974 2.4739 1052.7 -0.0044579 131.56 0.11520 535.00 0.0018692 286.34 364.97 1.2891 1.7974 2.4739 1052.7 -0.0044579 131.56 0.11520
55.375 6201.4 undefined 288.13 368.05 1.2946 535.00 0.0018692 288.13 368.05 1.2946 1.8018 2.4757 1054.6 -0.0044691 131.56 0.11533 535.00 0.0018692 288.13 368.05 1.2946 1.8018 2.4757 1054.6 -0.0044691 131.56 0.11533
56.375 6301.3 undefined 289.94 371.15 1.3000 535.00 0.0018692 289.94 371.15 1.3000 1.8061 2.4776 1056.4 -0.0044801 131.55 0.11545 535.00 0.0018692 289.94 371.15 1.3000 1.8061 2.4776 1056.4 -0.0044801 131.55 0.11545
57.375 6401.2 undefined 291.75 374.24 1.3055 535.00 0.0018692 291.75 374.24 1.3055 1.8105 2.4795 1058.3 -0.0044907 131.55 0.11558 535.00 0.0018692 291.75 374.24 1.3055 1.8105 2.4795 1058.3 -0.0044907 131.55 0.11558
58.375 6501.0 undefined 293.56 377.34 1.3110 535.00 0.0018692 293.56 377.34 1.3110 1.8148 2.4814 1060.2 -0.0045012 131.55 0.11570 535.00 0.0018692 293.56 377.34 1.3110 1.8148 2.4814 1060.2 -0.0045012 131.55 0.11570
59.375 6600.7 undefined 295.38 380.44 1.3165 535.00 0.0018692 295.38 380.44 1.3165 1.8192 2.4834 1062.0 -0.0045114 131.55 0.11583 535.00 0.0018692 295.38 380.44 1.3165 1.8192 2.4834 1062.0 -0.0045114 131.55 0.11583
60.375 6700.4 undefined 297.20 383.55 1.3219 535.00 0.0018692 297.20 383.55 1.3219 1.8235 2.4854 1063.9 -0.0045213 131.54 0.11595 535.00 0.0018692 297.20 383.55 1.3219 1.8235 2.4854 1063.9 -0.0045213 131.54 0.11595
61.375 6800.0 undefined 299.02 386.66 1.3274 535.00 0.0018692 299.02 386.66 1.3274 1.8279 2.4874 1065.7 -0.0045311 131.54 0.11608 535.00 0.0018692 299.02 386.66 1.3274 1.8279 2.4874 1065.7 -0.0045311 131.54 0.11608
62.375 6899.4 undefined 300.85 389.77 1.3329 535.00 0.0018692 300.85 389.77 1.3329 1.8323 2.4895 1067.5 -0.0045405 131.54 0.11620 535.00 0.0018692 300.85 389.77 1.3329 1.8323 2.4895 1067.5 -0.0045405 131.54 0.11620
63.375 6998.9 undefined 302.69 392.89 1.3383 535.00 0.0018692 302.69 392.89 1.3383 1.8366 2.4915 1069.3 -0.0045498 131.54 0.11633 535.00 0.0018692 302.69 392.89 1.3383 1.8366 2.4915 1069.3 -0.0045498 131.54 0.11633
64.375 7098.2 undefined 304.53 396.00 1.3438 535.00 0.0018692 304.53 396.00 1.3438 1.8410 2.4936 1071.2 -0.0045589 131.54 0.11646 535.00 0.0018692 304.53 396.00 1.3438 1.8410 2.4936 1071.2 -0.0045589 131.54 0.11646
65.375 7197.5 undefined 306.37 399.13 1.3492 535.00 0.0018692 306.37 399.13 1.3492 1.8454 2.4958 1073.0 -0.0045677 131.54 0.11658 535.00 0.0018692 306.37 399.13 1.3492 1.8454 2.4958 1073.0 -0.0045677 131.54 0.11658
66.375 7296.7 undefined 308.22 402.25 1.3547 535.00 0.0018692 308.22 402.25 1.3547 1.8498 2.4979 1074.8 -0.0045763 131.53 0.11671 535.00 0.0018692 308.22 402.25 1.3547 1.8498 2.4979 1074.8 -0.0045763 131.53 0.11671
67.375 7395.8 undefined 310.07 405.38 1.3601 535.00 0.0018692 310.07 405.38 1.3601 1.8541 2.5001 1076.5 -0.0045847 131.53 0.11684 535.00 0.0018692 310.07 405.38 1.3601 1.8541 2.5001 1076.5 -0.0045847 131.53 0.11684
68.375 7494.8 undefined 311.93 408.52 1.3656 535.00 0.0018692 311.93 408.52 1.3656 1.8585 2.5023 1078.3 -0.0045929 131.53 0.11697 535.00 0.0018692 311.93 408.52 1.3656 1.8585 2.5023 1078.3 -0.0045929 131.53 0.11697
69.375 7593.8 undefined 313.79 411.65 1.3710 535.00 0.0018692 313.79 411.65 1.3710 1.8629 2.5045 1080.1 -0.0046009 131.53 0.11709 535.00 0.0018692 313.79 411.65 1.3710 1.8629 2.5045 1080.1 -0.0046009 131.53 0.11709
70.375 7692.7 undefined 315.65 414.79 1.3765 535.00 0.0018692 315.65 414.79 1.3765 1.8673 2.5068 1081.9 -0.0046087 131.53 0.11722 535.00 0.0018692 315.65 414.79 1.3765 1.8673 2.5068 1081.9 -0.0046087 131.53 0.11722
71.375 7791.5 undefined 317.52 417.93 1.3819 535.00 0.0018692 317.52 417.93 1.3819 1.8717 2.5090 1083.6 -0.0046163 131.53 0.11735 535.00 0.0018692 317.52 417.93 1.3819 1.8717 2.5090 1083.6 -0.0046163 131.53 0.11735
72.375 7890.3 undefined 319.40 421.08 1.3873 535.00 0.0018692 319.40 421.08 1.3873 1.8760 2.5113 1085.4 -0.0046238 131.53 0.11748 535.00 0.0018692 319.40 421.08 1.3873 1.8760 2.5113 1085.4 -0.0046238 131.53 0.11748
73.375 7988.9 undefined 321.27 424.23 1.3928 535.00 0.0018692 321.27 424.23 1.3928 1.8804 2.5137 1087.1 -0.0046310 131.53 0.11761 535.00 0.0018692 321.27 424.23 1.3928 1.8804 2.5137 1087.1 -0.0046310 131.53 0.11761
74.375 8087.5 undefined 323.16 427.38 1.3982 535.00 0.0018692 323.16 427.38 1.3982 1.8848 2.5160 1088.9 -0.0046381 131.53 0.11774 535.00 0.0018692 323.16 427.38 1.3982 1.8848 2.5160 1088.9 -0.0046381 131.53 0.11774
75.375 8186.0 undefined 325.04 430.54 1.4036 535.00 0.0018692 325.04 430.54 1.4036 1.8892 2.5184 1090.6 -0.0046449 131.53 0.11787 535.00 0.0018692 325.04 430.54 1.4036 1.8892 2.5184 1090.6 -0.0046449 131.53 0.11787
76.375 8284.5 undefined 326.93 433.70 1.4090 535.00 0.0018692 326.93 433.70 1.4090 1.8936 2.5207 1092.3 -0.0046516 131.53 0.11800 535.00 0.0018692 326.93 433.70 1.4090 1.8936 2.5207 1092.3 -0.0046516 131.53 0.11800
77.375 8382.8 undefined 328.83 436.86 1.4144 535.00 0.0018692 328.83 436.86 1.4144 1.8980 2.5231 1094.1 -0.0046582 131.53 0.11813 535.00 0.0018692 328.83 436.86 1.4144 1.8980 2.5231 1094.1 -0.0046582 131.53 0.11813
78.375 8481.1 undefined 330.73 440.03 1.4198 535.00 0.0018692 330.73 440.03 1.4198 1.9024 2.5256 1095.8 -0.0046645 131.53 0.11826 535.00 0.0018692 330.73 440.03 1.4198 1.9024 2.5256 1095.8 -0.0046645 131.53 0.11826
79.375 8579.3 undefined 332.64 443.20 1.4253 535.00 0.0018692 332.64 443.20 1.4253 1.9068 2.5280 1097.5 -0.0046707 131.53 0.11839 535.00 0.0018692 332.64 443.20 1.4253 1.9068 2.5280 1097.5 -0.0046707 131.53 0.11839
80.375 8677.5 undefined 334.54 446.37 1.4307 535.00 0.0018692 334.54 446.37 1.4307 1.9111 2.5305 1099.2 -0.0046767 131.54 0.11852 535.00 0.0018692 334.54 446.37 1.4307 1.9111 2.5305 1099.2 -0.0046767 131.54 0.11852
81.375 8775.6 undefined 336.46 449.55 1.4361 535.00 0.0018692 336.46 449.55 1.4361 1.9155 2.5329 1100.9 -0.0046826 131.54 0.11865 535.00 0.0018692 336.46 449.55 1.4361 1.9155 2.5329 1100.9 -0.0046826 131.54 0.11865
82.375 8873.6 undefined 338.38 452.73 1.4415 535.00 0.0018692 338.38 452.73 1.4415 1.9199 2.5354 1102.6 -0.0046883 131.54 0.11878 535.00 0.0018692 338.38 452.73 1.4415 1.9199 2.5354 1102.6 -0.0046883 131.54 0.11878
83.375 8971.5 undefined 340.30 455.92 1.4469 535.00 0.0018692 340.30 455.92 1.4469 1.9243 2.5380 1104.2 -0.0046938 131.54 0.11892 535.00 0.0018692 340.30 455.92 1.4469 1.9243 2.5380 1104.2 -0.0046938 131.54 0.11892
84.375 9069.3 undefined 342.22 459.10 1.4523 535.00 0.0018692 342.22 459.10 1.4523 1.9287 2.5405 1105.9 -0.0046992 131.54 0.11905 535.00 0.0018692 342.22 459.10 1.4523 1.9287 2.5405 1105.9 -0.0046992 131.54 0.11905
85.375 9167.1 undefined 344.15 462.29 1.4577 535.00 0.0018692 344.15 462.29 1.4577 1.9331 2.5430 1107.6 -0.0047045 131.54 0.11918 535.00 0.0018692 344.15 462.29 1.4577 1.9331 2.5430 1107.6 -0.0047045 131.54 0.11918
86.375 9264.8 undefined 346.09 465.49 1.4630 535.00 0.0018692 346.09 465.49 1.4630 1.9375 2.5456 1109.3 -0.0047096 131.54 0.11931 535.00 0.0018692 346.09 465.49 1.4630 1.9375 2.5456 1109.3 -0.0047096 131.54 0.11931
87.375 9362.4 undefined 348.03 468.69 1.4684 535.00 0.0018692 348.03 468.69 1.4684 1.9418 2.5482 1110.9 -0.0047145 131.55 0.11945 535.00 0.0018692 348.03 468.69 1.4684 1.9418 2.5482 1110.9 -0.0047145 131.55 0.11945
88.375 9460.0 undefined 349.97 471.89 1.4738 535.00 0.0018692 349.97 471.89 1.4738 1.9462 2.5508 1112.6 -0.0047194 131.55 0.11958 535.00 0.0018692 349.97 471.89 1.4738 1.9462 2.5508 1112.6 -0.0047194 131.55 0.11958
89.375 9557.5 undefined 351.92 475.09 1.4792 535.00 0.0018692 351.92 475.09 1.4792 1.9506 2.5534 1114.2 -0.0047240 131.55 0.11972 535.00 0.0018692 351.92 475.09 1.4792 1.9506 2.5534 1114.2 -0.0047240 131.55 0.11972
90.375 9654.9 undefined 353.87 478.30 1.4846 535.00 0.0018692 353.87 478.30 1.4846 1.9550 2.5560 1115.9 -0.0047286 131.55 0.11985 535.00 0.0018692 353.87 478.30 1.4846 1.9550 2.5560 1115.9 -0.0047286 131.55 0.11985
91.375 9752.2 undefined 355.83 481.51 1.4900 535.00 0.0018692 355.83 481.51 1.4900 1.9594 2.5587 1117.5 -0.0047330 131.56 0.11998 535.00 0.0018692 355.83 481.51 1.4900 1.9594 2.5587 1117.5 -0.0047330 131.56 0.11998
92.375 9849.4 undefined 357.79 484.73 1.4953 535.00 0.0018692 357.79 484.73 1.4953 1.9637 2.5613 1119.1 -0.0047373 131.56 0.12012 535.00 0.0018692 357.79 484.73 1.4953 1.9637 2.5613 1119.1 -0.0047373 131.56 0.12012
93.375 9946.6 undefined 359.76 487.95 1.5007 535.00 0.0018692 359.76 487.95 1.5007 1.9681 2.5640 1120.8 -0.0047414 131.56 0.12025 535.00 0.0018692 359.76 487.95 1.5007 1.9681 2.5640 1120.8 -0.0047414 131.56 0.12025
94.375 10044. undefined 361.73 491.17 1.5061 535.00 0.0018692 361.73 491.17 1.5061 1.9725 2.5667 1122.4 -0.0047454 131.56 0.12039 535.00 0.0018692 361.73 491.17 1.5061 1.9725 2.5667 1122.4 -0.0047454 131.56 0.12039
95.375 10141. undefined 363.70 494.39 1.5114 535.00 0.0018692 363.70 494.39 1.5114 1.9769 2.5694 1124.0 -0.0047493 131.57 0.12052 535.00 0.0018692 363.70 494.39 1.5114 1.9769 2.5694 1124.0 -0.0047493 131.57 0.12052
96.375 10238. undefined 365.68 497.62 1.5168 535.00 0.0018692 365.68 497.62 1.5168 1.9813 2.5721 1125.6 -0.0047531 131.57 0.12066 535.00 0.0018692 365.68 497.62 1.5168 1.9813 2.5721 1125.6 -0.0047531 131.57 0.12066
97.375 10335. undefined 367.67 500.85 1.5222 535.00 0.0018692 367.67 500.85 1.5222 1.9856 2.5748 1127.2 -0.0047568 131.57 0.12080 535.00 0.0018692 367.67 500.85 1.5222 1.9856 2.5748 1127.2 -0.0047568 131.57 0.12080
98.375 10431. undefined 369.65 504.09 1.5275 535.00 0.0018692 369.65 504.09 1.5275 1.9900 2.5776 1128.8 -0.0047603 131.58 0.12093 535.00 0.0018692 369.65 504.09 1.5275 1.9900 2.5776 1128.8 -0.0047603 131.58 0.12093
99.375 10528. undefined 371.65 507.33 1.5329 535.00 0.0018692 371.65 507.33 1.5329 1.9944 2.5803 1130.4 -0.0047637 131.58 0.12107 535.00 0.0018692 371.65 507.33 1.5329 1.9944 2.5803 1130.4 -0.0047637 131.58 0.12107
100.38 10625. undefined 373.64 510.57 1.5382 535.00 0.0018692 373.64 510.57 1.5382 1.9987 2.5831 1132.0 -0.0047670 131.59 0.12121 535.00 0.0018692 373.64 510.57 1.5382 1.9987 2.5831 1132.0 -0.0047670 131.59 0.12121
101.38 10721. undefined 375.64 513.82 1.5436 535.00 0.0018692 375.64 513.82 1.5436 2.0031 2.5858 1133.6 -0.0047702 131.59 0.12134 535.00 0.0018692 375.64 513.82 1.5436 2.0031 2.5858 1133.6 -0.0047702 131.59 0.12134
102.38 10818. undefined 377.65 517.07 1.5489 535.00 0.0018692 377.65 517.07 1.5489 2.0075 2.5886 1135.2 -0.0047733 131.59 0.12148 535.00 0.0018692 377.65 517.07 1.5489 2.0075 2.5886 1135.2 -0.0047733 131.59 0.12148
103.38 10914. undefined 379.66 520.32 1.5543 535.00 0.0018692 379.66 520.32 1.5543 2.0118 2.5914 1136.7 -0.0047763 131.60 0.12162 535.00 0.0018692 379.66 520.32 1.5543 2.0118 2.5914 1136.7 -0.0047763 131.60 0.12162
104.38 11011. undefined 381.67 523.57 1.5596 535.00 0.0018692 381.67 523.57 1.5596 2.0162 2.5942 1138.3 -0.0047792 131.60 0.12176 535.00 0.0018692 381.67 523.57 1.5596 2.0162 2.5942 1138.3 -0.0047792 131.60 0.12176
105.38 11107. undefined 383.69 526.83 1.5649 535.00 0.0018692 383.69 526.83 1.5649 2.0205 2.5971 1139.9 -0.0047819 131.61 0.12190 535.00 0.0018692 383.69 526.83 1.5649 2.0205 2.5971 1139.9 -0.0047819 131.61 0.12190
106.38 11203. undefined 385.71 530.10 1.5703 535.00 0.0018692 385.71 530.10 1.5703 2.0249 2.5999 1141.4 -0.0047846 131.61 0.12204 535.00 0.0018692 385.71 530.10 1.5703 2.0249 2.5999 1141.4 -0.0047846 131.61 0.12204
107.38 11300. undefined 387.74 533.36 1.5756 535.00 0.0018692 387.74 533.36 1.5756 2.0292 2.6027 1143.0 -0.0047872 131.61 0.12217 535.00 0.0018692 387.74 533.36 1.5756 2.0292 2.6027 1143.0 -0.0047872 131.61 0.12217
108.38 11396. undefined 389.77 536.63 1.5809 535.00 0.0018692 389.77 536.63 1.5809 2.0336 2.6056 1144.5 -0.0047897 131.62 0.12231 535.00 0.0018692 389.77 536.63 1.5809 2.0336 2.6056 1144.5 -0.0047897 131.62 0.12231
109.38 11492. undefined 391.81 539.91 1.5863 535.00 0.0018692 391.81 539.91 1.5863 2.0379 2.6085 1146.1 -0.0047920 131.62 0.12245 535.00 0.0018692 391.81 539.91 1.5863 2.0379 2.6085 1146.1 -0.0047920 131.62 0.12245
110.38 11588. undefined 393.85 543.18 1.5916 535.00 0.0018692 393.85 543.18 1.5916 2.0423 2.6113 1147.6 -0.0047943 131.63 0.12259 535.00 0.0018692 393.85 543.18 1.5916 2.0423 2.6113 1147.6 -0.0047943 131.63 0.12259
111.38 11684. undefined 395.89 546.46 1.5969 535.00 0.0018692 395.89 546.46 1.5969 2.0466 2.6142 1149.2 -0.0047965 131.63 0.12273 535.00 0.0018692 395.89 546.46 1.5969 2.0466 2.6142 1149.2 -0.0047965 131.63 0.12273
112.38 11779. undefined 397.94 549.75 1.6022 535.00 0.0018692 397.94 549.75 1.6022 2.0510 2.6171 1150.7 -0.0047986 131.64 0.12288 535.00 0.0018692 397.94 549.75 1.6022 2.0510 2.6171 1150.7 -0.0047986 131.64 0.12288
113.38 11875. undefined 400.00 553.04 1.6076 535.00 0.0018692 400.00 553.04 1.6076 2.0553 2.6200 1152.2 -0.0048006 131.64 0.12302 535.00 0.0018692 400.00 553.04 1.6076 2.0553 2.6200 1152.2 -0.0048006 131.64 0.12302
114.38 11971. undefined 402.05 556.33 1.6129 535.00 0.0018692 402.05 556.33 1.6129 2.0596 2.6229 1153.8 -0.0048025 131.65 0.12316 535.00 0.0018692 402.05 556.33 1.6129 2.0596 2.6229 1153.8 -0.0048025 131.65 0.12316
115.38 12066. undefined 404.11 559.62 1.6182 535.00 0.0018692 404.11 559.62 1.6182 2.0640 2.6258 1155.3 -0.0048044 131.65 0.12330 535.00 0.0018692 404.11 559.62 1.6182 2.0640 2.6258 1155.3 -0.0048044 131.65 0.12330
116.38 12162. undefined 406.18 562.92 1.6235 535.00 0.0018692 406.18 562.92 1.6235 2.0683 2.6287 1156.8 -0.0048061 131.66 0.12344 535.00 0.0018692 406.18 562.92 1.6235 2.0683 2.6287 1156.8 -0.0048061 131.66 0.12344
117.38 12257. undefined 408.25 566.22 1.6288 535.00 0.0018692 408.25 566.22 1.6288 2.0726 2.6317 1158.3 -0.0048078 131.67 0.12358 535.00 0.0018692 408.25 566.22 1.6288 2.0726 2.6317 1158.3 -0.0048078 131.67 0.12358
118.38 12353. undefined 410.33 569.52 1.6341 535.00 0.0018692 410.33 569.52 1.6341 2.0769 2.6346 1159.8 -0.0048094 131.67 0.12372 535.00 0.0018692 410.33 569.52 1.6341 2.0769 2.6346 1159.8 -0.0048094 131.67 0.12372
119.38 12448. undefined 412.40 572.83 1.6394 535.00 0.0018692 412.40 572.83 1.6394 2.0813 2.6376 1161.3 -0.0048109 131.68 0.12387 535.00 0.0018692 412.40 572.83 1.6394 2.0813 2.6376 1161.3 -0.0048109 131.68 0.12387
120.38 12543. undefined 414.49 576.14 1.6447 535.00 0.0018692 414.49 576.14 1.6447 2.0856 2.6405 1162.8 -0.0048123 131.68 0.12401 535.00 0.0018692 414.49 576.14 1.6447 2.0856 2.6405 1162.8 -0.0048123 131.68 0.12401
121.38 12639. undefined 416.58 579.46 1.6500 535.00 0.0018692 416.58 579.46 1.6500 2.0899 2.6435 1164.3 -0.0048137 131.69 0.12415 535.00 0.0018692 416.58 579.46 1.6500 2.0899 2.6435 1164.3 -0.0048137 131.69 0.12415
122.38 12734. undefined 418.67 582.77 1.6553 535.00 0.0018692 418.67 582.77 1.6553 2.0942 2.6465 1165.8 -0.0048150 131.69 0.12430 535.00 0.0018692 418.67 582.77 1.6553 2.0942 2.6465 1165.8 -0.0048150 131.69 0.12430
123.38 12829. undefined 420.76 586.09 1.6606 535.00 0.0018692 420.76 586.09 1.6606 2.0985 2.6494 1167.3 -0.0048162 131.70 0.12444 535.00 0.0018692 420.76 586.09 1.6606 2.0985 2.6494 1167.3 -0.0048162 131.70 0.12444
124.38 12924. undefined 422.86 589.42 1.6659 535.00 0.0018692 422.86 589.42 1.6659 2.1028 2.6524 1168.8 -0.0048173 131.71 0.12459 535.00 0.0018692 422.86 589.42 1.6659 2.1028 2.6524 1168.8 -0.0048173 131.71 0.12459
125.38 13019. undefined 424.97 592.75 1.6712 535.00 0.0018692 424.97 592.75 1.6712 2.1071 2.6554 1170.2 -0.0048184 131.71 0.12473 535.00 0.0018692 424.97 592.75 1.6712 2.1071 2.6554 1170.2 -0.0048184 131.71 0.12473
126.38 13114. undefined 427.08 596.08 1.6765 535.00 0.0018692 427.08 596.08 1.6765 2.1114 2.6584 1171.7 -0.0048193 131.72 0.12487 535.00 0.0018692 427.08 596.08 1.6765 2.1114 2.6584 1171.7 -0.0048193 131.72 0.12487
127.38 13208. undefined 429.19 599.41 1.6818 535.00 0.0018692 429.19 599.41 1.6818 2.1157 2.6614 1173.2 -0.0048203 131.73 0.12502 535.00 0.0018692 429.19 599.41 1.6818 2.1157 2.6614 1173.2 -0.0048203 131.73 0.12502
128.38 13303. undefined 431.31 602.75 1.6870 535.00 0.0018692 431.31 602.75 1.6870 2.1200 2.6644 1174.6 -0.0048211 131.73 0.12516 535.00 0.0018692 431.31 602.75 1.6870 2.1200 2.6644 1174.6 -0.0048211 131.73 0.12516
129.38 13398. undefined 433.43 606.09 1.6923 535.00 0.0018692 433.43 606.09 1.6923 2.1243 2.6675 1176.1 -0.0048219 131.74 0.12531 535.00 0.0018692 433.43 606.09 1.6923 2.1243 2.6675 1176.1 -0.0048219 131.74 0.12531
130.38 13492. undefined 435.56 609.44 1.6976 535.00 0.0018692 435.56 609.44 1.6976 2.1285 2.6705 1177.6 -0.0048226 131.75 0.12546 535.00 0.0018692 435.56 609.44 1.6976 2.1285 2.6705 1177.6 -0.0048226 131.75 0.12546
131.38 13587. undefined 437.69 612.79 1.7029 535.00 0.0018692 437.69 612.79 1.7029 2.1328 2.6735 1179.0 -0.0048233 131.75 0.12560 535.00 0.0018692 437.69 612.79 1.7029 2.1328 2.6735 1179.0 -0.0048233 131.75 0.12560
132.38 13681. undefined 439.82 616.14 1.7081 535.00 0.0018692 439.82 616.14 1.7081 2.1371 2.6765 1180.5 -0.0048239 131.76 0.12575 535.00 0.0018692 439.82 616.14 1.7081 2.1371 2.6765 1180.5 -0.0048239 131.76 0.12575
133.38 13776. undefined 441.96 619.50 1.7134 535.00 0.0018692 441.96 619.50 1.7134 2.1414 2.6796 1181.9 -0.0048244 131.77 0.12590 535.00 0.0018692 441.96 619.50 1.7134 2.1414 2.6796 1181.9 -0.0048244 131.77 0.12590
134.38 13870. undefined 444.11 622.85 1.7187 535.00 0.0018692 444.11 622.85 1.7187 2.1456 2.6826 1183.3 -0.0048249 131.77 0.12604 535.00 0.0018692 444.11 622.85 1.7187 2.1456 2.6826 1183.3 -0.0048249 131.77 0.12604
135.38 13964. undefined 446.26 626.22 1.7239 535.00 0.0018692 446.26 626.22 1.7239 2.1499 2.6857 1184.8 -0.0048253 131.78 0.12619 535.00 0.0018692 446.26 626.22 1.7239 2.1499 2.6857 1184.8 -0.0048253 131.78 0.12619
136.38 14058. undefined 448.41 629.58 1.7292 535.00 0.0018692 448.41 629.58 1.7292 2.1542 2.6887 1186.2 -0.0048257 131.79 0.12634 535.00 0.0018692 448.41 629.58 1.7292 2.1542 2.6887 1186.2 -0.0048257 131.79 0.12634
137.38 14152. undefined 450.56 632.95 1.7345 535.00 0.0018692 450.56 632.95 1.7345 2.1584 2.6918 1187.6 -0.0048260 131.80 0.12649 535.00 0.0018692 450.56 632.95 1.7345 2.1584 2.6918 1187.6 -0.0048260 131.80 0.12649
138.38 14246. undefined 452.72 636.32 1.7397 535.00 0.0018692 452.72 636.32 1.7397 2.1627 2.6949 1189.1 -0.0048262 131.80 0.12663 535.00 0.0018692 452.72 636.32 1.7397 2.1627 2.6949 1189.1 -0.0048262 131.80 0.12663
139.38 14340. undefined 454.89 639.70 1.7450 535.00 0.0018692 454.89 639.70 1.7450 2.1669 2.6979 1190.5 -0.0048264 131.81 0.12678 535.00 0.0018692 454.89 639.70 1.7450 2.1669 2.6979 1190.5 -0.0048264 131.81 0.12678
140.38 14434. undefined 457.06 643.08 1.7502 535.00 0.0018692 457.06 643.08 1.7502 2.1712 2.7010 1191.9 -0.0048265 131.82 0.12693 535.00 0.0018692 457.06 643.08 1.7502 2.1712 2.7010 1191.9 -0.0048265 131.82 0.12693
141.38 14528. undefined 459.23 646.46 1.7555 535.00 0.0018692 459.23 646.46 1.7555 2.1754 2.7041 1193.3 -0.0048266 131.83 0.12708 535.00 0.0018692 459.23 646.46 1.7555 2.1754 2.7041 1193.3 -0.0048266 131.83 0.12708
142.38 14622. undefined 461.41 649.85 1.7607 535.00 0.0018692 461.41 649.85 1.7607 2.1796 2.7072 1194.7 -0.0048266 131.83 0.12723 535.00 0.0018692 461.41 649.85 1.7607 2.1796 2.7072 1194.7 -0.0048266 131.83 0.12723
143.38 14716. undefined 463.59 653.24 1.7660 535.00 0.0018692 463.59 653.24 1.7660 2.1839 2.7102 1196.2 -0.0048266 131.84 0.12738 535.00 0.0018692 463.59 653.24 1.7660 2.1839 2.7102 1196.2 -0.0048266 131.84 0.12738
144.38 14809. undefined 465.78 656.63 1.7712 535.00 0.0018692 465.78 656.63 1.7712 2.1881 2.7133 1197.6 -0.0048265 131.85 0.12753 535.00 0.0018692 465.78 656.63 1.7712 2.1881 2.7133 1197.6 -0.0048265 131.85 0.12753
145.38 14903. undefined 467.97 660.02 1.7764 535.00 0.0018692 467.97 660.02 1.7764 2.1923 2.7164 1199.0 -0.0048264 131.86 0.12768 535.00 0.0018692 467.97 660.02 1.7764 2.1923 2.7164 1199.0 -0.0048264 131.86 0.12768
146.38 14996. undefined 470.16 663.42 1.7817 535.00 0.0018692 470.16 663.42 1.7817 2.1965 2.7195 1200.4 -0.0048262 131.87 0.12783 535.00 0.0018692 470.16 663.42 1.7817 2.1965 2.7195 1200.4 -0.0048262 131.87 0.12783
147.38 15090. undefined 472.36 666.83 1.7869 535.00 0.0018692 472.36 666.83 1.7869 2.2007 2.7226 1201.8 -0.0048260 131.87 0.12798 535.00 0.0018692 472.36 666.83 1.7869 2.2007 2.7226 1201.8 -0.0048260 131.87 0.12798
148.38 15183. undefined 474.56 670.23 1.7922 535.00 0.0018692 474.56 670.23 1.7922 2.2050 2.7257 1203.1 -0.0048257 131.88 0.12813 535.00 0.0018692 474.56 670.23 1.7922 2.2050 2.7257 1203.1 -0.0048257 131.88 0.12813
149.38 15276. undefined 476.77 673.64 1.7974 535.00 0.0018692 476.77 673.64 1.7974 2.2092 2.7288 1204.5 -0.0048254 131.89 0.12828 535.00 0.0018692 476.77 673.64 1.7974 2.2092 2.7288 1204.5 -0.0048254 131.89 0.12828
150.38 15370. undefined 478.98 677.05 1.8026 535.00 0.0018692 478.98 677.05 1.8026 2.2134 2.7319 1205.9 -0.0048251 131.90 0.12843 535.00 0.0018692 478.98 677.05 1.8026 2.2134 2.7319 1205.9 -0.0048251 131.90 0.12843
151.38 15463. undefined 481.20 680.47 1.8078 535.00 0.0018692 481.20 680.47 1.8078 2.2176 2.7351 1207.3 -0.0048246 131.91 0.12859 535.00 0.0018692 481.20 680.47 1.8078 2.2176 2.7351 1207.3 -0.0048246 131.91 0.12859
152.38 15556. undefined 483.42 683.89 1.8131 535.00 0.0018692 483.42 683.89 1.8131 2.2218 2.7382 1208.7 -0.0048242 131.92 0.12874 535.00 0.0018692 483.42 683.89 1.8131 2.2218 2.7382 1208.7 -0.0048242 131.92 0.12874
153.38 15649. undefined 485.64 687.31 1.8183 535.00 0.0018692 485.64 687.31 1.8183 2.2259 2.7413 1210.1 -0.0048237 131.93 0.12889 535.00 0.0018692 485.64 687.31 1.8183 2.2259 2.7413 1210.1 -0.0048237 131.93 0.12889
154.38 15742. undefined 487.87 690.74 1.8235 535.00 0.0018692 487.87 690.74 1.8235 2.2301 2.7444 1211.4 -0.0048232 131.93 0.12904 535.00 0.0018692 487.87 690.74 1.8235 2.2301 2.7444 1211.4 -0.0048232 131.93 0.12904
155.38 15835. undefined 490.10 694.17 1.8287 535.00 0.0018692 490.10 694.17 1.8287 2.2343 2.7475 1212.8 -0.0048226 131.94 0.12920 535.00 0.0018692 490.10 694.17 1.8287 2.2343 2.7475 1212.8 -0.0048226 131.94 0.12920
156.38 15928. undefined 492.34 697.60 1.8339 535.00 0.0018692 492.34 697.60 1.8339 2.2385 2.7507 1214.2 -0.0048220 131.95 0.12935 535.00 0.0018692 492.34 697.60 1.8339 2.2385 2.7507 1214.2 -0.0048220 131.95 0.12935
157.38 16020. undefined 494.58 701.04 1.8391 535.00 0.0018692 494.58 701.04 1.8391 2.2427 2.7538 1215.5 -0.0048213 131.96 0.12950 535.00 0.0018692 494.58 701.04 1.8391 2.2427 2.7538 1215.5 -0.0048213 131.96 0.12950
158.38 16113. undefined 496.82 704.48 1.8443 535.00 0.0018692 496.82 704.48 1.8443 2.2468 2.7569 1216.9 -0.0048207 131.97 0.12966 535.00 0.0018692 496.82 704.48 1.8443 2.2468 2.7569 1216.9 -0.0048207 131.97 0.12966
159.38 16206. undefined 499.07 707.92 1.8495 535.00 0.0018692 499.07 707.92 1.8495 2.2510 2.7601 1218.2 -0.0048199 131.98 0.12981 535.00 0.0018692 499.07 707.92 1.8495 2.2510 2.7601 1218.2 -0.0048199 131.98 0.12981
160.38 16298. undefined 501.32 711.37 1.8547 535.00 0.0018692 501.32 711.37 1.8547 2.2551 2.7632 1219.6 -0.0048192 131.99 0.12997 535.00 0.0018692 501.32 711.37 1.8547 2.2551 2.7632 1219.6 -0.0048192 131.99 0.12997
161.38 16391. undefined 503.58 714.82 1.8599 535.00 0.0018692 503.58 714.82 1.8599 2.2593 2.7663 1220.9 -0.0048184 132.00 0.13012 535.00 0.0018692 503.58 714.82 1.8599 2.2593 2.7663 1220.9 -0.0048184 132.00 0.13012
162.38 16483. undefined 505.84 718.27 1.8651 535.00 0.0018692 505.84 718.27 1.8651 2.2635 2.7695 1222.3 -0.0048175 132.01 0.13028 535.00 0.0018692 505.84 718.27 1.8651 2.2635 2.7695 1222.3 -0.0048175 132.01 0.13028
163.38 16576. undefined 508.11 721.72 1.8703 535.00 0.0018692 508.11 721.72 1.8703 2.2676 2.7726 1223.6 -0.0048166 132.02 0.13043 535.00 0.0018692 508.11 721.72 1.8703 2.2676 2.7726 1223.6 -0.0048166 132.02 0.13043
164.38 16668. undefined 510.38 725.18 1.8755 535.00 0.0018692 510.38 725.18 1.8755 2.2717 2.7758 1225.0 -0.0048157 132.03 0.13059 535.00 0.0018692 510.38 725.18 1.8755 2.2717 2.7758 1225.0 -0.0048157 132.03 0.13059
165.38 16760. undefined 512.65 728.65 1.8807 535.00 0.0018692 512.65 728.65 1.8807 2.2759 2.7789 1226.3 -0.0048148 132.03 0.13075 535.00 0.0018692 512.65 728.65 1.8807 2.2759 2.7789 1226.3 -0.0048148 132.03 0.13075
166.38 16852. undefined 514.93 732.11 1.8859 535.00 0.0018692 514.93 732.11 1.8859 2.2800 2.7820 1227.6 -0.0048138 132.04 0.13090 535.00 0.0018692 514.93 732.11 1.8859 2.2800 2.7820 1227.6 -0.0048138 132.04 0.13090
167.38 16945. undefined 517.21 735.58 1.8911 535.00 0.0018692 517.21 735.58 1.8911 2.2841 2.7852 1229.0 -0.0048128 132.05 0.13106 535.00 0.0018692 517.21 735.58 1.8911 2.2841 2.7852 1229.0 -0.0048128 132.05 0.13106
168.38 17037. undefined 519.50 739.06 1.8963 535.00 0.0018692 519.50 739.06 1.8963 2.2882 2.7883 1230.3 -0.0048118 132.06 0.13122 535.00 0.0018692 519.50 739.06 1.8963 2.2882 2.7883 1230.3 -0.0048118 132.06 0.13122
169.38 17129. undefined 521.79 742.53 1.9015 535.00 0.0018692 521.79 742.53 1.9015 2.2924 2.7915 1231.6 -0.0048107 132.07 0.13137 535.00 0.0018692 521.79 742.53 1.9015 2.2924 2.7915 1231.6 -0.0048107 132.07 0.13137
170.38 17221. undefined 524.08 746.01 1.9066 535.00 0.0018692 524.08 746.01 1.9066 2.2965 2.7946 1232.9 -0.0048096 132.08 0.13153 535.00 0.0018692 524.08 746.01 1.9066 2.2965 2.7946 1232.9 -0.0048096 132.08 0.13153
171.38 17312. undefined 526.38 749.49 1.9118 535.00 0.0018692 526.38 749.49 1.9118 2.3006 2.7978 1234.2 -0.0048085 132.09 0.13169 535.00 0.0018692 526.38 749.49 1.9118 2.3006 2.7978 1234.2 -0.0048085 132.09 0.13169
172.38 17404. undefined 528.68 752.98 1.9170 535.00 0.0018692 528.68 752.98 1.9170 2.3047 2.8010 1235.6 -0.0048073 132.10 0.13185 535.00 0.0018692 528.68 752.98 1.9170 2.3047 2.8010 1235.6 -0.0048073 132.10 0.13185
173.38 17496. undefined 530.99 756.47 1.9222 535.00 0.0018692 530.99 756.47 1.9222 2.3088 2.8041 1236.9 -0.0048061 132.11 0.13200 535.00 0.0018692 530.99 756.47 1.9222 2.3088 2.8041 1236.9 -0.0048061 132.11 0.13200
174.38 17588. undefined 533.30 759.96 1.9273 535.00 0.0018692 533.30 759.96 1.9273 2.3129 2.8073 1238.2 -0.0048049 132.12 0.13216 535.00 0.0018692 533.30 759.96 1.9273 2.3129 2.8073 1238.2 -0.0048049 132.12 0.13216
175.38 17679. undefined 535.62 763.46 1.9325 535.00 0.0018692 535.62 763.46 1.9325 2.3170 2.8104 1239.5 -0.0048036 132.13 0.13232 535.00 0.0018692 535.62 763.46 1.9325 2.3170 2.8104 1239.5 -0.0048036 132.13 0.13232
176.38 17771. undefined 537.93 766.96 1.9377 535.00 0.0018692 537.93 766.96 1.9377 2.3210 2.8136 1240.8 -0.0048024 132.14 0.13248 535.00 0.0018692 537.93 766.96 1.9377 2.3210 2.8136 1240.8 -0.0048024 132.14 0.13248
177.38 17862. undefined 540.26 770.46 1.9428 535.00 0.0018692 540.26 770.46 1.9428 2.3251 2.8167 1242.1 -0.0048011 132.15 0.13264 535.00 0.0018692 540.26 770.46 1.9428 2.3251 2.8167 1242.1 -0.0048011 132.15 0.13264
178.38 17954. undefined 542.59 773.96 1.9480 535.00 0.0018692 542.59 773.96 1.9480 2.3292 2.8199 1243.4 -0.0047997 132.16 0.13280 535.00 0.0018692 542.59 773.96 1.9480 2.3292 2.8199 1243.4 -0.0047997 132.16 0.13280
179.38 18045. undefined 544.92 777.47 1.9531 535.00 0.0018692 544.92 777.47 1.9531 2.3333 2.8231 1244.7 -0.0047984 132.17 0.13296 535.00 0.0018692 544.92 777.47 1.9531 2.3333 2.8231 1244.7 -0.0047984 132.17 0.13296
180.38 18137. undefined 547.25 780.98 1.9583 535.00 0.0018692 547.25 780.98 1.9583 2.3373 2.8262 1246.0 -0.0047970 132.18 0.13312 535.00 0.0018692 547.25 780.98 1.9583 2.3373 2.8262 1246.0 -0.0047970 132.18 0.13312
181.38 18228. undefined 549.59 784.50 1.9635 535.00 0.0018692 549.59 784.50 1.9635 2.3414 2.8294 1247.3 -0.0047956 132.19 0.13328 535.00 0.0018692 549.59 784.50 1.9635 2.3414 2.8294 1247.3 -0.0047956 132.19 0.13328
182.38 18319. undefined 551.93 788.02 1.9686 535.00 0.0018692 551.93 788.02 1.9686 2.3454 2.8325 1248.5 -0.0047942 132.21 0.13344 535.00 0.0018692 551.93 788.02 1.9686 2.3454 2.8325 1248.5 -0.0047942 132.21 0.13344
183.38 18410. undefined 554.28 791.54 1.9738 535.00 0.0018692 554.28 791.54 1.9738 2.3495 2.8357 1249.8 -0.0047927 132.22 0.13361 535.00 0.0018692 554.28 791.54 1.9738 2.3495 2.8357 1249.8 -0.0047927 132.22 0.13361
184.38 18501. undefined 556.63 795.07 1.9789 535.00 0.0018692 556.63 795.07 1.9789 2.3535 2.8389 1251.1 -0.0047912 132.23 0.13377 535.00 0.0018692 556.63 795.07 1.9789 2.3535 2.8389 1251.1 -0.0047912 132.23 0.13377
185.38 18592. undefined 558.99 798.59 1.9840 535.00 0.0018692 558.99 798.59 1.9840 2.3576 2.8420 1252.4 -0.0047897 132.24 0.13393 535.00 0.0018692 558.99 798.59 1.9840 2.3576 2.8420 1252.4 -0.0047897 132.24 0.13393
186.38 18683. undefined 561.35 802.13 1.9892 535.00 0.0018692 561.35 802.13 1.9892 2.3616 2.8452 1253.7 -0.0047882 132.25 0.13409 535.00 0.0018692 561.35 802.13 1.9892 2.3616 2.8452 1253.7 -0.0047882 132.25 0.13409
187.38 18774. undefined 563.71 805.66 1.9943 535.00 0.0018692 563.71 805.66 1.9943 2.3656 2.8483 1254.9 -0.0047867 132.26 0.13425 535.00 0.0018692 563.71 805.66 1.9943 2.3656 2.8483 1254.9 -0.0047867 132.26 0.13425
188.38 18865. undefined 566.08 809.20 1.9995 535.00 0.0018692 566.08 809.20 1.9995 2.3697 2.8515 1256.2 -0.0047851 132.27 0.13442 535.00 0.0018692 566.08 809.20 1.9995 2.3697 2.8515 1256.2 -0.0047851 132.27 0.13442
189.38 18956. undefined 568.45 812.74 2.0046 535.00 0.0018692 568.45 812.74 2.0046 2.3737 2.8547 1257.5 -0.0047835 132.28 0.13458 535.00 0.0018692 568.45 812.74 2.0046 2.3737 2.8547 1257.5 -0.0047835 132.28 0.13458
190.38 19046. undefined 570.83 816.28 2.0097 535.00 0.0018692 570.83 816.28 2.0097 2.3777 2.8578 1258.7 -0.0047819 132.29 0.13474 535.00 0.0018692 570.83 816.28 2.0097 2.3777 2.8578 1258.7 -0.0047819 132.29 0.13474
191.38 19137. undefined 573.21 819.83 2.0148 535.00 0.0018692 573.21 819.83 2.0148 2.3817 2.8610 1260.0 -0.0047803 132.30 0.13491 535.00 0.0018692 573.21 819.83 2.0148 2.3817 2.8610 1260.0 -0.0047803 132.30 0.13491
192.38 19228. undefined 575.59 823.38 2.0200 535.00 0.0018692 575.59 823.38 2.0200 2.3857 2.8641 1261.3 -0.0047786 132.31 0.13507 535.00 0.0018692 575.59 823.38 2.0200 2.3857 2.8641 1261.3 -0.0047786 132.31 0.13507
193.38 19318. undefined 577.98 826.94 2.0251 535.00 0.0018692 577.98 826.94 2.0251 2.3897 2.8673 1262.5 -0.0047770 132.32 0.13524 535.00 0.0018692 577.98 826.94 2.0251 2.3897 2.8673 1262.5 -0.0047770 132.32 0.13524
194.38 19409. undefined 580.37 830.50 2.0302 535.00 0.0018692 580.37 830.50 2.0302 2.3937 2.8705 1263.8 -0.0047753 132.34 0.13540 535.00 0.0018692 580.37 830.50 2.0302 2.3937 2.8705 1263.8 -0.0047753 132.34 0.13540
195.38 19499. undefined 582.77 834.06 2.0353 535.00 0.0018692 582.77 834.06 2.0353 2.3977 2.8736 1265.0 -0.0047736 132.35 0.13556 535.00 0.0018692 582.77 834.06 2.0353 2.3977 2.8736 1265.0 -0.0047736 132.35 0.13556
196.38 19589. undefined 585.17 837.62 2.0405 535.00 0.0018692 585.17 837.62 2.0405 2.4017 2.8768 1266.3 -0.0047718 132.36 0.13573 535.00 0.0018692 585.17 837.62 2.0405 2.4017 2.8768 1266.3 -0.0047718 132.36 0.13573
197.38 19680. undefined 587.57 841.19 2.0456 535.00 0.0018692 587.57 841.19 2.0456 2.4057 2.8799 1267.5 -0.0047701 132.37 0.13590 535.00 0.0018692 587.57 841.19 2.0456 2.4057 2.8799 1267.5 -0.0047701 132.37 0.13590
198.38 19770. undefined 589.98 844.76 2.0507 535.00 0.0018692 589.98 844.76 2.0507 2.4096 2.8831 1268.8 -0.0047683 132.38 0.13606 535.00 0.0018692 589.98 844.76 2.0507 2.4096 2.8831 1268.8 -0.0047683 132.38 0.13606
199.38 19860. undefined 592.39 848.33 2.0558 535.00 0.0018692 592.39 848.33 2.0558 2.4136 2.8863 1270.0 -0.0047666 132.39 0.13623 535.00 0.0018692 592.39 848.33 2.0558 2.4136 2.8863 1270.0 -0.0047666 132.39 0.13623
200.38 19950. undefined 594.80 851.91 2.0609 535.00 0.0018692 594.80 851.91 2.0609 2.4176 2.8894 1271.2 -0.0047648 132.40 0.13639 535.00 0.0018692 594.80 851.91 2.0609 2.4176 2.8894 1271.2 -0.0047648 132.40 0.13639
201.38 20040. undefined 597.22 855.49 2.0660 535.00 0.0018692 597.22 855.49 2.0660 2.4215 2.8926 1272.5 -0.0047629 132.41 0.13656 535.00 0.0018692 597.22 855.49 2.0660 2.4215 2.8926 1272.5 -0.0047629 132.41 0.13656
202.38 20130. undefined 599.65 859.07 2.0711 535.00 0.0018692 599.65 859.07 2.0711 2.4255 2.8957 1273.7 -0.0047611 132.43 0.13673 535.00 0.0018692 599.65 859.07 2.0711 2.4255 2.8957 1273.7 -0.0047611 132.43 0.13673
203.38 20220. undefined 602.07 862.66 2.0762 535.00 0.0018692 602.07 862.66 2.0762 2.4294 2.8989 1274.9 -0.0047593 132.44 0.13689 535.00 0.0018692 602.07 862.66 2.0762 2.4294 2.8989 1274.9 -0.0047593 132.44 0.13689
204.38 20310. undefined 604.51 866.25 2.0813 535.00 0.0018692 604.51 866.25 2.0813 2.4334 2.9020 1276.2 -0.0047574 132.45 0.13706 535.00 0.0018692 604.51 866.25 2.0813 2.4334 2.9020 1276.2 -0.0047574 132.45 0.13706
205.38 20400. undefined 606.94 869.84 2.0864 535.00 0.0018692 606.94 869.84 2.0864 2.4373 2.9052 1277.4 -0.0047555 132.46 0.13723 535.00 0.0018692 606.94 869.84 2.0864 2.4373 2.9052 1277.4 -0.0047555 132.46 0.13723
206.38 20489. undefined 609.38 873.44 2.0915 535.00 0.0018692 609.38 873.44 2.0915 2.4412 2.9083 1278.6 -0.0047536 132.47 0.13740 535.00 0.0018692 609.38 873.44 2.0915 2.4412 2.9083 1278.6 -0.0047536 132.47 0.13740
207.38 20579. undefined 611.82 877.03 2.0966 535.00 0.0018692 611.82 877.03 2.0966 2.4452 2.9115 1279.8 -0.0047517 132.48 0.13757 535.00 0.0018692 611.82 877.03 2.0966 2.4452 2.9115 1279.8 -0.0047517 132.48 0.13757
208.38 20669. undefined 614.27 880.64 2.1017 535.00 0.0018692 614.27 880.64 2.1017 2.4491 2.9146 1281.1 -0.0047498 132.50 0.13773 535.00 0.0018692 614.27 880.64 2.1017 2.4491 2.9146 1281.1 -0.0047498 132.50 0.13773
209.38 20758. undefined 616.72 884.24 2.1067 535.00 0.0018692 616.72 884.24 2.1067 2.4530 2.9178 1282.3 -0.0047479 132.51 0.13790 535.00 0.0018692 616.72 884.24 2.1067 2.4530 2.9178 1282.3 -0.0047479 132.51 0.13790
210.38 20848. undefined 619.18 887.85 2.1118 535.00 0.0018692 619.18 887.85 2.1118 2.4569 2.9209 1283.5 -0.0047459 132.52 0.13807 535.00 0.0018692 619.18 887.85 2.1118 2.4569 2.9209 1283.5 -0.0047459 132.52 0.13807
211.38 20937. undefined 621.64 891.46 2.1169 535.00 0.0018692 621.64 891.46 2.1169 2.4608 2.9241 1284.7 -0.0047440 132.53 0.13824 535.00 0.0018692 621.64 891.46 2.1169 2.4608 2.9241 1284.7 -0.0047440 132.53 0.13824
212.38 21027. undefined 624.10 895.08 2.1220 535.00 0.0018692 624.10 895.08 2.1220 2.4647 2.9272 1285.9 -0.0047420 132.54 0.13841 535.00 0.0018692 624.10 895.08 2.1220 2.4647 2.9272 1285.9 -0.0047420 132.54 0.13841
213.38 21116. undefined 626.56 898.69 2.1271 535.00 0.0018692 626.56 898.69 2.1271 2.4686 2.9304 1287.1 -0.0047400 132.55 0.13858 535.00 0.0018692 626.56 898.69 2.1271 2.4686 2.9304 1287.1 -0.0047400 132.55 0.13858
214.38 21205. undefined 629.04 902.32 2.1321 535.00 0.0018692 629.04 902.32 2.1321 2.4725 2.9335 1288.3 -0.0047380 132.57 0.13875 535.00 0.0018692 629.04 902.32 2.1321 2.4725 2.9335 1288.3 -0.0047380 132.57 0.13875
215.38 21294. undefined 631.51 905.94 2.1372 535.00 0.0018692 631.51 905.94 2.1372 2.4764 2.9367 1289.5 -0.0047360 132.58 0.13892 535.00 0.0018692 631.51 905.94 2.1372 2.4764 2.9367 1289.5 -0.0047360 132.58 0.13892
216.38 21384. undefined 633.99 909.57 2.1423 535.00 0.0018692 633.99 909.57 2.1423 2.4803 2.9398 1290.7 -0.0047340 132.59 0.13909 535.00 0.0018692 633.99 909.57 2.1423 2.4803 2.9398 1290.7 -0.0047340 132.59 0.13909
217.38 21473. undefined 636.47 913.20 2.1473 535.00 0.0018692 636.47 913.20 2.1473 2.4841 2.9429 1291.9 -0.0047319 132.60 0.13927 535.00 0.0018692 636.47 913.20 2.1473 2.4841 2.9429 1291.9 -0.0047319 132.60 0.13927
218.38 21562. undefined 638.96 916.83 2.1524 535.00 0.0018692 638.96 916.83 2.1524 2.4880 2.9461 1293.1 -0.0047299 132.61 0.13944 535.00 0.0018692 638.96 916.83 2.1524 2.4880 2.9461 1293.1 -0.0047299 132.61 0.13944
219.38 21651. undefined 641.45 920.47 2.1575 535.00 0.0018692 641.45 920.47 2.1575 2.4919 2.9492 1294.3 -0.0047278 132.63 0.13961 535.00 0.0018692 641.45 920.47 2.1575 2.4919 2.9492 1294.3 -0.0047278 132.63 0.13961
220.38 21740. undefined 643.94 924.11 2.1625 535.00 0.0018692 643.94 924.11 2.1625 2.4957 2.9523 1295.5 -0.0047257 132.64 0.13978 535.00 0.0018692 643.94 924.11 2.1625 2.4957 2.9523 1295.5 -0.0047257 132.64 0.13978
221.38 21829. undefined 646.44 927.75 2.1676 535.00 0.0018692 646.44 927.75 2.1676 2.4996 2.9555 1296.7 -0.0047237 132.65 0.13995 535.00 0.0018692 646.44 927.75 2.1676 2.4996 2.9555 1296.7 -0.0047237 132.65 0.13995
222.38 21917. undefined 648.94 931.40 2.1726 535.00 0.0018692 648.94 931.40 2.1726 2.5034 2.9586 1297.9 -0.0047216 132.66 0.14013 535.00 0.0018692 648.94 931.40 2.1726 2.5034 2.9586 1297.9 -0.0047216 132.66 0.14013
223.38 22006. undefined 651.44 935.05 2.1777 535.00 0.0018692 651.44 935.05 2.1777 2.5073 2.9617 1299.1 -0.0047195 132.68 0.14030 535.00 0.0018692 651.44 935.05 2.1777 2.5073 2.9617 1299.1 -0.0047195 132.68 0.14030
224.38 22095. undefined 653.95 938.70 2.1827 535.00 0.0018692 653.95 938.70 2.1827 2.5111 2.9649 1300.2 -0.0047174 132.69 0.14047 535.00 0.0018692 653.95 938.70 2.1827 2.5111 2.9649 1300.2 -0.0047174 132.69 0.14047
225.38 22183. undefined 656.47 942.35 2.1878 535.00 0.0018692 656.47 942.35 2.1878 2.5149 2.9680 1301.4 -0.0047152 132.70 0.14065 535.00 0.0018692 656.47 942.35 2.1878 2.5149 2.9680 1301.4 -0.0047152 132.70 0.14065
226.38 22272. undefined 658.98 946.01 2.1928 535.00 0.0018692 658.98 946.01 2.1928 2.5188 2.9711 1302.6 -0.0047131 132.71 0.14082 535.00 0.0018692 658.98 946.01 2.1928 2.5188 2.9711 1302.6 -0.0047131 132.71 0.14082
227.38 22361. undefined 661.50 949.67 2.1979 535.00 0.0018692 661.50 949.67 2.1979 2.5226 2.9742 1303.8 -0.0047110 132.73 0.14099 535.00 0.0018692 661.50 949.67 2.1979 2.5226 2.9742 1303.8 -0.0047110 132.73 0.14099
228.38 22449. undefined 664.03 953.34 2.2029 535.00 0.0018692 664.03 953.34 2.2029 2.5264 2.9774 1304.9 -0.0047088 132.74 0.14117 535.00 0.0018692 664.03 953.34 2.2029 2.5264 2.9774 1304.9 -0.0047088 132.74 0.14117
229.38 22537. undefined 666.56 957.01 2.2079 535.00 0.0018692 666.56 957.01 2.2079 2.5302 2.9805 1306.1 -0.0047066 132.75 0.14134 535.00 0.0018692 666.56 957.01 2.2079 2.5302 2.9805 1306.1 -0.0047066 132.75 0.14134
230.38 22626. undefined 669.09 960.68 2.2130 535.00 0.0018692 669.09 960.68 2.2130 2.5340 2.9836 1307.3 -0.0047045 132.76 0.14152 535.00 0.0018692 669.09 960.68 2.2130 2.5340 2.9836 1307.3 -0.0047045 132.76 0.14152
231.38 22714. undefined 671.63 964.35 2.2180 535.00 0.0018692 671.63 964.35 2.2180 2.5378 2.9867 1308.4 -0.0047023 132.78 0.14169 535.00 0.0018692 671.63 964.35 2.2180 2.5378 2.9867 1308.4 -0.0047023 132.78 0.14169
232.38 22802. undefined 674.17 968.03 2.2230 535.00 0.0018692 674.17 968.03 2.2230 2.5416 2.9898 1309.6 -0.0047001 132.79 0.14187 535.00 0.0018692 674.17 968.03 2.2230 2.5416 2.9898 1309.6 -0.0047001 132.79 0.14187
233.38 22891. undefined 676.71 971.71 2.2281 535.00 0.0018692 676.71 971.71 2.2281 2.5454 2.9929 1310.8 -0.0046979 132.80 0.14205 535.00 0.0018692 676.71 971.71 2.2281 2.5454 2.9929 1310.8 -0.0046979 132.80 0.14205
234.38 22979. undefined 679.26 975.39 2.2331 535.00 0.0018692 679.26 975.39 2.2331 2.5492 2.9961 1311.9 -0.0046957 132.81 0.14222 535.00 0.0018692 679.26 975.39 2.2331 2.5492 2.9961 1311.9 -0.0046957 132.81 0.14222
235.38 23067. undefined 681.81 979.08 2.2381 535.00 0.0018692 681.81 979.08 2.2381 2.5530 2.9992 1313.1 -0.0046935 132.83 0.14240 535.00 0.0018692 681.81 979.08 2.2381 2.5530 2.9992 1313.1 -0.0046935 132.83 0.14240
236.38 23155. undefined 684.36 982.77 2.2431 535.00 0.0018692 684.36 982.77 2.2431 2.5568 3.0023 1314.2 -0.0046913 132.84 0.14258 535.00 0.0018692 684.36 982.77 2.2431 2.5568 3.0023 1314.2 -0.0046913 132.84 0.14258
237.38 23243. undefined 686.92 986.46 2.2481 535.00 0.0018692 686.92 986.46 2.2481 2.5605 3.0054 1315.4 -0.0046890 132.85 0.14275 535.00 0.0018692 686.92 986.46 2.2481 2.5605 3.0054 1315.4 -0.0046890 132.85 0.14275
238.38 23331. undefined 689.48 990.16 2.2531 535.00 0.0018692 689.48 990.16 2.2531 2.5643 3.0085 1316.5 -0.0046868 132.86 0.14293 535.00 0.0018692 689.48 990.16 2.2531 2.5643 3.0085 1316.5 -0.0046868 132.86 0.14293
239.38 23419. undefined 692.05 993.85 2.2582 535.00 0.0018692 692.05 993.85 2.2582 2.5681 3.0116 1317.7 -0.0046846 132.88 0.14311 535.00 0.0018692 692.05 993.85 2.2582 2.5681 3.0116 1317.7 -0.0046846 132.88 0.14311
240.38 23506. undefined 694.62 997.56 2.2632 535.00 0.0018692 694.62 997.56 2.2632 2.5718 3.0147 1318.8 -0.0046823 132.89 0.14329 535.00 0.0018692 694.62 997.56 2.2632 2.5718 3.0147 1318.8 -0.0046823 132.89 0.14329
241.38 23594. undefined 697.19 1001.3 2.2682 535.00 0.0018692 697.19 1001.3 2.2682 2.5756 3.0178 1320.0 -0.0046801 132.90 0.14346 535.00 0.0018692 697.19 1001.3 2.2682 2.5756 3.0178 1320.0 -0.0046801 132.90 0.14346
242.38 23682. undefined 699.77 1005.0 2.2732 535.00 0.0018692 699.77 1005.0 2.2732 2.5793 3.0209 1321.1 -0.0046778 132.92 0.14364 535.00 0.0018692 699.77 1005.0 2.2732 2.5793 3.0209 1321.1 -0.0046778 132.92 0.14364
243.38 23769. undefined 702.35 1008.7 2.2782 535.00 0.0018692 702.35 1008.7 2.2782 2.5830 3.0240 1322.3 -0.0046755 132.93 0.14382 535.00 0.0018692 702.35 1008.7 2.2782 2.5830 3.0240 1322.3 -0.0046755 132.93 0.14382
244.38 23857. undefined 704.94 1012.4 2.2832 535.00 0.0018692 704.94 1012.4 2.2832 2.5868 3.0271 1323.4 -0.0046733 132.94 0.14400 535.00 0.0018692 704.94 1012.4 2.2832 2.5868 3.0271 1323.4 -0.0046733 132.94 0.14400
245.38 23945. undefined 707.52 1016.1 2.2882 535.00 0.0018692 707.52 1016.1 2.2882 2.5905 3.0301 1324.5 -0.0046710 132.96 0.14418 535.00 0.0018692 707.52 1016.1 2.2882 2.5905 3.0301 1324.5 -0.0046710 132.96 0.14418
246.38 24032. undefined 710.12 1019.8 2.2932 535.00 0.0018692 710.12 1019.8 2.2932 2.5942 3.0332 1325.7 -0.0046687 132.97 0.14436 535.00 0.0018692 710.12 1019.8 2.2932 2.5942 3.0332 1325.7 -0.0046687 132.97 0.14436
247.38 24119. undefined 712.71 1023.6 2.2982 535.00 0.0018692 712.71 1023.6 2.2982 2.5980 3.0363 1326.8 -0.0046664 132.98 0.14454 535.00 0.0018692 712.71 1023.6 2.2982 2.5980 3.0363 1326.8 -0.0046664 132.98 0.14454
248.38 24207. undefined 715.31 1027.3 2.3032 535.00 0.0018692 715.31 1027.3 2.3032 2.6017 3.0394 1327.9 -0.0046641 132.99 0.14472 535.00 0.0018692 715.31 1027.3 2.3032 2.6017 3.0394 1327.9 -0.0046641 132.99 0.14472
249.38 24294. undefined 717.92 1031.0 2.3081 535.00 0.0018692 717.92 1031.0 2.3081 2.6054 3.0425 1329.1 -0.0046618 133.01 0.14490 535.00 0.0018692 717.92 1031.0 2.3081 2.6054 3.0425 1329.1 -0.0046618 133.01 0.14490
250.38 24381. undefined 720.52 1034.7 2.3131 535.00 0.0018692 720.52 1034.7 2.3131 2.6091 3.0455 1330.2 -0.0046595 133.02 0.14508 535.00 0.0018692 720.52 1034.7 2.3131 2.6091 3.0455 1330.2 -0.0046595 133.02 0.14508
251.38 24469. undefined 723.13 1038.5 2.3181 535.00 0.0018692 723.13 1038.5 2.3181 2.6128 3.0486 1331.3 -0.0046572 133.03 0.14526 535.00 0.0018692 723.13 1038.5 2.3181 2.6128 3.0486 1331.3 -0.0046572 133.03 0.14526
252.38 24556. undefined 725.75 1042.2 2.3231 535.00 0.0018692 725.75 1042.2 2.3231 2.6165 3.0517 1332.4 -0.0046549 133.05 0.14545 535.00 0.0018692 725.75 1042.2 2.3231 2.6165 3.0517 1332.4 -0.0046549 133.05 0.14545
253.38 24643. undefined 728.37 1046.0 2.3281 535.00 0.0018692 728.37 1046.0 2.3281 2.6202 3.0548 1333.6 -0.0046526 133.06 0.14563 535.00 0.0018692 728.37 1046.0 2.3281 2.6202 3.0548 1333.6 -0.0046526 133.06 0.14563
254.38 24730. undefined 730.99 1049.7 2.3330 535.00 0.0018692 730.99 1049.7 2.3330 2.6238 3.0578 1334.7 -0.0046502 133.07 0.14581 535.00 0.0018692 730.99 1049.7 2.3330 2.6238 3.0578 1334.7 -0.0046502 133.07 0.14581
255.38 24817. undefined 733.62 1053.4 2.3380 535.00 0.0018692 733.62 1053.4 2.3380 2.6275 3.0609 1335.8 -0.0046479 133.09 0.14599 535.00 0.0018692 733.62 1053.4 2.3380 2.6275 3.0609 1335.8 -0.0046479 133.09 0.14599
256.38 24904. undefined 736.24 1057.2 2.3430 535.00 0.0018692 736.24 1057.2 2.3430 2.6312 3.0640 1336.9 -0.0046456 133.10 0.14617 535.00 0.0018692 736.24 1057.2 2.3430 2.6312 3.0640 1336.9 -0.0046456 133.10 0.14617
257.38 24991. undefined 738.88 1060.9 2.3480 535.00 0.0018692 738.88 1060.9 2.3480 2.6348 3.0670 1338.0 -0.0046432 133.11 0.14636 535.00 0.0018692 738.88 1060.9 2.3480 2.6348 3.0670 1338.0 -0.0046432 133.11 0.14636
258.38 25078. undefined 741.51 1064.7 2.3529 535.00 0.0018692 741.51 1064.7 2.3529 2.6385 3.0701 1339.1 -0.0046409 133.13 0.14654 535.00 0.0018692 741.51 1064.7 2.3529 2.6385 3.0701 1339.1 -0.0046409 133.13 0.14654
259.38 25164. undefined 744.15 1068.5 2.3579 535.00 0.0018692 744.15 1068.5 2.3579 2.6422 3.0731 1340.2 -0.0046385 133.14 0.14672 535.00 0.0018692 744.15 1068.5 2.3579 2.6422 3.0731 1340.2 -0.0046385 133.14 0.14672
260.38 25251. undefined 746.80 1072.2 2.3628 535.00 0.0018692 746.80 1072.2 2.3628 2.6458 3.0762 1341.4 -0.0046362 133.15 0.14691 535.00 0.0018692 746.80 1072.2 2.3628 2.6458 3.0762 1341.4 -0.0046362 133.15 0.14691
261.38 25338. undefined 749.45 1076.0 2.3678 535.00 0.0018692 749.45 1076.0 2.3678 2.6495 3.0792 1342.5 -0.0046338 133.17 0.14709 535.00 0.0018692 749.45 1076.0 2.3678 2.6495 3.0792 1342.5 -0.0046338 133.17 0.14709
262.38 25424. undefined 752.10 1079.8 2.3728 535.00 0.0018692 752.10 1079.8 2.3728 2.6531 3.0823 1343.6 -0.0046315 133.18 0.14728 535.00 0.0018692 752.10 1079.8 2.3728 2.6531 3.0823 1343.6 -0.0046315 133.18 0.14728
263.38 25511. undefined 754.75 1083.5 2.3777 535.00 0.0018692 754.75 1083.5 2.3777 2.6567 3.0853 1344.7 -0.0046291 133.19 0.14746 535.00 0.0018692 754.75 1083.5 2.3777 2.6567 3.0853 1344.7 -0.0046291 133.19 0.14746
264.38 25597. undefined 757.41 1087.3 2.3827 535.00 0.0018692 757.41 1087.3 2.3827 2.6604 3.0884 1345.8 -0.0046267 133.21 0.14765 535.00 0.0018692 757.41 1087.3 2.3827 2.6604 3.0884 1345.8 -0.0046267 133.21 0.14765
265.38 25684. undefined 760.07 1091.1 2.3876 535.00 0.0018692 760.07 1091.1 2.3876 2.6640 3.0914 1346.9 -0.0046244 133.22 0.14783 535.00 0.0018692 760.07 1091.1 2.3876 2.6640 3.0914 1346.9 -0.0046244 133.22 0.14783
266.38 25770. undefined 762.74 1094.9 2.3926 535.00 0.0018692 762.74 1094.9 2.3926 2.6676 3.0945 1348.0 -0.0046220 133.23 0.14802 535.00 0.0018692 762.74 1094.9 2.3926 2.6676 3.0945 1348.0 -0.0046220 133.23 0.14802
267.38 25857. undefined 765.41 1098.6 2.3975 535.00 0.0018692 765.41 1098.6 2.3975 2.6712 3.0975 1349.1 -0.0046196 133.25 0.14820 535.00 0.0018692 765.41 1098.6 2.3975 2.6712 3.0975 1349.1 -0.0046196 133.25 0.14820
268.38 25943. undefined 768.08 1102.4 2.4024 535.00 0.0018692 768.08 1102.4 2.4024 2.6748 3.1005 1350.1 -0.0046172 133.26 0.14839 535.00 0.0018692 768.08 1102.4 2.4024 2.6748 3.1005 1350.1 -0.0046172 133.26 0.14839
269.38 26029. undefined 770.76 1106.2 2.4074 535.00 0.0018692 770.76 1106.2 2.4074 2.6784 3.1036 1351.2 -0.0046149 133.28 0.14858 535.00 0.0018692 770.76 1106.2 2.4074 2.6784 3.1036 1351.2 -0.0046149 133.28 0.14858
270.38 26115. undefined 773.44 1110.0 2.4123 535.00 0.0018692 773.44 1110.0 2.4123 2.6820 3.1066 1352.3 -0.0046125 133.29 0.14876 535.00 0.0018692 773.44 1110.0 2.4123 2.6820 3.1066 1352.3 -0.0046125 133.29 0.14876
271.38 26202. undefined 776.12 1113.8 2.4172 535.00 0.0018692 776.12 1113.8 2.4172 2.6856 3.1096 1353.4 -0.0046101 133.30 0.14895 535.00 0.0018692 776.12 1113.8 2.4172 2.6856 3.1096 1353.4 -0.0046101 133.30 0.14895
272.38 26288. undefined 778.81 1117.6 2.4222 535.00 0.0018692 778.81 1117.6 2.4222 2.6892 3.1126 1354.5 -0.0046077 133.32 0.14914 535.00 0.0018692 778.81 1117.6 2.4222 2.6892 3.1126 1354.5 -0.0046077 133.32 0.14914
273.38 26374. undefined 781.50 1121.4 2.4271 535.00 0.0018692 781.50 1121.4 2.4271 2.6928 3.1156 1355.6 -0.0046053 133.33 0.14932 535.00 0.0018692 781.50 1121.4 2.4271 2.6928 3.1156 1355.6 -0.0046053 133.33 0.14932
274.38 26460. undefined 784.20 1125.2 2.4320 535.00 0.0018692 784.20 1125.2 2.4320 2.6964 3.1187 1356.7 -0.0046029 133.34 0.14951 535.00 0.0018692 784.20 1125.2 2.4320 2.6964 3.1187 1356.7 -0.0046029 133.34 0.14951
275.38 26546. undefined 786.89 1129.0 2.4370 535.00 0.0018692 786.89 1129.0 2.4370 2.6999 3.1217 1357.7 -0.0046005 133.36 0.14970 535.00 0.0018692 786.89 1129.0 2.4370 2.6999 3.1217 1357.7 -0.0046005 133.36 0.14970
276.38 26631. undefined 789.60 1132.8 2.4419 535.00 0.0018692 789.60 1132.8 2.4419 2.7035 3.1247 1358.8 -0.0045981 133.37 0.14989 535.00 0.0018692 789.60 1132.8 2.4419 2.7035 3.1247 1358.8 -0.0045981 133.37 0.14989
277.38 26717. undefined 792.30 1136.6 2.4468 535.00 0.0018692 792.30 1136.6 2.4468 2.7071 3.1277 1359.9 -0.0045957 133.39 0.15008 535.00 0.0018692 792.30 1136.6 2.4468 2.7071 3.1277 1359.9 -0.0045957 133.39 0.15008
278.38 26803. undefined 795.01 1140.4 2.4517 535.00 0.0018692 795.01 1140.4 2.4517 2.7106 3.1307 1361.0 -0.0045933 133.40 0.15027 535.00 0.0018692 795.01 1140.4 2.4517 2.7106 3.1307 1361.0 -0.0045933 133.40 0.15027
279.38 26889. undefined 797.72 1144.2 2.4566 535.00 0.0018692 797.72 1144.2 2.4566 2.7142 3.1337 1362.0 -0.0045909 133.41 0.15046 535.00 0.0018692 797.72 1144.2 2.4566 2.7142 3.1337 1362.0 -0.0045909 133.41 0.15046
280.38 26974. undefined 800.44 1148.1 2.4615 535.00 0.0018692 800.44 1148.1 2.4615 2.7177 3.1367 1363.1 -0.0045885 133.43 0.15065 535.00 0.0018692 800.44 1148.1 2.4615 2.7177 3.1367 1363.1 -0.0045885 133.43 0.15065
281.38 27060. undefined 803.16 1151.9 2.4664 535.00 0.0018692 803.16 1151.9 2.4664 2.7213 3.1397 1364.2 -0.0045861 133.44 0.15084 535.00 0.0018692 803.16 1151.9 2.4664 2.7213 3.1397 1364.2 -0.0045861 133.44 0.15084
282.38 27146. undefined 805.88 1155.7 2.4713 535.00 0.0018692 805.88 1155.7 2.4713 2.7248 3.1427 1365.3 -0.0045837 133.45 0.15076 535.00 0.0018692 805.88 1155.7 2.4713 2.7248 3.1427 1365.3 -0.0045837 133.45 0.15076
283.38 27231. undefined 808.61 1159.5 2.4763 535.00 0.0018692 808.61 1159.5 2.4763 2.7284 3.1457 1366.3 -0.0045813 133.47 0.15095 535.00 0.0018692 808.61 1159.5 2.4763 2.7284 3.1457 1366.3 -0.0045813 133.47 0.15095
284.38 27317. undefined 811.34 1163.4 2.4812 535.00 0.0018692 811.34 1163.4 2.4812 2.7319 3.1487 1367.4 -0.0045789 133.48 0.15114 535.00 0.0018692 811.34 1163.4 2.4812 2.7319 3.1487 1367.4 -0.0045789 133.48 0.15114
285.38 27402. undefined 814.07 1167.2 2.4861 535.00 0.0018692 814.07 1167.2 2.4861 2.7354 3.1517 1368.4 -0.0045765 133.50 0.15133 535.00 0.0018692 814.07 1167.2 2.4861 2.7354 3.1517 1368.4 -0.0045765 133.50 0.15133
286.38 27488. undefined 816.81 1171.1 2.4909 535.00 0.0018692 816.81 1171.1 2.4909 2.7389 3.1547 1369.5 -0.0045740 133.51 0.15152 535.00 0.0018692 816.81 1171.1 2.4909 2.7389 3.1547 1369.5 -0.0045740 133.51 0.15152
287.38 27573. undefined 819.55 1174.9 2.4958 535.00 0.0018692 819.55 1174.9 2.4958 2.7424 3.1576 1370.6 -0.0045716 133.52 0.15171 535.00 0.0018692 819.55 1174.9 2.4958 2.7424 3.1576 1370.6 -0.0045716 133.52 0.15171
288.38 27658. undefined 822.29 1178.7 2.5007 535.00 0.0018692 822.29 1178.7 2.5007 2.7459 3.1606 1371.6 -0.0045692 133.54 0.15190 535.00 0.0018692 822.29 1178.7 2.5007 2.7459 3.1606 1371.6 -0.0045692 133.54 0.15190
289.38 27743. undefined 825.04 1182.6 2.5056 535.00 0.0018692 825.04 1182.6 2.5056 2.7494 3.1636 1372.7 -0.0045668 133.55 0.15210 535.00 0.0018692 825.04 1182.6 2.5056 2.7494 3.1636 1372.7 -0.0045668 133.55 0.15210
290.38 27829. undefined 827.79 1186.4 2.5105 535.00 0.0018692 827.79 1186.4 2.5105 2.7529 3.1666 1373.7 -0.0045644 133.57 0.15229 535.00 0.0018692 827.79 1186.4 2.5105 2.7529 3.1666 1373.7 -0.0045644 133.57 0.15229
291.38 27914. undefined 830.55 1190.3 2.5154 535.00 0.0018692 830.55 1190.3 2.5154 2.7564 3.1696 1374.8 -0.0045620 133.58 0.15248 535.00 0.0018692 830.55 1190.3 2.5154 2.7564 3.1696 1374.8 -0.0045620 133.58 0.15248
292.38 27999. undefined 833.30 1194.1 2.5203 535.00 0.0018692 833.30 1194.1 2.5203 2.7599 3.1725 1375.8 -0.0045595 133.59 0.15267 535.00 0.0018692 833.30 1194.1 2.5203 2.7599 3.1725 1375.8 -0.0045595 133.59 0.15267
293.38 28084. undefined 836.07 1198.0 2.5252 535.00 0.0018692 836.07 1198.0 2.5252 2.7634 3.1755 1376.9 -0.0045571 133.61 0.15286 535.00 0.0018692 836.07 1198.0 2.5252 2.7634 3.1755 1376.9 -0.0045571 133.61 0.15286
294.38 28169. undefined 838.83 1201.9 2.5300 535.00 0.0018692 838.83 1201.9 2.5300 2.7669 3.1784 1377.9 -0.0045547 133.62 0.15306 535.00 0.0018692 838.83 1201.9 2.5300 2.7669 3.1784 1377.9 -0.0045547 133.62 0.15306
295.38 28254. undefined 841.60 1205.7 2.5349 535.00 0.0018692 841.60 1205.7 2.5349 2.7703 3.1814 1379.0 -0.0045523 133.64 0.15325 535.00 0.0018692 841.60 1205.7 2.5349 2.7703 3.1814 1379.0 -0.0045523 133.64 0.15325
296.38 28339. undefined 844.37 1209.6 2.5398 535.00 0.0018692 844.37 1209.6 2.5398 2.7738 3.1844 1380.0 -0.0045499 133.65 0.15344 535.00 0.0018692 844.37 1209.6 2.5398 2.7738 3.1844 1380.0 -0.0045499 133.65 0.15344
297.38 28423. undefined 847.15 1213.5 2.5446 535.00 0.0018692 847.15 1213.5 2.5446 2.7773 3.1873 1381.1 -0.0045474 133.67 0.15364 535.00 0.0018692 847.15 1213.5 2.5446 2.7773 3.1873 1381.1 -0.0045474 133.67 0.15364
298.38 28508. undefined 849.93 1217.3 2.5495 535.00 0.0018692 849.93 1217.3 2.5495 2.7807 3.1903 1382.1 -0.0045450 133.68 0.15383 535.00 0.0018692 849.93 1217.3 2.5495 2.7807 3.1903 1382.1 -0.0045450 133.68 0.15383
299.38 28593. undefined 852.71 1221.2 2.5544 535.00 0.0018692 852.71 1221.2 2.5544 2.7842 3.1932 1383.1 -0.0045426 133.69 0.15403 535.00 0.0018692 852.71 1221.2 2.5544 2.7842 3.1932 1383.1 -0.0045426 133.69 0.15403
300.38 28678. undefined 855.49 1225.1 2.5592 535.00 0.0018692 855.49 1225.1 2.5592 2.7876 3.1962 1384.2 -0.0045402 133.71 0.15422 535.00 0.0018692 855.49 1225.1 2.5592 2.7876 3.1962 1384.2 -0.0045402 133.71 0.15422