Temperature (C) Pressure (psia) Quality (l+v) Internal Energy (l+v, kJ/kg) Enthalpy (l+v, kJ/kg) Entropy (l+v, J/g*K) Density (l, kg/m3) Volume (l, m3/kg) Internal Energy (l, kJ/kg) Enthalpy (l, kJ/kg) Entropy (l, J/g*K) Cv (l, J/g*K) Cp (l, J/g*K) Sound Spd. (l, m/s) Joule-Thomson (l, F/psia) Viscosity (l, uPa*s) Therm. Cond. (l, W/m*K) Density (v, kg/m3) Volume (v, m3/kg) Internal Energy (v, kJ/kg) Enthalpy (v, kJ/kg) Entropy (v, J/g*K) Cv (v, J/g*K) Cp (v, J/g*K) Sound Spd. (v, m/s) Joule-Thomson (v, F/psia) Viscosity (v, uPa*s) Therm. Cond. (v, W/m*K)
-187.62 2.4953e-08 1.7942e-10 -196.64 -196.64 -1.3959 733.13 0.0013640 -196.64 -196.64 -1.3959 1.3553 1.9158 2136.4 -0.0077592 10960. 0.20792 1.0669e-08 9.3732e+07 350.13 366.26 5.1858 0.69067 0.87923 143.28 6.1051 2.3259 0.0017061
-186.62 3.7339e-08 2.6535e-10 -194.73 -194.73 -1.3736 732.08 0.0013660 -194.73 -194.73 -1.3736 1.3539 1.9166 2129.6 -0.0077546 10073. 0.20765 1.5780e-08 6.3371e+07 350.82 367.14 5.1200 0.69462 0.88317 144.03 5.9178 2.3534 0.0017533
-185.62 5.5322e-08 3.8861e-10 -192.81 -192.81 -1.3516 731.04 0.0013679 -192.81 -192.81 -1.3516 1.3525 1.9174 2122.9 -0.0077498 9276.1 0.20737 2.3112e-08 4.3267e+07 351.52 368.02 5.0561 0.69857 0.88713 144.77 5.7383 2.3808 0.0018007
-184.62 8.1182e-08 5.6376e-10 -190.89 -190.89 -1.3298 730.00 0.0013699 -190.89 -190.89 -1.3298 1.3513 1.9182 2116.1 -0.0077448 8557.8 0.20708 3.3533e-08 2.9821e+07 352.22 368.91 4.9939 0.70253 0.89108 145.51 5.5662 2.4083 0.0018485
-183.62 1.1803e-07 8.1042e-10 -188.97 -188.97 -1.3083 728.96 0.0013718 -188.97 -188.97 -1.3083 1.3501 1.9191 2109.3 -0.0077395 7909.8 0.20678 4.8211e-08 2.0742e+07 352.92 369.81 4.9333 0.70648 0.89504 146.24 5.4011 2.4357 0.0018965
-182.62 1.7009e-07 1.1548e-09 -187.05 -187.05 -1.2869 727.92 0.0013738 -187.05 -187.05 -1.2869 1.3490 1.9201 2102.5 -0.0077340 7324.3 0.20647 6.8704e-08 1.4555e+07 353.63 370.70 4.8744 0.71043 0.89899 146.97 5.2426 2.4632 0.0019448
-181.62 2.4299e-07 1.6315e-09 -185.13 -185.13 -1.2658 726.88 0.0013757 -185.13 -185.13 -1.2658 1.3480 1.9210 2095.7 -0.0077283 6794.5 0.20616 9.7079e-08 1.0301e+07 354.35 371.60 4.8170 0.71438 0.90294 147.69 5.0904 2.4906 0.0019934
-180.62 3.4425e-07 2.2862e-09 -183.21 -183.21 -1.2450 725.85 0.0013777 -183.21 -183.21 -1.2450 1.3470 1.9220 2088.9 -0.0077225 6314.4 0.20584 1.3605e-07 7.3504e+06 355.06 372.51 4.7612 0.71833 0.90688 148.41 4.9442 2.5181 0.0020423
-179.62 4.8378e-07 3.1781e-09 -181.29 -181.29 -1.2243 724.81 0.0013797 -181.29 -181.29 -1.2243 1.3461 1.9231 2082.0 -0.0077164 5878.8 0.20551 1.8915e-07 5.2868e+06 355.78 373.42 4.7068 0.72227 0.91082 149.13 4.8038 2.5456 0.0020915
-178.62 6.7459e-07 4.3842e-09 -179.37 -179.37 -1.2038 723.78 0.0013816 -179.37 -179.37 -1.2038 1.3453 1.9241 2075.2 -0.0077102 5482.9 0.20517 2.6096e-07 3.8320e+06 356.51 374.33 4.6538 0.72620 0.91475 149.84 4.6688 2.5731 0.0021410
-177.62 9.3358e-07 6.0031e-09 -177.44 -177.44 -1.1836 722.75 0.0013836 -177.44 -177.44 -1.1836 1.3445 1.9252 2068.4 -0.0077039 5122.6 0.20483 3.5737e-07 2.7982e+06 357.23 375.25 4.6022 0.73012 0.91867 150.54 4.5390 2.6005 0.0021907
-176.62 1.2826e-06 8.1609e-09 -175.52 -175.52 -1.1635 721.72 0.0013856 -175.52 -175.52 -1.1635 1.3437 1.9263 2061.5 -0.0076973 4794.1 0.20447 4.8588e-07 2.0581e+06 357.97 376.17 4.5519 0.73403 0.92258 151.25 4.4142 2.6280 0.0022408
-175.62 1.7496e-06 1.1017e-08 -173.59 -173.59 -1.1437 720.69 0.0013876 -173.59 -173.59 -1.1437 1.3430 1.9274 2054.7 -0.0076907 4494.3 0.20411 6.5601e-07 1.5244e+06 358.70 377.09 4.5029 0.73792 0.92648 151.95 4.2941 2.6555 0.0022912
-174.62 2.3705e-06 1.4773e-08 -171.66 -171.66 -1.1240 719.66 0.0013895 -171.66 -171.66 -1.1240 1.3423 1.9286 2047.9 -0.0076838 4220.2 0.20375 8.7976e-07 1.1367e+06 359.44 378.02 4.4551 0.74181 0.93036 152.64 4.1784 2.6830 0.0023418
-173.62 3.1903e-06 1.9681e-08 -169.73 -169.73 -1.1045 718.64 0.0013915 -169.73 -169.73 -1.1045 1.3417 1.9298 2041.0 -0.0076769 3969.3 0.20338 1.1721e-06 8.5314e+05 360.19 378.95 4.4085 0.74568 0.93423 153.33 4.0671 2.7105 0.0023928
-172.62 4.2661e-06 2.6052e-08 -167.80 -167.80 -1.0852 717.61 0.0013935 -167.80 -167.80 -1.0852 1.3411 1.9310 2034.2 -0.0076698 3739.3 0.20300 1.5518e-06 6.4441e+05 360.93 379.89 4.3631 0.74953 0.93809 154.02 3.9599 2.7379 0.0024440
-171.62 5.6692e-06 3.4276e-08 -165.87 -165.87 -1.0661 716.58 0.0013955 -165.87 -165.87 -1.0661 1.3405 1.9322 2027.3 -0.0076625 3528.0 0.20261 2.0419e-06 4.8974e+05 361.69 380.83 4.3188 0.75337 0.94193 154.71 3.8566 2.7654 0.0024955
-170.62 7.4884e-06 4.4827e-08 -163.94 -163.94 -1.0472 715.56 0.0013975 -163.94 -163.94 -1.0472 1.3400 1.9334 2020.5 -0.0076552 3333.8 0.20222 2.6708e-06 3.7442e+05 362.44 381.77 4.2755 0.75720 0.94575 155.39 3.7570 2.7929 0.0025473
-169.62 9.8334e-06 5.8290e-08 -162.00 -162.00 -1.0284 714.54 0.0013995 -162.00 -162.00 -1.0284 1.3395 1.9347 2013.6 -0.0076477 3154.9 0.20182 3.4733e-06 2.8791e+05 363.20 382.72 4.2334 0.76100 0.94956 156.07 3.6609 2.8204 0.0025994
-168.62 1.2839e-05 7.5371e-08 -160.07 -160.07 -1.0098 713.52 0.0014015 -160.07 -160.07 -1.0098 1.3390 1.9359 2006.8 -0.0076401 2989.9 0.20141 4.4917e-06 2.2263e+05 363.96 383.67 4.1922 0.76479 0.95335 156.74 3.5683 2.8479 0.0026518
-167.62 1.6672e-05 9.6931e-08 -158.13 -158.13 -0.99134 712.49 0.0014035 -158.13 -158.13 -0.99134 1.3386 1.9372 2000.0 -0.0076323 2837.5 0.20100 5.7771e-06 1.7310e+05 364.73 384.63 4.1521 0.76856 0.95712 157.41 3.4790 2.8754 0.0027045
-166.62 2.1533e-05 1.2400e-07 -156.19 -156.19 -0.97306 711.47 0.0014055 -156.19 -156.19 -0.97306 1.3382 1.9385 1993.1 -0.0076245 2696.5 0.20058 7.3914e-06 1.3529e+05 365.50 385.59 4.1129 0.77232 0.96087 158.08 3.3927 2.9029 0.0027575
-165.62 2.7666e-05 1.5782e-07 -154.25 -154.25 -0.95494 710.45 0.0014075 -154.25 -154.25 -0.95494 1.3378 1.9398 1986.3 -0.0076165 2566.0 0.20016 9.4084e-06 1.0629e+05 366.27 386.55 4.0746 0.77605 0.96460 158.75 3.3095 2.9304 0.0028108
-164.62 3.5367e-05 1.9986e-07 -152.31 -152.31 -0.93698 709.44 0.0014096 -152.31 -152.31 -0.93698 1.3375 1.9411 1979.4 -0.0076084 2444.9 0.19973 1.1916e-05 83918. 367.05 387.52 4.0372 0.77976 0.96832 159.41 3.2291 2.9579 0.0028643
-163.62 4.4989e-05 2.5189e-07 -150.37 -150.37 -0.91917 708.42 0.0014116 -150.37 -150.37 -0.91917 1.3371 1.9424 1972.6 -0.0076002 2332.3 0.19930 1.5020e-05 66577. 367.83 388.49 4.0008 0.78346 0.97201 160.07 3.1514 2.9854 0.0029182
-162.62 5.6956e-05 3.1597e-07 -148.43 -148.43 -0.90151 707.40 0.0014136 -148.43 -148.43 -0.90151 1.3368 1.9437 1965.8 -0.0075919 2227.7 0.19886 1.8844e-05 53068. 368.62 389.46 3.9651 0.78713 0.97569 160.72 3.0764 3.0129 0.0029723
-161.62 7.1773e-05 3.9455e-07 -146.48 -146.48 -0.88399 706.38 0.0014157 -146.48 -146.48 -0.88400 1.3365 1.9451 1959.0 -0.0075834 2130.2 0.19841 2.3533e-05 42494. 369.41 390.44 3.9304 0.79079 0.97935 161.38 3.0038 3.0404 0.0030268
-160.62 9.0036e-05 4.9049e-07 -144.54 -144.54 -0.86663 705.37 0.0014177 -144.54 -144.54 -0.86663 1.3363 1.9465 1952.1 -0.0075748 2039.2 0.19796 2.9258e-05 34178. 370.20 391.42 3.8964 0.79443 0.98298 162.03 2.9337 3.0679 0.0030815
-159.62 0.00011245 6.0713e-07 -142.59 -142.59 -0.84940 704.35 0.0014197 -142.59 -142.59 -0.84940 1.3360 1.9478 1945.3 -0.0075661 1954.2 0.19751 3.6221e-05 27609. 371.00 392.40 3.8632 0.79805 0.98660 162.68 2.8658 3.0955 0.0031365
-158.62 0.00013985 7.4837e-07 -140.64 -140.64 -0.83231 703.34 0.0014218 -140.64 -140.64 -0.83231 1.3358 1.9492 1938.5 -0.0075573 1874.8 0.19705 4.4652e-05 22395. 371.80 393.39 3.8307 0.80164 0.99020 163.32 2.8002 3.1230 0.0031918
-157.62 0.00017320 9.1870e-07 -138.69 -138.69 -0.81535 702.32 0.0014238 -138.69 -138.69 -0.81536 1.3356 1.9506 1931.7 -0.0075484 1800.3 0.19658 5.4822e-05 18241. 372.60 394.38 3.7990 0.80522 0.99378 163.96 2.7367 3.1505 0.0032474
-156.62 0.00021364 1.1233e-06 -136.74 -136.74 -0.79854 701.31 0.0014259 -136.74 -136.74 -0.79854 1.3354 1.9520 1924.9 -0.0075393 1730.5 0.19611 6.7040e-05 14916. 373.41 395.38 3.7680 0.80878 0.99734 164.60 2.6752 3.1780 0.0033033
-155.62 0.00026248 1.3682e-06 -134.79 -134.79 -0.78185 700.30 0.0014280 -134.79 -134.79 -0.78185 1.3352 1.9534 1918.1 -0.0075302 1664.9 0.19564 8.1666e-05 12245. 374.22 396.38 3.7377 0.81232 1.0009 165.24 2.6157 3.2055 0.0033595
-154.62 0.00032125 1.6603e-06 -132.83 -132.83 -0.76529 699.29 0.0014300 -132.83 -132.83 -0.76530 1.3350 1.9548 1911.3 -0.0075209 1603.3 0.19516 9.9109e-05 10090. 375.03 397.38 3.7081 0.81585 1.0044 165.87 2.5580 3.2330 0.0034160
-153.62 0.00039171 2.0072e-06 -130.88 -130.88 -0.74886 698.27 0.0014321 -130.88 -130.88 -0.74887 1.3349 1.9563 1904.5 -0.0075114 1545.3 0.19468 0.00011984 8344.6 375.85 398.39 3.6792 0.81935 1.0079 166.50 2.5022 3.2606 0.0034727
-152.62 0.00047590 2.4181e-06 -128.92 -128.92 -0.73255 697.26 0.0014342 -128.92 -128.92 -0.73256 1.3348 1.9577 1897.8 -0.0075019 1490.6 0.19419 0.00014439 6925.9 376.67 399.40 3.6509 0.82284 1.0114 167.13 2.4481 3.2881 0.0035298
-151.62 0.00057613 2.9030e-06 -126.96 -126.96 -0.71637 696.25 0.0014363 -126.96 -126.96 -0.71638 1.3346 1.9592 1891.0 -0.0074922 1438.9 0.19370 0.00017336 5768.4 377.49 400.41 3.6232 0.82631 1.0149 167.76 2.3957 3.3156 0.0035872
-150.62 0.00069507 3.4732e-06 -125.00 -125.00 -0.70030 695.24 0.0014384 -125.00 -125.00 -0.70032 1.3345 1.9606 1884.2 -0.0074824 1390.2 0.19320 0.00020744 4820.7 378.32 401.42 3.5962 0.82976 1.0183 168.38 2.3448 3.3431 0.0036448
-149.62 0.00083574 4.1419e-06 -123.04 -123.04 -0.68436 694.23 0.0014404 -123.04 -123.04 -0.68438 1.3345 1.9621 1877.4 -0.0074724 1344.0 0.19270 0.00024740 4042.0 379.15 402.44 3.5697 0.83319 1.0218 169.00 2.2956 3.3706 0.0037027
-148.62 0.0010016 4.9233e-06 -121.08 -121.08 -0.66853 693.22 0.0014425 -121.08 -121.08 -0.66855 1.3344 1.9636 1870.7 -0.0074623 1300.3 0.19220 0.00029412 3400.0 379.99 403.47 3.5438 0.83661 1.0252 169.62 2.2478 3.3982 0.0037610
-147.62 0.0011965 5.8339e-06 -119.11 -119.11 -0.65281 692.21 0.0014447 -119.11 -119.11 -0.65284 1.3343 1.9651 1863.9 -0.0074521 1258.9 0.19169 0.00034856 2869.0 380.83 404.49 3.5185 0.84001 1.0286 170.24 2.2014 3.4257 0.0038195
-146.62 0.0014249 6.8917e-06 -117.15 -117.15 -0.63721 691.20 0.0014468 -117.15 -117.15 -0.63724 1.3343 1.9666 1857.2 -0.0074417 1219.6 0.19117 0.00041181 2428.3 381.67 405.52 3.4938 0.84340 1.0320 170.85 2.1565 3.4532 0.0038783
-145.62 0.0016917 8.1171e-06 -115.18 -115.18 -0.62172 690.19 0.0014489 -115.18 -115.18 -0.62175 1.3343 1.9682 1850.4 -0.0074312 1182.3 0.19066 0.00048510 2061.4 382.51 406.56 3.4695 0.84677 1.0353 171.46 2.1128 3.4807 0.0039374
-144.62 0.0020026 9.5326e-06 -113.21 -113.21 -0.60633 689.18 0.0014510 -113.21 -113.21 -0.60637 1.3343 1.9697 1843.7 -0.0074206 1146.8 0.19014 0.00056976 1755.1 383.36 407.59 3.4458 0.85012 1.0387 172.07 2.0705 3.5082 0.0039967
-143.62 0.0023637 1.1163e-05 -111.24 -111.24 -0.59105 688.17 0.0014531 -111.24 -111.24 -0.59110 1.3343 1.9713 1836.9 -0.0074098 1113.0 0.18962 0.00066731 1498.6 384.21 408.63 3.4226 0.85346 1.0420 172.68 2.0294 3.5358 0.0040564
-142.62 0.0027820 1.3037e-05 -109.26 -109.26 -0.57588 687.16 0.0014553 -109.27 -109.27 -0.57593 1.3343 1.9728 1830.2 -0.0073988 1080.8 0.18909 0.00077939 1283.1 385.07 409.68 3.3999 0.85679 1.0454 173.28 1.9896 3.5633 0.0041164
-141.62 0.0032653 1.5183e-05 -107.29 -107.29 -0.56081 686.15 0.0014574 -107.30 -107.30 -0.56087 1.3343 1.9744 1823.5 -0.0073878 1050.1 0.18856 0.00090784 1101.5 385.93 410.72 3.3777 0.86011 1.0487 173.88 1.9508 3.5908 0.0041766
-140.62 0.0038222 1.7637e-05 -105.31 -105.31 -0.54584 685.14 0.0014596 -105.32 -105.32 -0.54591 1.3344 1.9760 1816.7 -0.0073765 1020.7 0.18803 0.0010547 948.16 386.79 411.77 3.3560 0.86341 1.0520 174.48 1.9133 3.6183 0.0042372
-139.62 0.0044623 2.0434e-05 -103.33 -103.33 -0.53097 684.13 0.0014617 -103.34 -103.34 -0.53105 1.3344 1.9776 1810.0 -0.0073651 992.74 0.18749 0.0012221 818.26 387.65 412.83 3.3347 0.86670 1.0553 175.08 1.8768 3.6459 0.0042980
-138.62 0.0051963 2.3615e-05 -101.35 -101.35 -0.51620 683.12 0.0014639 -101.37 -101.37 -0.51629 1.3345 1.9792 1803.3 -0.0073536 965.97 0.18695 0.0014125 707.94 388.52 413.88 3.3139 0.86998 1.0586 175.67 1.8413 3.6734 0.0043592
-137.62 0.0060358 2.7224e-05 -99.373 -99.372 -0.50152 682.11 0.0014660 -99.386 -99.386 -0.50162 1.3346 1.9808 1796.6 -0.0073419 940.35 0.18641 0.0016287 614.00 389.39 414.94 3.2935 0.87325 1.0619 176.26 1.8069 3.7009 0.0044206
-136.62 0.0069938 3.1310e-05 -97.389 -97.388 -0.48694 681.10 0.0014682 -97.404 -97.404 -0.48705 1.3347 1.9825 1789.9 -0.0073301 915.81 0.18586 0.0018733 533.80 390.26 416.00 3.2735 0.87650 1.0651 176.85 1.7734 3.7284 0.0044823
-135.62 0.0080843 3.5925e-05 -95.404 -95.403 -0.47245 680.09 0.0014704 -95.421 -95.421 -0.47258 1.3348 1.9841 1783.2 -0.0073180 892.30 0.18531 0.0021497 465.17 391.14 417.07 3.2540 0.87975 1.0684 177.44 1.7409 3.7559 0.0045443
-134.62 0.0093230 4.1126e-05 -93.416 -93.415 -0.45805 679.08 0.0014726 -93.436 -93.436 -0.45820 1.3350 1.9858 1776.5 -0.0073059 869.75 0.18476 0.0024613 406.30 392.02 418.14 3.2348 0.88299 1.0716 178.02 1.7093 3.7834 0.0046066
-133.62 0.010727 4.6974e-05 -91.427 -91.425 -0.44374 678.07 0.0014748 -91.450 -91.449 -0.44391 1.3351 1.9875 1769.8 -0.0072935 848.11 0.18421 0.0028116 355.67 392.91 419.21 3.2161 0.88622 1.0749 178.61 1.6786 3.8109 0.0046691
-132.62 0.012315 5.3537e-05 -89.435 -89.434 -0.42951 677.06 0.0014770 -89.461 -89.461 -0.42971 1.3353 1.9892 1763.1 -0.0072810 827.32 0.18365 0.0032049 312.03 393.79 420.29 3.1977 0.88944 1.0781 179.19 1.6488 3.8385 0.0047320
-131.62 0.014106 6.0886e-05 -87.442 -87.440 -0.41538 676.04 0.0014792 -87.471 -87.471 -0.41560 1.3354 1.9909 1756.4 -0.0072684 807.34 0.18309 0.0036453 274.33 394.68 421.36 3.1798 0.89266 1.0813 179.76 1.6197 3.8660 0.0047951
-130.62 0.016124 6.9099e-05 -85.446 -85.444 -0.40133 675.03 0.0014814 -85.479 -85.479 -0.40157 1.3356 1.9926 1749.7 -0.0072555 788.12 0.18253 0.0041375 241.69 395.58 422.44 3.1622 0.89586 1.0846 180.34 1.5915 3.8935 0.0048586
-129.62 0.018392 7.8260e-05 -83.448 -83.446 -0.38736 674.02 0.0014836 -83.486 -83.486 -0.38763 1.3358 1.9944 1743.0 -0.0072425 769.63 0.18196 0.0046867 213.37 396.47 423.53 3.1450 0.89906 1.0878 180.91 1.5641 3.9210 0.0049223
-128.62 0.020935 8.8458e-05 -81.448 -81.446 -0.37347 673.01 0.0014859 -81.491 -81.490 -0.37378 1.3360 1.9961 1736.3 -0.0072294 751.83 0.18140 0.0052981 188.75 397.37 424.62 3.1281 0.90226 1.0910 181.48 1.5374 3.9485 0.0049863
-127.62 0.023783 9.9789e-05 -79.446 -79.443 -0.35966 672.00 0.0014881 -79.494 -79.493 -0.36001 1.3363 1.9979 1729.6 -0.0072160 734.67 0.18083 0.0059776 167.29 398.27 425.71 3.1116 0.90545 1.0942 182.05 1.5114 3.9760 0.0050506
-126.62 0.026966 0.00011236 -77.441 -77.438 -0.34594 670.98 0.0014904 -77.495 -77.495 -0.34632 1.3365 1.9997 1722.9 -0.0072025 718.14 0.18025 0.0067313 148.56 399.18 426.80 3.0954 0.90863 1.0974 182.62 1.4861 4.0035 0.0051152
-125.62 0.030515 0.00012627 -75.434 -75.430 -0.33228 669.97 0.0014926 -75.494 -75.494 -0.33272 1.3368 2.0015 1716.2 -0.0071888 702.18 0.17968 0.0075660 132.17 400.09 427.89 3.0795 0.91181 1.1006 183.18 1.4615 4.0310 0.0051800
-124.62 0.034467 0.00014165 -73.425 -73.420 -0.31871 668.95 0.0014949 -73.492 -73.492 -0.31919 1.3371 2.0033 1709.5 -0.0071749 686.79 0.17910 0.0084885 117.81 401.00 428.99 3.0640 0.91499 1.1038 183.74 1.4375 4.0584 0.0052452
-123.62 0.038859 0.00015861 -71.413 -71.408 -0.30521 667.94 0.0014971 -71.488 -71.487 -0.30574 1.3374 2.0051 1702.8 -0.0071609 671.93 0.17852 0.0095065 105.19 401.91 430.10 3.0488 0.91816 1.1070 184.30 1.4141 4.0859 0.0053106
-122.62 0.043731 0.00017730 -69.398 -69.392 -0.29178 666.92 0.0014994 -69.482 -69.481 -0.29237 1.3377 2.0070 1696.2 -0.0071466 657.57 0.17794 0.010628 94.092 402.83 431.20 3.0339 0.92134 1.1102 184.86 1.3913 4.1134 0.0053764
-121.62 0.049128 0.00019785 -67.380 -67.374 -0.27842 665.91 0.0015017 -67.474 -67.473 -0.27907 1.3380 2.0089 1689.5 -0.0071322 643.70 0.17736 0.011861 84.309 403.75 432.31 3.0193 0.92451 1.1134 185.41 1.3691 4.1409 0.0054424
-120.62 0.055096 0.00022041 -65.360 -65.353 -0.26513 664.89 0.0015040 -65.464 -65.463 -0.26585 1.3384 2.0107 1682.8 -0.0071176 630.28 0.17678 0.013215 75.669 404.67 433.42 3.0050 0.92767 1.1166 185.96 1.3475 4.1683 0.0055087
-119.62 0.061684 0.00024514 -63.337 -63.330 -0.25191 663.87 0.0015063 -63.452 -63.452 -0.25271 1.3387 2.0126 1676.1 -0.0071028 617.30 0.17619 0.014700 68.027 405.60 434.53 2.9909 0.93084 1.1198 186.51 1.3264 4.1958 0.0055752
-118.62 0.068946 0.00027220 -61.311 -61.303 -0.23876 662.86 0.0015086 -61.439 -61.438 -0.23963 1.3391 2.0146 1669.4 -0.0070878 604.74 0.17560 0.016325 61.255 406.53 435.64 2.9772 0.93401 1.1231 187.06 1.3058 4.2233 0.0056421
-117.62 0.076937 0.00030177 -59.282 -59.273 -0.22567 661.84 0.0015109 -59.423 -59.422 -0.22663 1.3395 2.0165 1662.8 -0.0070726 592.58 0.17501 0.018101 55.245 407.46 436.76 2.9638 0.93718 1.1263 187.60 1.2857 4.2507 0.0057092
-116.62 0.085718 0.00033404 -57.250 -57.239 -0.21264 660.82 0.0015133 -57.406 -57.405 -0.21370 1.3400 2.0184 1656.1 -0.0070573 580.80 0.17442 0.020040 49.901 408.39 437.88 2.9506 0.94035 1.1295 188.14 1.2660 4.2782 0.0057767
-115.62 0.095353 0.00036920 -55.215 -55.203 -0.19968 659.80 0.0015156 -55.386 -55.385 -0.20084 1.3404 2.0204 1649.4 -0.0070417 569.38 0.17383 0.022152 45.142 409.33 439.01 2.9377 0.94352 1.1327 188.68 1.2468 4.3056 0.0058444
-114.62 0.10591 0.00040746 -53.176 -53.163 -0.18678 658.78 0.0015180 -53.365 -53.364 -0.18805 1.3409 2.0224 1642.7 -0.0070260 558.32 0.17323 0.024451 40.898 410.27 440.13 2.9250 0.94669 1.1360 189.22 1.2281 4.3330 0.0059123
-113.62 0.11746 0.00044904 -51.134 -51.119 -0.17394 657.76 0.0015203 -51.342 -51.340 -0.17533 1.3413 2.0244 1636.0 -0.0070100 547.59 0.17264 0.026949 37.107 411.21 441.26 2.9126 0.94987 1.1392 189.75 1.2097 4.3604 0.0059806
-112.62 0.13008 0.00049415 -49.088 -49.072 -0.16116 656.73 0.0015227 -49.316 -49.315 -0.16267 1.3418 2.0264 1629.3 -0.0069938 537.18 0.17204 0.029661 33.715 412.16 442.39 2.9005 0.95305 1.1424 190.28 1.1918 4.3879 0.0060491
-111.62 0.14384 0.00054303 -47.039 -47.021 -0.14843 655.71 0.0015251 -47.289 -47.287 -0.15008 1.3424 2.0285 1622.7 -0.0069774 527.08 0.17144 0.032600 30.675 413.10 443.53 2.8885 0.95623 1.1457 190.81 1.1742 4.4153 0.0061180
-110.62 0.15884 0.00059594 -44.986 -44.966 -0.13576 654.69 0.0015274 -45.259 -45.258 -0.13755 1.3429 2.0305 1616.0 -0.0069609 517.28 0.17084 0.035781 27.948 414.06 444.66 2.8769 0.95942 1.1490 191.34 1.1570 4.4427 0.0061871
-109.62 0.17516 0.00065312 -42.928 -42.906 -0.12314 653.66 0.0015298 -43.228 -43.226 -0.12509 1.3435 2.0326 1609.3 -0.0069441 507.76 0.17024 0.039220 25.497 415.01 445.80 2.8654 0.96261 1.1522 191.86 1.1402 4.4701 0.0062564
-108.62 0.19290 0.00071486 -40.867 -40.843 -0.11057 652.64 0.0015322 -41.194 -41.192 -0.11269 1.3441 2.0347 1602.6 -0.0069271 498.51 0.16964 0.042933 23.292 415.96 446.94 2.8542 0.96581 1.1555 192.38 1.1236 4.4974 0.0063261
-107.62 0.21215 0.00078142 -38.802 -38.775 -0.098057 651.61 0.0015347 -39.158 -39.156 -0.10036 1.3447 2.0369 1595.9 -0.0069098 489.52 0.16903 0.046937 21.305 416.92 448.09 2.8433 0.96901 1.1588 192.90 1.1075 4.5248 0.0063960
-106.62 0.23301 0.00085311 -36.732 -36.703 -0.085591 650.58 0.0015371 -37.120 -37.118 -0.088082 1.3453 2.0390 1589.2 -0.0068924 480.79 0.16843 0.051250 19.512 417.88 449.23 2.8325 0.97222 1.1621 193.41 1.0916 4.5522 0.0064662
-105.62 0.25561 0.00093023 -34.658 -34.626 -0.073173 649.55 0.0015395 -35.080 -35.078 -0.075868 1.3460 2.0412 1582.6 -0.0068747 472.30 0.16782 0.055891 17.892 418.85 450.38 2.8220 0.97544 1.1655 193.93 1.0760 4.5795 0.0065367
-104.62 0.28004 0.0010131 -32.579 -32.544 -0.060801 648.52 0.0015420 -33.038 -33.035 -0.063714 1.3467 2.0434 1575.9 -0.0068569 464.04 0.16721 0.060878 16.426 419.81 451.53 2.8116 0.97867 1.1688 194.44 1.0608 4.6069 0.0066074
-103.62 0.30643 0.0011020 -30.496 -30.458 -0.048475 647.49 0.0015444 -30.994 -30.991 -0.051619 1.3474 2.0456 1569.2 -0.0068387 456.00 0.16660 0.066231 15.099 420.78 452.68 2.8015 0.98191 1.1722 194.94 1.0458 4.6342 0.0066785
-102.62 0.33490 0.0011974 -28.408 -28.366 -0.036192 646.46 0.0015469 -28.947 -28.944 -0.039582 1.3481 2.0478 1562.5 -0.0068204 448.18 0.16600 0.071971 13.894 421.75 453.84 2.7916 0.98516 1.1755 195.44 1.0310 4.6615 0.0067498
-101.62 0.36558 0.0012995 -26.314 -26.268 -0.023951 645.43 0.0015494 -26.898 -26.894 -0.027602 1.3489 2.0501 1555.8 -0.0068018 440.57 0.16539 0.078120 12.801 422.73 454.99 2.7818 0.98841 1.1789 195.95 1.0166 4.6888 0.0068213
-100.62 0.39862 0.0014087 -24.215 -24.165 -0.011751 644.39 0.0015519 -24.847 -24.843 -0.015678 1.3497 2.0524 1549.1 -0.0067830 433.16 0.16478 0.084699 11.807 423.70 456.15 2.7723 0.99168 1.1823 196.44 1.0024 4.7161 0.0068932
-99.625 0.43414 0.0015255 -22.111 -22.057 0.00041037 643.36 0.0015544 -22.794 -22.789 -0.0038103 1.3505 2.0547 1542.4 -0.0067639 425.95 0.16416 0.091731 10.901 424.68 457.31 2.7630 0.99496 1.1858 196.94 0.98838 4.7434 0.0069653
-98.625 0.47230 0.0016501 -20.001 -19.942 0.012534 642.32 0.0015569 -20.738 -20.733 0.0080027 1.3514 2.0570 1535.7 -0.0067447 418.92 0.16355 0.099240 10.077 425.66 458.48 2.7538 0.99825 1.1892 197.43 0.97464 4.7707 0.0070377
-97.625 0.51325 0.0017831 -17.886 -17.822 0.024621 641.28 0.0015594 -18.680 -18.674 0.019762 1.3522 2.0594 1529.0 -0.0067251 412.07 0.16294 0.10725 9.3239 426.65 459.64 2.7448 1.0016 1.1927 197.92 0.96112 4.7979 0.0071103
-96.625 0.55714 0.0019247 -15.764 -15.695 0.036673 640.24 0.0015619 -16.620 -16.614 0.031467 1.3531 2.0618 1522.3 -0.0067053 405.39 0.16233 0.11579 8.6365 427.63 460.81 2.7360 1.0049 1.1962 198.40 0.94783 4.8251 0.0071832
-95.625 0.60416 0.0020755 -13.637 -13.561 0.048691 639.20 0.0015645 -14.557 -14.550 0.043120 1.3540 2.0642 1515.7 -0.0066853 398.88 0.16171 0.12488 8.0078 428.62 461.98 2.7274 1.0082 1.1997 198.88 0.93475 4.8524 0.0072564
-94.625 0.65446 0.0022359 -11.503 -11.421 0.060678 638.16 0.0015670 -12.491 -12.484 0.054721 1.3550 2.0667 1509.0 -0.0066650 392.53 0.16110 0.13455 7.4323 429.61 463.15 2.7189 1.0116 1.2032 199.36 0.92188 4.8796 0.0073299
-93.625 0.70822 0.0024064 -9.3624 -9.2736 0.072634 637.12 0.0015696 -10.424 -10.416 0.066271 1.3560 2.0691 1502.3 -0.0066444 386.34 0.16048 0.14482 6.9050 430.60 464.32 2.7107 1.0149 1.2068 199.83 0.90921 4.9068 0.0074036
-92.625 0.76564 0.0025873 -7.2152 -7.1192 0.084562 636.07 0.0015722 -8.3535 -8.3452 0.077771 1.3570 2.0716 1495.6 -0.0066236 380.31 0.15987 0.15573 6.4212 431.60 465.49 2.7025 1.0183 1.2104 200.30 0.89673 4.9340 0.0074776
-91.625 0.82689 0.0027793 -5.0611 -4.9574 0.096461 635.02 0.0015747 -6.2808 -6.2719 0.089220 1.3580 2.0742 1488.9 -0.0066025 374.41 0.15925 0.16731 5.9769 432.59 466.67 2.6946 1.0217 1.2140 200.77 0.88445 4.9611 0.0075518
-90.625 0.89218 0.0029827 -2.8998 -2.7880 0.10833 633.98 0.0015773 -4.2056 -4.1959 0.10062 1.3591 2.0767 1482.2 -0.0065811 368.66 0.15864 0.17958 5.5685 433.59 467.84 2.6868 1.0251 1.2177 201.24 0.87236 4.9883 0.0076263
-89.625 0.96172 0.0031981 -0.73120 -0.61064 0.12018 632.93 0.0015800 -2.1279 -2.1174 0.11197 1.3602 2.0793 1475.5 -0.0065595 363.05 0.15802 0.19258 5.1928 434.59 469.02 2.6791 1.0285 1.2213 201.70 0.86045 5.0154 0.0077011
-88.625 1.0357 0.0034260 1.4450 1.5748 0.13201 631.88 0.0015826 -0.047516 -0.036215 0.12328 1.3613 2.0819 1468.8 -0.0065375 357.56 0.15740 0.20633 4.8466 435.59 470.20 2.6717 1.0320 1.2250 202.15 0.84873 5.0425 0.0077761
-87.625 1.1144 0.0036670 3.6290 3.7687 0.14381 630.83 0.0015852 2.0355 2.0476 0.13454 1.3625 2.0846 1462.1 -0.0065153 352.21 0.15679 0.22087 4.5276 436.60 471.39 2.6643 1.0354 1.2288 202.61 0.83718 5.0696 0.0078514
-86.625 1.1979 0.0039215 5.8210 5.9711 0.15560 629.77 0.0015879 4.1211 4.1342 0.14575 1.3637 2.0873 1455.4 -0.0064928 346.98 0.15617 0.23623 4.2331 437.61 472.57 2.6571 1.0389 1.2325 203.06 0.82580 5.0967 0.0079270
-85.625 1.2866 0.0041902 8.0212 8.1825 0.16736 628.72 0.0015905 6.2094 6.2235 0.15691 1.3649 2.0900 1448.8 -0.0064701 341.87 0.15555 0.25245 3.9612 438.61 473.75 2.6501 1.0424 1.2363 203.50 0.81460 5.1237 0.0080028
-84.625 1.3806 0.0044736 10.230 10.403 0.17911 627.66 0.0015932 8.3004 8.3155 0.16803 1.3661 2.0927 1442.1 -0.0064470 336.87 0.15494 0.26956 3.7097 439.63 474.94 2.6432 1.0460 1.2402 203.95 0.80356 5.1508 0.0080789
-83.625 1.4803 0.0047722 12.447 12.633 0.19084 626.60 0.0015959 10.394 10.410 0.17911 1.3674 2.0955 1435.4 -0.0064236 331.99 0.15432 0.28760 3.4771 440.64 476.13 2.6364 1.0495 1.2440 204.38 0.79269 5.1778 0.0081553
-82.625 1.5858 0.0050868 14.674 14.872 0.20255 625.54 0.0015986 12.491 12.508 0.19014 1.3687 2.0983 1428.7 -0.0063999 327.22 0.15370 0.30659 3.2616 441.65 477.31 2.6298 1.0531 1.2479 204.82 0.78199 5.2048 0.0082319
-81.625 1.6975 0.0054179 16.909 17.122 0.21426 624.48 0.0016013 14.590 14.609 0.20113 1.3700 2.1012 1422.0 -0.0063759 322.55 0.15309 0.32659 3.0619 442.67 478.50 2.6233 1.0567 1.2519 205.25 0.77144 5.2318 0.0083088
-80.625 1.8155 0.0057661 19.154 19.382 0.22595 623.42 0.0016041 16.692 16.712 0.21208 1.3714 2.1041 1415.4 -0.0063516 317.99 0.15247 0.34763 2.8766 443.69 479.70 2.6169 1.0603 1.2558 205.67 0.76106 5.2587 0.0083860
-79.625 1.9402 0.0061321 21.409 21.652 0.23763 622.36 0.0016068 18.797 18.819 0.22299 1.3728 2.1070 1408.7 -0.0063270 313.52 0.15186 0.36974 2.7046 444.71 480.89 2.6106 1.0639 1.2598 206.10 0.75083 5.2857 0.0084634
-78.625 2.0718 0.0065164 23.673 23.933 0.24930 621.29 0.0016096 20.905 20.928 0.23385 1.3742 2.1099 1402.0 -0.0063021 309.15 0.15124 0.39296 2.5448 445.73 482.08 2.6045 1.0676 1.2639 206.51 0.74076 5.3126 0.0085411
-77.625 2.2107 0.0069199 25.948 26.225 0.26096 620.22 0.0016123 23.016 23.040 0.24468 1.3757 2.1129 1395.3 -0.0062768 304.88 0.15062 0.41735 2.3961 446.75 483.27 2.5985 1.0712 1.2680 206.93 0.73084 5.3395 0.0086190
-76.625 2.3571 0.0073430 28.233 28.529 0.27262 619.15 0.0016151 25.130 25.156 0.25546 1.3772 2.1159 1388.7 -0.0062512 300.69 0.15001 0.44292 2.2577 447.78 484.47 2.5926 1.0749 1.2721 207.34 0.72107 5.3664 0.0086972
-75.625 2.5113 0.0077866 30.529 30.844 0.28427 618.08 0.0016179 27.247 27.275 0.26620 1.3787 2.1190 1382.0 -0.0062253 296.59 0.14939 0.46974 2.1288 448.81 485.67 2.5869 1.0787 1.2762 207.74 0.71146 5.3933 0.0087757
-74.625 2.6736 0.0082513 32.836 33.171 0.29592 617.01 0.0016207 29.366 29.396 0.27691 1.3802 2.1221 1375.4 -0.0061990 292.58 0.14878 0.49783 2.0087 449.83 486.86 2.5812 1.0824 1.2804 208.14 0.70200 5.4201 0.0088544
-73.625 2.8444 0.0087379 35.154 35.510 0.30757 615.93 0.0016236 31.489 31.521 0.28758 1.3818 2.1252 1368.7 -0.0061724 288.65 0.14816 0.52725 1.8966 450.86 488.06 2.5757 1.0862 1.2847 208.54 0.69268 5.4469 0.0089334
-72.625 3.0240 0.0092470 37.483 37.862 0.31922 614.85 0.0016264 33.615 33.649 0.29821 1.3834 2.1284 1362.0 -0.0061454 284.81 0.14755 0.55804 1.7920 451.90 489.26 2.5703 1.0900 1.2889 208.93 0.68351 5.4737 0.0090126
-71.625 3.2127 0.0097794 39.824 40.227 0.33086 613.78 0.0016293 35.745 35.781 0.30880 1.3851 2.1316 1355.4 -0.0061181 281.03 0.14694 0.59024 1.6942 452.93 490.46 2.5650 1.0938 1.2932 209.32 0.67448 5.5005 0.0090922
-70.625 3.4108 0.010336 42.178 42.605 0.34251 612.69 0.0016321 37.877 37.915 0.31935 1.3867 2.1349 1348.7 -0.0060904 277.34 0.14632 0.62390 1.6028 453.96 491.66 2.5598 1.0976 1.2976 209.70 0.66560 5.5273 0.0091720
-69.625 3.6187 0.010917 44.543 44.997 0.35416 611.61 0.0016350 40.013 40.053 0.32987 1.3884 2.1382 1342.1 -0.0060624 273.72 0.14571 0.65906 1.5173 455.00 492.86 2.5547 1.1015 1.3020 210.08 0.65687 5.5540 0.0092520
-68.625 3.8367 0.011524 46.921 47.402 0.36582 610.53 0.0016379 42.152 42.195 0.34036 1.3902 2.1415 1335.5 -0.0060339 270.17 0.14510 0.69577 1.4372 456.04 494.06 2.5497 1.1054 1.3064 210.45 0.64827 5.5807 0.0093324
-67.625 4.0652 0.012157 49.312 49.822 0.37748 609.44 0.0016409 44.294 44.340 0.35080 1.3919 2.1449 1328.8 -0.0060051 266.69 0.14449 0.73408 1.3622 457.08 495.26 2.5448 1.1093 1.3109 210.82 0.63981 5.6074 0.0094130
-66.625 4.3046 0.012817 51.716 52.256 0.38915 608.35 0.0016438 46.439 46.488 0.36122 1.3937 2.1483 1322.2 -0.0059760 263.28 0.14388 0.77404 1.2919 458.12 496.46 2.5400 1.1133 1.3154 211.18 0.63150 5.6341 0.0094939
-65.625 4.5551 0.013506 54.133 54.704 0.40082 607.26 0.0016467 48.588 48.640 0.37160 1.3955 2.1518 1315.6 -0.0059464 259.93 0.14327 0.81570 1.2259 459.16 497.67 2.5353 1.1172 1.3200 211.54 0.62332 5.6608 0.0095750
-64.625 4.8173 0.014223 56.564 57.168 0.41251 606.16 0.0016497 50.740 50.795 0.38195 1.3974 2.1553 1308.9 -0.0059164 256.65 0.14266 0.85910 1.1640 460.21 498.87 2.5307 1.1212 1.3246 211.89 0.61527 5.6874 0.0096564
-63.625 5.0915 0.014970 59.009 59.647 0.42420 605.07 0.0016527 52.896 52.954 0.39226 1.3993 2.1588 1302.3 -0.0058861 253.42 0.14205 0.90429 1.1058 461.25 500.07 2.5262 1.1252 1.3293 212.24 0.60736 5.7140 0.0097382
-62.625 5.3781 0.015747 61.468 62.142 0.43591 603.97 0.0016557 55.055 55.117 0.40254 1.4012 2.1624 1295.7 -0.0058553 250.26 0.14144 0.95134 1.0511 462.30 501.28 2.5218 1.1293 1.3340 212.58 0.59958 5.7406 0.0098201
-61.625 5.6774 0.016555 63.942 64.653 0.44763 602.87 0.0016587 57.218 57.283 0.41279 1.4031 2.1660 1289.1 -0.0058241 247.16 0.14084 1.0003 0.99972 463.35 502.48 2.5175 1.1333 1.3387 212.92 0.59194 5.7672 0.0099024
-60.625 5.9899 0.017396 66.430 67.181 0.45937 601.77 0.0016618 59.385 59.453 0.42301 1.4051 2.1697 1282.5 -0.0057925 244.12 0.14023 1.0512 0.95131 464.40 503.68 2.5133 1.1374 1.3435 213.26 0.58442 5.7938 0.0099850
-59.625 6.3160 0.018270 68.934 69.725 0.47112 600.66 0.0016648 61.554 61.627 0.43320 1.4071 2.1734 1275.9 -0.0057605 241.13 0.13962 1.1041 0.90573 465.45 504.89 2.5091 1.1415 1.3483 213.58 0.57704 5.8203 0.010068
-58.625 6.6561 0.019178 71.452 72.287 0.48289 599.55 0.0016679 63.728 63.805 0.44335 1.4091 2.1772 1269.3 -0.0057280 238.19 0.13902 1.1591 0.86277 466.50 506.09 2.5051 1.1457 1.3532 213.90 0.56978 5.8468 0.010151
-57.625 7.0107 0.020120 73.987 74.865 0.49468 598.44 0.0016710 65.905 65.986 0.45348 1.4111 2.1810 1262.7 -0.0056951 235.31 0.13842 1.2161 0.82228 467.55 507.30 2.5011 1.1498 1.3581 214.22 0.56265 5.8733 0.010234
-56.625 7.3801 0.021099 76.537 77.462 0.50648 597.33 0.0016741 68.086 68.172 0.46358 1.4132 2.1848 1256.1 -0.0056617 232.48 0.13781 1.2754 0.78408 468.60 508.50 2.4972 1.1540 1.3631 214.53 0.55564 5.8998 0.010318
-55.625 7.7648 0.022114 79.103 80.077 0.51831 596.22 0.0016772 70.271 70.361 0.47364 1.4153 2.1887 1249.5 -0.0056279 229.69 0.13721 1.3369 0.74802 469.66 509.71 2.4934 1.1582 1.3681 214.84 0.54875 5.9263 0.010402
-54.625 8.1652 0.023167 81.686 82.710 0.53016 595.10 0.0016804 72.460 72.554 0.48368 1.4174 2.1927 1242.9 -0.0055937 226.96 0.13661 1.4006 0.71396 470.72 510.91 2.4897 1.1624 1.3731 215.14 0.54199 5.9527 0.010486
-53.625 8.5819 0.024259 84.286 85.362 0.54202 593.98 0.0016836 74.652 74.752 0.49369 1.4196 2.1967 1236.3 -0.0055589 224.27 0.13601 1.4667 0.68178 471.77 512.11 2.4860 1.1667 1.3782 215.43 0.53535 5.9792 0.010571
-52.625 9.0151 0.025390 86.903 88.033 0.55392 592.86 0.0016867 76.849 76.954 0.50368 1.4218 2.2007 1229.8 -0.0055237 221.63 0.13541 1.5353 0.65136 472.83 513.32 2.4824 1.1710 1.3834 215.72 0.52882 6.0056 0.010656
-51.625 9.4655 0.026562 89.537 90.723 0.56584 591.73 0.0016900 79.049 79.159 0.51363 1.4240 2.2048 1223.2 -0.0054880 219.04 0.13482 1.6062 0.62258 473.89 514.52 2.4789 1.1752 1.3886 216.00 0.52241 6.0320 0.010741
-50.625 9.9335 0.027775 92.188 93.434 0.57778 590.60 0.0016932 81.253 81.369 0.52356 1.4262 2.2089 1216.6 -0.0054519 216.48 0.13422 1.6797 0.59534 474.95 515.73 2.4755 1.1796 1.3938 216.28 0.51612 6.0584 0.010827
-49.625 10.419 0.029031 94.858 96.164 0.58975 589.47 0.0016964 83.462 83.584 0.53347 1.4285 2.2131 1210.1 -0.0054152 213.98 0.13363 1.7558 0.56954 476.01 516.93 2.4722 1.1839 1.3991 216.55 0.50994 6.0848 0.010913
-48.625 10.924 0.030331 97.546 98.915 0.60175 588.34 0.0016997 85.674 85.802 0.54334 1.4308 2.2173 1203.5 -0.0053780 211.51 0.13303 1.8345 0.54510 477.07 518.13 2.4689 1.1883 1.4044 216.82 0.50387 6.1112 0.010999
-47.625 11.448 0.031676 100.25 101.69 0.61377 587.20 0.0017030 87.891 88.025 0.55319 1.4331 2.2216 1196.9 -0.0053403 209.08 0.13244 1.9159 0.52194 478.14 519.33 2.4657 1.1927 1.4098 217.08 0.49792 6.1375 0.011085
-46.625 11.991 0.033066 102.98 104.48 0.62583 586.06 0.0017063 90.111 90.252 0.56302 1.4354 2.2259 1190.4 -0.0053020 206.69 0.13185 2.0001 0.49997 479.20 520.53 2.4625 1.1971 1.4153 217.33 0.49207 6.1639 0.011172
-45.625 12.554 0.034503 105.72 107.29 0.63792 584.92 0.0017096 92.336 92.484 0.57282 1.4378 2.2303 1183.8 -0.0052633 204.34 0.13126 2.0872 0.47912 480.27 521.74 2.4594 1.2015 1.4207 217.58 0.48633 6.1902 0.011259
-44.625 13.137 0.035988 108.48 110.13 0.65003 583.77 0.0017130 94.565 94.720 0.58260 1.4402 2.2347 1177.3 -0.0052240 202.03 0.13067 2.1771 0.45933 481.33 522.94 2.4564 1.2060 1.4263 217.82 0.48069 6.2165 0.011347
-43.625 13.741 0.037522 111.27 112.99 0.66218 582.62 0.0017164 96.799 96.961 0.59235 1.4426 2.2392 1170.7 -0.0051841 199.75 0.13008 2.2700 0.44053 482.40 524.14 2.4535 1.2104 1.4319 218.05 0.47516 6.2429 0.011435
-42.625 14.367 0.039107 114.07 115.87 0.67437 581.47 0.0017198 99.036 99.207 0.60208 1.4450 2.2437 1164.2 -0.0051437 197.51 0.12949 2.3659 0.42267 483.46 525.33 2.4506 1.2149 1.4375 218.28 0.46973 6.2692 0.011523
-41.625 15.015 0.040742 116.89 118.78 0.68659 580.32 0.0017232 101.28 101.46 0.61179 1.4475 2.2483 1157.7 -0.0051027 195.30 0.12891 2.4649 0.40569 484.53 526.53 2.4478 1.2195 1.4432 218.50 0.46440 6.2955 0.011612
-40.625 15.686 0.042430 119.74 121.70 0.69884 579.16 0.0017266 103.52 103.71 0.62147 1.4500 2.2529 1151.1 -0.0050611 193.13 0.12832 2.5671 0.38954 485.60 527.73 2.4450 1.2240 1.4489 218.72 0.45917 6.3218 0.011701
-39.625 16.380 0.044172 122.60 124.65 0.71114 578.00 0.0017301 105.78 105.97 0.63113 1.4525 2.2576 1144.6 -0.0050189 190.99 0.12774 2.6725 0.37418 486.67 528.93 2.4423 1.2286 1.4547 218.93 0.45403 6.3481 0.011790
-38.625 17.097 0.045968 125.49 127.63 0.72346 576.83 0.0017336 108.03 108.24 0.64077 1.4550 2.2623 1138.0 -0.0049761 188.88 0.12716 2.7813 0.35955 487.74 530.12 2.4397 1.2332 1.4606 219.13 0.44900 6.3744 0.011880
-37.625 17.838 0.047821 128.39 130.63 0.73583 575.66 0.0017371 110.29 110.51 0.65039 1.4576 2.2671 1131.5 -0.0049327 186.81 0.12658 2.8934 0.34562 488.81 531.32 2.4371 1.2378 1.4665 219.33 0.44405 6.4007 0.011970
-36.625 18.604 0.049731 131.32 133.65 0.74824 574.49 0.0017407 112.56 112.78 0.65999 1.4602 2.2719 1125.0 -0.0048887 184.76 0.12600 3.0089 0.33235 489.88 532.51 2.4346 1.2424 1.4724 219.52 0.43920 6.4270 0.012060
-35.625 19.395 0.051699 134.27 136.70 0.76068 573.32 0.0017442 114.83 115.06 0.66956 1.4628 2.2768 1118.5 -0.0048440 182.75 0.12542 3.1280 0.31969 490.95 533.70 2.4321 1.2471 1.4784 219.70 0.43444 6.4533 0.012151
-34.625 20.212 0.053726 137.24 139.78 0.77317 572.14 0.0017478 117.10 117.34 0.67912 1.4654 2.2818 1111.9 -0.0047987 180.76 0.12485 3.2506 0.30763 492.02 534.89 2.4297 1.2517 1.4845 219.88 0.42977 6.4797 0.012243
-33.625 21.056 0.055815 140.24 142.88 0.78570 570.96 0.0017514 119.38 119.63 0.68865 1.4681 2.2868 1105.4 -0.0047527 178.80 0.12427 3.3770 0.29612 493.09 536.08 2.4273 1.2564 1.4906 220.05 0.42519 6.5060 0.012334
-32.625 21.926 0.057966 143.25 146.00 0.79827 569.77 0.0017551 121.66 121.93 0.69817 1.4708 2.2918 1098.9 -0.0047061 176.87 0.12370 3.5071 0.28514 494.17 537.27 2.4250 1.2611 1.4968 220.21 0.42070 6.5323 0.012426
-31.625 22.823 0.060181 146.29 149.16 0.81088 568.58 0.0017588 123.95 124.23 0.70767 1.4735 2.2970 1092.3 -0.0046587 174.97 0.12313 3.6410 0.27465 495.24 538.46 2.4227 1.2659 1.5031 220.36 0.41629 6.5587 0.012519
-30.625 23.749 0.062461 149.36 152.33 0.82354 567.39 0.0017625 126.24 126.53 0.71714 1.4762 2.3021 1085.8 -0.0046107 173.09 0.12256 3.7787 0.26464 496.31 539.64 2.4205 1.2706 1.5094 220.51 0.41196 6.5850 0.012612
-29.625 24.703 0.064806 152.44 155.54 0.83624 566.19 0.0017662 128.54 128.84 0.72660 1.4790 2.3074 1079.3 -0.0045619 171.24 0.12200 3.9205 0.25507 497.38 540.83 2.4184 1.2754 1.5157 220.65 0.40772 6.6114 0.012706
-28.625 25.687 0.067220 155.56 158.78 0.84899 564.99 0.0017699 130.84 131.16 0.73604 1.4818 2.3126 1072.8 -0.0045124 169.42 0.12143 4.0663 0.24592 498.46 542.01 2.4162 1.2802 1.5222 220.79 0.40356 6.6378 0.012800
-27.625 26.700 0.069703 158.69 162.04 0.86178 563.78 0.0017737 133.15 133.48 0.74547 1.4846 2.3180 1066.2 -0.0044621 167.62 0.12087 4.2163 0.23717 499.53 543.19 2.4142 1.2850 1.5286 220.91 0.39947 6.6642 0.012894
-26.625 27.743 0.072256 161.85 165.33 0.87462 562.57 0.0017775 135.47 135.81 0.75487 1.4874 2.3234 1059.7 -0.0044111 165.84 0.12031 4.3705 0.22881 500.60 544.37 2.4122 1.2899 1.5352 221.03 0.39547 6.6906 0.012989
-25.625 28.817 0.074881 165.03 168.64 0.88751 561.36 0.0017814 137.78 138.14 0.76426 1.4902 2.3289 1053.2 -0.0043593 164.09 0.11975 4.5290 0.22080 501.68 545.55 2.4102 1.2947 1.5418 221.14 0.39154 6.7171 0.013084
-24.625 29.923 0.077580 168.24 171.99 0.90044 560.14 0.0017853 140.11 140.48 0.77363 1.4931 2.3344 1046.7 -0.0043067 162.36 0.11919 4.6918 0.21314 502.75 546.72 2.4083 1.2996 1.5485 221.25 0.38768 6.7436 0.013180
-23.625 31.061 0.080353 171.47 175.37 0.91343 558.92 0.0017892 142.44 142.82 0.78298 1.4960 2.3400 1040.1 -0.0042533 160.65 0.11863 4.8592 0.20580 503.82 547.90 2.4064 1.3045 1.5552 221.35 0.38391 6.7701 0.013277
-22.625 32.232 0.083203 174.73 178.77 0.92646 557.69 0.0017931 144.77 145.17 0.79232 1.4990 2.3457 1033.6 -0.0041990 158.97 0.11807 5.0311 0.19877 504.90 549.07 2.4045 1.3095 1.5621 221.44 0.38020 6.7967 0.013374
-21.625 33.435 0.086131 178.02 182.21 0.93955 556.46 0.0017971 147.11 147.52 0.80164 1.5019 2.3514 1027.1 -0.0041439 157.30 0.11752 5.2076 0.19203 505.97 550.24 2.4027 1.3144 1.5690 221.52 0.37656 6.8232 0.013471
-20.625 34.673 0.089139 181.33 185.68 0.95268 555.23 0.0018011 149.45 149.88 0.81095 1.5049 2.3572 1020.6 -0.0040879 155.66 0.11697 5.3889 0.18557 507.04 551.40 2.4010 1.3194 1.5759 221.59 0.37300 6.8499 0.013569
-19.625 35.946 0.092228 184.67 189.17 0.96587 553.99 0.0018051 151.80 152.25 0.82024 1.5079 2.3630 1014.0 -0.0040311 154.04 0.11642 5.5750 0.17937 508.11 552.57 2.3992 1.3244 1.5829 221.66 0.36950 6.8765 0.013668
-18.625 37.253 0.095400 188.03 192.70 0.97911 552.74 0.0018092 154.16 154.62 0.82952 1.5109 2.3689 1007.5 -0.0039733 152.44 0.11587 5.7660 0.17343 509.19 553.73 2.3976 1.3294 1.5901 221.72 0.36608 6.9032 0.013767
-17.625 38.596 0.098657 191.42 196.26 0.99240 551.49 0.0018133 156.52 157.00 0.83878 1.5140 2.3749 1001.0 -0.0039145 150.86 0.11532 5.9621 0.16773 510.26 554.89 2.3959 1.3345 1.5972 221.77 0.36272 6.9300 0.013867
-16.625 39.976 0.10200 194.84 199.85 1.0058 550.24 0.0018174 158.89 159.39 0.84803 1.5171 2.3810 994.44 -0.0038549 149.29 0.11478 6.1632 0.16225 511.33 556.05 2.3943 1.3395 1.6045 221.81 0.35942 6.9568 0.013968
-15.625 41.392 0.10543 198.28 203.47 1.0192 548.98 0.0018216 161.26 161.78 0.85726 1.5202 2.3871 987.91 -0.0037942 147.75 0.11423 6.3696 0.15700 512.40 557.20 2.3927 1.3446 1.6119 221.85 0.35619 6.9836 0.014069
-14.625 42.846 0.10895 201.75 207.12 1.0326 547.71 0.0018258 163.64 164.18 0.86649 1.5233 2.3933 981.37 -0.0037325 146.22 0.11369 6.5812 0.15195 513.47 558.36 2.3912 1.3497 1.6193 221.87 0.35302 7.0105 0.014170
-13.625 44.338 0.11256 205.25 210.81 1.0461 546.44 0.0018300 166.02 166.58 0.87569 1.5264 2.3996 974.83 -0.0036698 144.72 0.11315 6.7983 0.14710 514.54 559.51 2.3897 1.3549 1.6268 221.89 0.34992 7.0375 0.014273
-12.625 45.870 0.11627 208.78 214.53 1.0597 545.17 0.0018343 168.41 168.99 0.88489 1.5296 2.4059 968.29 -0.0036061 143.23 0.11261 7.0208 0.14243 515.61 560.65 2.3883 1.3600 1.6344 221.90 0.34688 7.0646 0.014376
-11.625 47.440 0.12007 212.34 218.28 1.0733 543.89 0.0018386 170.81 171.41 0.89407 1.5328 2.4124 961.75 -0.0035413 141.76 0.11208 7.2490 0.13795 516.68 561.80 2.3868 1.3652 1.6421 221.91 0.34389 7.0917 0.014479
-10.625 49.051 0.12397 215.92 222.07 1.0870 542.60 0.0018430 173.21 173.83 0.90324 1.5360 2.4189 955.20 -0.0034753 140.30 0.11154 7.4829 0.13364 517.75 562.94 2.3854 1.3704 1.6498 221.90 0.34097 7.1188 0.014584
-9.6250 50.703 0.12797 219.53 225.89 1.1007 541.31 0.0018474 175.61 176.26 0.91240 1.5393 2.4255 948.65 -0.0034082 138.86 0.11101 7.7226 0.12949 518.81 564.08 2.3841 1.3757 1.6577 221.88 0.33810 7.1461 0.014689
-8.6250 52.396 0.13207 223.18 229.74 1.1145 540.02 0.0018518 178.03 178.70 0.92154 1.5426 2.4321 942.10 -0.0033400 137.44 0.11048 7.9683 0.12550 519.88 565.21 2.3827 1.3809 1.6657 221.86 0.33529 7.1734 0.014795
-7.6250 54.131 0.13628 226.85 233.63 1.1284 538.72 0.0018563 180.45 181.14 0.93068 1.5459 2.4389 935.55 -0.0032705 136.03 0.10995 8.2200 0.12165 520.94 566.35 2.3814 1.3862 1.6737 221.83 0.33254 7.2008 0.014902
-6.6250 55.909 0.14059 230.55 237.56 1.1423 537.41 0.0018608 182.87 183.59 0.93980 1.5492 2.4457 928.99 -0.0031998 134.64 0.10942 8.4779 0.11795 522.01 567.48 2.3801 1.3915 1.6819 221.79 0.32984 7.2284 0.015009
-5.6250 57.730 0.14500 234.28 241.52 1.1563 536.10 0.0018653 185.30 186.05 0.94892 1.5525 2.4526 922.43 -0.0031279 133.27 0.10889 8.7420 0.11439 523.07 568.60 2.3789 1.3969 1.6902 221.74 0.32720 7.2560 0.015117
-4.6250 59.595 0.14953 238.04 245.51 1.1703 534.78 0.0018699 187.74 188.51 0.95802 1.5559 2.4596 915.87 -0.0030546 131.91 0.10837 9.0126 0.11096 524.13 569.72 2.3777 1.4022 1.6985 221.68 0.32461 7.2837 0.015226
-3.6250 61.505 0.15417 241.84 249.55 1.1844 533.45 0.0018746 190.19 190.98 0.96711 1.5593 2.4667 909.30 -0.0029800 130.56 0.10785 9.2896 0.10765 525.19 570.84 2.3765 1.4076 1.7070 221.62 0.32207 7.3115 0.015336
-2.6250 63.461 0.15893 245.66 253.61 1.1986 532.12 0.0018793 192.64 193.46 0.97620 1.5627 2.4739 902.73 -0.0029041 129.23 0.10733 9.5733 0.10446 526.25 571.96 2.3753 1.4131 1.7156 221.54 0.31958 7.3394 0.015447
-1.6250 65.462 0.16380 249.51 257.72 1.2128 530.78 0.0018840 195.10 195.95 0.98527 1.5662 2.4811 896.16 -0.0028267 127.91 0.10681 9.8638 0.10138 527.31 573.07 2.3742 1.4185 1.7243 221.45 0.31715 7.3674 0.015559
-0.62500 67.510 0.16879 253.40 261.86 1.2271 529.44 0.0018888 197.56 198.44 0.99434 1.5696 2.4885 889.58 -0.0027478 126.61 0.10629 10.161 0.098414 528.37 574.18 2.3731 1.4240 1.7331 221.36 0.31476 7.3956 0.015671
0.37500 69.606 0.17391 257.31 266.04 1.2414 528.09 0.0018936 200.03 200.94 1.0034 1.5731 2.4960 883.00 -0.0026675 125.32 0.10578 10.466 0.095552 529.42 575.28 2.3720 1.4295 1.7421 221.26 0.31242 7.4239 0.015785
1.3750 71.749 0.17915 261.26 270.26 1.2558 526.73 0.0018985 202.51 203.45 1.0124 1.5767 2.5035 876.42 -0.0025856 124.04 0.10527 10.777 0.092790 530.48 576.38 2.3709 1.4350 1.7512 221.14 0.31013 7.4523 0.015899
2.3750 73.941 0.18452 265.24 274.51 1.2703 525.37 0.0019034 204.99 205.96 1.0215 1.5802 2.5112 869.83 -0.0025022 122.78 0.10476 11.096 0.090123 531.53 577.47 2.3699 1.4406 1.7604 221.02 0.30789 7.4808 0.016015
3.3750 76.183 0.19002 269.26 278.81 1.2848 523.99 0.0019084 207.48 208.48 1.0305 1.5838 2.5190 863.24 -0.0024171 121.53 0.10425 11.422 0.087549 532.58 578.56 2.3688 1.4462 1.7697 220.89 0.30569 7.5095 0.016131
4.3750 78.475 0.19565 273.30 283.14 1.2994 522.62 0.0019134 209.98 211.01 1.0395 1.5874 2.5268 856.64 -0.0023303 120.29 0.10374 11.756 0.085062 533.63 579.65 2.3678 1.4518 1.7792 220.75 0.30354 7.5384 0.016249
5.3750 80.817 0.20142 277.38 287.51 1.3141 521.23 0.0019185 212.48 213.55 1.0486 1.5910 2.5348 850.04 -0.0022417 119.06 0.10324 12.098 0.082660 534.67 580.73 2.3669 1.4575 1.7888 220.60 0.30144 7.5674 0.016368
6.3750 83.211 0.20733 281.49 291.92 1.3288 519.84 0.0019237 215.00 216.10 1.0576 1.5946 2.5429 843.43 -0.0021514 117.85 0.10273 12.447 0.080340 535.72 581.81 2.3659 1.4632 1.7986 220.44 0.29938 7.5966 0.016487
7.3750 85.657 0.21338 285.64 296.37 1.3436 518.44 0.0019289 217.51 218.65 1.0666 1.5983 2.5511 836.82 -0.0020593 116.65 0.10223 12.805 0.078096 536.76 582.88 2.3650 1.4689 1.8085 220.27 0.29736 7.6259 0.016608
8.3750 88.156 0.21958 289.81 300.87 1.3585 517.03 0.0019341 220.04 221.22 1.0756 1.6020 2.5595 830.20 -0.0019652 115.46 0.10173 13.170 0.075928 537.80 583.95 2.3640 1.4746 1.8186 220.08 0.29538 7.6555 0.016730
9.3750 90.708 0.22593 294.03 305.40 1.3734 515.62 0.0019394 222.57 223.79 1.0846 1.6057 2.5679 823.58 -0.0018691 114.28 0.10124 13.545 0.073830 538.84 585.01 2.3631 1.4804 1.8288 219.89 0.29345 7.6852 0.016853
10.375 93.315 0.23243 298.27 309.97 1.3884 514.19 0.0019448 225.11 226.37 1.0936 1.6095 2.5765 816.96 -0.0017710 113.11 0.10074 13.927 0.071802 539.87 586.07 2.3622 1.4863 1.8392 219.69 0.29156 7.7151 0.016978
11.375 95.977 0.23909 302.55 314.59 1.4035 512.76 0.0019502 227.66 228.95 1.1025 1.6132 2.5852 810.32 -0.0016708 111.95 0.10025 14.319 0.069840 540.90 587.12 2.3614 1.4921 1.8498 219.48 0.28971 7.7452 0.017103
12.375 98.694 0.24591 306.87 319.24 1.4187 511.32 0.0019557 230.22 231.55 1.1115 1.6170 2.5940 803.68 -0.0015685 110.80 0.099756 14.719 0.067941 541.93 588.17 2.3605 1.4980 1.8605 219.26 0.28790 7.7756 0.017230
13.375 101.47 0.25289 311.22 323.94 1.4339 509.87 0.0019613 232.78 234.15 1.1205 1.6208 2.6030 797.04 -0.0014639 109.67 0.099267 15.128 0.066103 542.96 589.21 2.3597 1.5040 1.8715 219.03 0.28612 7.8061 0.017359
14.375 104.30 0.26004 315.61 328.68 1.4492 508.42 0.0019669 235.35 236.77 1.1295 1.6247 2.6121 790.39 -0.0013569 108.54 0.098779 15.547 0.064323 543.99 590.24 2.3588 1.5099 1.8826 218.79 0.28439 7.8369 0.017488
15.375 107.19 0.26736 320.03 333.47 1.4645 506.95 0.0019726 237.93 239.39 1.1384 1.6286 2.6214 783.73 -0.0012476 107.43 0.098294 15.974 0.062600 545.01 591.27 2.3580 1.5159 1.8940 218.53 0.28270 7.8680 0.017619
16.375 110.13 0.27486 324.49 338.30 1.4799 505.48 0.0019783 240.52 242.02 1.1474 1.6324 2.6308 777.07 -0.0011357 106.32 0.097810 16.412 0.060931 546.03 592.29 2.3572 1.5220 1.9055 218.27 0.28104 7.8993 0.017752
17.375 113.14 0.28254 328.98 343.17 1.4954 504.00 0.0019841 243.11 244.66 1.1564 1.6364 2.6403 770.40 -0.0010213 105.22 0.097328 16.859 0.059314 547.04 593.31 2.3564 1.5281 1.9172 217.99 0.27942 7.9308 0.017886
18.375 116.21 0.29040 333.51 348.08 1.5110 502.50 0.0019900 245.72 247.31 1.1653 1.6403 2.6501 763.72 -0.00090422 104.14 0.096848 17.317 0.057747 548.05 594.32 2.3557 1.5342 1.9292 217.71 0.27783 7.9626 0.018021
19.375 119.33 0.29845 338.08 353.04 1.5266 501.00 0.0019960 248.33 249.97 1.1743 1.6443 2.6599 757.04 -0.00078435 103.06 0.096371 17.785 0.056228 549.06 595.33 2.3549 1.5404 1.9414 217.41 0.27628 7.9947 0.018159
20.375 122.52 0.30670 342.69 358.05 1.5424 499.49 0.0020020 250.95 252.64 1.1832 1.6483 2.6700 750.35 -0.00066161 101.99 0.095895 18.263 0.054756 550.07 596.32 2.3541 1.5466 1.9538 217.10 0.27477 8.0272 0.018297
21.375 125.77 0.31515 347.33 363.10 1.5581 497.97 0.0020082 253.57 255.32 1.1922 1.6523 2.6802 743.64 -0.00053589 100.93 0.095420 18.752 0.053328 551.07 597.31 2.3534 1.5528 1.9665 216.78 0.27329 8.0599 0.018438
22.375 129.08 0.32381 352.01 368.19 1.5740 496.43 0.0020144 256.21 258.00 1.2012 1.6563 2.6906 736.94 -0.00040708 99.877 0.094948 19.252 0.051943 552.07 598.30 2.3526 1.5591 1.9795 216.45 0.27184 8.0929 0.018580
23.375 132.46 0.33268 356.73 373.33 1.5900 494.89 0.0020206 258.86 260.70 1.2101 1.6604 2.7012 730.22 -0.00027505 98.834 0.094478 19.763 0.050600 553.06 599.27 2.3519 1.5655 1.9927 216.11 0.27043 8.1263 0.018724
24.375 135.90 0.34176 361.49 378.52 1.6060 493.34 0.0020270 261.51 263.41 1.2191 1.6645 2.7120 723.49 -0.00013968 97.800 0.094009 20.285 0.049297 554.05 600.24 2.3512 1.5718 2.0061 215.75 0.26906 8.1600 0.018870
25.375 139.41 0.35106 366.28 383.76 1.6221 491.77 0.0020335 264.17 266.13 1.2280 1.6686 2.7230 716.76 -8.3775e-07 96.773 0.093543 20.820 0.048032 555.03 601.20 2.3504 1.5783 2.0199 215.39 0.26771 8.1941 0.019017
26.375 142.98 0.36060 371.12 389.04 1.6382 490.20 0.0020400 266.84 268.85 1.2370 1.6728 2.7342 710.01 0.00014161 95.755 0.093078 21.366 0.046804 556.01 602.15 2.3497 1.5847 2.0340 215.01 0.26640 8.2286 0.019167
27.375 146.62 0.37037 375.99 394.37 1.6545 488.61 0.0020466 269.52 271.59 1.2459 1.6770 2.7456 703.26 0.00028782 94.745 0.092615 21.924 0.045612 556.99 603.10 2.3490 1.5913 2.0484 214.62 0.26512 8.2634 0.019319
28.375 150.33 0.38039 380.91 399.75 1.6708 487.01 0.0020533 272.21 274.34 1.2549 1.6812 2.7573 696.49 0.00043793 93.742 0.092154 22.495 0.044454 557.96 604.03 2.3483 1.5978 2.0631 214.21 0.26387 8.2987 0.019472
29.375 154.10 0.39065 385.86 405.18 1.6872 485.40 0.0020601 274.91 277.10 1.2638 1.6854 2.7691 689.72 0.00059212 92.747 0.091695 23.079 0.043329 558.92 604.96 2.3476 1.6044 2.0781 213.80 0.26265 8.3344 0.019628
30.375 157.94 0.40117 390.86 410.66 1.7037 483.78 0.0020671 277.62 279.87 1.2728 1.6897 2.7813 682.93 0.00075055 91.760 0.091238 23.676 0.042237 559.88 605.88 2.3469 1.6111 2.0935 213.37 0.26147 8.3705 0.019786
31.375 161.86 0.41195 395.89 416.18 1.7203 482.15 0.0020741 280.34 282.66 1.2818 1.6939 2.7936 676.13 0.00091340 90.779 0.090782 24.287 0.041175 560.84 606.79 2.3462 1.6178 2.1092 212.93 0.26031 8.4071 0.019947
32.375 165.84 0.42301 400.97 421.76 1.7369 480.50 0.0020812 283.07 285.45 1.2908 1.6983 2.8063 669.32 0.0010809 89.806 0.090328 24.911 0.040143 561.79 607.69 2.3455 1.6246 2.1254 212.48 0.25919 8.4442 0.020110
33.375 169.90 0.43435 406.09 427.39 1.7536 478.83 0.0020884 285.81 288.26 1.2997 1.7026 2.8192 662.50 0.0012532 88.840 0.089876 25.549 0.039140 562.73 608.58 2.3448 1.6314 2.1419 212.01 0.25809 8.4818 0.020275
34.375 174.02 0.44598 411.25 433.07 1.7705 477.16 0.0020957 288.56 291.07 1.3087 1.7070 2.8324 655.67 0.0014305 87.880 0.089426 26.202 0.038164 563.67 609.46 2.3440 1.6383 2.1589 211.53 0.25702 8.5199 0.020443
35.375 178.22 0.45792 416.46 438.80 1.7873 475.47 0.0021032 291.32 293.90 1.3177 1.7114 2.8459 648.82 0.0016131 86.927 0.088977 26.870 0.037216 564.60 610.33 2.3433 1.6452 2.1763 211.04 0.25599 8.5586 0.020613
36.375 182.50 0.47016 421.71 444.58 1.8043 473.77 0.0021107 294.09 296.74 1.3267 1.7158 2.8597 641.96 0.0018012 85.980 0.088531 27.553 0.036293 565.52 611.19 2.3426 1.6522 2.1942 210.53 0.25498 8.5978 0.020786
37.375 186.84 0.48272 427.00 450.42 1.8214 472.05 0.0021184 296.87 299.60 1.3357 1.7203 2.8739 635.08 0.0019950 85.040 0.088085 28.252 0.035395 566.44 612.04 2.3419 1.6592 2.2125 210.01 0.25400 8.6376 0.020962
38.375 191.27 0.49561 432.33 456.31 1.8385 470.31 0.0021262 299.66 302.46 1.3447 1.7248 2.8884 628.19 0.0021949 84.105 0.087642 28.967 0.034522 567.35 612.88 2.3411 1.6663 2.2314 209.47 0.25305 8.6780 0.021141
39.375 195.77 0.50885 437.71 462.25 1.8558 468.56 0.0021342 302.46 305.34 1.3537 1.7293 2.9033 621.29 0.0024011 83.177 0.087200 29.699 0.033671 568.26 613.70 2.3404 1.6734 2.2508 208.92 0.25213 8.7190 0.021323
40.375 200.34 0.52244 443.13 468.25 1.8731 466.80 0.0021423 305.27 308.23 1.3627 1.7339 2.9185 614.37 0.0026140 82.254 0.086760 30.447 0.032844 569.15 614.52 2.3396 1.6806 2.2708 208.36 0.25123 8.7608 0.021508
41.375 205.00 0.53640 448.60 474.30 1.8905 465.01 0.0021505 308.10 311.14 1.3718 1.7385 2.9342 607.43 0.0028338 81.338 0.086322 31.214 0.032037 570.04 615.32 2.3389 1.6879 2.2913 207.78 0.25037 8.8032 0.021696
42.375 209.73 0.55074 454.12 480.41 1.9080 463.21 0.0021588 310.94 314.06 1.3808 1.7432 2.9502 600.47 0.0030609 80.426 0.085885 31.998 0.031252 570.92 616.11 2.3381 1.6952 2.3125 207.19 0.24953 8.8463 0.021888
43.375 214.54 0.56548 459.68 486.58 1.9256 461.40 0.0021673 313.79 316.99 1.3899 1.7478 2.9667 593.50 0.0032957 79.520 0.085449 32.800 0.030488 571.79 616.88 2.3373 1.7027 2.3344 206.58 0.24871 8.8902 0.022084
44.375 219.43 0.58063 465.29 492.80 1.9433 459.56 0.0021760 316.65 319.94 1.3989 1.7525 2.9837 586.51 0.0035386 78.619 0.085015 33.622 0.029742 572.65 617.65 2.3365 1.7101 2.3569 205.96 0.24793 8.9349 0.022283
45.375 224.41 0.59620 470.94 499.08 1.9611 457.71 0.0021848 319.52 322.90 1.4080 1.7573 3.0012 579.50 0.0037900 77.723 0.084583 34.463 0.029016 573.50 618.40 2.3357 1.7177 2.3802 205.32 0.24717 8.9805 0.022485
46.375 229.46 0.61223 476.65 505.41 1.9790 455.83 0.0021938 322.41 325.88 1.4171 1.7621 3.0192 572.46 0.0040504 76.832 0.084152 35.325 0.028308 574.34 619.13 2.3349 1.7253 2.4042 204.67 0.24644 9.0269 0.022692
47.375 234.60 0.62871 482.40 511.81 1.9970 453.94 0.0022029 325.31 328.87 1.4262 1.7669 3.0377 565.41 0.0043202 75.946 0.083723 36.208 0.027618 575.17 619.85 2.3340 1.7329 2.4291 204.00 0.24573 9.0742 0.022903
48.375 239.83 0.64568 488.20 518.27 2.0150 452.03 0.0022123 328.22 331.88 1.4353 1.7718 3.0569 558.34 0.0046000 75.064 0.083295 37.112 0.026945 576.00 620.55 2.3332 1.7407 2.4548 203.31 0.24505 9.1224 0.023119
49.375 245.13 0.66315 494.06 524.79 2.0332 450.09 0.0022218 331.15 334.90 1.4445 1.7767 3.0766 551.24 0.0048904 74.186 0.082868 38.039 0.026289 576.81 621.24 2.3323 1.7485 2.4815 202.61 0.24440 9.1716 0.023339
50.375 250.53 0.68114 499.96 531.36 2.0515 448.13 0.0022315 334.09 337.94 1.4536 1.7817 3.0970 544.13 0.0051920 73.313 0.082442 38.989 0.025648 577.61 621.91 2.3314 1.7564 2.5092 201.89 0.24377 9.2219 0.023564
51.375 256.01 0.69969 505.91 538.01 2.0699 446.15 0.0022414 337.04 341.00 1.4628 1.7867 3.1181 536.98 0.0055054 72.443 0.082018 39.962 0.025024 578.39 622.56 2.3304 1.7644 2.5379 201.16 0.24317 9.2733 0.023794
52.375 261.57 0.71881 511.92 544.71 2.0883 444.15 0.0022515 340.01 344.07 1.4720 1.7918 3.1400 529.82 0.0058313 71.577 0.081595 40.961 0.024414 579.17 623.20 2.3295 1.7724 2.5677 200.41 0.24260 9.3258 0.024029
53.375 267.23 0.73853 517.98 551.48 2.1069 442.12 0.0022618 343.00 347.17 1.4812 1.7969 3.1627 522.62 0.0061705 70.715 0.081174 41.985 0.023818 579.93 623.81 2.3285 1.7805 2.5987 199.63 0.24205 9.3795 0.024270
54.375 272.97 0.75889 524.09 558.31 2.1256 440.06 0.0022724 346.00 350.28 1.4904 1.8021 3.1862 515.40 0.0065239 69.856 0.080753 43.036 0.023237 580.68 624.41 2.3274 1.7887 2.6310 198.85 0.24154 9.4344 0.024516
55.375 278.81 0.77990 530.26 565.21 2.1444 437.98 0.0022832 349.02 353.40 1.4997 1.8073 3.2106 508.15 0.0068923 69.001 0.080334 44.114 0.022669 581.41 624.99 2.3264 1.7969 2.6646 198.04 0.24105 9.4907 0.024769
56.375 284.74 0.80161 536.48 572.18 2.1633 435.87 0.0022943 352.05 356.55 1.5090 1.8126 3.2360 500.87 0.0072767 68.148 0.079915 45.221 0.022114 582.13 625.54 2.3253 1.8052 2.6998 197.22 0.24059 9.5484 0.025028
57.375 290.76 0.82406 542.76 579.21 2.1824 433.73 0.0023056 355.10 359.72 1.5183 1.8179 3.2624 493.56 0.0076782 67.299 0.079498 46.358 0.021571 582.83 626.07 2.3241 1.8136 2.7365 196.37 0.24016 9.6075 0.025294
58.375 296.87 0.84728 549.10 586.32 2.2015 431.56 0.0023172 358.17 362.91 1.5276 1.8233 3.2900 486.22 0.0080980 66.451 0.079082 47.525 0.021041 583.52 626.58 2.3230 1.8220 2.7749 195.51 0.23976 9.6682 0.025568
59.375 303.08 0.87132 555.50 593.49 2.2208 429.36 0.0023290 361.25 366.12 1.5370 1.8288 3.3188 478.84 0.0085373 65.606 0.078666 48.726 0.020523 584.18 627.07 2.3218 1.8305 2.8152 194.63 0.23939 9.7305 0.025849
60.375 309.38 0.89622 561.95 600.73 2.2402 427.13 0.0023412 364.36 369.35 1.5464 1.8343 3.3489 471.43 0.0089976 64.763 0.078251 49.960 0.020016 584.83 627.53 2.3205 1.8391 2.8576 193.73 0.23905 9.7945 0.026138
61.375 315.78 0.92203 568.47 608.05 2.2597 424.87 0.0023537 367.48 372.60 1.5558 1.8400 3.3805 463.99 0.0094803 63.922 0.077838 51.229 0.019520 585.46 627.96 2.3192 1.8479 2.9022 192.82 0.23873 9.8603 0.026436
62.375 322.28 0.94881 575.04 615.44 2.2793 422.56 0.0023665 370.62 375.88 1.5653 1.8457 3.4136 456.50 0.0099871 63.083 0.077425 52.535 0.019035 586.07 628.37 2.3178 1.8567 2.9492 191.88 0.23845 9.9281 0.026744
63.375 328.88 0.97663 581.68 622.91 2.2991 420.22 0.0023797 373.79 379.18 1.5748 1.8514 3.4483 448.97 0.010520 62.244 0.077012 53.879 0.018560 586.66 628.74 2.3164 1.8656 2.9989 190.92 0.23819 9.9979 0.027061
64.375 334.72 undefined 587.47 629.43 2.3162 55.000 0.018182 587.47 629.43 2.3162 1.8730 3.0368 190.29 0.23731 10.062 0.027345 55.000 0.018182 587.47 629.43 2.3162 1.8730 3.0368 190.29 0.23731 10.062 0.027345
65.375 336.93 undefined 589.35 631.58 2.3218 55.000 0.018182 589.35 631.58 2.3218 1.8735 3.0129 191.13 0.23372 10.094 0.027443 55.000 0.018182 589.35 631.58 2.3218 1.8735 3.0129 191.13 0.23372 10.094 0.027443
66.375 339.14 undefined 591.22 633.73 2.3273 55.000 0.018182 591.22 633.73 2.3273 1.8742 2.9904 191.96 0.23022 10.126 0.027543 55.000 0.018182 591.22 633.73 2.3273 1.8742 2.9904 191.96 0.23022 10.126 0.027543
67.375 341.33 undefined 593.09 635.88 2.3328 55.000 0.018182 593.09 635.88 2.3328 1.8751 2.9692 192.78 0.22680 10.157 0.027645 55.000 0.018182 593.09 635.88 2.3328 1.8751 2.9692 192.78 0.22680 10.157 0.027645
68.375 343.52 undefined 594.97 638.03 2.3383 55.000 0.018182 594.97 638.03 2.3383 1.8761 2.9492 193.59 0.22347 10.189 0.027748 55.000 0.018182 594.97 638.03 2.3383 1.8761 2.9492 193.59 0.22347 10.189 0.027748
69.375 345.70 undefined 596.85 640.18 2.3438 55.000 0.018182 596.85 640.18 2.3438 1.8772 2.9303 194.40 0.22022 10.221 0.027854 55.000 0.018182 596.85 640.18 2.3438 1.8772 2.9303 194.40 0.22022 10.221 0.027854
70.375 347.87 undefined 598.72 642.33 2.3493 55.000 0.018182 598.72 642.33 2.3493 1.8785 2.9124 195.20 0.21705 10.252 0.027961 55.000 0.018182 598.72 642.33 2.3493 1.8785 2.9124 195.20 0.21705 10.252 0.027961
71.375 350.04 undefined 600.60 644.48 2.3547 55.000 0.018182 600.60 644.48 2.3547 1.8799 2.8954 196.00 0.21395 10.284 0.028069 55.000 0.018182 600.60 644.48 2.3547 1.8799 2.8954 196.00 0.21395 10.284 0.028069
72.375 352.20 undefined 602.48 646.63 2.3602 55.000 0.018182 602.48 646.63 2.3602 1.8814 2.8793 196.79 0.21092 10.316 0.028179 55.000 0.018182 602.48 646.63 2.3602 1.8814 2.8793 196.79 0.21092 10.316 0.028179
73.375 354.35 undefined 604.37 648.79 2.3656 55.000 0.018182 604.37 648.79 2.3656 1.8829 2.8640 197.58 0.20797 10.347 0.028290 55.000 0.018182 604.37 648.79 2.3656 1.8829 2.8640 197.58 0.20797 10.347 0.028290
74.375 356.50 undefined 606.25 650.94 2.3711 55.000 0.018182 606.25 650.94 2.3711 1.8845 2.8494 198.36 0.20509 10.379 0.028403 55.000 0.018182 606.25 650.94 2.3711 1.8845 2.8494 198.36 0.20509 10.379 0.028403
75.375 358.64 undefined 608.14 653.09 2.3765 55.000 0.018182 608.14 653.09 2.3765 1.8862 2.8356 199.13 0.20227 10.410 0.028517 55.000 0.018182 608.14 653.09 2.3765 1.8862 2.8356 199.13 0.20227 10.410 0.028517
76.375 360.77 undefined 610.02 655.25 2.3819 55.000 0.018182 610.02 655.25 2.3819 1.8880 2.8225 199.90 0.19952 10.441 0.028632 55.000 0.018182 610.02 655.25 2.3819 1.8880 2.8225 199.90 0.19952 10.441 0.028632
77.375 362.90 undefined 611.91 657.40 2.3873 55.000 0.018182 611.91 657.40 2.3873 1.8898 2.8099 200.66 0.19684 10.473 0.028748 55.000 0.018182 611.91 657.40 2.3873 1.8898 2.8099 200.66 0.19684 10.473 0.028748
78.375 365.03 undefined 613.80 659.56 2.3927 55.000 0.018182 613.80 659.56 2.3927 1.8916 2.7980 201.42 0.19421 10.504 0.028865 55.000 0.018182 613.80 659.56 2.3927 1.8916 2.7980 201.42 0.19421 10.504 0.028865
79.375 367.15 undefined 615.69 661.72 2.3980 55.000 0.018182 615.69 661.72 2.3980 1.8935 2.7867 202.18 0.19165 10.535 0.028983 55.000 0.018182 615.69 661.72 2.3980 1.8935 2.7867 202.18 0.19165 10.535 0.028983
80.375 369.26 undefined 617.59 663.88 2.4034 55.000 0.018182 617.59 663.88 2.4034 1.8955 2.7759 202.93 0.18915 10.567 0.029103 55.000 0.018182 617.59 663.88 2.4034 1.8955 2.7759 202.93 0.18915 10.567 0.029103
81.375 371.37 undefined 619.49 666.04 2.4088 55.000 0.018182 619.49 666.04 2.4088 1.8975 2.7656 203.68 0.18670 10.598 0.029223 55.000 0.018182 619.49 666.04 2.4088 1.8975 2.7656 203.68 0.18670 10.598 0.029223
82.375 373.47 undefined 621.38 668.20 2.4141 55.000 0.018182 621.38 668.20 2.4141 1.8996 2.7558 204.42 0.18430 10.629 0.029344 55.000 0.018182 621.38 668.20 2.4141 1.8996 2.7558 204.42 0.18430 10.629 0.029344
83.375 375.57 undefined 623.28 670.37 2.4195 55.000 0.018182 623.28 670.37 2.4195 1.9017 2.7465 205.16 0.18196 10.660 0.029466 55.000 0.018182 623.28 670.37 2.4195 1.9017 2.7465 205.16 0.18196 10.660 0.029466
84.375 377.66 undefined 625.19 672.53 2.4248 55.000 0.018182 625.19 672.53 2.4248 1.9039 2.7377 205.90 0.17967 10.691 0.029590 55.000 0.018182 625.19 672.53 2.4248 1.9039 2.7377 205.90 0.17967 10.691 0.029590
85.375 379.75 undefined 627.09 674.70 2.4301 55.000 0.018182 627.09 674.70 2.4301 1.9061 2.7292 206.63 0.17742 10.722 0.029713 55.000 0.018182 627.09 674.70 2.4301 1.9061 2.7292 206.63 0.17742 10.722 0.029713
86.375 381.84 undefined 629.00 676.87 2.4354 55.000 0.018182 629.00 676.87 2.4354 1.9084 2.7212 207.35 0.17522 10.753 0.029838 55.000 0.018182 629.00 676.87 2.4354 1.9084 2.7212 207.35 0.17522 10.753 0.029838
87.375 383.92 undefined 630.91 679.04 2.4407 55.000 0.018182 630.91 679.04 2.4407 1.9108 2.7136 208.08 0.17307 10.785 0.029964 55.000 0.018182 630.91 679.04 2.4407 1.9108 2.7136 208.08 0.17307 10.785 0.029964
88.375 385.99 undefined 632.82 681.21 2.4460 55.000 0.018182 632.82 681.21 2.4460 1.9132 2.7064 208.80 0.17096 10.815 0.030090 55.000 0.018182 632.82 681.21 2.4460 1.9132 2.7064 208.80 0.17096 10.815 0.030090
89.375 388.07 undefined 634.74 683.38 2.4513 55.000 0.018182 634.74 683.38 2.4513 1.9156 2.6995 209.52 0.16889 10.846 0.030217 55.000 0.018182 634.74 683.38 2.4513 1.9156 2.6995 209.52 0.16889 10.846 0.030217
90.375 390.14 undefined 636.65 685.56 2.4566 55.000 0.018182 636.65 685.56 2.4566 1.9181 2.6930 210.23 0.16687 10.877 0.030345 55.000 0.018182 636.65 685.56 2.4566 1.9181 2.6930 210.23 0.16687 10.877 0.030345
91.375 392.20 undefined 638.57 687.74 2.4619 55.000 0.018182 638.57 687.74 2.4619 1.9207 2.6868 210.94 0.16488 10.908 0.030474 55.000 0.018182 638.57 687.74 2.4619 1.9207 2.6868 210.94 0.16488 10.908 0.030474
92.375 394.26 undefined 640.49 689.92 2.4671 55.000 0.018182 640.49 689.92 2.4671 1.9233 2.6810 211.64 0.16293 10.939 0.030603 55.000 0.018182 640.49 689.92 2.4671 1.9233 2.6810 211.64 0.16293 10.939 0.030603
93.375 396.32 undefined 642.42 692.10 2.4724 55.000 0.018182 642.42 692.10 2.4724 1.9259 2.6754 212.35 0.16102 10.970 0.030733 55.000 0.018182 642.42 692.10 2.4724 1.9259 2.6754 212.35 0.16102 10.970 0.030733
94.375 398.37 undefined 644.35 694.28 2.4776 55.000 0.018182 644.35 694.28 2.4776 1.9286 2.6701 213.05 0.15914 11.001 0.030863 55.000 0.018182 644.35 694.28 2.4776 1.9286 2.6701 213.05 0.15914 11.001 0.030863
95.375 400.42 undefined 646.28 696.47 2.4829 55.000 0.018182 646.28 696.47 2.4829 1.9313 2.6651 213.74 0.15730 11.031 0.030995 55.000 0.018182 646.28 696.47 2.4829 1.9313 2.6651 213.74 0.15730 11.031 0.030995
96.375 402.47 undefined 648.21 698.66 2.4881 55.000 0.018182 648.21 698.66 2.4881 1.9341 2.6603 214.44 0.15549 11.062 0.031127 55.000 0.018182 648.21 698.66 2.4881 1.9341 2.6603 214.44 0.15549 11.062 0.031127
97.375 404.51 undefined 650.14 700.85 2.4933 55.000 0.018182 650.14 700.85 2.4933 1.9369 2.6558 215.13 0.15372 11.093 0.031259 55.000 0.018182 650.14 700.85 2.4933 1.9369 2.6558 215.13 0.15372 11.093 0.031259
98.375 406.55 undefined 652.08 703.05 2.4986 55.000 0.018182 652.08 703.05 2.4986 1.9398 2.6515 215.81 0.15197 11.123 0.031392 55.000 0.018182 652.08 703.05 2.4986 1.9398 2.6515 215.81 0.15197 11.123 0.031392
99.375 408.59 undefined 654.02 705.24 2.5038 55.000 0.018182 654.02 705.24 2.5038 1.9427 2.6475 216.50 0.15026 11.154 0.031526 55.000 0.018182 654.02 705.24 2.5038 1.9427 2.6475 216.50 0.15026 11.154 0.031526
100.38 410.62 undefined 655.97 707.44 2.5090 55.000 0.018182 655.97 707.44 2.5090 1.9456 2.6436 217.18 0.14858 11.185 0.031660 55.000 0.018182 655.97 707.44 2.5090 1.9456 2.6436 217.18 0.14858 11.185 0.031660
101.38 412.65 undefined 657.91 709.64 2.5142 55.000 0.018182 657.91 709.64 2.5142 1.9485 2.6400 217.85 0.14693 11.215 0.031795 55.000 0.018182 657.91 709.64 2.5142 1.9485 2.6400 217.85 0.14693 11.215 0.031795
102.38 414.68 undefined 659.86 711.85 2.5194 55.000 0.018182 659.86 711.85 2.5194 1.9515 2.6366 218.53 0.14530 11.246 0.031930 55.000 0.018182 659.86 711.85 2.5194 1.9515 2.6366 218.53 0.14530 11.246 0.031930
103.38 416.70 undefined 661.82 714.05 2.5246 55.000 0.018182 661.82 714.05 2.5246 1.9545 2.6333 219.20 0.14371 11.276 0.032066 55.000 0.018182 661.82 714.05 2.5246 1.9545 2.6333 219.20 0.14371 11.276 0.032066
104.38 418.72 undefined 663.77 716.26 2.5298 55.000 0.018182 663.77 716.26 2.5298 1.9576 2.6303 219.87 0.14214 11.307 0.032203 55.000 0.018182 663.77 716.26 2.5298 1.9576 2.6303 219.87 0.14214 11.307 0.032203
105.38 420.74 undefined 665.73 718.48 2.5350 55.000 0.018182 665.73 718.48 2.5350 1.9606 2.6274 220.53 0.14060 11.337 0.032340 55.000 0.018182 665.73 718.48 2.5350 1.9606 2.6274 220.53 0.14060 11.337 0.032340
106.38 422.76 undefined 667.69 720.69 2.5401 55.000 0.018182 667.69 720.69 2.5401 1.9637 2.6247 221.20 0.13908 11.367 0.032477 55.000 0.018182 667.69 720.69 2.5401 1.9637 2.6247 221.20 0.13908 11.367 0.032477
107.38 424.77 undefined 669.66 722.91 2.5453 55.000 0.018182 669.66 722.91 2.5453 1.9668 2.6221 221.86 0.13759 11.398 0.032616 55.000 0.018182 669.66 722.91 2.5453 1.9668 2.6221 221.86 0.13759 11.398 0.032616
108.38 426.78 undefined 671.63 725.13 2.5505 55.000 0.018182 671.63 725.13 2.5505 1.9700 2.6197 222.52 0.13612 11.428 0.032754 55.000 0.018182 671.63 725.13 2.5505 1.9700 2.6197 222.52 0.13612 11.428 0.032754
109.38 428.79 undefined 673.60 727.35 2.5556 55.000 0.018182 673.60 727.35 2.5556 1.9731 2.6175 223.17 0.13468 11.458 0.032893 55.000 0.018182 673.60 727.35 2.5556 1.9731 2.6175 223.17 0.13468 11.458 0.032893
110.38 430.79 undefined 675.57 729.58 2.5608 55.000 0.018182 675.57 729.58 2.5608 1.9763 2.6154 223.82 0.13326 11.488 0.033033 55.000 0.018182 675.57 729.58 2.5608 1.9763 2.6154 223.82 0.13326 11.488 0.033033
111.38 432.79 undefined 677.55 731.81 2.5659 55.000 0.018182 677.55 731.81 2.5659 1.9795 2.6134 224.47 0.13187 11.519 0.033173 55.000 0.018182 677.55 731.81 2.5659 1.9795 2.6134 224.47 0.13187 11.519 0.033173
112.38 434.79 undefined 679.53 734.04 2.5711 55.000 0.018182 679.53 734.04 2.5711 1.9827 2.6116 225.12 0.13049 11.549 0.033313 55.000 0.018182 679.53 734.04 2.5711 1.9827 2.6116 225.12 0.13049 11.549 0.033313
113.38 436.79 undefined 681.52 736.27 2.5762 55.000 0.018182 681.52 736.27 2.5762 1.9859 2.6099 225.76 0.12914 11.579 0.033454 55.000 0.018182 681.52 736.27 2.5762 1.9859 2.6099 225.76 0.12914 11.579 0.033454
114.38 438.79 undefined 683.51 738.51 2.5814 55.000 0.018182 683.51 738.51 2.5814 1.9892 2.6083 226.41 0.12781 11.609 0.033596 55.000 0.018182 683.51 738.51 2.5814 1.9892 2.6083 226.41 0.12781 11.609 0.033596
115.38 440.78 undefined 685.50 740.75 2.5865 55.000 0.018182 685.50 740.75 2.5865 1.9924 2.6069 227.05 0.12650 11.639 0.033738 55.000 0.018182 685.50 740.75 2.5865 1.9924 2.6069 227.05 0.12650 11.639 0.033738
116.38 442.77 undefined 687.49 743.00 2.5916 55.000 0.018182 687.49 743.00 2.5916 1.9957 2.6055 227.68 0.12522 11.669 0.033880 55.000 0.018182 687.49 743.00 2.5916 1.9957 2.6055 227.68 0.12522 11.669 0.033880
117.38 444.76 undefined 689.49 745.24 2.5967 55.000 0.018182 689.49 745.24 2.5967 1.9990 2.6043 228.32 0.12395 11.699 0.034023 55.000 0.018182 689.49 745.24 2.5967 1.9990 2.6043 228.32 0.12395 11.699 0.034023
118.38 446.74 undefined 691.49 747.49 2.6019 55.000 0.018182 691.49 747.49 2.6019 2.0023 2.6032 228.95 0.12270 11.729 0.034166 55.000 0.018182 691.49 747.49 2.6019 2.0023 2.6032 228.95 0.12270 11.729 0.034166
119.38 448.72 undefined 693.49 749.74 2.6070 55.000 0.018182 693.49 749.74 2.6070 2.0056 2.6022 229.58 0.12147 11.759 0.034310 55.000 0.018182 693.49 749.74 2.6070 2.0056 2.6022 229.58 0.12147 11.759 0.034310
120.38 450.71 undefined 695.50 752.00 2.6121 55.000 0.018182 695.50 752.00 2.6121 2.0090 2.6013 230.21 0.12026 11.789 0.034454 55.000 0.018182 695.50 752.00 2.6121 2.0090 2.6013 230.21 0.12026 11.789 0.034454
121.38 452.68 undefined 697.51 754.26 2.6172 55.000 0.018182 697.51 754.26 2.6172 2.0123 2.6004 230.84 0.11907 11.819 0.034598 55.000 0.018182 697.51 754.26 2.6172 2.0123 2.6004 230.84 0.11907 11.819 0.034598
122.38 454.66 undefined 699.52 756.52 2.6223 55.000 0.018182 699.52 756.52 2.6223 2.0157 2.5997 231.46 0.11789 11.849 0.034743 55.000 0.018182 699.52 756.52 2.6223 2.0157 2.5997 231.46 0.11789 11.849 0.034743
123.38 456.64 undefined 701.54 758.79 2.6274 55.000 0.018182 701.54 758.79 2.6274 2.0191 2.5991 232.08 0.11673 11.878 0.034889 55.000 0.018182 701.54 758.79 2.6274 2.0191 2.5991 232.08 0.11673 11.878 0.034889
124.38 458.61 undefined 703.56 761.05 2.6325 55.000 0.018182 703.56 761.05 2.6325 2.0225 2.5986 232.70 0.11559 11.908 0.035035 55.000 0.018182 703.56 761.05 2.6325 2.0225 2.5986 232.70 0.11559 11.908 0.035035
125.38 460.58 undefined 705.59 763.32 2.6376 55.000 0.018182 705.59 763.32 2.6376 2.0259 2.5981 233.32 0.11447 11.938 0.035181 55.000 0.018182 705.59 763.32 2.6376 2.0259 2.5981 233.32 0.11447 11.938 0.035181
126.38 462.55 undefined 707.61 765.60 2.6426 55.000 0.018182 707.61 765.60 2.6426 2.0293 2.5978 233.93 0.11336 11.968 0.035327 55.000 0.018182 707.61 765.60 2.6426 2.0293 2.5978 233.93 0.11336 11.968 0.035327
127.38 464.51 undefined 709.65 767.88 2.6477 55.000 0.018182 709.65 767.88 2.6477 2.0327 2.5975 234.54 0.11227 11.997 0.035474 55.000 0.018182 709.65 767.88 2.6477 2.0327 2.5975 234.54 0.11227 11.997 0.035474
128.38 466.48 undefined 711.68 770.16 2.6528 55.000 0.018182 711.68 770.16 2.6528 2.0361 2.5973 235.15 0.11120 12.027 0.035622 55.000 0.018182 711.68 770.16 2.6528 2.0361 2.5973 235.15 0.11120 12.027 0.035622
129.38 468.44 undefined 713.72 772.44 2.6579 55.000 0.018182 713.72 772.44 2.6579 2.0396 2.5972 235.76 0.11014 12.057 0.035770 55.000 0.018182 713.72 772.44 2.6579 2.0396 2.5972 235.76 0.11014 12.057 0.035770
130.38 470.40 undefined 715.76 774.73 2.6629 55.000 0.018182 715.76 774.73 2.6629 2.0430 2.5972 236.37 0.10909 12.086 0.035918 55.000 0.018182 715.76 774.73 2.6629 2.0430 2.5972 236.37 0.10909 12.086 0.035918
131.38 472.36 undefined 717.80 777.02 2.6680 55.000 0.018182 717.80 777.02 2.6680 2.0465 2.5972 236.97 0.10806 12.116 0.036067 55.000 0.018182 717.80 777.02 2.6680 2.0465 2.5972 236.97 0.10806 12.116 0.036067
132.38 474.32 undefined 719.85 779.31 2.6730 55.000 0.018182 719.85 779.31 2.6730 2.0499 2.5973 237.58 0.10705 12.145 0.036216 55.000 0.018182 719.85 779.31 2.6730 2.0499 2.5973 237.58 0.10705 12.145 0.036216
133.38 476.27 undefined 721.90 781.61 2.6781 55.000 0.018182 721.90 781.61 2.6781 2.0534 2.5975 238.18 0.10605 12.175 0.036365 55.000 0.018182 721.90 781.61 2.6781 2.0534 2.5975 238.18 0.10605 12.175 0.036365
134.38 478.22 undefined 723.96 783.91 2.6831 55.000 0.018182 723.96 783.91 2.6831 2.0569 2.5977 238.78 0.10506 12.204 0.036515 55.000 0.018182 723.96 783.91 2.6831 2.0569 2.5977 238.78 0.10506 12.204 0.036515
135.38 480.18 undefined 726.02 786.21 2.6882 55.000 0.018182 726.02 786.21 2.6882 2.0604 2.5980 239.37 0.10409 12.234 0.036665 55.000 0.018182 726.02 786.21 2.6882 2.0604 2.5980 239.37 0.10409 12.234 0.036665
136.38 482.13 undefined 728.08 788.52 2.6932 55.000 0.018182 728.08 788.52 2.6932 2.0639 2.5984 239.97 0.10313 12.263 0.036816 55.000 0.018182 728.08 788.52 2.6932 2.0639 2.5984 239.97 0.10313 12.263 0.036816
137.38 484.07 undefined 730.15 790.83 2.6983 55.000 0.018182 730.15 790.83 2.6983 2.0674 2.5988 240.56 0.10218 12.292 0.036966 55.000 0.018182 730.15 790.83 2.6983 2.0674 2.5988 240.56 0.10218 12.292 0.036966
138.38 486.02 undefined 732.21 793.14 2.7033 55.000 0.018182 732.21 793.14 2.7033 2.0709 2.5993 241.15 0.10125 12.322 0.037118 55.000 0.018182 732.21 793.14 2.7033 2.0709 2.5993 241.15 0.10125 12.322 0.037118
139.38 487.97 undefined 734.29 795.46 2.7083 55.000 0.018182 734.29 795.46 2.7083 2.0745 2.5999 241.74 0.10033 12.351 0.037269 55.000 0.018182 734.29 795.46 2.7083 2.0745 2.5999 241.74 0.10033 12.351 0.037269
140.38 489.91 undefined 736.36 797.78 2.7134 55.000 0.018182 736.36 797.78 2.7134 2.0780 2.6005 242.33 0.099423 12.380 0.037422 55.000 0.018182 736.36 797.78 2.7134 2.0780 2.6005 242.33 0.099423 12.380 0.037422
141.38 491.85 undefined 738.44 800.10 2.7184 55.000 0.018182 738.44 800.10 2.7184 2.0815 2.6011 242.91 0.098527 12.410 0.037574 55.000 0.018182 738.44 800.10 2.7184 2.0815 2.6011 242.91 0.098527 12.410 0.037574
142.38 493.79 undefined 740.53 802.43 2.7234 55.000 0.018182 740.53 802.43 2.7234 2.0851 2.6018 243.50 0.097644 12.439 0.037727 55.000 0.018182 740.53 802.43 2.7234 2.0851 2.6018 243.50 0.097644 12.439 0.037727
143.38 495.73 undefined 742.61 804.76 2.7284 55.000 0.018182 742.61 804.76 2.7284 2.0886 2.6026 244.08 0.096772 12.468 0.037880 55.000 0.018182 742.61 804.76 2.7284 2.0886 2.6026 244.08 0.096772 12.468 0.037880
144.38 497.67 undefined 744.70 807.09 2.7334 55.000 0.018182 744.70 807.09 2.7334 2.0922 2.6034 244.66 0.095912 12.497 0.038033 55.000 0.018182 744.70 807.09 2.7334 2.0922 2.6034 244.66 0.095912 12.497 0.038033
145.38 499.60 undefined 746.80 809.43 2.7384 55.000 0.018182 746.80 809.43 2.7384 2.0957 2.6043 245.24 0.095063 12.526 0.038187 55.000 0.018182 746.80 809.43 2.7384 2.0957 2.6043 245.24 0.095063 12.526 0.038187
146.38 501.53 undefined 748.89 811.77 2.7434 55.000 0.018182 748.89 811.77 2.7434 2.0993 2.6052 245.81 0.094226 12.555 0.038342 55.000 0.018182 748.89 811.77 2.7434 2.0993 2.6052 245.81 0.094226 12.555 0.038342
147.38 503.47 undefined 751.00 814.11 2.7484 55.000 0.018182 751.00 814.11 2.7484 2.1029 2.6062 246.39 0.093400 12.584 0.038496 55.000 0.018182 751.00 814.11 2.7484 2.1029 2.6062 246.39 0.093400 12.584 0.038496
148.38 505.40 undefined 753.10 816.46 2.7534 55.000 0.018182 753.10 816.46 2.7534 2.1065 2.6072 246.96 0.092584 12.613 0.038651 55.000 0.018182 753.10 816.46 2.7534 2.1065 2.6072 246.96 0.092584 12.613 0.038651
149.38 507.33 undefined 755.21 818.81 2.7584 55.000 0.018182 755.21 818.81 2.7584 2.1100 2.6083 247.53 0.091779 12.642 0.038806 55.000 0.018182 755.21 818.81 2.7584 2.1100 2.6083 247.53 0.091779 12.642 0.038806
150.38 509.25 undefined 757.32 821.16 2.7634 55.000 0.018182 757.32 821.16 2.7634 2.1136 2.6094 248.10 0.090984 12.671 0.038962 55.000 0.018182 757.32 821.16 2.7634 2.1136 2.6094 248.10 0.090984 12.671 0.038962
151.38 511.18 undefined 759.44 823.52 2.7684 55.000 0.018182 759.44 823.52 2.7684 2.1172 2.6106 248.67 0.090200 12.700 0.039118 55.000 0.018182 759.44 823.52 2.7684 2.1172 2.6106 248.67 0.090200 12.700 0.039118
152.38 513.11 undefined 761.56 825.88 2.7734 55.000 0.018182 761.56 825.88 2.7734 2.1208 2.6118 249.24 0.089426 12.729 0.039274 55.000 0.018182 761.56 825.88 2.7734 2.1208 2.6118 249.24 0.089426 12.729 0.039274
153.38 515.03 undefined 763.68 828.24 2.7784 55.000 0.018182 763.68 828.24 2.7784 2.1244 2.6130 249.80 0.088661 12.758 0.039431 55.000 0.018182 763.68 828.24 2.7784 2.1244 2.6130 249.80 0.088661 12.758 0.039431
154.38 516.95 undefined 765.80 830.61 2.7834 55.000 0.018182 765.80 830.61 2.7834 2.1280 2.6143 250.36 0.087907 12.787 0.039588 55.000 0.018182 765.80 830.61 2.7834 2.1280 2.6143 250.36 0.087907 12.787 0.039588
155.38 518.87 undefined 767.93 832.98 2.7883 55.000 0.018182 767.93 832.98 2.7883 2.1316 2.6156 250.93 0.087162 12.816 0.039746 55.000 0.018182 767.93 832.98 2.7883 2.1316 2.6156 250.93 0.087162 12.816 0.039746
156.38 520.79 undefined 770.07 835.35 2.7933 55.000 0.018182 770.07 835.35 2.7933 2.1352 2.6169 251.49 0.086426 12.844 0.039903 55.000 0.018182 770.07 835.35 2.7933 2.1352 2.6169 251.49 0.086426 12.844 0.039903
157.38 522.71 undefined 772.20 837.73 2.7983 55.000 0.018182 772.20 837.73 2.7983 2.1389 2.6183 252.05 0.085700 12.873 0.040061 55.000 0.018182 772.20 837.73 2.7983 2.1389 2.6183 252.05 0.085700 12.873 0.040061
158.38 524.63 undefined 774.34 840.11 2.8032 55.000 0.018182 774.34 840.11 2.8032 2.1425 2.6198 252.60 0.084982 12.902 0.040220 55.000 0.018182 774.34 840.11 2.8032 2.1425 2.6198 252.60 0.084982 12.902 0.040220
159.38 526.54 undefined 776.49 842.50 2.8082 55.000 0.018182 776.49 842.50 2.8082 2.1461 2.6212 253.16 0.084274 12.931 0.040379 55.000 0.018182 776.49 842.50 2.8082 2.1461 2.6212 253.16 0.084274 12.931 0.040379
160.38 528.46 undefined 778.64 844.88 2.8132 55.000 0.018182 778.64 844.88 2.8132 2.1497 2.6227 253.71 0.083574 12.959 0.040538 55.000 0.018182 778.64 844.88 2.8132 2.1497 2.6227 253.71 0.083574 12.959 0.040538
161.38 530.37 undefined 780.79 847.28 2.8181 55.000 0.018182 780.79 847.28 2.8181 2.1534 2.6243 254.26 0.082883 12.988 0.040697 55.000 0.018182 780.79 847.28 2.8181 2.1534 2.6243 254.26 0.082883 12.988 0.040697
162.38 532.28 undefined 782.94 849.67 2.8231 55.000 0.018182 782.94 849.67 2.8231 2.1570 2.6258 254.82 0.082200 13.017 0.040857 55.000 0.018182 782.94 849.67 2.8231 2.1570 2.6258 254.82 0.082200 13.017 0.040857
163.38 534.19 undefined 785.10 852.07 2.8280 55.000 0.018182 785.10 852.07 2.8280 2.1606 2.6274 255.37 0.081526 13.045 0.041017 55.000 0.018182 785.10 852.07 2.8280 2.1606 2.6274 255.37 0.081526 13.045 0.041017
164.38 536.10 undefined 787.27 854.47 2.8330 55.000 0.018182 787.27 854.47 2.8330 2.1643 2.6291 255.91 0.080860 13.074 0.041177 55.000 0.018182 787.27 854.47 2.8330 2.1643 2.6291 255.91 0.080860 13.074 0.041177
165.38 538.01 undefined 789.43 856.88 2.8379 55.000 0.018182 789.43 856.88 2.8379 2.1679 2.6307 256.46 0.080202 13.102 0.041338 55.000 0.018182 789.43 856.88 2.8379 2.1679 2.6307 256.46 0.080202 13.102 0.041338
166.38 539.92 undefined 791.60 859.29 2.8429 55.000 0.018182 791.60 859.29 2.8429 2.1716 2.6324 257.01 0.079552 13.131 0.041499 55.000 0.018182 791.60 859.29 2.8429 2.1716 2.6324 257.01 0.079552 13.131 0.041499
167.38 541.83 undefined 793.77 861.70 2.8478 55.000 0.018182 793.77 861.70 2.8478 2.1752 2.6342 257.55 0.078910 13.159 0.041661 55.000 0.018182 793.77 861.70 2.8478 2.1752 2.6342 257.55 0.078910 13.159 0.041661
168.38 543.73 undefined 795.95 864.11 2.8527 55.000 0.018182 795.95 864.11 2.8527 2.1789 2.6359 258.09 0.078276 13.188 0.041822 55.000 0.018182 795.95 864.11 2.8527 2.1789 2.6359 258.09 0.078276 13.188 0.041822
169.38 545.64 undefined 798.13 866.53 2.8577 55.000 0.018182 798.13 866.53 2.8577 2.1825 2.6377 258.63 0.077649 13.216 0.041985 55.000 0.018182 798.13 866.53 2.8577 2.1825 2.6377 258.63 0.077649 13.216 0.041985
170.38 547.54 undefined 800.32 868.96 2.8626 55.000 0.018182 800.32 868.96 2.8626 2.1862 2.6395 259.17 0.077029 13.244 0.042147 55.000 0.018182 800.32 868.96 2.8626 2.1862 2.6395 259.17 0.077029 13.244 0.042147
171.38 549.44 undefined 802.50 871.38 2.8675 55.000 0.018182 802.50 871.38 2.8675 2.1898 2.6413 259.71 0.076417 13.273 0.042310 55.000 0.018182 802.50 871.38 2.8675 2.1898 2.6413 259.71 0.076417 13.273 0.042310
172.38 551.34 undefined 804.70 873.81 2.8725 55.000 0.018182 804.70 873.81 2.8725 2.1935 2.6432 260.25 0.075812 13.301 0.042473 55.000 0.018182 804.70 873.81 2.8725 2.1935 2.6432 260.25 0.075812 13.301 0.042473
173.38 553.24 undefined 806.89 876.25 2.8774 55.000 0.018182 806.89 876.25 2.8774 2.1972 2.6451 260.78 0.075214 13.329 0.042636 55.000 0.018182 806.89 876.25 2.8774 2.1972 2.6451 260.78 0.075214 13.329 0.042636
174.38 555.14 undefined 809.09 878.68 2.8823 55.000 0.018182 809.09 878.68 2.8823 2.2008 2.6470 261.32 0.074623 13.357 0.042800 55.000 0.018182 809.09 878.68 2.8823 2.2008 2.6470 261.32 0.074623 13.357 0.042800
175.38 557.04 undefined 811.29 881.12 2.8872 55.000 0.018182 811.29 881.12 2.8872 2.2045 2.6490 261.85 0.074039 13.386 0.042964 55.000 0.018182 811.29 881.12 2.8872 2.2045 2.6490 261.85 0.074039 13.386 0.042964
176.38 558.93 undefined 813.50 883.57 2.8921 55.000 0.018182 813.50 883.57 2.8921 2.2081 2.6509 262.38 0.073462 13.414 0.043128 55.000 0.018182 813.50 883.57 2.8921 2.2081 2.6509 262.38 0.073462 13.414 0.043128
177.38 560.83 undefined 815.71 886.01 2.8970 55.000 0.018182 815.71 886.01 2.8970 2.2118 2.6529 262.91 0.072892 13.442 0.043293 55.000 0.018182 815.71 886.01 2.8970 2.2118 2.6529 262.91 0.072892 13.442 0.043293
178.38 562.72 undefined 817.92 888.47 2.9020 55.000 0.018182 817.92 888.47 2.9020 2.2155 2.6549 263.44 0.072328 13.470 0.043458 55.000 0.018182 817.92 888.47 2.9020 2.2155 2.6549 263.44 0.072328 13.470 0.043458
179.38 564.62 undefined 820.14 890.92 2.9069 55.000 0.018182 820.14 890.92 2.9069 2.2192 2.6570 263.97 0.071770 13.498 0.043623 55.000 0.018182 820.14 890.92 2.9069 2.2192 2.6570 263.97 0.071770 13.498 0.043623
180.38 566.51 undefined 822.36 893.38 2.9118 55.000 0.018182 822.36 893.38 2.9118 2.2228 2.6590 264.50 0.071219 13.526 0.043789 55.000 0.018182 822.36 893.38 2.9118 2.2228 2.6590 264.50 0.071219 13.526 0.043789
181.38 568.40 undefined 824.59 895.84 2.9167 55.000 0.018182 824.59 895.84 2.9167 2.2265 2.6611 265.02 0.070674 13.554 0.043955 55.000 0.018182 824.59 895.84 2.9167 2.2265 2.6611 265.02 0.070674 13.554 0.043955
182.38 570.29 undefined 826.81 898.31 2.9216 55.000 0.018182 826.81 898.31 2.9216 2.2302 2.6632 265.54 0.070135 13.582 0.044121 55.000 0.018182 826.81 898.31 2.9216 2.2302 2.6632 265.54 0.070135 13.582 0.044121
183.38 572.18 undefined 829.05 900.77 2.9265 55.000 0.018182 829.05 900.77 2.9265 2.2338 2.6653 266.07 0.069603 13.610 0.044288 55.000 0.018182 829.05 900.77 2.9265 2.2338 2.6653 266.07 0.069603 13.610 0.044288
184.38 574.07 undefined 831.28 903.25 2.9313 55.000 0.018182 831.28 903.25 2.9313 2.2375 2.6675 266.59 0.069076 13.638 0.044455 55.000 0.018182 831.28 903.25 2.9313 2.2375 2.6675 266.59 0.069076 13.638 0.044455
185.38 575.96 undefined 833.52 905.72 2.9362 55.000 0.018182 833.52 905.72 2.9362 2.2412 2.6697 267.11 0.068555 13.666 0.044622 55.000 0.018182 833.52 905.72 2.9362 2.2412 2.6697 267.11 0.068555 13.666 0.044622
186.38 577.84 undefined 835.76 908.20 2.9411 55.000 0.018182 835.76 908.20 2.9411 2.2449 2.6718 267.63 0.068040 13.694 0.044790 55.000 0.018182 835.76 908.20 2.9411 2.2449 2.6718 267.63 0.068040 13.694 0.044790
187.38 579.73 undefined 838.01 910.69 2.9460 55.000 0.018182 838.01 910.69 2.9460 2.2485 2.6740 268.15 0.067531 13.722 0.044958 55.000 0.018182 838.01 910.69 2.9460 2.2485 2.6740 268.15 0.067531 13.722 0.044958
188.38 581.61 undefined 840.26 913.17 2.9509 55.000 0.018182 840.26 913.17 2.9509 2.2522 2.6763 268.66 0.067027 13.750 0.045126 55.000 0.018182 840.26 913.17 2.9509 2.2522 2.6763 268.66 0.067027 13.750 0.045126
189.38 583.50 undefined 842.52 915.66 2.9558 55.000 0.018182 842.52 915.66 2.9558 2.2559 2.6785 269.18 0.066529 13.778 0.045294 55.000 0.018182 842.52 915.66 2.9558 2.2559 2.6785 269.18 0.066529 13.778 0.045294
190.38 585.38 undefined 844.77 918.16 2.9606 55.000 0.018182 844.77 918.16 2.9606 2.2596 2.6808 269.69 0.066036 13.805 0.045463 55.000 0.018182 844.77 918.16 2.9606 2.2596 2.6808 269.69 0.066036 13.805 0.045463
191.38 587.26 undefined 847.03 920.65 2.9655 55.000 0.018182 847.03 920.65 2.9655 2.2633 2.6831 270.21 0.065549 13.833 0.045632 55.000 0.018182 847.03 920.65 2.9655 2.2633 2.6831 270.21 0.065549 13.833 0.045632
192.38 589.14 undefined 849.30 923.15 2.9704 55.000 0.018182 849.30 923.15 2.9704 2.2669 2.6853 270.72 0.065067 13.861 0.045802 55.000 0.018182 849.30 923.15 2.9704 2.2669 2.6853 270.72 0.065067 13.861 0.045802
193.38 591.02 undefined 851.57 925.66 2.9753 55.000 0.018182 851.57 925.66 2.9753 2.2706 2.6877 271.23 0.064590 13.889 0.045971 55.000 0.018182 851.57 925.66 2.9753 2.2706 2.6877 271.23 0.064590 13.889 0.045971
194.38 592.90 undefined 853.84 928.17 2.9801 55.000 0.018182 853.84 928.17 2.9801 2.2743 2.6900 271.74 0.064119 13.916 0.046141 55.000 0.018182 853.84 928.17 2.9801 2.2743 2.6900 271.74 0.064119 13.916 0.046141
195.38 594.78 undefined 856.12 930.68 2.9850 55.000 0.018182 856.12 930.68 2.9850 2.2780 2.6923 272.25 0.063652 13.944 0.046312 55.000 0.018182 856.12 930.68 2.9850 2.2780 2.6923 272.25 0.063652 13.944 0.046312
196.38 596.66 undefined 858.40 933.19 2.9898 55.000 0.018182 858.40 933.19 2.9898 2.2816 2.6947 272.75 0.063191 13.971 0.046483 55.000 0.018182 858.40 933.19 2.9898 2.2816 2.6947 272.75 0.063191 13.971 0.046483
197.38 598.54 undefined 860.68 935.71 2.9947 55.000 0.018182 860.68 935.71 2.9947 2.2853 2.6971 273.26 0.062734 13.999 0.046654 55.000 0.018182 860.68 935.71 2.9947 2.2853 2.6971 273.26 0.062734 13.999 0.046654
198.38 600.42 undefined 862.97 938.24 2.9996 55.000 0.018182 862.97 938.24 2.9996 2.2890 2.6995 273.77 0.062283 14.027 0.046825 55.000 0.018182 862.97 938.24 2.9996 2.2890 2.6995 273.77 0.062283 14.027 0.046825
199.38 602.29 undefined 865.26 940.76 3.0044 55.000 0.018182 865.26 940.76 3.0044 2.2927 2.7019 274.27 0.061836 14.054 0.046996 55.000 0.018182 865.26 940.76 3.0044 2.2927 2.7019 274.27 0.061836 14.054 0.046996
200.38 604.17 undefined 867.55 943.29 3.0093 55.000 0.018182 867.55 943.29 3.0093 2.2964 2.7043 274.77 0.061394 14.082 0.047168 55.000 0.018182 867.55 943.29 3.0093 2.2964 2.7043 274.77 0.061394 14.082 0.047168
201.38 606.04 undefined 869.85 945.82 3.0141 55.000 0.018182 869.85 945.82 3.0141 2.3000 2.7067 275.28 0.060956 14.109 0.047341 55.000 0.018182 869.85 945.82 3.0141 2.3000 2.7067 275.28 0.060956 14.109 0.047341
202.38 607.91 undefined 872.15 948.36 3.0190 55.000 0.018182 872.15 948.36 3.0190 2.3037 2.7092 275.78 0.060523 14.137 0.047513 55.000 0.018182 872.15 948.36 3.0190 2.3037 2.7092 275.78 0.060523 14.137 0.047513
203.38 609.79 undefined 874.46 950.90 3.0238 55.000 0.018182 874.46 950.90 3.0238 2.3074 2.7116 276.28 0.060095 14.164 0.047686 55.000 0.018182 874.46 950.90 3.0238 2.3074 2.7116 276.28 0.060095 14.164 0.047686
204.38 611.66 undefined 876.77 953.45 3.0286 55.000 0.018182 876.77 953.45 3.0286 2.3111 2.7141 276.77 0.059671 14.191 0.047859 55.000 0.018182 876.77 953.45 3.0286 2.3111 2.7141 276.77 0.059671 14.191 0.047859
205.38 613.53 undefined 879.08 955.99 3.0335 55.000 0.018182 879.08 955.99 3.0335 2.3147 2.7166 277.27 0.059251 14.219 0.048033 55.000 0.018182 879.08 955.99 3.0335 2.3147 2.7166 277.27 0.059251 14.219 0.048033
206.38 615.40 undefined 881.40 958.54 3.0383 55.000 0.018182 881.40 958.54 3.0383 2.3184 2.7191 277.77 0.058836 14.246 0.048206 55.000 0.018182 881.40 958.54 3.0383 2.3184 2.7191 277.77 0.058836 14.246 0.048206
207.38 617.27 undefined 883.72 961.10 3.0431 55.000 0.018182 883.72 961.10 3.0431 2.3221 2.7216 278.26 0.058425 14.273 0.048380 55.000 0.018182 883.72 961.10 3.0431 2.3221 2.7216 278.26 0.058425 14.273 0.048380
208.38 619.14 undefined 886.04 963.66 3.0480 55.000 0.018182 886.04 963.66 3.0480 2.3257 2.7241 278.76 0.058018 14.301 0.048555 55.000 0.018182 886.04 963.66 3.0480 2.3257 2.7241 278.76 0.058018 14.301 0.048555
209.38 621.01 undefined 888.37 966.22 3.0528 55.000 0.018182 888.37 966.22 3.0528 2.3294 2.7266 279.25 0.057616 14.328 0.048729 55.000 0.018182 888.37 966.22 3.0528 2.3294 2.7266 279.25 0.057616 14.328 0.048729
210.38 622.88 undefined 890.70 968.78 3.0576 55.000 0.018182 890.70 968.78 3.0576 2.3331 2.7292 279.75 0.057217 14.355 0.048904 55.000 0.018182 890.70 968.78 3.0576 2.3331 2.7292 279.75 0.057217 14.355 0.048904
211.38 624.74 undefined 893.04 971.35 3.0625 55.000 0.018182 893.04 971.35 3.0625 2.3367 2.7318 280.24 0.056823 14.382 0.049080 55.000 0.018182 893.04 971.35 3.0625 2.3367 2.7318 280.24 0.056823 14.382 0.049080
212.38 626.61 undefined 895.37 973.93 3.0673 55.000 0.018182 895.37 973.93 3.0673 2.3404 2.7343 280.73 0.056432 14.409 0.049255 55.000 0.018182 895.37 973.93 3.0673 2.3404 2.7343 280.73 0.056432 14.409 0.049255
213.38 628.48 undefined 897.72 976.50 3.0721 55.000 0.018182 897.72 976.50 3.0721 2.3441 2.7369 281.22 0.056046 14.436 0.049431 55.000 0.018182 897.72 976.50 3.0721 2.3441 2.7369 281.22 0.056046 14.436 0.049431
214.38 630.34 undefined 900.06 979.08 3.0769 55.000 0.018182 900.06 979.08 3.0769 2.3477 2.7395 281.71 0.055663 14.464 0.049607 55.000 0.018182 900.06 979.08 3.0769 2.3477 2.7395 281.71 0.055663 14.464 0.049607
215.38 632.21 undefined 902.41 981.66 3.0817 55.000 0.018182 902.41 981.66 3.0817 2.3514 2.7421 282.19 0.055284 14.491 0.049784 55.000 0.018182 902.41 981.66 3.0817 2.3514 2.7421 282.19 0.055284 14.491 0.049784
216.38 634.07 undefined 904.76 984.25 3.0865 55.000 0.018182 904.76 984.25 3.0865 2.3551 2.7447 282.68 0.054909 14.518 0.049961 55.000 0.018182 904.76 984.25 3.0865 2.3551 2.7447 282.68 0.054909 14.518 0.049961
217.38 635.93 undefined 907.12 986.84 3.0914 55.000 0.018182 907.12 986.84 3.0914 2.3587 2.7473 283.17 0.054538 14.545 0.050138 55.000 0.018182 907.12 986.84 3.0914 2.3587 2.7473 283.17 0.054538 14.545 0.050138
218.38 637.80 undefined 909.48 989.44 3.0962 55.000 0.018182 909.48 989.44 3.0962 2.3624 2.7500 283.65 0.054170 14.572 0.050315 55.000 0.018182 909.48 989.44 3.0962 2.3624 2.7500 283.65 0.054170 14.572 0.050315
219.38 639.66 undefined 911.85 992.03 3.1010 55.000 0.018182 911.85 992.03 3.1010 2.3660 2.7526 284.13 0.053806 14.599 0.050493 55.000 0.018182 911.85 992.03 3.1010 2.3660 2.7526 284.13 0.053806 14.599 0.050493
220.38 641.52 undefined 914.21 994.63 3.1058 55.000 0.018182 914.21 994.63 3.1058 2.3697 2.7552 284.62 0.053446 14.626 0.050671 55.000 0.018182 914.21 994.63 3.1058 2.3697 2.7552 284.62 0.053446 14.626 0.050671
221.38 643.38 undefined 916.59 997.24 3.1106 55.000 0.018182 916.59 997.24 3.1106 2.3733 2.7579 285.10 0.053089 14.652 0.050849 55.000 0.018182 916.59 997.24 3.1106 2.3733 2.7579 285.10 0.053089 14.652 0.050849
222.38 645.24 undefined 918.96 999.85 3.1154 55.000 0.018182 918.96 999.85 3.1154 2.3770 2.7606 285.58 0.052736 14.679 0.051028 55.000 0.018182 918.96 999.85 3.1154 2.3770 2.7606 285.58 0.052736 14.679 0.051028
223.38 647.10 undefined 921.34 1002.5 3.1202 55.000 0.018182 921.34 1002.5 3.1202 2.3806 2.7632 286.06 0.052386 14.706 0.051207 55.000 0.018182 921.34 1002.5 3.1202 2.3806 2.7632 286.06 0.052386 14.706 0.051207
224.38 648.96 undefined 923.72 1005.1 3.1250 55.000 0.018182 923.72 1005.1 3.1250 2.3843 2.7659 286.54 0.052039 14.733 0.051386 55.000 0.018182 923.72 1005.1 3.1250 2.3843 2.7659 286.54 0.052039 14.733 0.051386
225.38 650.82 undefined 926.11 1007.7 3.1297 55.000 0.018182 926.11 1007.7 3.1297 2.3879 2.7686 287.02 0.051696 14.760 0.051565 55.000 0.018182 926.11 1007.7 3.1297 2.3879 2.7686 287.02 0.051696 14.760 0.051565
226.38 652.67 undefined 928.50 1010.3 3.1345 55.000 0.018182 928.50 1010.3 3.1345 2.3916 2.7713 287.49 0.051356 14.787 0.051745 55.000 0.018182 928.50 1010.3 3.1345 2.3916 2.7713 287.49 0.051356 14.787 0.051745
227.38 654.53 undefined 930.89 1012.9 3.1393 55.000 0.018182 930.89 1012.9 3.1393 2.3952 2.7740 287.97 0.051019 14.813 0.051925 55.000 0.018182 930.89 1012.9 3.1393 2.3952 2.7740 287.97 0.051019 14.813 0.051925
228.38 656.39 undefined 933.29 1015.6 3.1441 55.000 0.018182 933.29 1015.6 3.1441 2.3989 2.7767 288.45 0.050686 14.840 0.052105 55.000 0.018182 933.29 1015.6 3.1441 2.3989 2.7767 288.45 0.050686 14.840 0.052105
229.38 658.24 undefined 935.69 1018.2 3.1489 55.000 0.018182 935.69 1018.2 3.1489 2.4025 2.7794 288.92 0.050356 14.867 0.052286 55.000 0.018182 935.69 1018.2 3.1489 2.4025 2.7794 288.92 0.050356 14.867 0.052286
230.38 660.10 undefined 938.09 1020.8 3.1537 55.000 0.018182 938.09 1020.8 3.1537 2.4061 2.7822 289.39 0.050029 14.893 0.052467 55.000 0.018182 938.09 1020.8 3.1537 2.4061 2.7822 289.39 0.050029 14.893 0.052467
231.38 661.96 undefined 940.50 1023.5 3.1584 55.000 0.018182 940.50 1023.5 3.1584 2.4098 2.7849 289.87 0.049705 14.920 0.052648 55.000 0.018182 940.50 1023.5 3.1584 2.4098 2.7849 289.87 0.049705 14.920 0.052648
232.38 663.81 undefined 942.91 1026.1 3.1632 55.000 0.018182 942.91 1026.1 3.1632 2.4134 2.7876 290.34 0.049384 14.947 0.052830 55.000 0.018182 942.91 1026.1 3.1632 2.4134 2.7876 290.34 0.049384 14.947 0.052830
233.38 665.66 undefined 945.33 1028.8 3.1680 55.000 0.018182 945.33 1028.8 3.1680 2.4170 2.7904 290.81 0.049066 14.973 0.053011 55.000 0.018182 945.33 1028.8 3.1680 2.4170 2.7904 290.81 0.049066 14.973 0.053011
234.38 667.52 undefined 947.75 1031.4 3.1728 55.000 0.018182 947.75 1031.4 3.1728 2.4207 2.7932 291.28 0.048751 15.000 0.053194 55.000 0.018182 947.75 1031.4 3.1728 2.4207 2.7932 291.28 0.048751 15.000 0.053194
235.38 669.37 undefined 950.17 1034.1 3.1775 55.000 0.018182 950.17 1034.1 3.1775 2.4243 2.7959 291.75 0.048439 15.026 0.053376 55.000 0.018182 950.17 1034.1 3.1775 2.4243 2.7959 291.75 0.048439 15.026 0.053376
236.38 671.22 undefined 952.60 1036.7 3.1823 55.000 0.018182 952.60 1036.7 3.1823 2.4279 2.7987 292.22 0.048129 15.053 0.053559 55.000 0.018182 952.60 1036.7 3.1823 2.4279 2.7987 292.22 0.048129 15.053 0.053559
237.38 673.07 undefined 955.03 1039.4 3.1871 55.000 0.018182 955.03 1039.4 3.1871 2.4315 2.8014 292.68 0.047823 15.079 0.053742 55.000 0.018182 955.03 1039.4 3.1871 2.4315 2.8014 292.68 0.047823 15.079 0.053742
238.38 674.93 undefined 957.46 1042.1 3.1918 55.000 0.018182 957.46 1042.1 3.1918 2.4351 2.8042 293.15 0.047520 15.106 0.053925 55.000 0.018182 957.46 1042.1 3.1918 2.4351 2.8042 293.15 0.047520 15.106 0.053925
239.38 676.78 undefined 959.90 1044.7 3.1966 55.000 0.018182 959.90 1044.7 3.1966 2.4388 2.8070 293.62 0.047219 15.132 0.054108 55.000 0.018182 959.90 1044.7 3.1966 2.4388 2.8070 293.62 0.047219 15.132 0.054108
240.38 678.63 undefined 962.34 1047.4 3.2013 55.000 0.018182 962.34 1047.4 3.2013 2.4424 2.8098 294.08 0.046921 15.158 0.054292 55.000 0.018182 962.34 1047.4 3.2013 2.4424 2.8098 294.08 0.046921 15.158 0.054292
241.38 680.48 undefined 964.78 1050.1 3.2061 55.000 0.018182 964.78 1050.1 3.2061 2.4460 2.8126 294.55 0.046626 15.185 0.054476 55.000 0.018182 964.78 1050.1 3.2061 2.4460 2.8126 294.55 0.046626 15.185 0.054476
242.38 682.33 undefined 967.23 1052.8 3.2108 55.000 0.018182 967.23 1052.8 3.2108 2.4496 2.8154 295.01 0.046333 15.211 0.054661 55.000 0.018182 967.23 1052.8 3.2108 2.4496 2.8154 295.01 0.046333 15.211 0.054661
243.38 684.17 undefined 969.68 1055.4 3.2156 55.000 0.018182 969.68 1055.4 3.2156 2.4532 2.8182 295.47 0.046044 15.237 0.054846 55.000 0.018182 969.68 1055.4 3.2156 2.4532 2.8182 295.47 0.046044 15.237 0.054846
244.38 686.02 undefined 972.13 1058.1 3.2203 55.000 0.018182 972.13 1058.1 3.2203 2.4568 2.8210 295.93 0.045756 15.264 0.055031 55.000 0.018182 972.13 1058.1 3.2203 2.4568 2.8210 295.93 0.045756 15.264 0.055031
245.38 687.87 undefined 974.59 1060.8 3.2251 55.000 0.018182 974.59 1060.8 3.2251 2.4604 2.8238 296.39 0.045472 15.290 0.055216 55.000 0.018182 974.59 1060.8 3.2251 2.4604 2.8238 296.39 0.045472 15.290 0.055216
246.38 689.72 undefined 977.06 1063.5 3.2298 55.000 0.018182 977.06 1063.5 3.2298 2.4640 2.8266 296.85 0.045190 15.316 0.055401 55.000 0.018182 977.06 1063.5 3.2298 2.4640 2.8266 296.85 0.045190 15.316 0.055401
247.38 691.56 undefined 979.52 1066.2 3.2346 55.000 0.018182 979.52 1066.2 3.2346 2.4676 2.8295 297.31 0.044910 15.342 0.055587 55.000 0.018182 979.52 1066.2 3.2346 2.4676 2.8295 297.31 0.044910 15.342 0.055587
248.38 693.41 undefined 981.99 1068.9 3.2393 55.000 0.018182 981.99 1068.9 3.2393 2.4712 2.8323 297.77 0.044633 15.369 0.055773 55.000 0.018182 981.99 1068.9 3.2393 2.4712 2.8323 297.77 0.044633 15.369 0.055773
249.38 695.26 undefined 984.46 1071.6 3.2441 55.000 0.018182 984.46 1071.6 3.2441 2.4748 2.8351 298.23 0.044358 15.395 0.055960 55.000 0.018182 984.46 1071.6 3.2441 2.4748 2.8351 298.23 0.044358 15.395 0.055960
250.38 697.10 undefined 986.94 1074.3 3.2488 55.000 0.018182 986.94 1074.3 3.2488 2.4784 2.8380 298.69 0.044086 15.421 0.056146 55.000 0.018182 986.94 1074.3 3.2488 2.4784 2.8380 298.69 0.044086 15.421 0.056146
251.38 698.95 undefined 989.42 1077.0 3.2535 55.000 0.018182 989.42 1077.0 3.2535 2.4819 2.8408 299.14 0.043817 15.447 0.056333 55.000 0.018182 989.42 1077.0 3.2535 2.4819 2.8408 299.14 0.043817 15.447 0.056333
252.38 700.79 undefined 991.90 1079.8 3.2583 55.000 0.018182 991.90 1079.8 3.2583 2.4855 2.8436 299.60 0.043549 15.473 0.056521 55.000 0.018182 991.90 1079.8 3.2583 2.4855 2.8436 299.60 0.043549 15.473 0.056521
253.38 702.64 undefined 994.39 1082.5 3.2630 55.000 0.018182 994.39 1082.5 3.2630 2.4891 2.8465 300.05 0.043284 15.499 0.056708 55.000 0.018182 994.39 1082.5 3.2630 2.4891 2.8465 300.05 0.043284 15.499 0.056708
254.38 704.48 undefined 996.88 1085.2 3.2677 55.000 0.018182 996.88 1085.2 3.2677 2.4927 2.8493 300.51 0.043021 15.525 0.056896 55.000 0.018182 996.88 1085.2 3.2677 2.4927 2.8493 300.51 0.043021 15.525 0.056896
255.38 706.32 undefined 999.38 1087.9 3.2724 55.000 0.018182 999.38 1087.9 3.2724 2.4962 2.8522 300.96 0.042761 15.551 0.057084 55.000 0.018182 999.38 1087.9 3.2724 2.4962 2.8522 300.96 0.042761 15.551 0.057084
256.38 708.17 undefined 1001.9 1090.7 3.2772 55.000 0.018182 1001.9 1090.7 3.2772 2.4998 2.8550 301.41 0.042503 15.577 0.057272 55.000 0.018182 1001.9 1090.7 3.2772 2.4998 2.8550 301.41 0.042503 15.577 0.057272
257.38 710.01 undefined 1004.4 1093.4 3.2819 55.000 0.018182 1004.4 1093.4 3.2819 2.5034 2.8579 301.86 0.042247 15.603 0.057461 55.000 0.018182 1004.4 1093.4 3.2819 2.5034 2.8579 301.86 0.042247 15.603 0.057461
258.38 711.85 undefined 1006.9 1096.1 3.2866 55.000 0.018182 1006.9 1096.1 3.2866 2.5069 2.8608 302.31 0.041993 15.629 0.057650 55.000 0.018182 1006.9 1096.1 3.2866 2.5069 2.8608 302.31 0.041993 15.629 0.057650
259.38 713.69 undefined 1009.4 1098.9 3.2913 55.000 0.018182 1009.4 1098.9 3.2913 2.5105 2.8636 302.76 0.041742 15.655 0.057839 55.000 0.018182 1009.4 1098.9 3.2913 2.5105 2.8636 302.76 0.041742 15.655 0.057839
260.38 715.53 undefined 1011.9 1101.6 3.2960 55.000 0.018182 1011.9 1101.6 3.2960 2.5140 2.8665 303.21 0.041493 15.680 0.058028 55.000 0.018182 1011.9 1101.6 3.2960 2.5140 2.8665 303.21 0.041493 15.680 0.058028
261.38 717.38 undefined 1014.4 1104.3 3.3007 55.000 0.018182 1014.4 1104.3 3.3007 2.5176 2.8694 303.66 0.041245 15.706 0.058218 55.000 0.018182 1014.4 1104.3 3.3007 2.5176 2.8694 303.66 0.041245 15.706 0.058218
262.38 719.22 undefined 1016.9 1107.1 3.3054 55.000 0.018182 1016.9 1107.1 3.3054 2.5211 2.8722 304.11 0.041000 15.732 0.058407 55.000 0.018182 1016.9 1107.1 3.3054 2.5211 2.8722 304.11 0.041000 15.732 0.058407
263.38 721.06 undefined 1019.5 1109.9 3.3101 55.000 0.018182 1019.5 1109.9 3.3101 2.5247 2.8751 304.56 0.040757 15.758 0.058598 55.000 0.018182 1019.5 1109.9 3.3101 2.5247 2.8751 304.56 0.040757 15.758 0.058598
264.38 722.90 undefined 1022.0 1112.6 3.3149 55.000 0.018182 1022.0 1112.6 3.3149 2.5282 2.8780 305.00 0.040516 15.784 0.058788 55.000 0.018182 1022.0 1112.6 3.3149 2.5282 2.8780 305.00 0.040516 15.784 0.058788
265.38 724.74 undefined 1024.5 1115.4 3.3196 55.000 0.018182 1024.5 1115.4 3.3196 2.5318 2.8809 305.45 0.040277 15.809 0.058978 55.000 0.018182 1024.5 1115.4 3.3196 2.5318 2.8809 305.45 0.040277 15.809 0.058978
266.38 726.57 undefined 1027.1 1118.1 3.3243 55.000 0.018182 1027.1 1118.1 3.3243 2.5353 2.8838 305.89 0.040040 15.835 0.059169 55.000 0.018182 1027.1 1118.1 3.3243 2.5353 2.8838 305.89 0.040040 15.835 0.059169
267.38 728.41 undefined 1029.6 1120.9 3.3290 55.000 0.018182 1029.6 1120.9 3.3290 2.5388 2.8866 306.34 0.039806 15.861 0.059360 55.000 0.018182 1029.6 1120.9 3.3290 2.5388 2.8866 306.34 0.039806 15.861 0.059360
268.38 730.25 undefined 1032.1 1123.7 3.3336 55.000 0.018182 1032.1 1123.7 3.3336 2.5424 2.8895 306.78 0.039573 15.886 0.059552 55.000 0.018182 1032.1 1123.7 3.3336 2.5424 2.8895 306.78 0.039573 15.886 0.059552
269.38 732.09 undefined 1034.7 1126.4 3.3383 55.000 0.018182 1034.7 1126.4 3.3383 2.5459 2.8924 307.22 0.039342 15.912 0.059743 55.000 0.018182 1034.7 1126.4 3.3383 2.5459 2.8924 307.22 0.039342 15.912 0.059743
270.38 733.93 undefined 1037.2 1129.2 3.3430 55.000 0.018182 1037.2 1129.2 3.3430 2.5494 2.8953 307.66 0.039113 15.937 0.059935 55.000 0.018182 1037.2 1129.2 3.3430 2.5494 2.8953 307.66 0.039113 15.937 0.059935
271.38 735.76 undefined 1039.8 1132.0 3.3477 55.000 0.018182 1039.8 1132.0 3.3477 2.5529 2.8982 308.11 0.038885 15.963 0.060127 55.000 0.018182 1039.8 1132.0 3.3477 2.5529 2.8982 308.11 0.038885 15.963 0.060127
272.38 737.60 undefined 1042.3 1134.8 3.3524 55.000 0.018182 1042.3 1134.8 3.3524 2.5565 2.9011 308.55 0.038660 15.989 0.060319 55.000 0.018182 1042.3 1134.8 3.3524 2.5565 2.9011 308.55 0.038660 15.989 0.060319
273.38 739.44 undefined 1044.9 1137.6 3.3571 55.000 0.018182 1044.9 1137.6 3.3571 2.5600 2.9040 308.99 0.038437 16.014 0.060511 55.000 0.018182 1044.9 1137.6 3.3571 2.5600 2.9040 308.99 0.038437 16.014 0.060511
274.38 741.27 undefined 1047.4 1140.4 3.3618 55.000 0.018182 1047.4 1140.4 3.3618 2.5635 2.9069 309.43 0.038215 16.039 0.060703 55.000 0.018182 1047.4 1140.4 3.3618 2.5635 2.9069 309.43 0.038215 16.039 0.060703
275.38 743.11 undefined 1050.0 1143.2 3.3665 55.000 0.018182 1050.0 1143.2 3.3665 2.5670 2.9098 309.86 0.037995 16.065 0.060895 55.000 0.018182 1050.0 1143.2 3.3665 2.5670 2.9098 309.86 0.037995 16.065 0.060895
276.38 744.94 undefined 1052.6 1146.0 3.3711 55.000 0.018182 1052.6 1146.0 3.3711 2.5705 2.9127 310.30 0.037777 16.090 0.061088 55.000 0.018182 1052.6 1146.0 3.3711 2.5705 2.9127 310.30 0.037777 16.090 0.061088
277.38 746.78 undefined 1055.2 1148.8 3.3758 55.000 0.018182 1055.2 1148.8 3.3758 2.5740 2.9156 310.74 0.037561 16.116 0.061280 55.000 0.018182 1055.2 1148.8 3.3758 2.5740 2.9156 310.74 0.037561 16.116 0.061280
278.38 748.61 undefined 1057.7 1151.6 3.3805 55.000 0.018182 1057.7 1151.6 3.3805 2.5775 2.9185 311.18 0.037346 16.141 0.061472 55.000 0.018182 1057.7 1151.6 3.3805 2.5775 2.9185 311.18 0.037346 16.141 0.061472
279.38 750.45 undefined 1060.3 1154.4 3.3852 55.000 0.018182 1060.3 1154.4 3.3852 2.5810 2.9214 311.61 0.037134 16.166 0.061663 55.000 0.018182 1060.3 1154.4 3.3852 2.5810 2.9214 311.61 0.037134 16.166 0.061663
280.38 752.28 undefined 1062.9 1157.2 3.3898 55.000 0.018182 1062.9 1157.2 3.3898 2.5845 2.9243 312.05 0.036923 16.192 0.061854 55.000 0.018182 1062.9 1157.2 3.3898 2.5845 2.9243 312.05 0.036923 16.192 0.061854
281.38 754.11 undefined 1065.5 1160.0 3.3945 55.000 0.018182 1065.5 1160.0 3.3945 2.5879 2.9272 312.48 0.036713 16.217 0.062039 55.000 0.018182 1065.5 1160.0 3.3945 2.5879 2.9272 312.48 0.036713 16.217 0.062039
282.38 755.95 undefined 1068.1 1162.8 3.3992 55.000 0.018182 1068.1 1162.8 3.3992 2.5914 2.9301 312.91 0.036506 16.242 0.062229 55.000 0.018182 1068.1 1162.8 3.3992 2.5914 2.9301 312.91 0.036506 16.242 0.062229
283.38 757.78 undefined 1070.7 1165.7 3.4038 55.000 0.018182 1070.7 1165.7 3.4038 2.5949 2.9330 313.35 0.036300 16.268 0.062428 55.000 0.018182 1070.7 1165.7 3.4038 2.5949 2.9330 313.35 0.036300 16.268 0.062428
284.38 759.61 undefined 1073.3 1168.5 3.4085 55.000 0.018182 1073.3 1168.5 3.4085 2.5984 2.9359 313.78 0.036095 16.293 0.062627 55.000 0.018182 1073.3 1168.5 3.4085 2.5984 2.9359 313.78 0.036095 16.293 0.062627
285.38 761.44 undefined 1075.9 1171.3 3.4131 55.000 0.018182 1075.9 1171.3 3.4131 2.6018 2.9389 314.21 0.035893 16.318 0.062825 55.000 0.018182 1075.9 1171.3 3.4131 2.6018 2.9389 314.21 0.035893 16.318 0.062825
286.38 763.28 undefined 1078.5 1174.1 3.4178 55.000 0.018182 1078.5 1174.1 3.4178 2.6053 2.9418 314.64 0.035692 16.343 0.063025 55.000 0.018182 1078.5 1174.1 3.4178 2.6053 2.9418 314.64 0.035692 16.343 0.063025
287.38 765.11 undefined 1081.1 1177.0 3.4225 55.000 0.018182 1081.1 1177.0 3.4225 2.6088 2.9447 315.07 0.035492 16.368 0.063224 55.000 0.018182 1081.1 1177.0 3.4225 2.6088 2.9447 315.07 0.035492 16.368 0.063224
288.38 766.94 undefined 1083.7 1179.8 3.4271 55.000 0.018182 1083.7 1179.8 3.4271 2.6122 2.9476 315.50 0.035294 16.393 0.063424 55.000 0.018182 1083.7 1179.8 3.4271 2.6122 2.9476 315.50 0.035294 16.393 0.063424
289.38 768.77 undefined 1086.3 1182.7 3.4318 55.000 0.018182 1086.3 1182.7 3.4318 2.6157 2.9505 315.93 0.035098 16.418 0.063624 55.000 0.018182 1086.3 1182.7 3.4318 2.6157 2.9505 315.93 0.035098 16.418 0.063624
290.38 770.60 undefined 1088.9 1185.5 3.4364 55.000 0.018182 1088.9 1185.5 3.4364 2.6191 2.9534 316.36 0.034903 16.443 0.063825 55.000 0.018182 1088.9 1185.5 3.4364 2.6191 2.9534 316.36 0.034903 16.443 0.063825
291.38 772.43 undefined 1091.5 1188.4 3.4411 55.000 0.018182 1091.5 1188.4 3.4411 2.6226 2.9563 316.79 0.034709 16.468 0.064025 55.000 0.018182 1091.5 1188.4 3.4411 2.6226 2.9563 316.79 0.034709 16.468 0.064025
292.38 774.26 undefined 1094.2 1191.2 3.4457 55.000 0.018182 1094.2 1191.2 3.4457 2.6260 2.9592 317.22 0.034518 16.493 0.064226 55.000 0.018182 1094.2 1191.2 3.4457 2.6260 2.9592 317.22 0.034518 16.493 0.064226
293.38 776.09 undefined 1096.8 1194.1 3.4503 55.000 0.018182 1096.8 1194.1 3.4503 2.6295 2.9622 317.64 0.034327 16.518 0.064428 55.000 0.018182 1096.8 1194.1 3.4503 2.6295 2.9622 317.64 0.034327 16.518 0.064428
294.38 777.92 undefined 1099.4 1196.9 3.4550 55.000 0.018182 1099.4 1196.9 3.4550 2.6329 2.9651 318.07 0.034138 16.543 0.064629 55.000 0.018182 1099.4 1196.9 3.4550 2.6329 2.9651 318.07 0.034138 16.543 0.064629
295.38 779.75 undefined 1102.0 1199.8 3.4596 55.000 0.018182 1102.0 1199.8 3.4596 2.6363 2.9680 318.49 0.033951 16.568 0.064831 55.000 0.018182 1102.0 1199.8 3.4596 2.6363 2.9680 318.49 0.033951 16.568 0.064831
296.38 781.58 undefined 1104.7 1202.7 3.4643 55.000 0.018182 1104.7 1202.7 3.4643 2.6398 2.9709 318.92 0.033765 16.593 0.065033 55.000 0.018182 1104.7 1202.7 3.4643 2.6398 2.9709 318.92 0.033765 16.593 0.065033
297.38 783.40 undefined 1107.3 1205.5 3.4689 55.000 0.018182 1107.3 1205.5 3.4689 2.6432 2.9738 319.34 0.033580 16.618 0.065236 55.000 0.018182 1107.3 1205.5 3.4689 2.6432 2.9738 319.34 0.033580 16.618 0.065236
298.38 785.23 undefined 1110.0 1208.4 3.4735 55.000 0.018182 1110.0 1208.4 3.4735 2.6466 2.9767 319.77 0.033397 16.643 0.065439 55.000 0.018182 1110.0 1208.4 3.4735 2.6466 2.9767 319.77 0.033397 16.643 0.065439
299.38 787.06 undefined 1112.6 1211.3 3.4782 55.000 0.018182 1112.6 1211.3 3.4782 2.6500 2.9796 320.19 0.033215 16.668 0.065642 55.000 0.018182 1112.6 1211.3 3.4782 2.6500 2.9796 320.19 0.033215 16.668 0.065642
300.38 788.89 undefined 1115.3 1214.2 3.4828 55.000 0.018182 1115.3 1214.2 3.4828 2.6534 2.9825 320.61 0.033035 16.693 0.065845 55.000 0.018182 1115.3 1214.2 3.4828 2.6534 2.9825 320.61 0.033035 16.693 0.065845