Temperature (C) Pressure (psia) Quality (l+v) Internal Energy (l+v, kJ/kg) Enthalpy (l+v, kJ/kg) Entropy (l+v, J/g*K) Density (l, kg/m3) Volume (l, m3/kg) Internal Energy (l, kJ/kg) Enthalpy (l, kJ/kg) Entropy (l, J/g*K) Cv (l, J/g*K) Cp (l, J/g*K) Sound Spd. (l, m/s) Joule-Thomson (l, F/psia) Viscosity (l, uPa*s) Therm. Cond. (l, W/m*K) Density (v, kg/m3) Volume (v, m3/kg) Internal Energy (v, kJ/kg) Enthalpy (v, kJ/kg) Entropy (v, J/g*K) Cv (v, J/g*K) Cp (v, J/g*K) Sound Spd. (v, m/s) Joule-Thomson (v, F/psia) Viscosity (v, uPa*s) Therm. Cond. (v, W/m*K)
-187.62 2.4953e-08 4.6705e-12 -196.64 -196.64 -1.3959 733.13 0.0013640 -196.64 -196.64 -1.3959 1.3553 1.9158 2136.4 -0.0077592 10960. 0.20792 1.0669e-08 9.3732e+07 350.13 366.26 5.1858 0.69067 0.87923 143.28 6.1051 2.3259 0.0017061
-186.62 3.7339e-08 6.8775e-12 -194.73 -194.73 -1.3736 732.08 0.0013660 -194.73 -194.73 -1.3736 1.3539 1.9166 2129.6 -0.0077546 10073. 0.20765 1.5780e-08 6.3371e+07 350.82 367.14 5.1200 0.69462 0.88317 144.03 5.9178 2.3534 0.0017533
-185.62 5.5322e-08 1.0028e-11 -192.81 -192.81 -1.3516 731.04 0.0013679 -192.81 -192.81 -1.3516 1.3525 1.9174 2122.9 -0.0077498 9276.1 0.20737 2.3112e-08 4.3267e+07 351.52 368.02 5.0561 0.69857 0.88713 144.77 5.7383 2.3808 0.0018007
-184.62 8.1182e-08 1.4484e-11 -190.89 -190.89 -1.3298 730.00 0.0013699 -190.89 -190.89 -1.3298 1.3513 1.9182 2116.1 -0.0077448 8557.8 0.20708 3.3533e-08 2.9821e+07 352.22 368.91 4.9939 0.70253 0.89108 145.51 5.5662 2.4083 0.0018485
-183.62 1.1803e-07 2.0730e-11 -188.97 -188.97 -1.3083 728.96 0.0013718 -188.97 -188.97 -1.3083 1.3501 1.9191 2109.3 -0.0077395 7909.8 0.20678 4.8211e-08 2.0742e+07 352.92 369.81 4.9333 0.70648 0.89504 146.24 5.4011 2.4357 0.0018965
-182.62 1.7009e-07 2.9407e-11 -187.05 -187.05 -1.2869 727.92 0.0013738 -187.05 -187.05 -1.2869 1.3490 1.9201 2102.5 -0.0077340 7324.3 0.20647 6.8704e-08 1.4555e+07 353.63 370.70 4.8744 0.71043 0.89899 146.97 5.2426 2.4632 0.0019448
-181.62 2.4299e-07 4.1362e-11 -185.13 -185.13 -1.2658 726.88 0.0013757 -185.13 -185.13 -1.2658 1.3480 1.9210 2095.7 -0.0077283 6794.5 0.20616 9.7079e-08 1.0301e+07 354.35 371.60 4.8170 0.71438 0.90294 147.69 5.0904 2.4906 0.0019934
-180.62 3.4425e-07 5.7698e-11 -183.21 -183.21 -1.2450 725.85 0.0013777 -183.21 -183.21 -1.2450 1.3470 1.9220 2088.9 -0.0077225 6314.4 0.20584 1.3605e-07 7.3504e+06 355.06 372.51 4.7612 0.71833 0.90688 148.41 4.9442 2.5181 0.0020423
-179.62 4.8378e-07 7.9847e-11 -181.29 -181.29 -1.2243 724.81 0.0013797 -181.29 -181.29 -1.2243 1.3461 1.9231 2082.0 -0.0077164 5878.8 0.20551 1.8915e-07 5.2868e+06 355.78 373.42 4.7068 0.72227 0.91082 149.13 4.8038 2.5456 0.0020915
-178.62 6.7459e-07 1.0965e-10 -179.37 -179.37 -1.2038 723.78 0.0013816 -179.37 -179.37 -1.2038 1.3453 1.9241 2075.2 -0.0077102 5482.9 0.20517 2.6096e-07 3.8320e+06 356.51 374.33 4.6538 0.72620 0.91475 149.84 4.6688 2.5731 0.0021410
-177.62 9.3358e-07 1.4945e-10 -177.44 -177.44 -1.1836 722.75 0.0013836 -177.44 -177.44 -1.1836 1.3445 1.9252 2068.4 -0.0077039 5122.6 0.20483 3.5737e-07 2.7982e+06 357.23 375.25 4.6022 0.73012 0.91867 150.54 4.5390 2.6005 0.0021907
-176.62 1.2826e-06 2.0223e-10 -175.52 -175.52 -1.1635 721.72 0.0013856 -175.52 -175.52 -1.1635 1.3437 1.9263 2061.5 -0.0076973 4794.1 0.20447 4.8588e-07 2.0581e+06 357.97 376.17 4.5519 0.73403 0.92258 151.25 4.4142 2.6280 0.0022408
-175.62 1.7496e-06 2.7175e-10 -173.59 -173.59 -1.1437 720.69 0.0013876 -173.59 -173.59 -1.1437 1.3430 1.9274 2054.7 -0.0076907 4494.3 0.20411 6.5601e-07 1.5244e+06 358.70 377.09 4.5029 0.73792 0.92648 151.95 4.2941 2.6555 0.0022912
-174.62 2.3705e-06 3.6269e-10 -171.66 -171.66 -1.1240 719.66 0.0013895 -171.66 -171.66 -1.1240 1.3423 1.9286 2047.9 -0.0076838 4220.2 0.20375 8.7976e-07 1.1367e+06 359.44 378.02 4.4551 0.74181 0.93036 152.64 4.1784 2.6830 0.0023418
-173.62 3.1903e-06 4.8090e-10 -169.73 -169.73 -1.1045 718.64 0.0013915 -169.73 -169.73 -1.1045 1.3417 1.9298 2041.0 -0.0076769 3969.3 0.20338 1.1721e-06 8.5314e+05 360.19 378.95 4.4085 0.74568 0.93423 153.33 4.0671 2.7105 0.0023928
-172.62 4.2661e-06 6.3358e-10 -167.80 -167.80 -1.0852 717.61 0.0013935 -167.80 -167.80 -1.0852 1.3411 1.9310 2034.2 -0.0076698 3739.3 0.20300 1.5518e-06 6.4441e+05 360.93 379.89 4.3631 0.74953 0.93809 154.02 3.9599 2.7379 0.0024440
-171.62 5.6692e-06 8.2961e-10 -165.87 -165.87 -1.0661 716.58 0.0013955 -165.87 -165.87 -1.0661 1.3405 1.9322 2027.3 -0.0076625 3528.0 0.20261 2.0419e-06 4.8974e+05 361.69 380.83 4.3188 0.75337 0.94193 154.71 3.8566 2.7654 0.0024955
-170.62 7.4884e-06 1.0798e-09 -163.94 -163.94 -1.0472 715.56 0.0013975 -163.94 -163.94 -1.0472 1.3400 1.9334 2020.5 -0.0076552 3333.8 0.20222 2.6708e-06 3.7442e+05 362.44 381.77 4.2755 0.75720 0.94575 155.39 3.7570 2.7929 0.0025473
-169.62 9.8334e-06 1.3973e-09 -162.00 -162.00 -1.0284 714.54 0.0013995 -162.00 -162.00 -1.0284 1.3395 1.9347 2013.6 -0.0076477 3154.9 0.20182 3.4733e-06 2.8791e+05 363.20 382.72 4.2334 0.76100 0.94956 156.07 3.6609 2.8204 0.0025994
-168.62 1.2839e-05 1.7980e-09 -160.07 -160.07 -1.0098 713.52 0.0014015 -160.07 -160.07 -1.0098 1.3390 1.9359 2006.8 -0.0076401 2989.9 0.20141 4.4917e-06 2.2263e+05 363.96 383.67 4.1922 0.76479 0.95335 156.74 3.5683 2.8479 0.0026518
-167.62 1.6672e-05 2.3009e-09 -158.13 -158.13 -0.99134 712.49 0.0014035 -158.13 -158.13 -0.99134 1.3386 1.9372 2000.0 -0.0076323 2837.5 0.20100 5.7771e-06 1.7310e+05 364.73 384.63 4.1521 0.76856 0.95712 157.41 3.4790 2.8754 0.0027045
-166.62 2.1533e-05 2.9290e-09 -156.19 -156.19 -0.97306 711.47 0.0014055 -156.19 -156.19 -0.97306 1.3382 1.9385 1993.1 -0.0076245 2696.5 0.20058 7.3914e-06 1.3529e+05 365.50 385.59 4.1129 0.77232 0.96087 158.08 3.3927 2.9029 0.0027575
-165.62 2.7666e-05 3.7093e-09 -154.25 -154.25 -0.95494 710.45 0.0014075 -154.25 -154.25 -0.95494 1.3378 1.9398 1986.3 -0.0076165 2566.0 0.20016 9.4084e-06 1.0629e+05 366.27 386.55 4.0746 0.77605 0.96460 158.75 3.3095 2.9304 0.0028108
-164.62 3.5367e-05 4.6740e-09 -152.31 -152.31 -0.93698 709.44 0.0014096 -152.31 -152.31 -0.93698 1.3375 1.9411 1979.4 -0.0076084 2444.9 0.19973 1.1916e-05 83918. 367.05 387.52 4.0372 0.77976 0.96832 159.41 3.2291 2.9579 0.0028643
-163.62 4.4989e-05 5.8609e-09 -150.37 -150.37 -0.91917 708.42 0.0014116 -150.37 -150.37 -0.91917 1.3371 1.9424 1972.6 -0.0076002 2332.3 0.19930 1.5020e-05 66577. 367.83 388.49 4.0008 0.78346 0.97201 160.07 3.1514 2.9854 0.0029182
-162.62 5.6956e-05 7.3146e-09 -148.43 -148.43 -0.90151 707.40 0.0014136 -148.43 -148.43 -0.90151 1.3368 1.9437 1965.8 -0.0075919 2227.7 0.19886 1.8844e-05 53068. 368.62 389.46 3.9651 0.78713 0.97569 160.72 3.0764 3.0129 0.0029723
-161.62 7.1773e-05 9.0869e-09 -146.48 -146.48 -0.88400 706.38 0.0014157 -146.48 -146.48 -0.88400 1.3365 1.9451 1959.0 -0.0075834 2130.2 0.19841 2.3533e-05 42494. 369.41 390.44 3.9304 0.79079 0.97935 161.38 3.0038 3.0404 0.0030268
-160.62 9.0036e-05 1.1238e-08 -144.54 -144.54 -0.86663 705.37 0.0014177 -144.54 -144.54 -0.86663 1.3363 1.9465 1952.1 -0.0075748 2039.2 0.19796 2.9258e-05 34178. 370.20 391.42 3.8964 0.79443 0.98298 162.03 2.9337 3.0679 0.0030815
-159.62 0.00011245 1.3838e-08 -142.59 -142.59 -0.84940 704.35 0.0014197 -142.59 -142.59 -0.84940 1.3360 1.9478 1945.3 -0.0075661 1954.2 0.19751 3.6221e-05 27609. 371.00 392.40 3.8632 0.79805 0.98660 162.68 2.8658 3.0955 0.0031365
-158.62 0.00013985 1.6968e-08 -140.64 -140.64 -0.83231 703.34 0.0014218 -140.64 -140.64 -0.83231 1.3358 1.9492 1938.5 -0.0075573 1874.8 0.19705 4.4652e-05 22395. 371.80 393.39 3.8307 0.80164 0.99020 163.32 2.8002 3.1230 0.0031918
-157.62 0.00017320 2.0720e-08 -138.69 -138.69 -0.81536 702.32 0.0014238 -138.69 -138.69 -0.81536 1.3356 1.9506 1931.7 -0.0075484 1800.3 0.19658 5.4822e-05 18241. 372.60 394.38 3.7990 0.80522 0.99378 163.96 2.7367 3.1505 0.0032474
-156.62 0.00021364 2.5201e-08 -136.74 -136.74 -0.79854 701.31 0.0014259 -136.74 -136.74 -0.79854 1.3354 1.9520 1924.9 -0.0075393 1730.5 0.19611 6.7040e-05 14916. 373.41 395.38 3.7680 0.80878 0.99734 164.60 2.6752 3.1780 0.0033033
-155.62 0.00026248 3.0530e-08 -134.79 -134.79 -0.78185 700.30 0.0014280 -134.79 -134.79 -0.78185 1.3352 1.9534 1918.1 -0.0075302 1664.9 0.19564 8.1666e-05 12245. 374.22 396.38 3.7377 0.81232 1.0009 165.24 2.6157 3.2055 0.0033595
-154.62 0.00032125 3.6846e-08 -132.83 -132.83 -0.76530 699.29 0.0014300 -132.83 -132.83 -0.76530 1.3350 1.9548 1911.3 -0.0075209 1603.3 0.19516 9.9109e-05 10090. 375.03 397.38 3.7081 0.81585 1.0044 165.87 2.5580 3.2330 0.0034160
-153.62 0.00039171 4.4304e-08 -130.88 -130.88 -0.74887 698.27 0.0014321 -130.88 -130.88 -0.74887 1.3349 1.9563 1904.5 -0.0075114 1545.3 0.19468 0.00011984 8344.6 375.85 398.39 3.6792 0.81935 1.0079 166.50 2.5022 3.2606 0.0034727
-152.62 0.00047590 5.3079e-08 -128.92 -128.92 -0.73256 697.26 0.0014342 -128.92 -128.92 -0.73256 1.3348 1.9577 1897.8 -0.0075019 1490.6 0.19419 0.00014439 6925.9 376.67 399.40 3.6509 0.82284 1.0114 167.13 2.4481 3.2881 0.0035298
-151.62 0.00057613 6.3368e-08 -126.96 -126.96 -0.71638 696.25 0.0014363 -126.96 -126.96 -0.71638 1.3346 1.9592 1891.0 -0.0074922 1438.9 0.19370 0.00017336 5768.4 377.49 400.41 3.6232 0.82631 1.0149 167.76 2.3957 3.3156 0.0035872
-150.62 0.00069507 7.5393e-08 -125.00 -125.00 -0.70032 695.24 0.0014384 -125.00 -125.00 -0.70032 1.3345 1.9606 1884.2 -0.0074824 1390.2 0.19320 0.00020744 4820.7 378.32 401.42 3.5962 0.82976 1.0183 168.38 2.3448 3.3431 0.0036448
-149.62 0.00083574 8.9400e-08 -123.04 -123.04 -0.68438 694.23 0.0014404 -123.04 -123.04 -0.68438 1.3345 1.9621 1877.4 -0.0074724 1344.0 0.19270 0.00024740 4042.0 379.15 402.44 3.5697 0.83319 1.0218 169.00 2.2956 3.3706 0.0037027
-148.62 0.0010016 1.0566e-07 -121.08 -121.08 -0.66855 693.22 0.0014425 -121.08 -121.08 -0.66855 1.3344 1.9636 1870.7 -0.0074623 1300.3 0.19220 0.00029412 3400.0 379.99 403.47 3.5438 0.83661 1.0252 169.62 2.2478 3.3982 0.0037610
-147.62 0.0011965 1.2449e-07 -119.11 -119.11 -0.65284 692.21 0.0014447 -119.11 -119.11 -0.65284 1.3343 1.9651 1863.9 -0.0074521 1258.9 0.19169 0.00034856 2869.0 380.83 404.49 3.5185 0.84001 1.0286 170.24 2.2014 3.4257 0.0038195
-146.62 0.0014249 1.4621e-07 -117.15 -117.15 -0.63724 691.20 0.0014468 -117.15 -117.15 -0.63724 1.3343 1.9666 1857.2 -0.0074417 1219.6 0.19117 0.00041181 2428.3 381.67 405.52 3.4938 0.84340 1.0320 170.85 2.1565 3.4532 0.0038783
-145.62 0.0016917 1.7120e-07 -115.18 -115.18 -0.62175 690.19 0.0014489 -115.18 -115.18 -0.62175 1.3343 1.9682 1850.4 -0.0074312 1182.3 0.19066 0.00048510 2061.4 382.51 406.56 3.4695 0.84677 1.0353 171.46 2.1128 3.4807 0.0039374
-144.62 0.0020026 1.9987e-07 -113.21 -113.21 -0.60637 689.18 0.0014510 -113.21 -113.21 -0.60637 1.3343 1.9697 1843.7 -0.0074206 1146.8 0.19014 0.00056976 1755.1 383.36 407.59 3.4458 0.85012 1.0387 172.07 2.0705 3.5082 0.0039967
-143.62 0.0023637 2.3267e-07 -111.24 -111.24 -0.59110 688.17 0.0014531 -111.24 -111.24 -0.59110 1.3343 1.9713 1836.9 -0.0074098 1113.0 0.18962 0.00066731 1498.6 384.21 408.63 3.4226 0.85346 1.0420 172.68 2.0294 3.5358 0.0040564
-142.62 0.0027820 2.7008e-07 -109.27 -109.27 -0.57593 687.16 0.0014553 -109.27 -109.27 -0.57593 1.3343 1.9728 1830.2 -0.0073988 1080.8 0.18909 0.00077939 1283.1 385.07 409.68 3.3999 0.85679 1.0454 173.28 1.9896 3.5633 0.0041164
-141.62 0.0032653 3.1265e-07 -107.30 -107.30 -0.56087 686.15 0.0014574 -107.30 -107.30 -0.56087 1.3343 1.9744 1823.5 -0.0073878 1050.1 0.18856 0.00090784 1101.5 385.93 410.72 3.3777 0.86011 1.0487 173.88 1.9508 3.5908 0.0041766
-140.62 0.0038222 3.6095e-07 -105.32 -105.32 -0.54591 685.14 0.0014596 -105.32 -105.32 -0.54591 1.3344 1.9760 1816.7 -0.0073765 1020.7 0.18803 0.0010547 948.16 386.79 411.77 3.3560 0.86341 1.0520 174.48 1.9133 3.6183 0.0042372
-139.62 0.0044623 4.1562e-07 -103.34 -103.34 -0.53105 684.13 0.0014617 -103.34 -103.34 -0.53105 1.3344 1.9776 1810.0 -0.0073651 992.74 0.18749 0.0012221 818.26 387.65 412.83 3.3347 0.86670 1.0553 175.08 1.8768 3.6459 0.0042980
-138.62 0.0051963 4.7734e-07 -101.37 -101.37 -0.51628 683.12 0.0014639 -101.37 -101.37 -0.51629 1.3345 1.9792 1803.3 -0.0073536 965.97 0.18695 0.0014125 707.94 388.52 413.88 3.3139 0.86998 1.0586 175.67 1.8413 3.6734 0.0043592
-137.62 0.0060358 5.4684e-07 -99.386 -99.386 -0.50162 682.11 0.0014660 -99.386 -99.386 -0.50162 1.3346 1.9808 1796.6 -0.0073419 940.35 0.18641 0.0016287 614.00 389.39 414.94 3.2935 0.87325 1.0619 176.26 1.8069 3.7009 0.0044206
-136.62 0.0069938 6.2492e-07 -97.404 -97.404 -0.48705 681.10 0.0014682 -97.404 -97.404 -0.48705 1.3347 1.9825 1789.9 -0.0073301 915.81 0.18586 0.0018733 533.80 390.26 416.00 3.2735 0.87650 1.0651 176.85 1.7734 3.7284 0.0044823
-135.62 0.0080843 7.1243e-07 -95.421 -95.421 -0.47258 680.09 0.0014704 -95.421 -95.421 -0.47258 1.3348 1.9841 1783.2 -0.0073180 892.30 0.18531 0.0021497 465.17 391.14 417.07 3.2540 0.87975 1.0684 177.44 1.7409 3.7559 0.0045443
-134.62 0.0093230 8.1029e-07 -93.436 -93.436 -0.45820 679.08 0.0014726 -93.436 -93.436 -0.45820 1.3350 1.9858 1776.5 -0.0073059 869.75 0.18476 0.0024613 406.30 392.02 418.14 3.2348 0.88299 1.0716 178.02 1.7093 3.7834 0.0046066
-133.62 0.010727 9.1946e-07 -91.449 -91.449 -0.44390 678.07 0.0014748 -91.450 -91.449 -0.44391 1.3351 1.9875 1769.8 -0.0072935 848.11 0.18421 0.0028116 355.67 392.91 419.21 3.2161 0.88622 1.0749 178.61 1.6786 3.8109 0.0046691
-132.62 0.012315 1.0410e-06 -89.461 -89.461 -0.42970 677.06 0.0014770 -89.461 -89.461 -0.42971 1.3353 1.9892 1763.1 -0.0072810 827.32 0.18365 0.0032049 312.03 393.79 420.29 3.1977 0.88944 1.0781 179.19 1.6488 3.8385 0.0047320
-131.62 0.014106 1.1760e-06 -87.471 -87.470 -0.41559 676.04 0.0014792 -87.471 -87.471 -0.41560 1.3354 1.9909 1756.4 -0.0072684 807.34 0.18309 0.0036453 274.33 394.68 421.36 3.1798 0.89266 1.0813 179.76 1.6197 3.8660 0.0047951
-130.62 0.016124 1.3256e-06 -85.479 -85.479 -0.40157 675.03 0.0014814 -85.479 -85.479 -0.40157 1.3356 1.9926 1749.7 -0.0072555 788.12 0.18253 0.0041375 241.69 395.58 422.44 3.1622 0.89586 1.0846 180.34 1.5915 3.8935 0.0048586
-129.62 0.018392 1.4912e-06 -83.485 -83.485 -0.38763 674.02 0.0014836 -83.486 -83.486 -0.38763 1.3358 1.9944 1743.0 -0.0072425 769.63 0.18196 0.0046867 213.37 396.47 423.53 3.1450 0.89906 1.0878 180.91 1.5641 3.9210 0.0049223
-128.62 0.020935 1.6739e-06 -81.490 -81.490 -0.37378 673.01 0.0014859 -81.491 -81.490 -0.37378 1.3360 1.9961 1736.3 -0.0072294 751.83 0.18140 0.0052981 188.75 397.37 424.62 3.1281 0.90226 1.0910 181.48 1.5374 3.9485 0.0049863
-127.62 0.023783 1.8752e-06 -79.493 -79.492 -0.36000 672.00 0.0014881 -79.494 -79.493 -0.36001 1.3363 1.9979 1729.6 -0.0072160 734.67 0.18083 0.0059776 167.29 398.27 425.71 3.1116 0.90545 1.0942 182.05 1.5114 3.9760 0.0050506
-126.62 0.026966 2.0965e-06 -77.494 -77.494 -0.34632 670.98 0.0014904 -77.495 -77.495 -0.34632 1.3365 1.9997 1722.9 -0.0072025 718.14 0.18025 0.0067313 148.56 399.18 426.80 3.0954 0.90863 1.0974 182.62 1.4861 4.0035 0.0051152
-125.62 0.030515 2.3394e-06 -75.493 -75.493 -0.33271 669.97 0.0014926 -75.494 -75.494 -0.33272 1.3368 2.0015 1716.2 -0.0071888 702.18 0.17968 0.0075660 132.17 400.09 427.89 3.0795 0.91181 1.1006 183.18 1.4615 4.0310 0.0051800
-124.62 0.034467 2.6054e-06 -73.491 -73.490 -0.31918 668.95 0.0014949 -73.492 -73.492 -0.31919 1.3371 2.0033 1709.5 -0.0071749 686.79 0.17910 0.0084885 117.81 401.00 428.99 3.0640 0.91499 1.1038 183.74 1.4375 4.0584 0.0052452
-123.62 0.038859 2.8963e-06 -71.486 -71.486 -0.30573 667.94 0.0014971 -71.488 -71.487 -0.30574 1.3374 2.0051 1702.8 -0.0071609 671.93 0.17852 0.0095065 105.19 401.91 430.10 3.0488 0.91816 1.1070 184.30 1.4141 4.0859 0.0053106
-122.62 0.043731 3.2137e-06 -69.480 -69.480 -0.29236 666.92 0.0014994 -69.482 -69.481 -0.29237 1.3377 2.0070 1696.2 -0.0071466 657.57 0.17794 0.010628 94.092 402.83 431.20 3.0339 0.92134 1.1102 184.86 1.3913 4.1134 0.0053764
-121.62 0.049128 3.5595e-06 -67.472 -67.471 -0.27906 665.91 0.0015017 -67.474 -67.473 -0.27907 1.3380 2.0089 1689.5 -0.0071322 643.70 0.17736 0.011861 84.309 403.75 432.31 3.0193 0.92451 1.1134 185.41 1.3691 4.1409 0.0054424
-120.62 0.055096 3.9356e-06 -65.462 -65.461 -0.26584 664.89 0.0015040 -65.464 -65.463 -0.26585 1.3384 2.0107 1682.8 -0.0071176 630.28 0.17678 0.013215 75.669 404.67 433.42 3.0050 0.92767 1.1166 185.96 1.3475 4.1683 0.0055087
-119.62 0.061684 4.3439e-06 -63.450 -63.449 -0.25269 663.87 0.0015063 -63.452 -63.452 -0.25271 1.3387 2.0126 1676.1 -0.0071028 617.30 0.17619 0.014700 68.027 405.60 434.53 2.9909 0.93084 1.1198 186.51 1.3264 4.1958 0.0055752
-118.62 0.068946 4.7863e-06 -61.436 -61.436 -0.23962 662.86 0.0015086 -61.439 -61.438 -0.23963 1.3391 2.0146 1669.4 -0.0070878 604.74 0.17560 0.016325 61.255 406.53 435.64 2.9772 0.93401 1.1231 187.06 1.3058 4.2233 0.0056421
-117.62 0.076937 5.2651e-06 -59.421 -59.420 -0.22662 661.84 0.0015109 -59.423 -59.422 -0.22663 1.3395 2.0165 1662.8 -0.0070726 592.58 0.17501 0.018101 55.245 407.46 436.76 2.9638 0.93718 1.1263 187.60 1.2857 4.2507 0.0057092
-116.62 0.085718 5.7822e-06 -57.403 -57.402 -0.21368 660.82 0.0015133 -57.406 -57.405 -0.21370 1.3400 2.0184 1656.1 -0.0070573 580.80 0.17442 0.020040 49.901 408.39 437.88 2.9506 0.94035 1.1295 188.14 1.2660 4.2782 0.0057767
-115.62 0.095353 6.3399e-06 -55.383 -55.382 -0.20082 659.80 0.0015156 -55.386 -55.385 -0.20084 1.3404 2.0204 1649.4 -0.0070417 569.38 0.17383 0.022152 45.142 409.33 439.01 2.9377 0.94352 1.1327 188.68 1.2468 4.3056 0.0058444
-114.62 0.10591 6.9405e-06 -53.362 -53.360 -0.18803 658.78 0.0015180 -53.365 -53.364 -0.18805 1.3409 2.0224 1642.7 -0.0070260 558.32 0.17323 0.024451 40.898 410.27 440.13 2.9250 0.94669 1.1360 189.22 1.2281 4.3330 0.0059123
-113.62 0.11746 7.5861e-06 -51.338 -51.337 -0.17530 657.76 0.0015203 -51.342 -51.340 -0.17533 1.3413 2.0244 1636.0 -0.0070100 547.59 0.17264 0.026949 37.107 411.21 441.26 2.9126 0.94987 1.1392 189.75 1.2097 4.3604 0.0059806
-112.62 0.13008 8.2792e-06 -49.312 -49.311 -0.16264 656.73 0.0015227 -49.316 -49.315 -0.16267 1.3418 2.0264 1629.3 -0.0069938 537.18 0.17204 0.029661 33.715 412.16 442.39 2.9005 0.95305 1.1424 190.28 1.1918 4.3879 0.0060491
-111.62 0.14384 9.0221e-06 -47.285 -47.283 -0.15005 655.71 0.0015251 -47.289 -47.287 -0.15008 1.3424 2.0285 1622.7 -0.0069774 527.08 0.17144 0.032600 30.675 413.10 443.53 2.8885 0.95623 1.1457 190.81 1.1742 4.4153 0.0061180
-110.62 0.15884 9.8171e-06 -45.255 -45.253 -0.13752 654.69 0.0015274 -45.259 -45.258 -0.13755 1.3429 2.0305 1616.0 -0.0069609 517.28 0.17084 0.035781 27.948 414.06 444.66 2.8769 0.95942 1.1490 191.34 1.1570 4.4427 0.0061871
-109.62 0.17516 1.0667e-05 -43.223 -43.221 -0.12506 653.66 0.0015298 -43.228 -43.226 -0.12509 1.3435 2.0326 1609.3 -0.0069441 507.76 0.17024 0.039220 25.497 415.01 445.80 2.8654 0.96261 1.1522 191.86 1.1402 4.4701 0.0062564
-108.62 0.19290 1.1573e-05 -41.189 -41.186 -0.11266 652.64 0.0015322 -41.194 -41.192 -0.11269 1.3441 2.0347 1602.6 -0.0069271 498.51 0.16964 0.042933 23.292 415.96 446.94 2.8542 0.96581 1.1555 192.38 1.1236 4.4974 0.0063261
-107.62 0.21215 1.2540e-05 -39.153 -39.150 -0.10032 651.61 0.0015347 -39.158 -39.156 -0.10036 1.3447 2.0369 1595.9 -0.0069098 489.52 0.16903 0.046937 21.305 416.92 448.09 2.8433 0.96901 1.1588 192.90 1.1075 4.5248 0.0063960
-106.62 0.23301 1.3568e-05 -37.114 -37.111 -0.088043 650.58 0.0015371 -37.120 -37.118 -0.088082 1.3453 2.0390 1589.2 -0.0068924 480.79 0.16843 0.051250 19.512 417.88 449.23 2.8325 0.97222 1.1621 193.41 1.0916 4.5522 0.0064662
-105.62 0.25561 1.4660e-05 -35.074 -35.071 -0.075826 649.55 0.0015395 -35.080 -35.078 -0.075868 1.3460 2.0412 1582.6 -0.0068747 472.30 0.16782 0.055891 17.892 418.85 450.38 2.8220 0.97544 1.1655 193.93 1.0760 4.5795 0.0065367
-104.62 0.28004 1.5820e-05 -33.031 -33.028 -0.063669 648.52 0.0015420 -33.038 -33.035 -0.063714 1.3467 2.0434 1575.9 -0.0068569 464.04 0.16721 0.060878 16.426 419.81 451.53 2.8116 0.97867 1.1688 194.44 1.0608 4.6069 0.0066074
-103.62 0.30643 1.7048e-05 -30.986 -30.982 -0.051570 647.49 0.0015444 -30.994 -30.991 -0.051619 1.3474 2.0456 1569.2 -0.0068387 456.00 0.16660 0.066231 15.099 420.78 452.68 2.8015 0.98191 1.1722 194.94 1.0458 4.6342 0.0066785
-102.62 0.33490 1.8348e-05 -28.939 -28.935 -0.039530 646.46 0.0015469 -28.947 -28.944 -0.039582 1.3481 2.0478 1562.5 -0.0068204 448.18 0.16600 0.071971 13.894 421.75 453.84 2.7916 0.98516 1.1755 195.44 1.0310 4.6615 0.0067498
-101.62 0.36558 1.9723e-05 -26.889 -26.885 -0.027546 645.43 0.0015494 -26.898 -26.894 -0.027602 1.3489 2.0501 1555.8 -0.0068018 440.57 0.16539 0.078120 12.801 422.73 454.99 2.7818 0.98841 1.1789 195.95 1.0166 4.6888 0.0068213
-100.62 0.39862 2.1173e-05 -24.838 -24.833 -0.015619 644.39 0.0015519 -24.847 -24.843 -0.015678 1.3497 2.0524 1549.1 -0.0067830 433.16 0.16478 0.084699 11.807 423.70 456.15 2.7723 0.99168 1.1823 196.44 1.0024 4.7161 0.0068932
-99.625 0.43414 2.2702e-05 -22.784 -22.778 -0.0037474 643.36 0.0015544 -22.794 -22.789 -0.0038103 1.3505 2.0547 1542.4 -0.0067639 425.95 0.16416 0.091731 10.901 424.68 457.31 2.7630 0.99496 1.1858 196.94 0.98838 4.7434 0.0069653
-98.625 0.47230 2.4312e-05 -20.727 -20.721 0.0080695 642.32 0.0015569 -20.738 -20.733 0.0080027 1.3514 2.0570 1535.7 -0.0067447 418.92 0.16355 0.099240 10.077 425.66 458.48 2.7538 0.99825 1.1892 197.43 0.97464 4.7707 0.0070377
-97.625 0.51325 2.6004e-05 -18.668 -18.662 0.019832 641.28 0.0015594 -18.680 -18.674 0.019762 1.3522 2.0594 1529.0 -0.0067251 412.07 0.16294 0.10725 9.3239 426.65 459.64 2.7448 1.0016 1.1927 197.92 0.96112 4.7979 0.0071103
-96.625 0.55714 2.7781e-05 -16.607 -16.600 0.031542 640.24 0.0015619 -16.620 -16.614 0.031467 1.3531 2.0618 1522.3 -0.0067053 405.39 0.16233 0.11579 8.6365 427.63 460.81 2.7360 1.0049 1.1962 198.40 0.94783 4.8251 0.0071832
-95.625 0.60416 2.9645e-05 -14.544 -14.536 0.043200 639.20 0.0015645 -14.557 -14.550 0.043120 1.3540 2.0642 1515.7 -0.0066853 398.88 0.16171 0.12488 8.0078 428.62 461.98 2.7274 1.0082 1.1997 198.88 0.93475 4.8524 0.0072564
-94.625 0.65446 3.1597e-05 -12.477 -12.469 0.054805 638.16 0.0015670 -12.491 -12.484 0.054721 1.3550 2.0667 1509.0 -0.0066650 392.53 0.16110 0.13455 7.4323 429.61 463.15 2.7189 1.0116 1.2032 199.36 0.92188 4.8796 0.0073299
-93.625 0.70822 3.3639e-05 -10.409 -10.400 0.066360 637.12 0.0015696 -10.424 -10.416 0.066271 1.3560 2.0691 1502.3 -0.0066444 386.34 0.16048 0.14482 6.9050 430.60 464.32 2.7107 1.0149 1.2068 199.83 0.90921 4.9068 0.0074036
-92.625 0.76564 3.5773e-05 -8.3378 -8.3283 0.077864 636.07 0.0015722 -8.3535 -8.3452 0.077771 1.3570 2.0716 1495.6 -0.0066236 380.31 0.15987 0.15573 6.4212 431.60 465.49 2.7025 1.0183 1.2104 200.30 0.89673 4.9340 0.0074776
-91.625 0.82689 3.7999e-05 -6.2642 -6.2539 0.089319 635.02 0.0015747 -6.2808 -6.2719 0.089220 1.3580 2.0742 1488.9 -0.0066025 374.41 0.15925 0.16731 5.9769 432.59 466.67 2.6946 1.0217 1.2140 200.77 0.88445 4.9611 0.0075518
-90.625 0.89218 4.0320e-05 -4.1880 -4.1769 0.10073 633.98 0.0015773 -4.2056 -4.1959 0.10062 1.3591 2.0767 1482.2 -0.0065811 368.66 0.15864 0.17958 5.5685 433.59 467.84 2.6868 1.0251 1.2177 201.24 0.87236 4.9883 0.0076263
-89.625 0.96172 4.2735e-05 -2.1092 -2.0973 0.11208 632.93 0.0015800 -2.1279 -2.1174 0.11197 1.3602 2.0793 1475.5 -0.0065595 363.05 0.15802 0.19258 5.1928 434.59 469.02 2.6791 1.0285 1.2213 201.70 0.86045 5.0154 0.0077011
-88.625 1.0357 4.5246e-05 -0.027805 -0.014939 0.12339 631.88 0.0015826 -0.047516 -0.036215 0.12328 1.3613 2.0819 1468.8 -0.0065375 357.56 0.15740 0.20633 4.8466 435.59 470.20 2.6717 1.0320 1.2250 202.15 0.84873 5.0425 0.0077761
-87.625 1.1144 4.7853e-05 2.0562 2.0701 0.13466 630.83 0.0015852 2.0355 2.0476 0.13454 1.3625 2.0846 1462.1 -0.0065153 352.21 0.15679 0.22087 4.5276 436.60 471.39 2.6643 1.0354 1.2288 202.61 0.83718 5.0696 0.0078514
-86.625 1.1979 5.0556e-05 4.1430 4.1579 0.14587 629.77 0.0015879 4.1211 4.1342 0.14575 1.3637 2.0873 1455.4 -0.0064928 346.98 0.15617 0.23623 4.2331 437.61 472.57 2.6571 1.0389 1.2325 203.06 0.82580 5.0967 0.0079270
-85.625 1.2866 5.3355e-05 6.2324 6.2484 0.15705 628.72 0.0015905 6.2094 6.2235 0.15691 1.3649 2.0900 1448.8 -0.0064701 341.87 0.15555 0.25245 3.9612 438.61 473.75 2.6501 1.0424 1.2363 203.50 0.81460 5.1237 0.0080028
-84.625 1.3806 5.6251e-05 8.3246 8.3418 0.16817 627.66 0.0015932 8.3004 8.3155 0.16803 1.3661 2.0927 1442.1 -0.0064470 336.87 0.15494 0.26956 3.7097 439.63 474.94 2.6432 1.0460 1.2402 203.95 0.80356 5.1508 0.0080789
-83.625 1.4803 5.9243e-05 10.420 10.438 0.17926 626.60 0.0015959 10.394 10.410 0.17911 1.3674 2.0955 1435.4 -0.0064236 331.99 0.15432 0.28760 3.4771 440.64 476.13 2.6364 1.0495 1.2440 204.38 0.79269 5.1778 0.0081553
-82.625 1.5858 6.2329e-05 12.517 12.537 0.19030 625.54 0.0015986 12.491 12.508 0.19014 1.3687 2.0983 1428.7 -0.0063999 327.22 0.15370 0.30659 3.2616 441.65 477.31 2.6298 1.0531 1.2479 204.82 0.78199 5.2048 0.0082319
-81.625 1.6975 6.5509e-05 14.618 14.639 0.20129 624.48 0.0016013 14.590 14.609 0.20113 1.3700 2.1012 1422.0 -0.0063759 322.55 0.15309 0.32659 3.0619 442.67 478.50 2.6233 1.0567 1.2519 205.25 0.77144 5.2318 0.0083088
-80.625 1.8155 6.8781e-05 16.721 16.744 0.21225 623.42 0.0016041 16.692 16.712 0.21208 1.3714 2.1041 1415.4 -0.0063516 317.99 0.15247 0.34763 2.8766 443.69 479.70 2.6169 1.0603 1.2558 205.67 0.76106 5.2587 0.0083860
-79.625 1.9402 7.2144e-05 18.828 18.852 0.22316 622.36 0.0016068 18.797 18.819 0.22299 1.3728 2.1070 1408.7 -0.0063270 313.52 0.15186 0.36974 2.7046 444.71 480.89 2.6106 1.0639 1.2598 206.10 0.75083 5.2857 0.0084634
-78.625 2.0718 7.5594e-05 20.937 20.963 0.23403 621.29 0.0016096 20.905 20.928 0.23385 1.3742 2.1099 1402.0 -0.0063021 309.15 0.15124 0.39296 2.5448 445.73 482.08 2.6045 1.0676 1.2639 206.51 0.74076 5.3126 0.0085411
-77.625 2.2107 7.9130e-05 23.049 23.077 0.24486 620.22 0.0016123 23.016 23.040 0.24468 1.3757 2.1129 1395.3 -0.0062768 304.88 0.15062 0.41735 2.3961 446.75 483.27 2.5985 1.0712 1.2680 206.93 0.73084 5.3395 0.0086190
-76.625 2.3571 8.2749e-05 25.165 25.194 0.25565 619.15 0.0016151 25.130 25.156 0.25546 1.3772 2.1159 1388.7 -0.0062512 300.69 0.15001 0.44292 2.2577 447.78 484.47 2.5926 1.0749 1.2721 207.34 0.72107 5.3664 0.0086972
-75.625 2.5113 8.6446e-05 27.283 27.314 0.26640 618.08 0.0016179 27.247 27.275 0.26620 1.3787 2.1190 1382.0 -0.0062253 296.59 0.14939 0.46974 2.1288 448.81 485.67 2.5869 1.0787 1.2762 207.74 0.71146 5.3933 0.0087757
-74.625 2.6736 9.0218e-05 29.404 29.438 0.27712 617.01 0.0016207 29.366 29.396 0.27691 1.3802 2.1221 1375.4 -0.0061990 292.58 0.14878 0.49783 2.0087 449.83 486.86 2.5812 1.0824 1.2804 208.14 0.70200 5.4201 0.0088544
-73.625 2.8444 9.4062e-05 31.529 31.564 0.28779 615.93 0.0016236 31.489 31.521 0.28758 1.3818 2.1252 1368.7 -0.0061724 288.65 0.14816 0.52725 1.8966 450.86 488.06 2.5757 1.0862 1.2847 208.54 0.69268 5.4469 0.0089334
-72.625 3.0240 9.7970e-05 33.656 33.694 0.29843 614.85 0.0016264 33.615 33.649 0.29821 1.3834 2.1284 1362.0 -0.0061454 284.81 0.14755 0.55804 1.7920 451.90 489.26 2.5703 1.0900 1.2889 208.93 0.68351 5.4737 0.0090126
-71.625 3.2127 0.00010194 35.787 35.827 0.30903 613.78 0.0016293 35.745 35.781 0.30880 1.3851 2.1316 1355.4 -0.0061181 281.03 0.14694 0.59024 1.6942 452.93 490.46 2.5650 1.0938 1.2932 209.32 0.67448 5.5005 0.0090922
-70.625 3.4108 0.00010596 37.921 37.963 0.31959 612.69 0.0016321 37.877 37.915 0.31935 1.3867 2.1349 1348.7 -0.0060904 277.34 0.14632 0.62390 1.6028 453.96 491.66 2.5598 1.0976 1.2976 209.70 0.66560 5.5273 0.0091720
-69.625 3.6187 0.00011003 40.058 40.103 0.33012 611.61 0.0016350 40.013 40.053 0.32987 1.3884 2.1382 1342.1 -0.0060624 273.72 0.14571 0.65906 1.5173 455.00 492.86 2.5547 1.1015 1.3020 210.08 0.65687 5.5540 0.0092520
-68.625 3.8367 0.00011415 42.199 42.246 0.34061 610.53 0.0016379 42.152 42.195 0.34036 1.3902 2.1415 1335.5 -0.0060339 270.17 0.14510 0.69577 1.4372 456.04 494.06 2.5497 1.1054 1.3064 210.45 0.64827 5.5807 0.0093324
-67.625 4.0652 0.00011829 44.343 44.393 0.35106 609.44 0.0016409 44.294 44.340 0.35080 1.3919 2.1449 1328.8 -0.0060051 266.69 0.14449 0.73408 1.3622 457.08 495.26 2.5448 1.1093 1.3109 210.82 0.63981 5.6074 0.0094130
-66.625 4.3046 0.00012246 46.490 46.543 0.36149 608.35 0.0016438 46.439 46.488 0.36122 1.3937 2.1483 1322.2 -0.0059760 263.28 0.14388 0.77404 1.2919 458.12 496.46 2.5400 1.1133 1.3154 211.18 0.63150 5.6341 0.0094939
-65.625 4.5551 0.00012665 48.640 48.697 0.37187 607.26 0.0016467 48.588 48.640 0.37160 1.3955 2.1518 1315.6 -0.0059464 259.93 0.14327 0.81570 1.2259 459.16 497.67 2.5353 1.1172 1.3200 211.54 0.62332 5.6608 0.0095750
-64.625 4.8173 0.00013084 50.794 50.854 0.38223 606.16 0.0016497 50.740 50.795 0.38195 1.3974 2.1553 1308.9 -0.0059164 256.65 0.14266 0.85910 1.1640 460.21 498.87 2.5307 1.1212 1.3246 211.89 0.61527 5.6874 0.0096564
-63.625 5.0915 0.00013503 52.951 53.015 0.39255 605.07 0.0016527 52.896 52.954 0.39226 1.3993 2.1588 1302.3 -0.0058861 253.42 0.14205 0.90429 1.1058 461.25 500.07 2.5262 1.1252 1.3293 212.24 0.60736 5.7140 0.0097382
-62.625 5.3781 0.00013920 55.112 55.179 0.40284 603.97 0.0016557 55.055 55.117 0.40254 1.4012 2.1624 1295.7 -0.0058553 250.26 0.14144 0.95134 1.0511 462.30 501.28 2.5218 1.1293 1.3340 212.58 0.59958 5.7406 0.0098201
-61.625 5.6774 0.00014335 57.276 57.347 0.41309 602.87 0.0016587 57.218 57.283 0.41279 1.4031 2.1660 1289.1 -0.0058241 247.16 0.14084 1.0003 0.99972 463.35 502.48 2.5175 1.1333 1.3387 212.92 0.59194 5.7672 0.0099024
-60.625 5.9899 0.00014745 59.444 59.519 0.42332 601.77 0.0016618 59.385 59.453 0.42301 1.4051 2.1697 1282.5 -0.0057925 244.12 0.14023 1.0512 0.95131 464.40 503.68 2.5133 1.1374 1.3435 213.26 0.58442 5.7938 0.0099850
-59.625 6.3160 0.00015151 61.616 61.694 0.43351 600.66 0.0016648 61.554 61.627 0.43320 1.4071 2.1734 1275.9 -0.0057605 241.13 0.13962 1.1041 0.90573 465.45 504.89 2.5091 1.1415 1.3483 213.58 0.57704 5.8203 0.010068
-58.625 6.6561 0.00015549 63.791 63.873 0.44367 599.55 0.0016679 63.728 63.805 0.44335 1.4091 2.1772 1269.3 -0.0057280 238.19 0.13902 1.1591 0.86277 466.50 506.09 2.5051 1.1457 1.3532 213.90 0.56978 5.8468 0.010151
-57.625 7.0107 0.00015940 65.969 66.057 0.45381 598.44 0.0016710 65.905 65.986 0.45348 1.4111 2.1810 1262.7 -0.0056951 235.31 0.13842 1.2161 0.82228 467.55 507.30 2.5011 1.1498 1.3581 214.22 0.56265 5.8733 0.010234
-56.625 7.3801 0.00016320 68.152 68.243 0.46391 597.33 0.0016741 68.086 68.172 0.46358 1.4132 2.1848 1256.1 -0.0056617 232.48 0.13781 1.2754 0.78408 468.60 508.50 2.4972 1.1540 1.3631 214.53 0.55564 5.8998 0.010318
-55.625 7.7648 0.00016690 70.338 70.434 0.47398 596.22 0.0016772 70.271 70.361 0.47364 1.4153 2.1887 1249.5 -0.0056279 229.69 0.13721 1.3369 0.74802 469.66 509.71 2.4934 1.1582 1.3681 214.84 0.54875 5.9263 0.010402
-54.625 8.1652 0.00017045 72.528 72.629 0.48402 595.10 0.0016804 72.460 72.554 0.48368 1.4174 2.1927 1242.9 -0.0055937 226.96 0.13661 1.4006 0.71396 470.72 510.91 2.4897 1.1624 1.3731 215.14 0.54199 5.9527 0.010486
-53.625 8.5819 0.00017386 74.721 74.828 0.49404 593.98 0.0016836 74.652 74.752 0.49369 1.4196 2.1967 1236.3 -0.0055589 224.27 0.13601 1.4667 0.68178 471.77 512.11 2.4860 1.1667 1.3782 215.43 0.53535 5.9792 0.010571
-52.625 9.0151 0.00017710 76.919 77.031 0.50403 592.86 0.0016867 76.849 76.954 0.50368 1.4218 2.2007 1229.8 -0.0055237 221.63 0.13541 1.5353 0.65136 472.83 513.32 2.4824 1.1710 1.3834 215.72 0.52882 6.0056 0.010656
-51.625 9.4655 0.00018014 79.120 79.238 0.51399 591.73 0.0016900 79.049 79.159 0.51363 1.4240 2.2048 1223.2 -0.0054880 219.04 0.13482 1.6062 0.62258 473.89 514.52 2.4789 1.1752 1.3886 216.00 0.52241 6.0320 0.010741
-50.625 9.9335 0.00018297 81.325 81.449 0.52392 590.60 0.0016932 81.253 81.369 0.52356 1.4262 2.2089 1216.6 -0.0054519 216.48 0.13422 1.6797 0.59534 474.95 515.73 2.4755 1.1796 1.3938 216.28 0.51612 6.0584 0.010827
-49.625 10.419 0.00018556 83.535 83.664 0.53383 589.47 0.0016964 83.462 83.584 0.53347 1.4285 2.2131 1210.1 -0.0054152 213.98 0.13363 1.7558 0.56954 476.01 516.93 2.4722 1.1839 1.3991 216.55 0.50994 6.0848 0.010913
-48.625 10.924 0.00018789 85.748 85.883 0.54370 588.34 0.0016997 85.674 85.802 0.54334 1.4308 2.2173 1203.5 -0.0053780 211.51 0.13303 1.8345 0.54510 477.07 518.13 2.4689 1.1883 1.4044 216.82 0.50387 6.1112 0.010999
-47.625 11.448 0.00018993 87.965 88.107 0.55356 587.20 0.0017030 87.891 88.025 0.55319 1.4331 2.2216 1196.9 -0.0053403 209.08 0.13244 1.9159 0.52194 478.14 519.33 2.4657 1.1927 1.4098 217.08 0.49792 6.1375 0.011085
-46.625 11.991 0.00019166 90.186 90.335 0.56338 586.06 0.0017063 90.111 90.252 0.56302 1.4354 2.2259 1190.4 -0.0053020 206.69 0.13185 2.0001 0.49997 479.20 520.53 2.4625 1.1971 1.4153 217.33 0.49207 6.1639 0.011172
-45.625 12.554 0.00019305 92.411 92.567 0.57318 584.92 0.0017096 92.336 92.484 0.57282 1.4378 2.2303 1183.8 -0.0052633 204.34 0.13126 2.0872 0.47912 480.27 521.74 2.4594 1.2015 1.4207 217.58 0.48633 6.1902 0.011259
-44.625 13.137 0.00019407 94.640 94.804 0.58296 583.77 0.0017130 94.565 94.720 0.58260 1.4402 2.2347 1177.3 -0.0052240 202.03 0.13067 2.1771 0.45933 481.33 522.94 2.4564 1.2060 1.4263 217.82 0.48069 6.2165 0.011347
-43.625 13.741 0.00019469 96.874 97.044 0.59271 582.62 0.0017164 96.799 96.961 0.59235 1.4426 2.2392 1170.7 -0.0051841 199.75 0.13008 2.2700 0.44053 482.40 524.14 2.4535 1.2104 1.4319 218.05 0.47516 6.2429 0.011435
-42.625 14.367 0.00019487 99.111 99.290 0.60244 581.47 0.0017198 99.036 99.207 0.60208 1.4450 2.2437 1164.2 -0.0051437 197.51 0.12949 2.3659 0.42267 483.46 525.33 2.4506 1.2149 1.4375 218.28 0.46973 6.2692 0.011523
-41.625 15.015 0.00019459 101.35 101.54 0.61214 580.32 0.0017232 101.28 101.46 0.61179 1.4475 2.2483 1157.7 -0.0051027 195.30 0.12891 2.4649 0.40569 484.53 526.53 2.4478 1.2195 1.4432 218.50 0.46440 6.2955 0.011612
-40.625 15.686 0.00019381 103.60 103.79 0.62182 579.16 0.0017266 103.52 103.71 0.62147 1.4500 2.2529 1151.1 -0.0050611 193.13 0.12832 2.5671 0.38954 485.60 527.73 2.4450 1.2240 1.4489 218.72 0.45917 6.3218 0.011701
-39.625 16.380 0.00019249 105.85 106.05 0.63148 578.00 0.0017301 105.78 105.97 0.63113 1.4525 2.2576 1144.6 -0.0050189 190.99 0.12774 2.6725 0.37418 486.67 528.93 2.4423 1.2286 1.4547 218.93 0.45403 6.3481 0.011790
-38.625 17.097 0.00019060 108.10 108.32 0.64111 576.83 0.0017336 108.03 108.24 0.64077 1.4550 2.2623 1138.0 -0.0049761 188.88 0.12716 2.7813 0.35955 487.74 530.12 2.4397 1.2332 1.4606 219.13 0.44900 6.3744 0.011880
-37.625 17.838 0.00018809 110.36 110.58 0.65073 575.66 0.0017371 110.29 110.51 0.65039 1.4576 2.2671 1131.5 -0.0049327 186.81 0.12658 2.8934 0.34562 488.81 531.32 2.4371 1.2378 1.4665 219.33 0.44405 6.4007 0.011970
-36.625 18.604 0.00018493 112.63 112.86 0.66031 574.49 0.0017407 112.56 112.78 0.65999 1.4602 2.2719 1125.0 -0.0048887 184.76 0.12600 3.0089 0.33235 489.88 532.51 2.4346 1.2424 1.4724 219.52 0.43920 6.4270 0.012060
-35.625 19.395 0.00018106 114.89 115.13 0.66988 573.32 0.0017442 114.83 115.06 0.66956 1.4628 2.2768 1118.5 -0.0048440 182.75 0.12542 3.1280 0.31969 490.95 533.70 2.4321 1.2471 1.4784 219.70 0.43444 6.4533 0.012151
-34.625 20.212 0.00017646 117.17 117.42 0.67943 572.14 0.0017478 117.10 117.34 0.67912 1.4654 2.2818 1111.9 -0.0047987 180.76 0.12485 3.2506 0.30763 492.02 534.89 2.4297 1.2517 1.4845 219.88 0.42977 6.4797 0.012243
-33.625 21.056 0.00017106 119.44 119.70 0.68895 570.96 0.0017514 119.38 119.63 0.68865 1.4681 2.2868 1105.4 -0.0047527 178.80 0.12427 3.3770 0.29612 493.09 536.08 2.4273 1.2564 1.4906 220.05 0.42519 6.5060 0.012334
-32.625 21.926 0.00016483 121.72 122.00 0.69845 569.77 0.0017551 121.66 121.93 0.69817 1.4708 2.2918 1098.9 -0.0047061 176.87 0.12370 3.5071 0.28514 494.17 537.27 2.4250 1.2611 1.4968 220.21 0.42070 6.5323 0.012426
-31.625 22.823 0.00015770 124.01 124.29 0.70794 568.58 0.0017588 123.95 124.23 0.70767 1.4735 2.2970 1092.3 -0.0046587 174.97 0.12313 3.6410 0.27465 495.24 538.46 2.4227 1.2659 1.5031 220.36 0.41629 6.5587 0.012519
-30.625 23.749 0.00014964 126.30 126.59 0.71740 567.39 0.0017625 126.24 126.53 0.71714 1.4762 2.3021 1085.8 -0.0046107 173.09 0.12256 3.7787 0.26464 496.31 539.64 2.4205 1.2706 1.5094 220.51 0.41196 6.5850 0.012612
-29.625 24.703 0.00014058 128.59 128.90 0.72684 566.19 0.0017662 128.54 128.84 0.72660 1.4790 2.3074 1079.3 -0.0045619 171.24 0.12200 3.9205 0.25507 497.38 540.83 2.4184 1.2754 1.5157 220.65 0.40772 6.6114 0.012706
-28.625 25.687 0.00013046 130.89 131.21 0.73626 564.99 0.0017699 130.84 131.16 0.73604 1.4818 2.3126 1072.8 -0.0045124 169.42 0.12143 4.0663 0.24592 498.46 542.01 2.4162 1.2802 1.5222 220.79 0.40356 6.6378 0.012800
-27.625 26.700 0.00011923 133.20 133.53 0.74566 563.78 0.0017737 133.15 133.48 0.74547 1.4846 2.3180 1066.2 -0.0044621 167.62 0.12087 4.2163 0.23717 499.53 543.19 2.4142 1.2850 1.5286 220.91 0.39947 6.6642 0.012894
-26.625 27.743 0.00010683 135.50 135.85 0.75505 562.57 0.0017775 135.47 135.81 0.75487 1.4874 2.3234 1059.7 -0.0044111 165.84 0.12031 4.3705 0.22881 500.60 544.37 2.4122 1.2899 1.5352 221.03 0.39547 6.6906 0.012989
-25.625 28.817 9.3188e-05 137.82 138.18 0.76441 561.36 0.0017814 137.78 138.14 0.76426 1.4902 2.3289 1053.2 -0.0043593 164.09 0.11975 4.5290 0.22080 501.68 545.55 2.4102 1.2947 1.5418 221.14 0.39154 6.7171 0.013084
-24.625 29.923 7.8242e-05 140.14 140.51 0.77376 560.14 0.0017853 140.11 140.48 0.77363 1.4931 2.3344 1046.7 -0.0043067 162.36 0.11919 4.6918 0.21314 502.75 546.72 2.4083 1.2996 1.5485 221.25 0.38768 6.7436 0.013180
-23.625 31.061 6.1922e-05 142.46 142.84 0.78308 558.92 0.0017892 142.44 142.82 0.78298 1.4960 2.3400 1040.1 -0.0042533 160.65 0.11863 4.8592 0.20580 503.82 547.90 2.4064 1.3045 1.5552 221.35 0.38391 6.7701 0.013277
-22.625 32.232 4.4155e-05 144.79 145.19 0.79239 557.69 0.0017931 144.77 145.17 0.79232 1.4990 2.3457 1033.6 -0.0041990 158.97 0.11807 5.0311 0.19877 504.90 549.07 2.4045 1.3095 1.5621 221.44 0.38020 6.7967 0.013374
-21.625 33.435 2.4867e-05 147.12 147.53 0.80168 556.46 0.0017971 147.11 147.52 0.80164 1.5019 2.3514 1027.1 -0.0041439 157.30 0.11752 5.2076 0.19203 505.97 550.24 2.4027 1.3144 1.5690 221.52 0.37656 6.8232 0.013471
-20.625 34.673 3.9798e-06 149.46 149.89 0.81096 555.23 0.0018011 149.45 149.88 0.81095 1.5049 2.3572 1020.6 -0.0040879 155.66 0.11697 5.3889 0.18557 507.04 551.40 2.4010 1.3194 1.5759 221.59 0.37300 6.8499 0.013569
-19.625 133.39 undefined 151.11 152.77 0.81751 555.00 0.0018018 151.11 152.77 0.81751 1.5084 2.3570 1021.7 -0.0041031 155.32 0.11696 555.00 0.0018018 151.11 152.77 0.81751 1.5084 2.3570 1021.7 -0.0041031 155.32 0.11696
-18.625 253.71 undefined 152.62 155.78 0.82346 555.00 0.0018018 152.62 155.78 0.82346 1.5120 2.3556 1024.4 -0.0041336 155.27 0.11707 555.00 0.0018018 152.62 155.78 0.82346 1.5120 2.3556 1024.4 -0.0041336 155.27 0.11707
-17.625 373.94 undefined 154.14 158.78 0.82939 555.00 0.0018018 154.14 158.78 0.82939 1.5157 2.3543 1027.2 -0.0041634 155.22 0.11718 555.00 0.0018018 154.14 158.78 0.82939 1.5157 2.3543 1027.2 -0.0041634 155.22 0.11718
-16.625 494.08 undefined 155.66 161.79 0.83532 555.00 0.0018018 155.66 161.79 0.83532 1.5194 2.3531 1029.9 -0.0041924 155.18 0.11730 555.00 0.0018018 155.66 161.79 0.83532 1.5194 2.3531 1029.9 -0.0041924 155.18 0.11730
-15.625 614.13 undefined 157.18 164.81 0.84124 555.00 0.0018018 157.18 164.81 0.84124 1.5230 2.3520 1032.6 -0.0042207 155.13 0.11741 555.00 0.0018018 157.18 164.81 0.84124 1.5230 2.3520 1032.6 -0.0042207 155.13 0.11741
-14.625 734.09 undefined 158.70 167.82 0.84715 555.00 0.0018018 158.70 167.82 0.84715 1.5267 2.3510 1035.3 -0.0042484 155.08 0.11752 555.00 0.0018018 158.70 167.82 0.84715 1.5267 2.3510 1035.3 -0.0042484 155.08 0.11752
-13.625 853.95 undefined 160.23 170.84 0.85305 555.00 0.0018018 160.23 170.84 0.85305 1.5305 2.3501 1037.9 -0.0042753 155.03 0.11763 555.00 0.0018018 160.23 170.84 0.85305 1.5305 2.3501 1037.9 -0.0042753 155.03 0.11763
-12.625 973.72 undefined 161.76 173.86 0.85894 555.00 0.0018018 161.76 173.86 0.85894 1.5342 2.3493 1040.5 -0.0043017 154.99 0.11775 555.00 0.0018018 161.76 173.86 0.85894 1.5342 2.3493 1040.5 -0.0043017 154.99 0.11775
-11.625 1093.4 undefined 163.30 176.88 0.86483 555.00 0.0018018 163.30 176.88 0.86483 1.5379 2.3486 1043.1 -0.0043274 154.94 0.11786 555.00 0.0018018 163.30 176.88 0.86483 1.5379 2.3486 1043.1 -0.0043274 154.94 0.11786
-10.625 1213.0 undefined 164.84 179.91 0.87071 555.00 0.0018018 164.84 179.91 0.87071 1.5417 2.3480 1045.7 -0.0043525 154.90 0.11798 555.00 0.0018018 164.84 179.91 0.87071 1.5417 2.3480 1045.7 -0.0043525 154.90 0.11798
-9.6250 1332.5 undefined 166.38 182.94 0.87657 555.00 0.0018018 166.38 182.94 0.87657 1.5455 2.3475 1048.3 -0.0043770 154.86 0.11809 555.00 0.0018018 166.38 182.94 0.87657 1.5455 2.3475 1048.3 -0.0043770 154.86 0.11809
-8.6250 1451.9 undefined 167.93 185.97 0.88244 555.00 0.0018018 167.93 185.97 0.88244 1.5493 2.3470 1050.8 -0.0044009 154.81 0.11821 555.00 0.0018018 167.93 185.97 0.88244 1.5493 2.3470 1050.8 -0.0044009 154.81 0.11821
-7.6250 1571.2 undefined 169.48 189.00 0.88829 555.00 0.0018018 169.48 189.00 0.88829 1.5531 2.3467 1053.3 -0.0044242 154.77 0.11832 555.00 0.0018018 169.48 189.00 0.88829 1.5531 2.3467 1053.3 -0.0044242 154.77 0.11832
-6.6250 1690.4 undefined 171.04 192.03 0.89413 555.00 0.0018018 171.04 192.03 0.89413 1.5569 2.3464 1055.8 -0.0044470 154.73 0.11844 555.00 0.0018018 171.04 192.03 0.89413 1.5569 2.3464 1055.8 -0.0044470 154.73 0.11844
-5.6250 1809.5 undefined 172.59 195.07 0.89997 555.00 0.0018018 172.59 195.07 0.89997 1.5607 2.3462 1058.3 -0.0044692 154.68 0.11855 555.00 0.0018018 172.59 195.07 0.89997 1.5607 2.3462 1058.3 -0.0044692 154.68 0.11855
-4.6250 1928.5 undefined 174.16 198.11 0.90580 555.00 0.0018018 174.16 198.11 0.90580 1.5646 2.3461 1060.8 -0.0044909 154.64 0.11867 555.00 0.0018018 174.16 198.11 0.90580 1.5646 2.3461 1060.8 -0.0044909 154.64 0.11867
-3.6250 2047.4 undefined 175.72 201.16 0.91162 555.00 0.0018018 175.72 201.16 0.91162 1.5685 2.3461 1063.2 -0.0045121 154.60 0.11878 555.00 0.0018018 175.72 201.16 0.91162 1.5685 2.3461 1063.2 -0.0045121 154.60 0.11878
-2.6250 2166.2 undefined 177.29 204.20 0.91744 555.00 0.0018018 177.29 204.20 0.91744 1.5723 2.3461 1065.6 -0.0045328 154.56 0.11890 555.00 0.0018018 177.29 204.20 0.91744 1.5723 2.3461 1065.6 -0.0045328 154.56 0.11890
-1.6250 2284.9 undefined 178.87 207.25 0.92325 555.00 0.0018018 178.87 207.25 0.92325 1.5762 2.3462 1068.0 -0.0045529 154.52 0.11902 555.00 0.0018018 178.87 207.25 0.92325 1.5762 2.3462 1068.0 -0.0045529 154.52 0.11902
-0.62500 2403.5 undefined 180.45 210.31 0.92905 555.00 0.0018018 180.45 210.31 0.92905 1.5801 2.3463 1070.4 -0.0045726 154.48 0.11914 555.00 0.0018018 180.45 210.31 0.92905 1.5801 2.3463 1070.4 -0.0045726 154.48 0.11914
0.37500 2522.0 undefined 182.03 213.36 0.93485 555.00 0.0018018 182.03 213.36 0.93485 1.5841 2.3466 1072.8 -0.0045918 154.45 0.11925 555.00 0.0018018 182.03 213.36 0.93485 1.5841 2.3466 1072.8 -0.0045918 154.45 0.11925
1.3750 2640.5 undefined 183.61 216.42 0.94063 555.00 0.0018018 183.61 216.42 0.94063 1.5880 2.3469 1075.1 -0.0046106 154.41 0.11937 555.00 0.0018018 183.61 216.42 0.94063 1.5880 2.3469 1075.1 -0.0046106 154.41 0.11937
2.3750 2758.8 undefined 185.20 219.48 0.94641 555.00 0.0018018 185.20 219.48 0.94641 1.5920 2.3473 1077.5 -0.0046289 154.37 0.11949 555.00 0.0018018 185.20 219.48 0.94641 1.5920 2.3473 1077.5 -0.0046289 154.37 0.11949
3.3750 2877.0 undefined 186.80 222.54 0.95219 555.00 0.0018018 186.80 222.54 0.95219 1.5959 2.3477 1079.8 -0.0046467 154.33 0.11961 555.00 0.0018018 186.80 222.54 0.95219 1.5959 2.3477 1079.8 -0.0046467 154.33 0.11961
4.3750 2995.1 undefined 188.40 225.60 0.95796 555.00 0.0018018 188.40 225.60 0.95796 1.5999 2.3482 1082.1 -0.0046641 154.30 0.11973 555.00 0.0018018 188.40 225.60 0.95796 1.5999 2.3482 1082.1 -0.0046641 154.30 0.11973
5.3750 3113.1 undefined 190.00 228.67 0.96372 555.00 0.0018018 190.00 228.67 0.96372 1.6039 2.3487 1084.4 -0.0046811 154.26 0.11985 555.00 0.0018018 190.00 228.67 0.96372 1.6039 2.3487 1084.4 -0.0046811 154.26 0.11985
6.3750 3231.0 undefined 191.60 231.74 0.96947 555.00 0.0018018 191.60 231.74 0.96947 1.6079 2.3494 1086.6 -0.0046977 154.23 0.11997 555.00 0.0018018 191.60 231.74 0.96947 1.6079 2.3494 1086.6 -0.0046977 154.23 0.11997
7.3750 3348.8 undefined 193.21 234.82 0.97522 555.00 0.0018018 193.21 234.82 0.97522 1.6119 2.3500 1088.9 -0.0047139 154.19 0.12009 555.00 0.0018018 193.21 234.82 0.97522 1.6119 2.3500 1088.9 -0.0047139 154.19 0.12009
8.3750 3466.5 undefined 194.83 237.89 0.98097 555.00 0.0018018 194.83 237.89 0.98097 1.6159 2.3508 1091.1 -0.0047297 154.16 0.12021 555.00 0.0018018 194.83 237.89 0.98097 1.6159 2.3508 1091.1 -0.0047297 154.16 0.12021
9.3750 3584.1 undefined 196.45 240.97 0.98670 555.00 0.0018018 196.45 240.97 0.98670 1.6200 2.3516 1093.3 -0.0047450 154.12 0.12033 555.00 0.0018018 196.45 240.97 0.98670 1.6200 2.3516 1093.3 -0.0047450 154.12 0.12033
10.375 3701.6 undefined 198.07 244.05 0.99243 555.00 0.0018018 198.07 244.05 0.99243 1.6240 2.3524 1095.5 -0.0047600 154.09 0.12045 555.00 0.0018018 198.07 244.05 0.99243 1.6240 2.3524 1095.5 -0.0047600 154.09 0.12045
11.375 3819.0 undefined 199.69 247.14 0.99816 555.00 0.0018018 199.69 247.14 0.99816 1.6281 2.3533 1097.7 -0.0047747 154.06 0.12057 555.00 0.0018018 199.69 247.14 0.99816 1.6281 2.3533 1097.7 -0.0047747 154.06 0.12057
12.375 3936.3 undefined 201.32 250.22 1.0039 555.00 0.0018018 201.32 250.22 1.0039 1.6322 2.3542 1099.9 -0.0047889 154.02 0.12069 555.00 0.0018018 201.32 250.22 1.0039 1.6322 2.3542 1099.9 -0.0047889 154.02 0.12069
13.375 4053.4 undefined 202.96 253.31 1.0096 555.00 0.0018018 202.96 253.31 1.0096 1.6363 2.3552 1102.0 -0.0048029 153.99 0.12082 555.00 0.0018018 202.96 253.31 1.0096 1.6363 2.3552 1102.0 -0.0048029 153.99 0.12082
14.375 4170.5 undefined 204.60 256.41 1.0153 555.00 0.0018018 204.60 256.41 1.0153 1.6404 2.3563 1104.2 -0.0048164 153.96 0.12094 555.00 0.0018018 204.60 256.41 1.0153 1.6404 2.3563 1104.2 -0.0048164 153.96 0.12094
15.375 4287.5 undefined 206.24 259.50 1.0210 555.00 0.0018018 206.24 259.50 1.0210 1.6445 2.3574 1106.3 -0.0048296 153.93 0.12106 555.00 0.0018018 206.24 259.50 1.0210 1.6445 2.3574 1106.3 -0.0048296 153.93 0.12106
16.375 4404.3 undefined 207.89 262.60 1.0267 555.00 0.0018018 207.89 262.60 1.0267 1.6486 2.3585 1108.4 -0.0048425 153.90 0.12119 555.00 0.0018018 207.89 262.60 1.0267 1.6486 2.3585 1108.4 -0.0048425 153.90 0.12119
17.375 4521.1 undefined 209.54 265.70 1.0324 555.00 0.0018018 209.54 265.70 1.0324 1.6527 2.3597 1110.5 -0.0048551 153.87 0.12131 555.00 0.0018018 209.54 265.70 1.0324 1.6527 2.3597 1110.5 -0.0048551 153.87 0.12131
18.375 4637.8 undefined 211.19 268.81 1.0381 555.00 0.0018018 211.19 268.81 1.0381 1.6569 2.3610 1112.6 -0.0048673 153.84 0.12143 555.00 0.0018018 211.19 268.81 1.0381 1.6569 2.3610 1112.6 -0.0048673 153.84 0.12143
19.375 4754.3 undefined 212.85 271.91 1.0438 555.00 0.0018018 212.85 271.91 1.0438 1.6610 2.3623 1114.7 -0.0048792 153.81 0.12156 555.00 0.0018018 212.85 271.91 1.0438 1.6610 2.3623 1114.7 -0.0048792 153.81 0.12156
20.375 4870.7 undefined 214.51 275.02 1.0494 555.00 0.0018018 214.51 275.02 1.0494 1.6652 2.3636 1116.8 -0.0048908 153.78 0.12168 555.00 0.0018018 214.51 275.02 1.0494 1.6652 2.3636 1116.8 -0.0048908 153.78 0.12168
21.375 4987.1 undefined 216.18 278.13 1.0551 555.00 0.0018018 216.18 278.13 1.0551 1.6693 2.3650 1118.8 -0.0049022 153.75 0.12181 555.00 0.0018018 216.18 278.13 1.0551 1.6693 2.3650 1118.8 -0.0049022 153.75 0.12181
22.375 5103.3 undefined 217.85 281.25 1.0608 555.00 0.0018018 217.85 281.25 1.0608 1.6735 2.3664 1120.8 -0.0049132 153.72 0.12193 555.00 0.0018018 217.85 281.25 1.0608 1.6735 2.3664 1120.8 -0.0049132 153.72 0.12193
23.375 5219.4 undefined 219.53 284.37 1.0664 555.00 0.0018018 219.53 284.37 1.0664 1.6777 2.3678 1122.9 -0.0049239 153.69 0.12206 555.00 0.0018018 219.53 284.37 1.0664 1.6777 2.3678 1122.9 -0.0049239 153.69 0.12206
24.375 5335.4 undefined 221.21 287.49 1.0721 555.00 0.0018018 221.21 287.49 1.0721 1.6819 2.3693 1124.9 -0.0049343 153.67 0.12218 555.00 0.0018018 221.21 287.49 1.0721 1.6819 2.3693 1124.9 -0.0049343 153.67 0.12218
25.375 5451.4 undefined 222.89 290.61 1.0777 555.00 0.0018018 222.89 290.61 1.0777 1.6861 2.3709 1126.9 -0.0049445 153.64 0.12231 555.00 0.0018018 222.89 290.61 1.0777 1.6861 2.3709 1126.9 -0.0049445 153.64 0.12231
26.375 5567.2 undefined 224.58 293.74 1.0834 555.00 0.0018018 224.58 293.74 1.0834 1.6903 2.3725 1128.9 -0.0049544 153.61 0.12243 555.00 0.0018018 224.58 293.74 1.0834 1.6903 2.3725 1128.9 -0.0049544 153.61 0.12243
27.375 5682.9 undefined 226.27 296.87 1.0890 555.00 0.0018018 226.27 296.87 1.0890 1.6946 2.3741 1130.9 -0.0049640 153.59 0.12256 555.00 0.0018018 226.27 296.87 1.0890 1.6946 2.3741 1130.9 -0.0049640 153.59 0.12256
28.375 5798.5 undefined 227.97 300.00 1.0947 555.00 0.0018018 227.97 300.00 1.0947 1.6988 2.3757 1132.9 -0.0049733 153.56 0.12269 555.00 0.0018018 227.97 300.00 1.0947 1.6988 2.3757 1132.9 -0.0049733 153.56 0.12269
29.375 5913.9 undefined 229.67 303.14 1.1003 555.00 0.0018018 229.67 303.14 1.1003 1.7030 2.3774 1134.8 -0.0049824 153.54 0.12281 555.00 0.0018018 229.67 303.14 1.1003 1.7030 2.3774 1134.8 -0.0049824 153.54 0.12281
30.375 6029.3 undefined 231.37 306.28 1.1059 555.00 0.0018018 231.37 306.28 1.1059 1.7073 2.3791 1136.8 -0.0049913 153.51 0.12294 555.00 0.0018018 231.37 306.28 1.1059 1.7073 2.3791 1136.8 -0.0049913 153.51 0.12294
31.375 6144.6 undefined 233.08 309.42 1.1115 555.00 0.0018018 233.08 309.42 1.1115 1.7115 2.3809 1138.7 -0.0049998 153.49 0.12307 555.00 0.0018018 233.08 309.42 1.1115 1.7115 2.3809 1138.7 -0.0049998 153.49 0.12307
32.375 6259.8 undefined 234.80 312.56 1.1172 555.00 0.0018018 234.80 312.56 1.1172 1.7158 2.3827 1140.6 -0.0050082 153.46 0.12320 555.00 0.0018018 234.80 312.56 1.1172 1.7158 2.3827 1140.6 -0.0050082 153.46 0.12320
33.375 6374.8 undefined 236.52 315.71 1.1228 555.00 0.0018018 236.52 315.71 1.1228 1.7201 2.3845 1142.6 -0.0050163 153.44 0.12332 555.00 0.0018018 236.52 315.71 1.1228 1.7201 2.3845 1142.6 -0.0050163 153.44 0.12332
34.375 6489.8 undefined 238.24 318.86 1.1284 555.00 0.0018018 238.24 318.86 1.1284 1.7243 2.3864 1144.5 -0.0050242 153.42 0.12345 555.00 0.0018018 238.24 318.86 1.1284 1.7243 2.3864 1144.5 -0.0050242 153.42 0.12345
35.375 6604.6 undefined 239.96 322.01 1.1340 555.00 0.0018018 239.96 322.01 1.1340 1.7286 2.3883 1146.4 -0.0050318 153.39 0.12358 555.00 0.0018018 239.96 322.01 1.1340 1.7286 2.3883 1146.4 -0.0050318 153.39 0.12358
36.375 6719.4 undefined 241.69 325.17 1.1396 555.00 0.0018018 241.69 325.17 1.1396 1.7329 2.3902 1148.3 -0.0050392 153.37 0.12371 555.00 0.0018018 241.69 325.17 1.1396 1.7329 2.3902 1148.3 -0.0050392 153.37 0.12371
37.375 6834.0 undefined 243.43 328.33 1.1452 555.00 0.0018018 243.43 328.33 1.1452 1.7372 2.3922 1150.1 -0.0050464 153.35 0.12384 555.00 0.0018018 243.43 328.33 1.1452 1.7372 2.3922 1150.1 -0.0050464 153.35 0.12384
38.375 6948.5 undefined 245.17 331.49 1.1508 555.00 0.0018018 245.17 331.49 1.1508 1.7415 2.3942 1152.0 -0.0050534 153.33 0.12397 555.00 0.0018018 245.17 331.49 1.1508 1.7415 2.3942 1152.0 -0.0050534 153.33 0.12397
39.375 7063.0 undefined 246.91 334.66 1.1564 555.00 0.0018018 246.91 334.66 1.1564 1.7458 2.3962 1153.9 -0.0050602 153.30 0.12410 555.00 0.0018018 246.91 334.66 1.1564 1.7458 2.3962 1153.9 -0.0050602 153.30 0.12410
40.375 7177.3 undefined 248.66 337.82 1.1619 555.00 0.0018018 248.66 337.82 1.1619 1.7501 2.3983 1155.7 -0.0050667 153.28 0.12423 555.00 0.0018018 248.66 337.82 1.1619 1.7501 2.3983 1155.7 -0.0050667 153.28 0.12423
41.375 7291.5 undefined 250.41 341.00 1.1675 555.00 0.0018018 250.41 341.00 1.1675 1.7544 2.4004 1157.6 -0.0050731 153.26 0.12436 555.00 0.0018018 250.41 341.00 1.1675 1.7544 2.4004 1157.6 -0.0050731 153.26 0.12436
42.375 7405.6 undefined 252.17 344.17 1.1731 555.00 0.0018018 252.17 344.17 1.1731 1.7588 2.4025 1159.4 -0.0050793 153.24 0.12449 555.00 0.0018018 252.17 344.17 1.1731 1.7588 2.4025 1159.4 -0.0050793 153.24 0.12449
43.375 7519.6 undefined 253.93 347.35 1.1787 555.00 0.0018018 253.93 347.35 1.1787 1.7631 2.4046 1161.3 -0.0050852 153.22 0.12462 555.00 0.0018018 253.93 347.35 1.1787 1.7631 2.4046 1161.3 -0.0050852 153.22 0.12462
44.375 7633.5 undefined 255.70 350.53 1.1842 555.00 0.0018018 255.70 350.53 1.1842 1.7674 2.4068 1163.1 -0.0050910 153.20 0.12475 555.00 0.0018018 255.70 350.53 1.1842 1.7674 2.4068 1163.1 -0.0050910 153.20 0.12475
45.375 7747.3 undefined 257.47 353.71 1.1898 555.00 0.0018018 257.47 353.71 1.1898 1.7718 2.4090 1164.9 -0.0050965 153.18 0.12488 555.00 0.0018018 257.47 353.71 1.1898 1.7718 2.4090 1164.9 -0.0050965 153.18 0.12488
46.375 7861.0 undefined 259.24 356.90 1.1954 555.00 0.0018018 259.24 356.90 1.1954 1.7761 2.4112 1166.7 -0.0051019 153.16 0.12502 555.00 0.0018018 259.24 356.90 1.1954 1.7761 2.4112 1166.7 -0.0051019 153.16 0.12502
47.375 7974.6 undefined 261.02 360.09 1.2009 555.00 0.0018018 261.02 360.09 1.2009 1.7804 2.4134 1168.5 -0.0051071 153.14 0.12515 555.00 0.0018018 261.02 360.09 1.2009 1.7804 2.4134 1168.5 -0.0051071 153.14 0.12515
48.375 8088.1 undefined 262.80 363.28 1.2065 555.00 0.0018018 262.80 363.28 1.2065 1.7848 2.4157 1170.3 -0.0051122 153.12 0.12528 555.00 0.0018018 262.80 363.28 1.2065 1.7848 2.4157 1170.3 -0.0051122 153.12 0.12528
49.375 8201.4 undefined 264.59 366.47 1.2120 555.00 0.0018018 264.59 366.47 1.2120 1.7891 2.4180 1172.1 -0.0051170 153.11 0.12541 555.00 0.0018018 264.59 366.47 1.2120 1.7891 2.4180 1172.1 -0.0051170 153.11 0.12541
50.375 8314.7 undefined 266.38 369.67 1.2176 555.00 0.0018018 266.38 369.67 1.2176 1.7935 2.4203 1173.9 -0.0051217 153.09 0.12555 555.00 0.0018018 266.38 369.67 1.2176 1.7935 2.4203 1173.9 -0.0051217 153.09 0.12555
51.375 8427.9 undefined 268.17 372.87 1.2231 555.00 0.0018018 268.17 372.87 1.2231 1.7979 2.4227 1175.6 -0.0051262 153.07 0.12568 555.00 0.0018018 268.17 372.87 1.2231 1.7979 2.4227 1175.6 -0.0051262 153.07 0.12568
52.375 8541.0 undefined 269.97 376.08 1.2287 555.00 0.0018018 269.97 376.08 1.2287 1.8022 2.4250 1177.4 -0.0051306 153.05 0.12581 555.00 0.0018018 269.97 376.08 1.2287 1.8022 2.4250 1177.4 -0.0051306 153.05 0.12581
53.375 8653.9 undefined 271.78 379.29 1.2342 555.00 0.0018018 271.78 379.29 1.2342 1.8066 2.4274 1179.2 -0.0051347 153.04 0.12595 555.00 0.0018018 271.78 379.29 1.2342 1.8066 2.4274 1179.2 -0.0051347 153.04 0.12595
54.375 8766.8 undefined 273.59 382.50 1.2397 555.00 0.0018018 273.59 382.50 1.2397 1.8110 2.4298 1180.9 -0.0051388 153.02 0.12608 555.00 0.0018018 273.59 382.50 1.2397 1.8110 2.4298 1180.9 -0.0051388 153.02 0.12608
55.375 8879.5 undefined 275.40 385.71 1.2452 555.00 0.0018018 275.40 385.71 1.2452 1.8153 2.4323 1182.6 -0.0051426 153.00 0.12622 555.00 0.0018018 275.40 385.71 1.2452 1.8153 2.4323 1182.6 -0.0051426 153.00 0.12622
56.375 8992.2 undefined 277.22 388.93 1.2508 555.00 0.0018018 277.22 388.93 1.2508 1.8197 2.4347 1184.4 -0.0051463 152.99 0.12635 555.00 0.0018018 277.22 388.93 1.2508 1.8197 2.4347 1184.4 -0.0051463 152.99 0.12635
57.375 9104.7 undefined 279.04 392.15 1.2563 555.00 0.0018018 279.04 392.15 1.2563 1.8241 2.4372 1186.1 -0.0051499 152.97 0.12649 555.00 0.0018018 279.04 392.15 1.2563 1.8241 2.4372 1186.1 -0.0051499 152.97 0.12649
58.375 9217.2 undefined 280.87 395.37 1.2618 555.00 0.0018018 280.87 395.37 1.2618 1.8285 2.4397 1187.8 -0.0051533 152.95 0.12662 555.00 0.0018018 280.87 395.37 1.2618 1.8285 2.4397 1187.8 -0.0051533 152.95 0.12662
59.375 9329.5 undefined 282.70 398.60 1.2673 555.00 0.0018018 282.70 398.60 1.2673 1.8329 2.4422 1189.5 -0.0051566 152.94 0.12676 555.00 0.0018018 282.70 398.60 1.2673 1.8329 2.4422 1189.5 -0.0051566 152.94 0.12676
60.375 9441.8 undefined 284.53 401.83 1.2728 555.00 0.0018018 284.53 401.83 1.2728 1.8372 2.4448 1191.3 -0.0051597 152.92 0.12689 555.00 0.0018018 284.53 401.83 1.2728 1.8372 2.4448 1191.3 -0.0051597 152.92 0.12689
61.375 9553.9 undefined 286.37 405.06 1.2783 555.00 0.0018018 286.37 405.06 1.2783 1.8416 2.4473 1193.0 -0.0051627 152.91 0.12703 555.00 0.0018018 286.37 405.06 1.2783 1.8416 2.4473 1193.0 -0.0051627 152.91 0.12703
62.375 9665.9 undefined 288.22 408.30 1.2838 555.00 0.0018018 288.22 408.30 1.2838 1.8460 2.4499 1194.6 -0.0051655 152.89 0.12717 555.00 0.0018018 288.22 408.30 1.2838 1.8460 2.4499 1194.6 -0.0051655 152.89 0.12717
63.375 9777.9 undefined 290.06 411.53 1.2893 555.00 0.0018018 290.06 411.53 1.2893 1.8504 2.4525 1196.3 -0.0051683 152.88 0.12730 555.00 0.0018018 290.06 411.53 1.2893 1.8504 2.4525 1196.3 -0.0051683 152.88 0.12730
64.375 9889.7 undefined 291.92 414.78 1.2948 555.00 0.0018018 291.92 414.78 1.2948 1.8548 2.4551 1198.0 -0.0051708 152.87 0.12744 555.00 0.0018018 291.92 414.78 1.2948 1.8548 2.4551 1198.0 -0.0051708 152.87 0.12744
65.375 10001. undefined 293.77 418.02 1.3003 555.00 0.0018018 293.77 418.02 1.3003 1.8592 2.4577 1199.7 -0.0051733 152.85 0.12758 555.00 0.0018018 293.77 418.02 1.3003 1.8592 2.4577 1199.7 -0.0051733 152.85 0.12758
66.375 10113. undefined 295.63 421.27 1.3058 555.00 0.0018018 295.63 421.27 1.3058 1.8636 2.4604 1201.4 -0.0051756 152.84 0.12772 555.00 0.0018018 295.63 421.27 1.3058 1.8636 2.4604 1201.4 -0.0051756 152.84 0.12772
67.375 10225. undefined 297.50 424.52 1.3113 555.00 0.0018018 297.50 424.52 1.3113 1.8680 2.4631 1203.0 -0.0051778 152.83 0.12786 555.00 0.0018018 297.50 424.52 1.3113 1.8680 2.4631 1203.0 -0.0051778 152.83 0.12786
68.375 10336. undefined 299.37 427.78 1.3168 555.00 0.0018018 299.37 427.78 1.3168 1.8724 2.4657 1204.7 -0.0051799 152.81 0.12799 555.00 0.0018018 299.37 427.78 1.3168 1.8724 2.4657 1204.7 -0.0051799 152.81 0.12799
69.375 10447. undefined 301.25 431.03 1.3223 555.00 0.0018018 301.25 431.03 1.3223 1.8768 2.4684 1206.3 -0.0051819 152.80 0.12813 555.00 0.0018018 301.25 431.03 1.3223 1.8768 2.4684 1206.3 -0.0051819 152.80 0.12813
70.375 10559. undefined 303.12 434.29 1.3278 555.00 0.0018018 303.12 434.29 1.3278 1.8812 2.4712 1208.0 -0.0051837 152.79 0.12827 555.00 0.0018018 303.12 434.29 1.3278 1.8812 2.4712 1208.0 -0.0051837 152.79 0.12827
71.375 10670. undefined 305.01 437.56 1.3332 555.00 0.0018018 305.01 437.56 1.3332 1.8856 2.4739 1209.6 -0.0051855 152.78 0.12841 555.00 0.0018018 305.01 437.56 1.3332 1.8856 2.4739 1209.6 -0.0051855 152.78 0.12841
72.375 10781. undefined 306.90 440.82 1.3387 555.00 0.0018018 306.90 440.82 1.3387 1.8900 2.4766 1211.3 -0.0051871 152.76 0.12855 555.00 0.0018018 306.90 440.82 1.3387 1.8900 2.4766 1211.3 -0.0051871 152.76 0.12855
73.375 10892. undefined 308.79 444.10 1.3442 555.00 0.0018018 308.79 444.10 1.3442 1.8944 2.4794 1212.9 -0.0051886 152.75 0.12869 555.00 0.0018018 308.79 444.10 1.3442 1.8944 2.4794 1212.9 -0.0051886 152.75 0.12869
74.375 11003. undefined 310.68 447.37 1.3496 555.00 0.0018018 310.68 447.37 1.3496 1.8988 2.4822 1214.5 -0.0051900 152.74 0.12883 555.00 0.0018018 310.68 447.37 1.3496 1.8988 2.4822 1214.5 -0.0051900 152.74 0.12883
75.375 11113. undefined 312.58 450.65 1.3551 555.00 0.0018018 312.58 450.65 1.3551 1.9032 2.4850 1216.1 -0.0051913 152.73 0.12897 555.00 0.0018018 312.58 450.65 1.3551 1.9032 2.4850 1216.1 -0.0051913 152.73 0.12897
76.375 11224. undefined 314.49 453.93 1.3606 555.00 0.0018018 314.49 453.93 1.3606 1.9076 2.4878 1217.8 -0.0051925 152.72 0.12911 555.00 0.0018018 314.49 453.93 1.3606 1.9076 2.4878 1217.8 -0.0051925 152.72 0.12911
77.375 11334. undefined 316.40 457.21 1.3660 555.00 0.0018018 316.40 457.21 1.3660 1.9120 2.4906 1219.4 -0.0051936 152.71 0.12925 555.00 0.0018018 316.40 457.21 1.3660 1.9120 2.4906 1219.4 -0.0051936 152.71 0.12925
78.375 11445. undefined 318.31 460.49 1.3715 555.00 0.0018018 318.31 460.49 1.3715 1.9164 2.4934 1221.0 -0.0051945 152.70 0.12939 555.00 0.0018018 318.31 460.49 1.3715 1.9164 2.4934 1221.0 -0.0051945 152.70 0.12939
79.375 11555. undefined 320.23 463.78 1.3769 555.00 0.0018018 320.23 463.78 1.3769 1.9208 2.4963 1222.6 -0.0051954 152.69 0.12954 555.00 0.0018018 320.23 463.78 1.3769 1.9208 2.4963 1222.6 -0.0051954 152.69 0.12954
80.375 11666. undefined 322.16 467.08 1.3824 555.00 0.0018018 322.16 467.08 1.3824 1.9252 2.4991 1224.2 -0.0051962 152.68 0.12968 555.00 0.0018018 322.16 467.08 1.3824 1.9252 2.4991 1224.2 -0.0051962 152.68 0.12968
81.375 11776. undefined 324.08 470.37 1.3878 555.00 0.0018018 324.08 470.37 1.3878 1.9296 2.5020 1225.8 -0.0051969 152.67 0.12982 555.00 0.0018018 324.08 470.37 1.3878 1.9296 2.5020 1225.8 -0.0051969 152.67 0.12982
82.375 11886. undefined 326.01 473.67 1.3932 555.00 0.0018018 326.01 473.67 1.3932 1.9340 2.5049 1227.3 -0.0051975 152.66 0.12996 555.00 0.0018018 326.01 473.67 1.3932 1.9340 2.5049 1227.3 -0.0051975 152.66 0.12996
83.375 11996. undefined 327.95 476.97 1.3987 555.00 0.0018018 327.95 476.97 1.3987 1.9383 2.5078 1228.9 -0.0051980 152.65 0.13011 555.00 0.0018018 327.95 476.97 1.3987 1.9383 2.5078 1228.9 -0.0051980 152.65 0.13011
84.375 12106. undefined 329.89 480.28 1.4041 555.00 0.0018018 329.89 480.28 1.4041 1.9427 2.5107 1230.5 -0.0051985 152.64 0.13025 555.00 0.0018018 329.89 480.28 1.4041 1.9427 2.5107 1230.5 -0.0051985 152.64 0.13025
85.375 12215. undefined 331.84 483.59 1.4096 555.00 0.0018018 331.84 483.59 1.4096 1.9471 2.5136 1232.1 -0.0051988 152.63 0.13039 555.00 0.0018018 331.84 483.59 1.4096 1.9471 2.5136 1232.1 -0.0051988 152.63 0.13039
86.375 12325. undefined 333.79 486.90 1.4150 555.00 0.0018018 333.79 486.90 1.4150 1.9515 2.5166 1233.6 -0.0051991 152.62 0.13054 555.00 0.0018018 333.79 486.90 1.4150 1.9515 2.5166 1233.6 -0.0051991 152.62 0.13054
87.375 12435. undefined 335.74 490.21 1.4204 555.00 0.0018018 335.74 490.21 1.4204 1.9559 2.5195 1235.2 -0.0051992 152.61 0.13068 555.00 0.0018018 335.74 490.21 1.4204 1.9559 2.5195 1235.2 -0.0051992 152.61 0.13068
88.375 12544. undefined 337.70 493.53 1.4258 555.00 0.0018018 337.70 493.53 1.4258 1.9603 2.5225 1236.7 -0.0051993 152.60 0.13082 555.00 0.0018018 337.70 493.53 1.4258 1.9603 2.5225 1236.7 -0.0051993 152.60 0.13082
89.375 12653. undefined 339.66 496.85 1.4313 555.00 0.0018018 339.66 496.85 1.4313 1.9647 2.5254 1238.3 -0.0051993 152.60 0.13097 555.00 0.0018018 339.66 496.85 1.4313 1.9647 2.5254 1238.3 -0.0051993 152.60 0.13097
90.375 12763. undefined 341.63 500.18 1.4367 555.00 0.0018018 341.63 500.18 1.4367 1.9691 2.5284 1239.8 -0.0051993 152.59 0.13111 555.00 0.0018018 341.63 500.18 1.4367 1.9691 2.5284 1239.8 -0.0051993 152.59 0.13111
91.375 12872. undefined 343.60 503.51 1.4421 555.00 0.0018018 343.60 503.51 1.4421 1.9735 2.5314 1241.4 -0.0051991 152.58 0.13126 555.00 0.0018018 343.60 503.51 1.4421 1.9735 2.5314 1241.4 -0.0051991 152.58 0.13126
92.375 12981. undefined 345.57 506.84 1.4475 555.00 0.0018018 345.57 506.84 1.4475 1.9779 2.5344 1242.9 -0.0051989 152.57 0.13140 555.00 0.0018018 345.57 506.84 1.4475 1.9779 2.5344 1242.9 -0.0051989 152.57 0.13140
93.375 13090. undefined 347.55 510.17 1.4529 555.00 0.0018018 347.55 510.17 1.4529 1.9823 2.5374 1244.5 -0.0051986 152.57 0.13155 555.00 0.0018018 347.55 510.17 1.4529 1.9823 2.5374 1244.5 -0.0051986 152.57 0.13155
94.375 13199. undefined 349.54 513.51 1.4583 555.00 0.0018018 349.54 513.51 1.4583 1.9866 2.5404 1246.0 -0.0051982 152.56 0.13170 555.00 0.0018018 349.54 513.51 1.4583 1.9866 2.5404 1246.0 -0.0051982 152.56 0.13170
95.375 13308. undefined 351.53 516.85 1.4637 555.00 0.0018018 351.53 516.85 1.4637 1.9910 2.5434 1247.5 -0.0051978 152.55 0.13184 555.00 0.0018018 351.53 516.85 1.4637 1.9910 2.5434 1247.5 -0.0051978 152.55 0.13184
96.375 13417. undefined 353.52 520.19 1.4691 555.00 0.0018018 353.52 520.19 1.4691 1.9954 2.5465 1249.0 -0.0051973 152.55 0.13199 555.00 0.0018018 353.52 520.19 1.4691 1.9954 2.5465 1249.0 -0.0051973 152.55 0.13199
97.375 13525. undefined 355.52 523.54 1.4745 555.00 0.0018018 355.52 523.54 1.4745 1.9998 2.5495 1250.5 -0.0051967 152.54 0.13214 555.00 0.0018018 355.52 523.54 1.4745 1.9998 2.5495 1250.5 -0.0051967 152.54 0.13214
98.375 13634. undefined 357.52 526.89 1.4799 555.00 0.0018018 357.52 526.89 1.4799 2.0042 2.5526 1252.0 -0.0051960 152.53 0.13228 555.00 0.0018018 357.52 526.89 1.4799 2.0042 2.5526 1252.0 -0.0051960 152.53 0.13228
99.375 13742. undefined 359.53 530.25 1.4853 555.00 0.0018018 359.53 530.25 1.4853 2.0085 2.5556 1253.6 -0.0051953 152.53 0.13243 555.00 0.0018018 359.53 530.25 1.4853 2.0085 2.5556 1253.6 -0.0051953 152.53 0.13243
100.38 13851. undefined 361.54 533.60 1.4907 555.00 0.0018018 361.54 533.60 1.4907 2.0129 2.5587 1255.1 -0.0051946 152.52 0.13258 555.00 0.0018018 361.54 533.60 1.4907 2.0129 2.5587 1255.1 -0.0051946 152.52 0.13258
101.38 13959. undefined 363.55 536.96 1.4961 555.00 0.0018018 363.55 536.96 1.4961 2.0173 2.5618 1256.5 -0.0051937 152.52 0.13273 555.00 0.0018018 363.55 536.96 1.4961 2.0173 2.5618 1256.5 -0.0051937 152.52 0.13273
102.38 14067. undefined 365.57 540.33 1.5015 555.00 0.0018018 365.57 540.33 1.5015 2.0217 2.5649 1258.0 -0.0051928 152.51 0.13287 555.00 0.0018018 365.57 540.33 1.5015 2.0217 2.5649 1258.0 -0.0051928 152.51 0.13287
103.38 14175. undefined 367.60 543.69 1.5069 555.00 0.0018018 367.60 543.69 1.5069 2.0260 2.5680 1259.5 -0.0051919 152.50 0.13302 555.00 0.0018018 367.60 543.69 1.5069 2.0260 2.5680 1259.5 -0.0051919 152.50 0.13302
104.38 14283. undefined 369.62 547.06 1.5122 555.00 0.0018018 369.62 547.06 1.5122 2.0304 2.5711 1261.0 -0.0051908 152.50 0.13317 555.00 0.0018018 369.62 547.06 1.5122 2.0304 2.5711 1261.0 -0.0051908 152.50 0.13317
105.38 14391. undefined 371.66 550.44 1.5176 555.00 0.0018018 371.66 550.44 1.5176 2.0347 2.5742 1262.5 -0.0051898 152.49 0.13332 555.00 0.0018018 371.66 550.44 1.5176 2.0347 2.5742 1262.5 -0.0051898 152.49 0.13332
106.38 14499. undefined 373.69 553.81 1.5230 555.00 0.0018018 373.69 553.81 1.5230 2.0391 2.5773 1264.0 -0.0051886 152.49 0.13347 555.00 0.0018018 373.69 553.81 1.5230 2.0391 2.5773 1264.0 -0.0051886 152.49 0.13347
107.38 14607. undefined 375.73 557.19 1.5284 555.00 0.0018018 375.73 557.19 1.5284 2.0435 2.5804 1265.4 -0.0051874 152.49 0.13362 555.00 0.0018018 375.73 557.19 1.5284 2.0435 2.5804 1265.4 -0.0051874 152.49 0.13362
108.38 14714. undefined 377.78 560.57 1.5337 555.00 0.0018018 377.78 560.57 1.5337 2.0478 2.5835 1266.9 -0.0051862 152.48 0.13377 555.00 0.0018018 377.78 560.57 1.5337 2.0478 2.5835 1266.9 -0.0051862 152.48 0.13377
109.38 14822. undefined 379.83 563.96 1.5391 555.00 0.0018018 379.83 563.96 1.5391 2.0522 2.5867 1268.4 -0.0051849 152.48 0.13392 555.00 0.0018018 379.83 563.96 1.5391 2.0522 2.5867 1268.4 -0.0051849 152.48 0.13392
110.38 14929. undefined 381.88 567.35 1.5445 555.00 0.0018018 381.88 567.35 1.5445 2.0565 2.5898 1269.8 -0.0051835 152.47 0.13407 555.00 0.0018018 381.88 567.35 1.5445 2.0565 2.5898 1269.8 -0.0051835 152.47 0.13407
111.38 15037. undefined 383.94 570.74 1.5498 555.00 0.0018018 383.94 570.74 1.5498 2.0609 2.5929 1271.3 -0.0051821 152.47 0.13422 555.00 0.0018018 383.94 570.74 1.5498 2.0609 2.5929 1271.3 -0.0051821 152.47 0.13422
112.38 15144. undefined 386.01 574.14 1.5552 555.00 0.0018018 386.01 574.14 1.5552 2.0652 2.5961 1272.8 -0.0051807 152.47 0.13437 555.00 0.0018018 386.01 574.14 1.5552 2.0652 2.5961 1272.8 -0.0051807 152.47 0.13437
113.38 15251. undefined 388.07 577.54 1.5605 555.00 0.0018018 388.07 577.54 1.5605 2.0695 2.5993 1274.2 -0.0051792 152.46 0.13453 555.00 0.0018018 388.07 577.54 1.5605 2.0695 2.5993 1274.2 -0.0051792 152.46 0.13453
114.38 15358. undefined 390.15 580.94 1.5659 555.00 0.0018018 390.15 580.94 1.5659 2.0739 2.6024 1275.6 -0.0051776 152.46 0.13468 555.00 0.0018018 390.15 580.94 1.5659 2.0739 2.6024 1275.6 -0.0051776 152.46 0.13468
115.38 15465. undefined 392.22 584.34 1.5712 555.00 0.0018018 392.22 584.34 1.5712 2.0782 2.6056 1277.1 -0.0051760 152.46 0.13483 555.00 0.0018018 392.22 584.34 1.5712 2.0782 2.6056 1277.1 -0.0051760 152.46 0.13483
116.38 15572. undefined 394.30 587.75 1.5766 555.00 0.0018018 394.30 587.75 1.5766 2.0826 2.6088 1278.5 -0.0051744 152.45 0.13498 555.00 0.0018018 394.30 587.75 1.5766 2.0826 2.6088 1278.5 -0.0051744 152.45 0.13498
117.38 15679. undefined 396.39 591.16 1.5819 555.00 0.0018018 396.39 591.16 1.5819 2.0869 2.6119 1280.0 -0.0051727 152.45 0.13513 555.00 0.0018018 396.39 591.16 1.5819 2.0869 2.6119 1280.0 -0.0051727 152.45 0.13513
118.38 15786. undefined 398.48 594.58 1.5873 555.00 0.0018018 398.48 594.58 1.5873 2.0912 2.6151 1281.4 -0.0051710 152.45 0.13529 555.00 0.0018018 398.48 594.58 1.5873 2.0912 2.6151 1281.4 -0.0051710 152.45 0.13529
119.38 15892. undefined 400.57 598.00 1.5926 555.00 0.0018018 400.57 598.00 1.5926 2.0955 2.6183 1282.8 -0.0051692 152.44 0.13544 555.00 0.0018018 400.57 598.00 1.5926 2.0955 2.6183 1282.8 -0.0051692 152.44 0.13544
120.38 15999. undefined 402.67 601.42 1.5979 555.00 0.0018018 402.67 601.42 1.5979 2.0998 2.6215 1284.2 -0.0051674 152.44 0.13559 555.00 0.0018018 402.67 601.42 1.5979 2.0998 2.6215 1284.2 -0.0051674 152.44 0.13559
121.38 16105. undefined 404.77 604.84 1.6033 555.00 0.0018018 404.77 604.84 1.6033 2.1042 2.6247 1285.7 -0.0051655 152.44 0.13575 555.00 0.0018018 404.77 604.84 1.6033 2.1042 2.6247 1285.7 -0.0051655 152.44 0.13575
122.38 16212. undefined 406.87 608.27 1.6086 555.00 0.0018018 406.87 608.27 1.6086 2.1085 2.6279 1287.1 -0.0051636 152.44 0.13590 555.00 0.0018018 406.87 608.27 1.6086 2.1085 2.6279 1287.1 -0.0051636 152.44 0.13590
123.38 16318. undefined 408.99 611.70 1.6139 555.00 0.0018018 408.99 611.70 1.6139 2.1128 2.6311 1288.5 -0.0051617 152.44 0.13606 555.00 0.0018018 408.99 611.70 1.6139 2.1128 2.6311 1288.5 -0.0051617 152.44 0.13606
124.38 16424. undefined 411.10 615.14 1.6193 555.00 0.0018018 411.10 615.14 1.6193 2.1171 2.6343 1289.9 -0.0051597 152.43 0.13621 555.00 0.0018018 411.10 615.14 1.6193 2.1171 2.6343 1289.9 -0.0051597 152.43 0.13621
125.38 16530. undefined 413.22 618.58 1.6246 555.00 0.0018018 413.22 618.58 1.6246 2.1214 2.6376 1291.3 -0.0051577 152.43 0.13637 555.00 0.0018018 413.22 618.58 1.6246 2.1214 2.6376 1291.3 -0.0051577 152.43 0.13637
126.38 16636. undefined 415.34 622.02 1.6299 555.00 0.0018018 415.34 622.02 1.6299 2.1257 2.6408 1292.7 -0.0051557 152.43 0.13652 555.00 0.0018018 415.34 622.02 1.6299 2.1257 2.6408 1292.7 -0.0051557 152.43 0.13652
127.38 16742. undefined 417.47 625.46 1.6352 555.00 0.0018018 417.47 625.46 1.6352 2.1300 2.6440 1294.1 -0.0051536 152.43 0.13668 555.00 0.0018018 417.47 625.46 1.6352 2.1300 2.6440 1294.1 -0.0051536 152.43 0.13668
128.38 16848. undefined 419.60 628.91 1.6405 555.00 0.0018018 419.60 628.91 1.6405 2.1343 2.6472 1295.5 -0.0051514 152.43 0.13683 555.00 0.0018018 419.60 628.91 1.6405 2.1343 2.6472 1295.5 -0.0051514 152.43 0.13683
129.38 16954. undefined 421.74 632.36 1.6459 555.00 0.0018018 421.74 632.36 1.6459 2.1386 2.6505 1296.9 -0.0051493 152.43 0.13699 555.00 0.0018018 421.74 632.36 1.6459 2.1386 2.6505 1296.9 -0.0051493 152.43 0.13699
130.38 17060. undefined 423.88 635.81 1.6512 555.00 0.0018018 423.88 635.81 1.6512 2.1429 2.6537 1298.3 -0.0051471 152.43 0.13715 555.00 0.0018018 423.88 635.81 1.6512 2.1429 2.6537 1298.3 -0.0051471 152.43 0.13715
131.38 17165. undefined 426.03 639.27 1.6565 555.00 0.0018018 426.03 639.27 1.6565 2.1471 2.6569 1299.7 -0.0051449 152.43 0.13730 555.00 0.0018018 426.03 639.27 1.6565 2.1471 2.6569 1299.7 -0.0051449 152.43 0.13730
132.38 17271. undefined 428.17 642.73 1.6618 555.00 0.0018018 428.17 642.73 1.6618 2.1514 2.6602 1301.0 -0.0051426 152.42 0.13746 555.00 0.0018018 428.17 642.73 1.6618 2.1514 2.6602 1301.0 -0.0051426 152.42 0.13746
133.38 17376. undefined 430.33 646.19 1.6671 555.00 0.0018018 430.33 646.19 1.6671 2.1557 2.6634 1302.4 -0.0051403 152.42 0.13762 555.00 0.0018018 430.33 646.19 1.6671 2.1557 2.6634 1302.4 -0.0051403 152.42 0.13762
134.38 17482. undefined 432.49 649.66 1.6724 555.00 0.0018018 432.49 649.66 1.6724 2.1600 2.6667 1303.8 -0.0051380 152.42 0.13778 555.00 0.0018018 432.49 649.66 1.6724 2.1600 2.6667 1303.8 -0.0051380 152.42 0.13778
135.38 17587. undefined 434.65 653.13 1.6777 555.00 0.0018018 434.65 653.13 1.6777 2.1642 2.6699 1305.2 -0.0051357 152.42 0.13793 555.00 0.0018018 434.65 653.13 1.6777 2.1642 2.6699 1305.2 -0.0051357 152.42 0.13793
136.38 17692. undefined 436.81 656.60 1.6830 555.00 0.0018018 436.81 656.60 1.6830 2.1685 2.6732 1306.5 -0.0051333 152.42 0.13809 555.00 0.0018018 436.81 656.60 1.6830 2.1685 2.6732 1306.5 -0.0051333 152.42 0.13809
137.38 17797. undefined 438.99 660.08 1.6883 555.00 0.0018018 438.99 660.08 1.6883 2.1728 2.6764 1307.9 -0.0051309 152.42 0.13825 555.00 0.0018018 438.99 660.08 1.6883 2.1728 2.6764 1307.9 -0.0051309 152.42 0.13825
138.38 17902. undefined 441.16 663.56 1.6936 555.00 0.0018018 441.16 663.56 1.6936 2.1770 2.6797 1309.3 -0.0051284 152.42 0.13841 555.00 0.0018018 441.16 663.56 1.6936 2.1770 2.6797 1309.3 -0.0051284 152.42 0.13841
139.38 18007. undefined 443.34 667.04 1.6989 555.00 0.0018018 443.34 667.04 1.6989 2.1813 2.6830 1310.6 -0.0051260 152.42 0.13857 555.00 0.0018018 443.34 667.04 1.6989 2.1813 2.6830 1310.6 -0.0051260 152.42 0.13857
140.38 18112. undefined 445.52 670.53 1.7042 555.00 0.0018018 445.52 670.53 1.7042 2.1855 2.6862 1312.0 -0.0051235 152.42 0.13873 555.00 0.0018018 445.52 670.53 1.7042 2.1855 2.6862 1312.0 -0.0051235 152.42 0.13873
141.38 18217. undefined 447.71 674.02 1.7094 555.00 0.0018018 447.71 674.02 1.7094 2.1897 2.6895 1313.3 -0.0051210 152.42 0.13889 555.00 0.0018018 447.71 674.02 1.7094 2.1897 2.6895 1313.3 -0.0051210 152.42 0.13889
142.38 18322. undefined 449.90 677.51 1.7147 555.00 0.0018018 449.90 677.51 1.7147 2.1940 2.6928 1314.7 -0.0051184 152.43 0.13905 555.00 0.0018018 449.90 677.51 1.7147 2.1940 2.6928 1314.7 -0.0051184 152.43 0.13905
143.38 18426. undefined 452.10 681.01 1.7200 555.00 0.0018018 452.10 681.01 1.7200 2.1982 2.6960 1316.0 -0.0051159 152.43 0.13921 555.00 0.0018018 452.10 681.01 1.7200 2.1982 2.6960 1316.0 -0.0051159 152.43 0.13921
144.38 18531. undefined 454.30 684.51 1.7253 555.00 0.0018018 454.30 684.51 1.7253 2.2024 2.6993 1317.4 -0.0051133 152.43 0.13937 555.00 0.0018018 454.30 684.51 1.7253 2.2024 2.6993 1317.4 -0.0051133 152.43 0.13937
145.38 18635. undefined 456.50 688.01 1.7305 555.00 0.0018018 456.50 688.01 1.7305 2.2067 2.7026 1318.7 -0.0051107 152.43 0.13953 555.00 0.0018018 456.50 688.01 1.7305 2.2067 2.7026 1318.7 -0.0051107 152.43 0.13953
146.38 18740. undefined 458.71 691.51 1.7358 555.00 0.0018018 458.71 691.51 1.7358 2.2109 2.7059 1320.0 -0.0051080 152.43 0.13969 555.00 0.0018018 458.71 691.51 1.7358 2.2109 2.7059 1320.0 -0.0051080 152.43 0.13969
147.38 18844. undefined 460.92 695.02 1.7411 555.00 0.0018018 460.92 695.02 1.7411 2.2151 2.7091 1321.4 -0.0051054 152.43 0.13985 555.00 0.0018018 460.92 695.02 1.7411 2.2151 2.7091 1321.4 -0.0051054 152.43 0.13985
148.38 18948. undefined 463.14 698.53 1.7464 555.00 0.0018018 463.14 698.53 1.7464 2.2193 2.7124 1322.7 -0.0051027 152.43 0.14002 555.00 0.0018018 463.14 698.53 1.7464 2.2193 2.7124 1322.7 -0.0051027 152.43 0.14002
149.38 19052. undefined 465.36 702.05 1.7516 555.00 0.0018018 465.36 702.05 1.7516 2.2235 2.7157 1324.0 -0.0051000 152.43 0.14018 555.00 0.0018018 465.36 702.05 1.7516 2.2235 2.7157 1324.0 -0.0051000 152.43 0.14018
150.38 19156. undefined 467.59 705.57 1.7569 555.00 0.0018018 467.59 705.57 1.7569 2.2277 2.7190 1325.4 -0.0050972 152.44 0.14034 555.00 0.0018018 467.59 705.57 1.7569 2.2277 2.7190 1325.4 -0.0050972 152.44 0.14034
151.38 19260. undefined 469.82 709.09 1.7621 555.00 0.0018018 469.82 709.09 1.7621 2.2319 2.7223 1326.7 -0.0050945 152.44 0.14050 555.00 0.0018018 469.82 709.09 1.7621 2.2319 2.7223 1326.7 -0.0050945 152.44 0.14050
152.38 19364. undefined 472.05 712.61 1.7674 555.00 0.0018018 472.05 712.61 1.7674 2.2361 2.7256 1328.0 -0.0050917 152.44 0.14067 555.00 0.0018018 472.05 712.61 1.7674 2.2361 2.7256 1328.0 -0.0050917 152.44 0.14067
153.38 19468. undefined 474.29 716.14 1.7726 555.00 0.0018018 474.29 716.14 1.7726 2.2403 2.7288 1329.3 -0.0050889 152.44 0.14083 555.00 0.0018018 474.29 716.14 1.7726 2.2403 2.7288 1329.3 -0.0050889 152.44 0.14083
154.38 19572. undefined 476.53 719.67 1.7779 555.00 0.0018018 476.53 719.67 1.7779 2.2445 2.7321 1330.6 -0.0050861 152.44 0.14099 555.00 0.0018018 476.53 719.67 1.7779 2.2445 2.7321 1330.6 -0.0050861 152.44 0.14099
155.38 19675. undefined 478.78 723.21 1.7831 555.00 0.0018018 478.78 723.21 1.7831 2.2487 2.7354 1331.9 -0.0050833 152.45 0.14116 555.00 0.0018018 478.78 723.21 1.7831 2.2487 2.7354 1331.9 -0.0050833 152.45 0.14116
156.38 19779. undefined 481.03 726.74 1.7884 555.00 0.0018018 481.03 726.74 1.7884 2.2529 2.7387 1333.2 -0.0050805 152.45 0.14132 555.00 0.0018018 481.03 726.74 1.7884 2.2529 2.7387 1333.2 -0.0050805 152.45 0.14132
157.38 19882. undefined 483.29 730.28 1.7936 555.00 0.0018018 483.29 730.28 1.7936 2.2571 2.7420 1334.6 -0.0050776 152.45 0.14149 555.00 0.0018018 483.29 730.28 1.7936 2.2571 2.7420 1334.6 -0.0050776 152.45 0.14149
158.38 19986. undefined 485.55 733.83 1.7989 555.00 0.0018018 485.55 733.83 1.7989 2.2612 2.7453 1335.9 -0.0050747 152.45 0.14165 555.00 0.0018018 485.55 733.83 1.7989 2.2612 2.7453 1335.9 -0.0050747 152.45 0.14165
159.38 20089. undefined 487.81 737.37 1.8041 555.00 0.0018018 487.81 737.37 1.8041 2.2654 2.7486 1337.2 -0.0050718 152.46 0.14181 555.00 0.0018018 487.81 737.37 1.8041 2.2654 2.7486 1337.2 -0.0050718 152.46 0.14181
160.38 20192. undefined 490.08 740.92 1.8094 555.00 0.0018018 490.08 740.92 1.8094 2.2695 2.7519 1338.4 -0.0050689 152.46 0.14198 555.00 0.0018018 490.08 740.92 1.8094 2.2695 2.7519 1338.4 -0.0050689 152.46 0.14198
161.38 20295. undefined 492.35 744.48 1.8146 555.00 0.0018018 492.35 744.48 1.8146 2.2737 2.7552 1339.7 -0.0050660 152.46 0.14215 555.00 0.0018018 492.35 744.48 1.8146 2.2737 2.7552 1339.7 -0.0050660 152.46 0.14215
162.38 20399. undefined 494.62 748.03 1.8198 555.00 0.0018018 494.62 748.03 1.8198 2.2779 2.7585 1341.0 -0.0050631 152.46 0.14231 555.00 0.0018018 494.62 748.03 1.8198 2.2779 2.7585 1341.0 -0.0050631 152.46 0.14231
163.38 20502. undefined 496.90 751.59 1.8250 555.00 0.0018018 496.90 751.59 1.8250 2.2820 2.7617 1342.3 -0.0050601 152.47 0.14248 555.00 0.0018018 496.90 751.59 1.8250 2.2820 2.7617 1342.3 -0.0050601 152.47 0.14248
164.38 20604. undefined 499.19 755.16 1.8303 555.00 0.0018018 499.19 755.16 1.8303 2.2861 2.7650 1343.6 -0.0050571 152.47 0.14264 555.00 0.0018018 499.19 755.16 1.8303 2.2861 2.7650 1343.6 -0.0050571 152.47 0.14264
165.38 20707. undefined 501.48 758.72 1.8355 555.00 0.0018018 501.48 758.72 1.8355 2.2903 2.7683 1344.9 -0.0050542 152.47 0.14281 555.00 0.0018018 501.48 758.72 1.8355 2.2903 2.7683 1344.9 -0.0050542 152.47 0.14281
166.38 20810. undefined 503.77 762.29 1.8407 555.00 0.0018018 503.77 762.29 1.8407 2.2944 2.7716 1346.2 -0.0050512 152.48 0.14298 555.00 0.0018018 503.77 762.29 1.8407 2.2944 2.7716 1346.2 -0.0050512 152.48 0.14298
167.38 20913. undefined 506.06 765.86 1.8459 555.00 0.0018018 506.06 765.86 1.8459 2.2985 2.7749 1347.4 -0.0050482 152.48 0.14315 555.00 0.0018018 506.06 765.86 1.8459 2.2985 2.7749 1347.4 -0.0050482 152.48 0.14315
168.38 21015. undefined 508.36 769.44 1.8512 555.00 0.0018018 508.36 769.44 1.8512 2.3027 2.7782 1348.7 -0.0050451 152.48 0.14331 555.00 0.0018018 508.36 769.44 1.8512 2.3027 2.7782 1348.7 -0.0050451 152.48 0.14331
169.38 21118. undefined 510.67 773.02 1.8564 555.00 0.0018018 510.67 773.02 1.8564 2.3068 2.7815 1350.0 -0.0050421 152.49 0.14348 555.00 0.0018018 510.67 773.02 1.8564 2.3068 2.7815 1350.0 -0.0050421 152.49 0.14348
170.38 21220. undefined 512.98 776.60 1.8616 555.00 0.0018018 512.98 776.60 1.8616 2.3109 2.7848 1351.3 -0.0050390 152.49 0.14365 555.00 0.0018018 512.98 776.60 1.8616 2.3109 2.7848 1351.3 -0.0050390 152.49 0.14365
171.38 21323. undefined 515.29 780.18 1.8668 555.00 0.0018018 515.29 780.18 1.8668 2.3150 2.7881 1352.5 -0.0050360 152.50 0.14382 555.00 0.0018018 515.29 780.18 1.8668 2.3150 2.7881 1352.5 -0.0050360 152.50 0.14382
172.38 21425. undefined 517.61 783.77 1.8720 555.00 0.0018018 517.61 783.77 1.8720 2.3191 2.7914 1353.8 -0.0050329 152.50 0.14399 555.00 0.0018018 517.61 783.77 1.8720 2.3191 2.7914 1353.8 -0.0050329 152.50 0.14399
173.38 21527. undefined 519.93 787.36 1.8772 555.00 0.0018018 519.93 787.36 1.8772 2.3232 2.7947 1355.0 -0.0050298 152.50 0.14416 555.00 0.0018018 519.93 787.36 1.8772 2.3232 2.7947 1355.0 -0.0050298 152.50 0.14416
174.38 21629. undefined 522.25 790.96 1.8824 555.00 0.0018018 522.25 790.96 1.8824 2.3273 2.7980 1356.3 -0.0050267 152.51 0.14433 555.00 0.0018018 522.25 790.96 1.8824 2.3273 2.7980 1356.3 -0.0050267 152.51 0.14433
175.38 21732. undefined 524.58 794.55 1.8876 555.00 0.0018018 524.58 794.55 1.8876 2.3314 2.8013 1357.6 -0.0050236 152.51 0.14450 555.00 0.0018018 524.58 794.55 1.8876 2.3314 2.8013 1357.6 -0.0050236 152.51 0.14450
176.38 21834. undefined 526.92 798.16 1.8928 555.00 0.0018018 526.92 798.16 1.8928 2.3355 2.8046 1358.8 -0.0050205 152.52 0.14467 555.00 0.0018018 526.92 798.16 1.8928 2.3355 2.8046 1358.8 -0.0050205 152.52 0.14467
177.38 21935. undefined 529.26 801.76 1.8980 555.00 0.0018018 529.26 801.76 1.8980 2.3396 2.8078 1360.1 -0.0050174 152.52 0.14484 555.00 0.0018018 529.26 801.76 1.8980 2.3396 2.8078 1360.1 -0.0050174 152.52 0.14484
178.38 22037. undefined 531.60 805.37 1.9032 555.00 0.0018018 531.60 805.37 1.9032 2.3436 2.8111 1361.3 -0.0050142 152.53 0.14501 555.00 0.0018018 531.60 805.37 1.9032 2.3436 2.8111 1361.3 -0.0050142 152.53 0.14501
179.38 22139. undefined 533.94 808.98 1.9084 555.00 0.0018018 533.94 808.98 1.9084 2.3477 2.8144 1362.6 -0.0050111 152.53 0.14518 555.00 0.0018018 533.94 808.98 1.9084 2.3477 2.8144 1362.6 -0.0050111 152.53 0.14518
180.38 22241. undefined 536.29 812.59 1.9136 555.00 0.0018018 536.29 812.59 1.9136 2.3518 2.8177 1363.8 -0.0050079 152.54 0.14535 555.00 0.0018018 536.29 812.59 1.9136 2.3518 2.8177 1363.8 -0.0050079 152.54 0.14535
181.38 22342. undefined 538.65 816.21 1.9187 555.00 0.0018018 538.65 816.21 1.9187 2.3558 2.8210 1365.0 -0.0050048 152.54 0.14552 555.00 0.0018018 538.65 816.21 1.9187 2.3558 2.8210 1365.0 -0.0050048 152.54 0.14552
182.38 22444. undefined 541.00 819.82 1.9239 555.00 0.0018018 541.00 819.82 1.9239 2.3599 2.8243 1366.3 -0.0050016 152.55 0.14569 555.00 0.0018018 541.00 819.82 1.9239 2.3599 2.8243 1366.3 -0.0050016 152.55 0.14569
183.38 22545. undefined 543.37 823.45 1.9291 555.00 0.0018018 543.37 823.45 1.9291 2.3639 2.8276 1367.5 -0.0049984 152.55 0.14586 555.00 0.0018018 543.37 823.45 1.9291 2.3639 2.8276 1367.5 -0.0049984 152.55 0.14586
184.38 22647. undefined 545.73 827.07 1.9343 555.00 0.0018018 545.73 827.07 1.9343 2.3680 2.8309 1368.7 -0.0049952 152.56 0.14604 555.00 0.0018018 545.73 827.07 1.9343 2.3680 2.8309 1368.7 -0.0049952 152.56 0.14604
185.38 22748. undefined 548.10 830.70 1.9395 555.00 0.0018018 548.10 830.70 1.9395 2.3720 2.8342 1370.0 -0.0049920 152.56 0.14621 555.00 0.0018018 548.10 830.70 1.9395 2.3720 2.8342 1370.0 -0.0049920 152.56 0.14621
186.38 22849. undefined 550.48 834.33 1.9446 555.00 0.0018018 550.48 834.33 1.9446 2.3760 2.8374 1371.2 -0.0049888 152.57 0.14638 555.00 0.0018018 550.48 834.33 1.9446 2.3760 2.8374 1371.2 -0.0049888 152.57 0.14638
187.38 22951. undefined 552.85 837.97 1.9498 555.00 0.0018018 552.85 837.97 1.9498 2.3801 2.8407 1372.4 -0.0049856 152.57 0.14655 555.00 0.0018018 552.85 837.97 1.9498 2.3801 2.8407 1372.4 -0.0049856 152.57 0.14655
188.38 23052. undefined 555.24 841.61 1.9550 555.00 0.0018018 555.24 841.61 1.9550 2.3841 2.8440 1373.6 -0.0049824 152.58 0.14673 555.00 0.0018018 555.24 841.61 1.9550 2.3841 2.8440 1373.6 -0.0049824 152.58 0.14673
189.38 23153. undefined 557.62 845.25 1.9601 555.00 0.0018018 557.62 845.25 1.9601 2.3881 2.8473 1374.9 -0.0049792 152.58 0.14690 555.00 0.0018018 557.62 845.25 1.9601 2.3881 2.8473 1374.9 -0.0049792 152.58 0.14690
190.38 23254. undefined 560.01 848.89 1.9653 555.00 0.0018018 560.01 848.89 1.9653 2.3921 2.8506 1376.1 -0.0049760 152.59 0.14708 555.00 0.0018018 560.01 848.89 1.9653 2.3921 2.8506 1376.1 -0.0049760 152.59 0.14708
191.38 23354. undefined 562.41 852.54 1.9704 555.00 0.0018018 562.41 852.54 1.9704 2.3961 2.8538 1377.3 -0.0049727 152.59 0.14725 555.00 0.0018018 562.41 852.54 1.9704 2.3961 2.8538 1377.3 -0.0049727 152.59 0.14725
192.38 23455. undefined 564.80 856.19 1.9756 555.00 0.0018018 564.80 856.19 1.9756 2.4001 2.8571 1378.5 -0.0049695 152.60 0.14743 555.00 0.0018018 564.80 856.19 1.9756 2.4001 2.8571 1378.5 -0.0049695 152.60 0.14743
193.38 23556. undefined 567.21 859.84 1.9808 555.00 0.0018018 567.21 859.84 1.9808 2.4041 2.8604 1379.7 -0.0049662 152.61 0.14760 555.00 0.0018018 567.21 859.84 1.9808 2.4041 2.8604 1379.7 -0.0049662 152.61 0.14760
194.38 23657. undefined 569.61 863.50 1.9859 555.00 0.0018018 569.61 863.50 1.9859 2.4081 2.8637 1380.9 -0.0049630 152.61 0.14778 555.00 0.0018018 569.61 863.50 1.9859 2.4081 2.8637 1380.9 -0.0049630 152.61 0.14778
195.38 23757. undefined 572.02 867.16 1.9911 555.00 0.0018018 572.02 867.16 1.9911 2.4121 2.8669 1382.1 -0.0049597 152.62 0.14795 555.00 0.0018018 572.02 867.16 1.9911 2.4121 2.8669 1382.1 -0.0049597 152.62 0.14795
196.38 23858. undefined 574.44 870.82 1.9962 555.00 0.0018018 574.44 870.82 1.9962 2.4161 2.8702 1383.3 -0.0049565 152.62 0.14813 555.00 0.0018018 574.44 870.82 1.9962 2.4161 2.8702 1383.3 -0.0049565 152.62 0.14813
197.38 23958. undefined 576.85 874.49 2.0014 555.00 0.0018018 576.85 874.49 2.0014 2.4201 2.8735 1384.6 -0.0049532 152.63 0.14830 555.00 0.0018018 576.85 874.49 2.0014 2.4201 2.8735 1384.6 -0.0049532 152.63 0.14830
198.38 24059. undefined 579.28 878.16 2.0065 555.00 0.0018018 579.28 878.16 2.0065 2.4241 2.8767 1385.8 -0.0049499 152.64 0.14848 555.00 0.0018018 579.28 878.16 2.0065 2.4241 2.8767 1385.8 -0.0049499 152.64 0.14848
199.38 24159. undefined 581.70 881.83 2.0116 555.00 0.0018018 581.70 881.83 2.0116 2.4280 2.8800 1386.9 -0.0049467 152.64 0.14866 555.00 0.0018018 581.70 881.83 2.0116 2.4280 2.8800 1386.9 -0.0049467 152.64 0.14866
200.38 24259. undefined 584.13 885.50 2.0168 555.00 0.0018018 584.13 885.50 2.0168 2.4320 2.8833 1388.1 -0.0049434 152.65 0.14883 555.00 0.0018018 584.13 885.50 2.0168 2.4320 2.8833 1388.1 -0.0049434 152.65 0.14883
201.38 24359. undefined 586.57 889.18 2.0219 555.00 0.0018018 586.57 889.18 2.0219 2.4359 2.8865 1389.3 -0.0049401 152.66 0.14901 555.00 0.0018018 586.57 889.18 2.0219 2.4359 2.8865 1389.3 -0.0049401 152.66 0.14901
202.38 24459. undefined 589.00 892.86 2.0270 555.00 0.0018018 589.00 892.86 2.0270 2.4399 2.8898 1390.5 -0.0049368 152.66 0.14919 555.00 0.0018018 589.00 892.86 2.0270 2.4399 2.8898 1390.5 -0.0049368 152.66 0.14919
203.38 24559. undefined 591.45 896.55 2.0322 555.00 0.0018018 591.45 896.55 2.0322 2.4438 2.8931 1391.7 -0.0049335 152.67 0.14937 555.00 0.0018018 591.45 896.55 2.0322 2.4438 2.8931 1391.7 -0.0049335 152.67 0.14937
204.38 24659. undefined 593.89 900.23 2.0373 555.00 0.0018018 593.89 900.23 2.0373 2.4478 2.8963 1392.9 -0.0049302 152.68 0.14954 555.00 0.0018018 593.89 900.23 2.0373 2.4478 2.8963 1392.9 -0.0049302 152.68 0.14954
205.38 24759. undefined 596.34 903.92 2.0424 555.00 0.0018018 596.34 903.92 2.0424 2.4517 2.8996 1394.1 -0.0049269 152.68 0.14972 555.00 0.0018018 596.34 903.92 2.0424 2.4517 2.8996 1394.1 -0.0049269 152.68 0.14972
206.38 24859. undefined 598.80 907.62 2.0475 555.00 0.0018018 598.80 907.62 2.0475 2.4557 2.9028 1395.3 -0.0049236 152.69 0.14990 555.00 0.0018018 598.80 907.62 2.0475 2.4557 2.9028 1395.3 -0.0049236 152.69 0.14990
207.38 24959. undefined 601.25 911.31 2.0527 555.00 0.0018018 601.25 911.31 2.0527 2.4596 2.9061 1396.4 -0.0049203 152.70 0.15008 555.00 0.0018018 601.25 911.31 2.0527 2.4596 2.9061 1396.4 -0.0049203 152.70 0.15008
208.38 25058. undefined 603.72 915.01 2.0578 555.00 0.0018018 603.72 915.01 2.0578 2.4635 2.9093 1397.6 -0.0049170 152.70 0.15026 555.00 0.0018018 603.72 915.01 2.0578 2.4635 2.9093 1397.6 -0.0049170 152.70 0.15026
209.38 25158. undefined 606.18 918.72 2.0629 555.00 0.0018018 606.18 918.72 2.0629 2.4674 2.9126 1398.8 -0.0049137 152.71 0.15044 555.00 0.0018018 606.18 918.72 2.0629 2.4674 2.9126 1398.8 -0.0049137 152.71 0.15044
210.38 25257. undefined 608.65 922.42 2.0680 555.00 0.0018018 608.65 922.42 2.0680 2.4713 2.9158 1400.0 -0.0049104 152.72 0.15062 555.00 0.0018018 608.65 922.42 2.0680 2.4713 2.9158 1400.0 -0.0049104 152.72 0.15062
211.38 25357. undefined 611.12 926.13 2.0731 555.00 0.0018018 611.12 926.13 2.0731 2.4752 2.9191 1401.1 -0.0049071 152.72 0.15080 555.00 0.0018018 611.12 926.13 2.0731 2.4752 2.9191 1401.1 -0.0049071 152.72 0.15080
212.38 25456. undefined 613.60 929.84 2.0782 555.00 0.0018018 613.60 929.84 2.0782 2.4791 2.9223 1402.3 -0.0049038 152.73 0.15098 555.00 0.0018018 613.60 929.84 2.0782 2.4791 2.9223 1402.3 -0.0049038 152.73 0.15098
213.38 25555. undefined 616.08 933.56 2.0833 555.00 0.0018018 616.08 933.56 2.0833 2.4830 2.9256 1403.5 -0.0049005 152.74 0.15116 555.00 0.0018018 616.08 933.56 2.0833 2.4830 2.9256 1403.5 -0.0049005 152.74 0.15116
214.38 25655. undefined 618.57 937.27 2.0884 555.00 0.0018018 618.57 937.27 2.0884 2.4869 2.9288 1404.6 -0.0048971 152.75 0.15134 555.00 0.0018018 618.57 937.27 2.0884 2.4869 2.9288 1404.6 -0.0048971 152.75 0.15134
215.38 25754. undefined 621.06 941.00 2.0935 555.00 0.0018018 621.06 941.00 2.0935 2.4908 2.9320 1405.8 -0.0048938 152.75 0.15152 555.00 0.0018018 621.06 941.00 2.0935 2.4908 2.9320 1405.8 -0.0048938 152.75 0.15152
216.38 25853. undefined 623.55 944.72 2.0986 555.00 0.0018018 623.55 944.72 2.0986 2.4947 2.9353 1407.0 -0.0048905 152.76 0.15171 555.00 0.0018018 623.55 944.72 2.0986 2.4947 2.9353 1407.0 -0.0048905 152.76 0.15171
217.38 25952. undefined 626.04 948.45 2.1037 555.00 0.0018018 626.04 948.45 2.1037 2.4986 2.9385 1408.1 -0.0048872 152.77 0.15189 555.00 0.0018018 626.04 948.45 2.1037 2.4986 2.9385 1408.1 -0.0048872 152.77 0.15189
218.38 26051. undefined 628.55 952.18 2.1088 555.00 0.0018018 628.55 952.18 2.1088 2.5024 2.9417 1409.3 -0.0048839 152.78 0.15207 555.00 0.0018018 628.55 952.18 2.1088 2.5024 2.9417 1409.3 -0.0048839 152.78 0.15207
219.38 26150. undefined 631.05 955.91 2.1139 555.00 0.0018018 631.05 955.91 2.1139 2.5063 2.9450 1410.4 -0.0048805 152.78 0.15225 555.00 0.0018018 631.05 955.91 2.1139 2.5063 2.9450 1410.4 -0.0048805 152.78 0.15225
220.38 26249. undefined 633.56 959.64 2.1190 555.00 0.0018018 633.56 959.64 2.1190 2.5101 2.9482 1411.6 -0.0048772 152.79 0.15243 555.00 0.0018018 633.56 959.64 2.1190 2.5101 2.9482 1411.6 -0.0048772 152.79 0.15243
221.38 26347. undefined 636.07 963.38 2.1241 555.00 0.0018018 636.07 963.38 2.1241 2.5140 2.9514 1412.7 -0.0048739 152.80 0.15262 555.00 0.0018018 636.07 963.38 2.1241 2.5140 2.9514 1412.7 -0.0048739 152.80 0.15262
222.38 26446. undefined 638.59 967.12 2.1292 555.00 0.0018018 638.59 967.12 2.1292 2.5178 2.9546 1413.9 -0.0048706 152.81 0.15280 555.00 0.0018018 638.59 967.12 2.1292 2.5178 2.9546 1413.9 -0.0048706 152.81 0.15280
223.38 26545. undefined 641.11 970.87 2.1342 555.00 0.0018018 641.11 970.87 2.1342 2.5217 2.9579 1415.0 -0.0048672 152.82 0.15299 555.00 0.0018018 641.11 970.87 2.1342 2.5217 2.9579 1415.0 -0.0048672 152.82 0.15299
224.38 26643. undefined 643.63 974.62 2.1393 555.00 0.0018018 643.63 974.62 2.1393 2.5255 2.9611 1416.2 -0.0048639 152.82 0.15317 555.00 0.0018018 643.63 974.62 2.1393 2.5255 2.9611 1416.2 -0.0048639 152.82 0.15317
225.38 26742. undefined 646.16 978.37 2.1444 555.00 0.0018018 646.16 978.37 2.1444 2.5294 2.9643 1417.3 -0.0048606 152.83 0.15335 555.00 0.0018018 646.16 978.37 2.1444 2.5294 2.9643 1417.3 -0.0048606 152.83 0.15335
226.38 26840. undefined 648.69 982.12 2.1495 555.00 0.0018018 648.69 982.12 2.1495 2.5332 2.9675 1418.5 -0.0048573 152.84 0.15354 555.00 0.0018018 648.69 982.12 2.1495 2.5332 2.9675 1418.5 -0.0048573 152.84 0.15354
227.38 26938. undefined 651.22 985.88 2.1545 555.00 0.0018018 651.22 985.88 2.1545 2.5370 2.9707 1419.6 -0.0048540 152.85 0.15372 555.00 0.0018018 651.22 985.88 2.1545 2.5370 2.9707 1419.6 -0.0048540 152.85 0.15372
228.38 27037. undefined 653.76 989.64 2.1596 555.00 0.0018018 653.76 989.64 2.1596 2.5408 2.9739 1420.7 -0.0048506 152.86 0.15391 555.00 0.0018018 653.76 989.64 2.1596 2.5408 2.9739 1420.7 -0.0048506 152.86 0.15391
229.38 27135. undefined 656.30 993.40 2.1647 555.00 0.0018018 656.30 993.40 2.1647 2.5446 2.9771 1421.9 -0.0048473 152.86 0.15409 555.00 0.0018018 656.30 993.40 2.1647 2.5446 2.9771 1421.9 -0.0048473 152.86 0.15409
230.38 27233. undefined 658.85 997.17 2.1697 555.00 0.0018018 658.85 997.17 2.1697 2.5484 2.9803 1423.0 -0.0048440 152.87 0.15428 555.00 0.0018018 658.85 997.17 2.1697 2.5484 2.9803 1423.0 -0.0048440 152.87 0.15428
231.38 27331. undefined 661.40 1000.9 2.1748 555.00 0.0018018 661.40 1000.9 2.1748 2.5522 2.9835 1424.1 -0.0048407 152.88 0.15447 555.00 0.0018018 661.40 1000.9 2.1748 2.5522 2.9835 1424.1 -0.0048407 152.88 0.15447
232.38 27429. undefined 663.96 1004.7 2.1798 555.00 0.0018018 663.96 1004.7 2.1798 2.5560 2.9867 1425.2 -0.0048373 152.89 0.15465 555.00 0.0018018 663.96 1004.7 2.1798 2.5560 2.9867 1425.2 -0.0048373 152.89 0.15465
233.38 27527. undefined 666.51 1008.5 2.1849 555.00 0.0018018 666.51 1008.5 2.1849 2.5598 2.9899 1426.4 -0.0048340 152.90 0.15484 555.00 0.0018018 666.51 1008.5 2.1849 2.5598 2.9899 1426.4 -0.0048340 152.90 0.15484
234.38 27625. undefined 669.08 1012.3 2.1900 555.00 0.0018018 669.08 1012.3 2.1900 2.5636 2.9931 1427.5 -0.0048307 152.91 0.15503 555.00 0.0018018 669.08 1012.3 2.1900 2.5636 2.9931 1427.5 -0.0048307 152.91 0.15503
235.38 27723. undefined 671.64 1016.0 2.1950 555.00 0.0018018 671.64 1016.0 2.1950 2.5674 2.9963 1428.6 -0.0048274 152.92 0.15521 555.00 0.0018018 671.64 1016.0 2.1950 2.5674 2.9963 1428.6 -0.0048274 152.92 0.15521
236.38 27820. undefined 674.21 1019.8 2.2001 555.00 0.0018018 674.21 1019.8 2.2001 2.5712 2.9995 1429.7 -0.0048241 152.92 0.15540 555.00 0.0018018 674.21 1019.8 2.2001 2.5712 2.9995 1429.7 -0.0048241 152.92 0.15540
237.38 27918. undefined 676.78 1023.6 2.2051 555.00 0.0018018 676.78 1023.6 2.2051 2.5749 3.0027 1430.9 -0.0048207 152.93 0.15559 555.00 0.0018018 676.78 1023.6 2.2051 2.5749 3.0027 1430.9 -0.0048207 152.93 0.15559
238.38 28016. undefined 679.36 1027.4 2.2101 555.00 0.0018018 679.36 1027.4 2.2101 2.5787 3.0058 1432.0 -0.0048174 152.94 0.15578 555.00 0.0018018 679.36 1027.4 2.2101 2.5787 3.0058 1432.0 -0.0048174 152.94 0.15578
239.38 28113. undefined 681.94 1031.2 2.2152 555.00 0.0018018 681.94 1031.2 2.2152 2.5824 3.0090 1433.1 -0.0048141 152.95 0.15596 555.00 0.0018018 681.94 1031.2 2.2152 2.5824 3.0090 1433.1 -0.0048141 152.95 0.15596
240.38 28211. undefined 684.52 1035.0 2.2202 555.00 0.0018018 684.52 1035.0 2.2202 2.5862 3.0122 1434.2 -0.0048108 152.96 0.15615 555.00 0.0018018 684.52 1035.0 2.2202 2.5862 3.0122 1434.2 -0.0048108 152.96 0.15615
241.38 28308. undefined 687.11 1038.8 2.2253 555.00 0.0018018 687.11 1038.8 2.2253 2.5899 3.0154 1435.3 -0.0048075 152.97 0.15634 555.00 0.0018018 687.11 1038.8 2.2253 2.5899 3.0154 1435.3 -0.0048075 152.97 0.15634
242.38 28405. undefined 689.70 1042.6 2.2303 555.00 0.0018018 689.70 1042.6 2.2303 2.5937 3.0185 1436.4 -0.0048042 152.98 0.15653 555.00 0.0018018 689.70 1042.6 2.2303 2.5937 3.0185 1436.4 -0.0048042 152.98 0.15653
243.38 28503. undefined 692.30 1046.4 2.2353 555.00 0.0018018 692.30 1046.4 2.2353 2.5974 3.0217 1437.5 -0.0048009 152.99 0.15672 555.00 0.0018018 692.30 1046.4 2.2353 2.5974 3.0217 1437.5 -0.0048009 152.99 0.15672
244.38 28600. undefined 694.90 1050.2 2.2403 555.00 0.0018018 694.90 1050.2 2.2403 2.6012 3.0249 1438.6 -0.0047976 153.00 0.15691 555.00 0.0018018 694.90 1050.2 2.2403 2.6012 3.0249 1438.6 -0.0047976 153.00 0.15691
245.38 28697. undefined 697.50 1054.0 2.2454 555.00 0.0018018 697.50 1054.0 2.2454 2.6049 3.0280 1439.7 -0.0047943 153.00 0.15710 555.00 0.0018018 697.50 1054.0 2.2454 2.6049 3.0280 1439.7 -0.0047943 153.00 0.15710
246.38 28794. undefined 700.11 1057.8 2.2504 555.00 0.0018018 700.11 1057.8 2.2504 2.6086 3.0312 1440.8 -0.0047910 153.01 0.15729 555.00 0.0018018 700.11 1057.8 2.2504 2.6086 3.0312 1440.8 -0.0047910 153.01 0.15729
247.38 28891. undefined 702.72 1061.6 2.2554 555.00 0.0018018 702.72 1061.6 2.2554 2.6123 3.0344 1441.9 -0.0047877 153.02 0.15748 555.00 0.0018018 702.72 1061.6 2.2554 2.6123 3.0344 1441.9 -0.0047877 153.02 0.15748
248.38 28988. undefined 705.33 1065.5 2.2604 555.00 0.0018018 705.33 1065.5 2.2604 2.6160 3.0375 1443.0 -0.0047844 153.03 0.15767 555.00 0.0018018 705.33 1065.5 2.2604 2.6160 3.0375 1443.0 -0.0047844 153.03 0.15767
249.38 29085. undefined 707.95 1069.3 2.2654 555.00 0.0018018 707.95 1069.3 2.2654 2.6197 3.0407 1444.1 -0.0047811 153.04 0.15786 555.00 0.0018018 707.95 1069.3 2.2654 2.6197 3.0407 1444.1 -0.0047811 153.04 0.15786
250.38 29182. undefined 710.57 1073.1 2.2705 555.00 0.0018018 710.57 1073.1 2.2705 2.6234 3.0438 1445.2 -0.0047778 153.05 0.15806 555.00 0.0018018 710.57 1073.1 2.2705 2.6234 3.0438 1445.2 -0.0047778 153.05 0.15806
251.38 29278. undefined 713.20 1076.9 2.2755 555.00 0.0018018 713.20 1076.9 2.2755 2.6271 3.0470 1446.3 -0.0047745 153.06 0.15825 555.00 0.0018018 713.20 1076.9 2.2755 2.6271 3.0470 1446.3 -0.0047745 153.06 0.15825
252.38 29375. undefined 715.83 1080.8 2.2805 555.00 0.0018018 715.83 1080.8 2.2805 2.6308 3.0501 1447.4 -0.0047712 153.07 0.15844 555.00 0.0018018 715.83 1080.8 2.2805 2.6308 3.0501 1447.4 -0.0047712 153.07 0.15844
253.38 29472. undefined 718.46 1084.6 2.2855 555.00 0.0018018 718.46 1084.6 2.2855 2.6345 3.0532 1448.5 -0.0047679 153.08 0.15863 555.00 0.0018018 718.46 1084.6 2.2855 2.6345 3.0532 1448.5 -0.0047679 153.08 0.15863
254.38 29568. undefined 721.10 1088.4 2.2905 555.00 0.0018018 721.10 1088.4 2.2905 2.6382 3.0564 1449.6 -0.0047647 153.09 0.15883 555.00 0.0018018 721.10 1088.4 2.2905 2.6382 3.0564 1449.6 -0.0047647 153.09 0.15883
255.38 29665. undefined 723.74 1092.3 2.2955 555.00 0.0018018 723.74 1092.3 2.2955 2.6419 3.0595 1450.7 -0.0047614 153.10 0.15902 555.00 0.0018018 723.74 1092.3 2.2955 2.6419 3.0595 1450.7 -0.0047614 153.10 0.15902
256.38 29761. undefined 726.38 1096.1 2.3005 555.00 0.0018018 726.38 1096.1 2.3005 2.6455 3.0626 1451.7 -0.0047581 153.11 0.15921 555.00 0.0018018 726.38 1096.1 2.3005 2.6455 3.0626 1451.7 -0.0047581 153.11 0.15921
257.38 29858. undefined 729.03 1099.9 2.3055 555.00 0.0018018 729.03 1099.9 2.3055 2.6492 3.0658 1452.8 -0.0047548 153.12 0.15941 555.00 0.0018018 729.03 1099.9 2.3055 2.6492 3.0658 1452.8 -0.0047548 153.12 0.15941
258.38 29954. undefined 731.68 1103.8 2.3105 555.00 0.0018018 731.68 1103.8 2.3105 2.6528 3.0689 1453.9 -0.0047516 153.13 0.15960 555.00 0.0018018 731.68 1103.8 2.3105 2.6528 3.0689 1453.9 -0.0047516 153.13 0.15960
259.38 30050. undefined 734.33 1107.6 2.3155 555.00 0.0018018 734.33 1107.6 2.3155 2.6565 3.0720 1455.0 -0.0047483 153.14 0.15979 555.00 0.0018018 734.33 1107.6 2.3155 2.6565 3.0720 1455.0 -0.0047483 153.14 0.15979
260.38 30146. undefined 736.99 1111.5 2.3204 555.00 0.0018018 736.99 1111.5 2.3204 2.6601 3.0751 1456.1 -0.0047450 153.15 0.15999 555.00 0.0018018 736.99 1111.5 2.3204 2.6601 3.0751 1456.1 -0.0047450 153.15 0.15999
261.38 30242. undefined 739.65 1115.4 2.3254 555.00 0.0018018 739.65 1115.4 2.3254 2.6638 3.0783 1457.1 -0.0047418 153.16 0.16018 555.00 0.0018018 739.65 1115.4 2.3254 2.6638 3.0783 1457.1 -0.0047418 153.16 0.16018
262.38 30338. undefined 742.32 1119.2 2.3304 555.00 0.0018018 742.32 1119.2 2.3304 2.6674 3.0814 1458.2 -0.0047385 153.17 0.16038 555.00 0.0018018 742.32 1119.2 2.3304 2.6674 3.0814 1458.2 -0.0047385 153.17 0.16038
263.38 30434. undefined 744.99 1123.1 2.3354 555.00 0.0018018 744.99 1123.1 2.3354 2.6711 3.0845 1459.3 -0.0047353 153.18 0.16057 555.00 0.0018018 744.99 1123.1 2.3354 2.6711 3.0845 1459.3 -0.0047353 153.18 0.16057
264.38 30530. undefined 747.66 1126.9 2.3404 555.00 0.0018018 747.66 1126.9 2.3404 2.6747 3.0876 1460.3 -0.0047320 153.19 0.16077 555.00 0.0018018 747.66 1126.9 2.3404 2.6747 3.0876 1460.3 -0.0047320 153.19 0.16077
265.38 30626. undefined 750.34 1130.8 2.3453 555.00 0.0018018 750.34 1130.8 2.3453 2.6783 3.0907 1461.4 -0.0047288 153.20 0.16097 555.00 0.0018018 750.34 1130.8 2.3453 2.6783 3.0907 1461.4 -0.0047288 153.20 0.16097
266.38 30722. undefined 753.02 1134.7 2.3503 555.00 0.0018018 753.02 1134.7 2.3503 2.6819 3.0938 1462.5 -0.0047255 153.21 0.16116 555.00 0.0018018 753.02 1134.7 2.3503 2.6819 3.0938 1462.5 -0.0047255 153.21 0.16116
267.38 30818. undefined 755.70 1138.5 2.3553 555.00 0.0018018 755.70 1138.5 2.3553 2.6855 3.0969 1463.5 -0.0047223 153.22 0.16136 555.00 0.0018018 755.70 1138.5 2.3553 2.6855 3.0969 1463.5 -0.0047223 153.22 0.16136
268.38 30913. undefined 758.39 1142.4 2.3602 555.00 0.0018018 758.39 1142.4 2.3602 2.6891 3.1000 1464.6 -0.0047191 153.23 0.16156 555.00 0.0018018 758.39 1142.4 2.3602 2.6891 3.1000 1464.6 -0.0047191 153.23 0.16156
269.38 31009. undefined 761.08 1146.3 2.3652 555.00 0.0018018 761.08 1146.3 2.3652 2.6927 3.1031 1465.7 -0.0047158 153.24 0.16175 555.00 0.0018018 761.08 1146.3 2.3652 2.6927 3.1031 1465.7 -0.0047158 153.24 0.16175
270.38 31105. undefined 763.77 1150.2 2.3702 555.00 0.0018018 763.77 1150.2 2.3702 2.6963 3.1062 1466.7 -0.0047126 153.25 0.16195 555.00 0.0018018 763.77 1150.2 2.3702 2.6963 3.1062 1466.7 -0.0047126 153.25 0.16195
271.38 31200. undefined 766.47 1154.1 2.3751 555.00 0.0018018 766.47 1154.1 2.3751 2.6999 3.1093 1467.8 -0.0047094 153.26 0.16215 555.00 0.0018018 766.47 1154.1 2.3751 2.6999 3.1093 1467.8 -0.0047094 153.26 0.16215
272.38 31295. undefined 769.17 1158.0 2.3801 555.00 0.0018018 769.17 1158.0 2.3801 2.7035 3.1124 1468.8 -0.0047061 153.27 0.16235 555.00 0.0018018 769.17 1158.0 2.3801 2.7035 3.1124 1468.8 -0.0047061 153.27 0.16235
273.38 31391. undefined 771.88 1161.8 2.3850 555.00 0.0018018 771.88 1161.8 2.3850 2.7071 3.1154 1469.9 -0.0047029 153.28 0.16254 555.00 0.0018018 771.88 1161.8 2.3850 2.7071 3.1154 1469.9 -0.0047029 153.28 0.16254
274.38 31486. undefined 774.59 1165.7 2.3900 555.00 0.0018018 774.59 1165.7 2.3900 2.7107 3.1185 1470.9 -0.0046997 153.29 0.16274 555.00 0.0018018 774.59 1165.7 2.3900 2.7107 3.1185 1470.9 -0.0046997 153.29 0.16274
275.38 31581. undefined 777.30 1169.6 2.3949 555.00 0.0018018 777.30 1169.6 2.3949 2.7142 3.1216 1472.0 -0.0046965 153.30 0.16294 555.00 0.0018018 777.30 1169.6 2.3949 2.7142 3.1216 1472.0 -0.0046965 153.30 0.16294
276.38 31677. undefined 780.02 1173.5 2.3999 555.00 0.0018018 780.02 1173.5 2.3999 2.7178 3.1247 1473.0 -0.0046933 153.31 0.16314 555.00 0.0018018 780.02 1173.5 2.3999 2.7178 3.1247 1473.0 -0.0046933 153.31 0.16314
277.38 31772. undefined 782.74 1177.4 2.4048 555.00 0.0018018 782.74 1177.4 2.4048 2.7214 3.1277 1474.1 -0.0046901 153.32 0.16334 555.00 0.0018018 782.74 1177.4 2.4048 2.7214 3.1277 1474.1 -0.0046901 153.32 0.16334
278.38 31867. undefined 785.46 1181.3 2.4098 555.00 0.0018018 785.46 1181.3 2.4098 2.7249 3.1308 1475.1 -0.0046869 153.33 0.16354 555.00 0.0018018 785.46 1181.3 2.4098 2.7249 3.1308 1475.1 -0.0046869 153.33 0.16354
279.38 31962. undefined 788.19 1185.2 2.4147 555.00 0.0018018 788.19 1185.2 2.4147 2.7285 3.1338 1476.2 -0.0046837 153.34 0.16374 555.00 0.0018018 788.19 1185.2 2.4147 2.7285 3.1338 1476.2 -0.0046837 153.34 0.16374
280.38 32057. undefined 790.92 1189.2 2.4197 555.00 0.0018018 790.92 1189.2 2.4197 2.7320 3.1369 1477.2 -0.0046805 153.35 0.16394 555.00 0.0018018 790.92 1189.2 2.4197 2.7320 3.1369 1477.2 -0.0046805 153.35 0.16394
281.38 32152. undefined 793.65 1193.1 2.4246 555.00 0.0018018 793.65 1193.1 2.4246 2.7355 3.1400 1478.3 -0.0046773 153.36 0.16414 555.00 0.0018018 793.65 1193.1 2.4246 2.7355 3.1400 1478.3 -0.0046773 153.36 0.16414
282.38 32246. undefined 796.39 1197.0 2.4295 555.00 0.0018018 796.39 1197.0 2.4295 2.7391 3.1430 1479.3 -0.0046741 153.37 0.16410 555.00 0.0018018 796.39 1197.0 2.4295 2.7391 3.1430 1479.3 -0.0046741 153.37 0.16410
283.38 32341. undefined 799.13 1200.9 2.4344 555.00 0.0018018 799.13 1200.9 2.4344 2.7426 3.1461 1480.3 -0.0046710 153.38 0.16430 555.00 0.0018018 799.13 1200.9 2.4344 2.7426 3.1461 1480.3 -0.0046710 153.38 0.16430
284.38 32436. undefined 801.87 1204.8 2.4394 555.00 0.0018018 801.87 1204.8 2.4394 2.7461 3.1491 1481.4 -0.0046678 153.40 0.16450 555.00 0.0018018 801.87 1204.8 2.4394 2.7461 3.1491 1481.4 -0.0046678 153.40 0.16450
285.38 32531. undefined 804.62 1208.7 2.4443 555.00 0.0018018 804.62 1208.7 2.4443 2.7496 3.1522 1482.4 -0.0046646 153.41 0.16470 555.00 0.0018018 804.62 1208.7 2.4443 2.7496 3.1522 1482.4 -0.0046646 153.41 0.16470
286.38 32625. undefined 807.37 1212.7 2.4492 555.00 0.0018018 807.37 1212.7 2.4492 2.7532 3.1552 1483.5 -0.0046615 153.42 0.16491 555.00 0.0018018 807.37 1212.7 2.4492 2.7532 3.1552 1483.5 -0.0046615 153.42 0.16491
287.38 32720. undefined 810.13 1216.6 2.4541 555.00 0.0018018 810.13 1216.6 2.4541 2.7567 3.1582 1484.5 -0.0046583 153.43 0.16511 555.00 0.0018018 810.13 1216.6 2.4541 2.7567 3.1582 1484.5 -0.0046583 153.43 0.16511
288.38 32814. undefined 812.89 1220.5 2.4591 555.00 0.0018018 812.89 1220.5 2.4591 2.7602 3.1613 1485.5 -0.0046551 153.44 0.16531 555.00 0.0018018 812.89 1220.5 2.4591 2.7602 3.1613 1485.5 -0.0046551 153.44 0.16531
289.38 32908. undefined 815.65 1224.5 2.4640 555.00 0.0018018 815.65 1224.5 2.4640 2.7637 3.1643 1486.5 -0.0046520 153.45 0.16551 555.00 0.0018018 815.65 1224.5 2.4640 2.7637 3.1643 1486.5 -0.0046520 153.45 0.16551
290.38 33003. undefined 818.41 1228.4 2.4689 555.00 0.0018018 818.41 1228.4 2.4689 2.7672 3.1673 1487.6 -0.0046488 153.46 0.16571 555.00 0.0018018 818.41 1228.4 2.4689 2.7672 3.1673 1487.6 -0.0046488 153.46 0.16571
291.38 33097. undefined 821.18 1232.3 2.4738 555.00 0.0018018 821.18 1232.3 2.4738 2.7707 3.1703 1488.6 -0.0046457 153.47 0.16592 555.00 0.0018018 821.18 1232.3 2.4738 2.7707 3.1703 1488.6 -0.0046457 153.47 0.16592
292.38 33191. undefined 823.95 1236.3 2.4787 555.00 0.0018018 823.95 1236.3 2.4787 2.7741 3.1734 1489.6 -0.0046425 153.48 0.16612 555.00 0.0018018 823.95 1236.3 2.4787 2.7741 3.1734 1489.6 -0.0046425 153.48 0.16612
293.38 33286. undefined 826.73 1240.2 2.4836 555.00 0.0018018 826.73 1240.2 2.4836 2.7776 3.1764 1490.6 -0.0046394 153.49 0.16632 555.00 0.0018018 826.73 1240.2 2.4836 2.7776 3.1764 1490.6 -0.0046394 153.49 0.16632
294.38 33380. undefined 829.51 1244.2 2.4885 555.00 0.0018018 829.51 1244.2 2.4885 2.7811 3.1794 1491.7 -0.0046363 153.50 0.16653 555.00 0.0018018 829.51 1244.2 2.4885 2.7811 3.1794 1491.7 -0.0046363 153.50 0.16653
295.38 33474. undefined 832.29 1248.1 2.4934 555.00 0.0018018 832.29 1248.1 2.4934 2.7846 3.1824 1492.7 -0.0046332 153.52 0.16673 555.00 0.0018018 832.29 1248.1 2.4934 2.7846 3.1824 1492.7 -0.0046332 153.52 0.16673
296.38 33568. undefined 835.08 1252.1 2.4983 555.00 0.0018018 835.08 1252.1 2.4983 2.7880 3.1854 1493.7 -0.0046300 153.53 0.16694 555.00 0.0018018 835.08 1252.1 2.4983 2.7880 3.1854 1493.7 -0.0046300 153.53 0.16694
297.38 33662. undefined 837.87 1256.0 2.5032 555.00 0.0018018 837.87 1256.0 2.5032 2.7915 3.1884 1494.7 -0.0046269 153.54 0.16714 555.00 0.0018018 837.87 1256.0 2.5032 2.7915 3.1884 1494.7 -0.0046269 153.54 0.16714
298.38 33755. undefined 840.66 1260.0 2.5081 555.00 0.0018018 840.66 1260.0 2.5081 2.7949 3.1914 1495.7 -0.0046238 153.55 0.16735 555.00 0.0018018 840.66 1260.0 2.5081 2.7949 3.1914 1495.7 -0.0046238 153.55 0.16735
299.38 33849. undefined 843.46 1264.0 2.5130 555.00 0.0018018 843.46 1264.0 2.5130 2.7984 3.1944 1496.7 -0.0046207 153.56 0.16755 555.00 0.0018018 843.46 1264.0 2.5130 2.7984 3.1944 1496.7 -0.0046207 153.56 0.16755
300.38 33943. undefined 846.26 1267.9 2.5179 555.00 0.0018018 846.26 1267.9 2.5179 2.8018 3.1974 1497.8 -0.0046176 153.57 0.16776 555.00 0.0018018 846.26 1267.9 2.5179 2.8018 3.1974 1497.8 -0.0046176 153.57 0.16776