Temperature (C) Pressure (psia) Quality (l+v) Internal Energy (l+v, kJ/kg) Enthalpy (l+v, kJ/kg) Entropy (l+v, J/g*K) Density (l, kg/m3) Volume (l, m3/kg) Internal Energy (l, kJ/kg) Enthalpy (l, kJ/kg) Entropy (l, J/g*K) Cv (l, J/g*K) Cp (l, J/g*K) Sound Spd. (l, m/s) Joule-Thomson (l, F/psia) Viscosity (l, uPa*s) Therm. Cond. (l, W/m*K) Density (v, kg/m3) Volume (v, m3/kg) Internal Energy (v, kJ/kg) Enthalpy (v, kJ/kg) Entropy (v, J/g*K) Cv (v, J/g*K) Cp (v, J/g*K) Sound Spd. (v, m/s) Joule-Thomson (v, F/psia) Viscosity (v, uPa*s) Therm. Cond. (v, W/m*K)
-187.62 2.4953e-08 4.3303e-12 -196.64 -196.64 -1.3959 733.13 0.0013640 -196.64 -196.64 -1.3959 1.3553 1.9158 2136.4 -0.0077592 10960. 0.20792 1.0669e-08 9.3732e+07 350.13 366.26 5.1858 0.69067 0.87923 143.28 6.1051 2.3259 0.0017061
-186.62 3.7339e-08 6.3742e-12 -194.73 -194.73 -1.3736 732.08 0.0013660 -194.73 -194.73 -1.3736 1.3539 1.9166 2129.6 -0.0077546 10073. 0.20765 1.5780e-08 6.3371e+07 350.82 367.14 5.1200 0.69462 0.88317 144.03 5.9178 2.3534 0.0017533
-185.62 5.5322e-08 9.2911e-12 -192.81 -192.81 -1.3516 731.04 0.0013679 -192.81 -192.81 -1.3516 1.3525 1.9174 2122.9 -0.0077498 9276.1 0.20737 2.3112e-08 4.3267e+07 351.52 368.02 5.0561 0.69857 0.88713 144.77 5.7383 2.3808 0.0018007
-184.62 8.1182e-08 1.3415e-11 -190.89 -190.89 -1.3298 730.00 0.0013699 -190.89 -190.89 -1.3298 1.3513 1.9182 2116.1 -0.0077448 8557.8 0.20708 3.3533e-08 2.9821e+07 352.22 368.91 4.9939 0.70253 0.89108 145.51 5.5662 2.4083 0.0018485
-183.62 1.1803e-07 1.9192e-11 -188.97 -188.97 -1.3083 728.96 0.0013718 -188.97 -188.97 -1.3083 1.3501 1.9191 2109.3 -0.0077395 7909.8 0.20678 4.8211e-08 2.0742e+07 352.92 369.81 4.9333 0.70648 0.89504 146.24 5.4011 2.4357 0.0018965
-182.62 1.7009e-07 2.7216e-11 -187.05 -187.05 -1.2869 727.92 0.0013738 -187.05 -187.05 -1.2869 1.3490 1.9201 2102.5 -0.0077340 7324.3 0.20647 6.8704e-08 1.4555e+07 353.63 370.70 4.8744 0.71043 0.89899 146.97 5.2426 2.4632 0.0019448
-181.62 2.4299e-07 3.8266e-11 -185.13 -185.13 -1.2658 726.88 0.0013757 -185.13 -185.13 -1.2658 1.3480 1.9210 2095.7 -0.0077283 6794.5 0.20616 9.7079e-08 1.0301e+07 354.35 371.60 4.8170 0.71438 0.90294 147.69 5.0904 2.4906 0.0019934
-180.62 3.4425e-07 5.3360e-11 -183.21 -183.21 -1.2450 725.85 0.0013777 -183.21 -183.21 -1.2450 1.3470 1.9220 2088.9 -0.0077225 6314.4 0.20584 1.3605e-07 7.3504e+06 355.06 372.51 4.7612 0.71833 0.90688 148.41 4.9442 2.5181 0.0020423
-179.62 4.8378e-07 7.3815e-11 -181.29 -181.29 -1.2243 724.81 0.0013797 -181.29 -181.29 -1.2243 1.3461 1.9231 2082.0 -0.0077164 5878.8 0.20551 1.8915e-07 5.2868e+06 355.78 373.42 4.7068 0.72227 0.91082 149.13 4.8038 2.5456 0.0020915
-178.62 6.7459e-07 1.0133e-10 -179.37 -179.37 -1.2038 723.78 0.0013816 -179.37 -179.37 -1.2038 1.3453 1.9241 2075.2 -0.0077102 5482.9 0.20517 2.6096e-07 3.8320e+06 356.51 374.33 4.6538 0.72620 0.91475 149.84 4.6688 2.5731 0.0021410
-177.62 9.3358e-07 1.3805e-10 -177.44 -177.44 -1.1836 722.75 0.0013836 -177.44 -177.44 -1.1836 1.3445 1.9252 2068.4 -0.0077039 5122.6 0.20483 3.5737e-07 2.7982e+06 357.23 375.25 4.6022 0.73012 0.91867 150.54 4.5390 2.6005 0.0021907
-176.62 1.2826e-06 1.8674e-10 -175.52 -175.52 -1.1635 721.72 0.0013856 -175.52 -175.52 -1.1635 1.3437 1.9263 2061.5 -0.0076973 4794.1 0.20447 4.8588e-07 2.0581e+06 357.97 376.17 4.5519 0.73403 0.92258 151.25 4.4142 2.6280 0.0022408
-175.62 1.7496e-06 2.5083e-10 -173.59 -173.59 -1.1437 720.69 0.0013876 -173.59 -173.59 -1.1437 1.3430 1.9274 2054.7 -0.0076907 4494.3 0.20411 6.5601e-07 1.5244e+06 358.70 377.09 4.5029 0.73792 0.92648 151.95 4.2941 2.6555 0.0022912
-174.62 2.3705e-06 3.3464e-10 -171.66 -171.66 -1.1240 719.66 0.0013895 -171.66 -171.66 -1.1240 1.3423 1.9286 2047.9 -0.0076838 4220.2 0.20375 8.7976e-07 1.1367e+06 359.44 378.02 4.4551 0.74181 0.93036 152.64 4.1784 2.6830 0.0023418
-173.62 3.1903e-06 4.4352e-10 -169.73 -169.73 -1.1045 718.64 0.0013915 -169.73 -169.73 -1.1045 1.3417 1.9298 2041.0 -0.0076769 3969.3 0.20338 1.1721e-06 8.5314e+05 360.19 378.95 4.4085 0.74568 0.93423 153.33 4.0671 2.7105 0.0023928
-172.62 4.2661e-06 5.8410e-10 -167.80 -167.80 -1.0852 717.61 0.0013935 -167.80 -167.80 -1.0852 1.3411 1.9310 2034.2 -0.0076698 3739.3 0.20300 1.5518e-06 6.4441e+05 360.93 379.89 4.3631 0.74953 0.93809 154.02 3.9599 2.7379 0.0024440
-171.62 5.6692e-06 7.6449e-10 -165.87 -165.87 -1.0661 716.58 0.0013955 -165.87 -165.87 -1.0661 1.3405 1.9322 2027.3 -0.0076625 3528.0 0.20261 2.0419e-06 4.8974e+05 361.69 380.83 4.3188 0.75337 0.94193 154.71 3.8566 2.7654 0.0024955
-170.62 7.4884e-06 9.9462e-10 -163.94 -163.94 -1.0472 715.56 0.0013975 -163.94 -163.94 -1.0472 1.3400 1.9334 2020.5 -0.0076552 3333.8 0.20222 2.6708e-06 3.7442e+05 362.44 381.77 4.2755 0.75720 0.94575 155.39 3.7570 2.7929 0.0025473
-169.62 9.8334e-06 1.2865e-09 -162.00 -162.00 -1.0284 714.54 0.0013995 -162.00 -162.00 -1.0284 1.3395 1.9347 2013.6 -0.0076477 3154.9 0.20182 3.4733e-06 2.8791e+05 363.20 382.72 4.2334 0.76100 0.94956 156.07 3.6609 2.8204 0.0025994
-168.62 1.2839e-05 1.6547e-09 -160.07 -160.07 -1.0098 713.52 0.0014015 -160.07 -160.07 -1.0098 1.3390 1.9359 2006.8 -0.0076401 2989.9 0.20141 4.4917e-06 2.2263e+05 363.96 383.67 4.1922 0.76479 0.95335 156.74 3.5683 2.8479 0.0026518
-167.62 1.6672e-05 2.1167e-09 -158.13 -158.13 -0.99134 712.49 0.0014035 -158.13 -158.13 -0.99134 1.3386 1.9372 2000.0 -0.0076323 2837.5 0.20100 5.7771e-06 1.7310e+05 364.73 384.63 4.1521 0.76856 0.95712 157.41 3.4790 2.8754 0.0027045
-166.62 2.1533e-05 2.6933e-09 -156.19 -156.19 -0.97306 711.47 0.0014055 -156.19 -156.19 -0.97306 1.3382 1.9385 1993.1 -0.0076245 2696.5 0.20058 7.3914e-06 1.3529e+05 365.50 385.59 4.1129 0.77232 0.96087 158.08 3.3927 2.9029 0.0027575
-165.62 2.7666e-05 3.4093e-09 -154.25 -154.25 -0.95494 710.45 0.0014075 -154.25 -154.25 -0.95494 1.3378 1.9398 1986.3 -0.0076165 2566.0 0.20016 9.4084e-06 1.0629e+05 366.27 386.55 4.0746 0.77605 0.96460 158.75 3.3095 2.9304 0.0028108
-164.62 3.5367e-05 4.2940e-09 -152.31 -152.31 -0.93698 709.44 0.0014096 -152.31 -152.31 -0.93698 1.3375 1.9411 1979.4 -0.0076084 2444.9 0.19973 1.1916e-05 83918. 367.05 387.52 4.0372 0.77976 0.96832 159.41 3.2291 2.9579 0.0028643
-163.62 4.4989e-05 5.3819e-09 -150.37 -150.37 -0.91917 708.42 0.0014116 -150.37 -150.37 -0.91917 1.3371 1.9424 1972.6 -0.0076002 2332.3 0.19930 1.5020e-05 66577. 367.83 388.49 4.0008 0.78346 0.97201 160.07 3.1514 2.9854 0.0029182
-162.62 5.6956e-05 6.7137e-09 -148.43 -148.43 -0.90151 707.40 0.0014136 -148.43 -148.43 -0.90151 1.3368 1.9437 1965.8 -0.0075919 2227.7 0.19886 1.8844e-05 53068. 368.62 389.46 3.9651 0.78713 0.97569 160.72 3.0764 3.0129 0.0029723
-161.62 7.1773e-05 8.3365e-09 -146.48 -146.48 -0.88400 706.38 0.0014157 -146.48 -146.48 -0.88400 1.3365 1.9451 1959.0 -0.0075834 2130.2 0.19841 2.3533e-05 42494. 369.41 390.44 3.9304 0.79079 0.97935 161.38 3.0038 3.0404 0.0030268
-160.62 9.0036e-05 1.0305e-08 -144.54 -144.54 -0.86663 705.37 0.0014177 -144.54 -144.54 -0.86663 1.3363 1.9465 1952.1 -0.0075748 2039.2 0.19796 2.9258e-05 34178. 370.20 391.42 3.8964 0.79443 0.98298 162.03 2.9337 3.0679 0.0030815
-159.62 0.00011245 1.2683e-08 -142.59 -142.59 -0.84940 704.35 0.0014197 -142.59 -142.59 -0.84940 1.3360 1.9478 1945.3 -0.0075661 1954.2 0.19751 3.6221e-05 27609. 371.00 392.40 3.8632 0.79805 0.98660 162.68 2.8658 3.0955 0.0031365
-158.62 0.00013985 1.5544e-08 -140.64 -140.64 -0.83231 703.34 0.0014218 -140.64 -140.64 -0.83231 1.3358 1.9492 1938.5 -0.0075573 1874.8 0.19705 4.4652e-05 22395. 371.80 393.39 3.8307 0.80164 0.99020 163.32 2.8002 3.1230 0.0031918
-157.62 0.00017320 1.8972e-08 -138.69 -138.69 -0.81536 702.32 0.0014238 -138.69 -138.69 -0.81536 1.3356 1.9506 1931.7 -0.0075484 1800.3 0.19658 5.4822e-05 18241. 372.60 394.38 3.7990 0.80522 0.99378 163.96 2.7367 3.1505 0.0032474
-156.62 0.00021364 2.3063e-08 -136.74 -136.74 -0.79854 701.31 0.0014259 -136.74 -136.74 -0.79854 1.3354 1.9520 1924.9 -0.0075393 1730.5 0.19611 6.7040e-05 14916. 373.41 395.38 3.7680 0.80878 0.99734 164.60 2.6752 3.1780 0.0033033
-155.62 0.00026248 2.7926e-08 -134.79 -134.79 -0.78185 700.30 0.0014280 -134.79 -134.79 -0.78185 1.3352 1.9534 1918.1 -0.0075302 1664.9 0.19564 8.1666e-05 12245. 374.22 396.38 3.7377 0.81232 1.0009 165.24 2.6157 3.2055 0.0033595
-154.62 0.00032125 3.3685e-08 -132.83 -132.83 -0.76530 699.29 0.0014300 -132.83 -132.83 -0.76530 1.3350 1.9548 1911.3 -0.0075209 1603.3 0.19516 9.9109e-05 10090. 375.03 397.38 3.7081 0.81585 1.0044 165.87 2.5580 3.2330 0.0034160
-153.62 0.00039171 4.0482e-08 -130.88 -130.88 -0.74887 698.27 0.0014321 -130.88 -130.88 -0.74887 1.3349 1.9563 1904.5 -0.0075114 1545.3 0.19468 0.00011984 8344.6 375.85 398.39 3.6792 0.81935 1.0079 166.50 2.5022 3.2606 0.0034727
-152.62 0.00047590 4.8474e-08 -128.92 -128.92 -0.73256 697.26 0.0014342 -128.92 -128.92 -0.73256 1.3348 1.9577 1897.8 -0.0075019 1490.6 0.19419 0.00014439 6925.9 376.67 399.40 3.6509 0.82284 1.0114 167.13 2.4481 3.2881 0.0035298
-151.62 0.00057613 5.7840e-08 -126.96 -126.96 -0.71638 696.25 0.0014363 -126.96 -126.96 -0.71638 1.3346 1.9592 1891.0 -0.0074922 1438.9 0.19370 0.00017336 5768.4 377.49 400.41 3.6232 0.82631 1.0149 167.76 2.3957 3.3156 0.0035872
-150.62 0.00069507 6.8778e-08 -125.00 -125.00 -0.70032 695.24 0.0014384 -125.00 -125.00 -0.70032 1.3345 1.9606 1884.2 -0.0074824 1390.2 0.19320 0.00020744 4820.7 378.32 401.42 3.5962 0.82976 1.0183 168.38 2.3448 3.3431 0.0036448
-149.62 0.00083574 8.1510e-08 -123.04 -123.04 -0.68438 694.23 0.0014404 -123.04 -123.04 -0.68438 1.3345 1.9621 1877.4 -0.0074724 1344.0 0.19270 0.00024740 4042.0 379.15 402.44 3.5697 0.83319 1.0218 169.00 2.2956 3.3706 0.0037027
-148.62 0.0010016 9.6283e-08 -121.08 -121.08 -0.66855 693.22 0.0014425 -121.08 -121.08 -0.66855 1.3344 1.9636 1870.7 -0.0074623 1300.3 0.19220 0.00029412 3400.0 379.99 403.47 3.5438 0.83661 1.0252 169.62 2.2478 3.3982 0.0037610
-147.62 0.0011965 1.1337e-07 -119.11 -119.11 -0.65284 692.21 0.0014447 -119.11 -119.11 -0.65284 1.3343 1.9651 1863.9 -0.0074521 1258.9 0.19169 0.00034856 2869.0 380.83 404.49 3.5185 0.84001 1.0286 170.24 2.2014 3.4257 0.0038195
-146.62 0.0014249 1.3308e-07 -117.15 -117.15 -0.63724 691.20 0.0014468 -117.15 -117.15 -0.63724 1.3343 1.9666 1857.2 -0.0074417 1219.6 0.19117 0.00041181 2428.3 381.67 405.52 3.4938 0.84340 1.0320 170.85 2.1565 3.4532 0.0038783
-145.62 0.0016917 1.5573e-07 -115.18 -115.18 -0.62175 690.19 0.0014489 -115.18 -115.18 -0.62175 1.3343 1.9682 1850.4 -0.0074312 1182.3 0.19066 0.00048510 2061.4 382.51 406.56 3.4695 0.84677 1.0353 171.46 2.1128 3.4807 0.0039374
-144.62 0.0020026 1.8170e-07 -113.21 -113.21 -0.60637 689.18 0.0014510 -113.21 -113.21 -0.60637 1.3343 1.9697 1843.7 -0.0074206 1146.8 0.19014 0.00056976 1755.1 383.36 407.59 3.4458 0.85012 1.0387 172.07 2.0705 3.5082 0.0039967
-143.62 0.0023637 2.1139e-07 -111.24 -111.24 -0.59110 688.17 0.0014531 -111.24 -111.24 -0.59110 1.3343 1.9713 1836.9 -0.0074098 1113.0 0.18962 0.00066731 1498.6 384.21 408.63 3.4226 0.85346 1.0420 172.68 2.0294 3.5358 0.0040564
-142.62 0.0027820 2.4523e-07 -109.27 -109.27 -0.57593 687.16 0.0014553 -109.27 -109.27 -0.57593 1.3343 1.9728 1830.2 -0.0073988 1080.8 0.18909 0.00077939 1283.1 385.07 409.68 3.3999 0.85679 1.0454 173.28 1.9896 3.5633 0.0041164
-141.62 0.0032653 2.8370e-07 -107.30 -107.30 -0.56087 686.15 0.0014574 -107.30 -107.30 -0.56087 1.3343 1.9744 1823.5 -0.0073878 1050.1 0.18856 0.00090784 1101.5 385.93 410.72 3.3777 0.86011 1.0487 173.88 1.9508 3.5908 0.0041766
-140.62 0.0038222 3.2732e-07 -105.32 -105.32 -0.54591 685.14 0.0014596 -105.32 -105.32 -0.54591 1.3344 1.9760 1816.7 -0.0073765 1020.7 0.18803 0.0010547 948.16 386.79 411.77 3.3560 0.86341 1.0520 174.48 1.9133 3.6183 0.0042372
-139.62 0.0044623 3.7665e-07 -103.34 -103.34 -0.53105 684.13 0.0014617 -103.34 -103.34 -0.53105 1.3344 1.9776 1810.0 -0.0073651 992.74 0.18749 0.0012221 818.26 387.65 412.83 3.3347 0.86670 1.0553 175.08 1.8768 3.6459 0.0042980
-138.62 0.0051963 4.3229e-07 -101.37 -101.37 -0.51628 683.12 0.0014639 -101.37 -101.37 -0.51629 1.3345 1.9792 1803.3 -0.0073536 965.97 0.18695 0.0014125 707.94 388.52 413.88 3.3139 0.86998 1.0586 175.67 1.8413 3.6734 0.0043592
-137.62 0.0060358 4.9490e-07 -99.386 -99.386 -0.50162 682.11 0.0014660 -99.386 -99.386 -0.50162 1.3346 1.9808 1796.6 -0.0073419 940.35 0.18641 0.0016287 614.00 389.39 414.94 3.2935 0.87325 1.0619 176.26 1.8069 3.7009 0.0044206
-136.62 0.0069938 5.6518e-07 -97.404 -97.404 -0.48705 681.10 0.0014682 -97.404 -97.404 -0.48705 1.3347 1.9825 1789.9 -0.0073301 915.81 0.18586 0.0018733 533.80 390.26 416.00 3.2735 0.87650 1.0651 176.85 1.7734 3.7284 0.0044823
-135.62 0.0080843 6.4388e-07 -95.421 -95.421 -0.47258 680.09 0.0014704 -95.421 -95.421 -0.47258 1.3348 1.9841 1783.2 -0.0073180 892.30 0.18531 0.0021497 465.17 391.14 417.07 3.2540 0.87975 1.0684 177.44 1.7409 3.7559 0.0045443
-134.62 0.0093230 7.3180e-07 -93.436 -93.436 -0.45820 679.08 0.0014726 -93.436 -93.436 -0.45820 1.3350 1.9858 1776.5 -0.0073059 869.75 0.18476 0.0024613 406.30 392.02 418.14 3.2348 0.88299 1.0716 178.02 1.7093 3.7834 0.0046066
-133.62 0.010727 8.2980e-07 -91.449 -91.449 -0.44391 678.07 0.0014748 -91.450 -91.449 -0.44391 1.3351 1.9875 1769.8 -0.0072935 848.11 0.18421 0.0028116 355.67 392.91 419.21 3.2161 0.88622 1.0749 178.61 1.6786 3.8109 0.0046691
-132.62 0.012315 9.3879e-07 -89.461 -89.461 -0.42970 677.06 0.0014770 -89.461 -89.461 -0.42971 1.3353 1.9892 1763.1 -0.0072810 827.32 0.18365 0.0032049 312.03 393.79 420.29 3.1977 0.88944 1.0781 179.19 1.6488 3.8385 0.0047320
-131.62 0.014106 1.0597e-06 -87.471 -87.470 -0.41559 676.04 0.0014792 -87.471 -87.471 -0.41560 1.3354 1.9909 1756.4 -0.0072684 807.34 0.18309 0.0036453 274.33 394.68 421.36 3.1798 0.89266 1.0813 179.76 1.6197 3.8660 0.0047951
-130.62 0.016124 1.1937e-06 -85.479 -85.479 -0.40157 675.03 0.0014814 -85.479 -85.479 -0.40157 1.3356 1.9926 1749.7 -0.0072555 788.12 0.18253 0.0041375 241.69 395.58 422.44 3.1622 0.89586 1.0846 180.34 1.5915 3.8935 0.0048586
-129.62 0.018392 1.3417e-06 -83.485 -83.485 -0.38763 674.02 0.0014836 -83.486 -83.486 -0.38763 1.3358 1.9944 1743.0 -0.0072425 769.63 0.18196 0.0046867 213.37 396.47 423.53 3.1450 0.89906 1.0878 180.91 1.5641 3.9210 0.0049223
-128.62 0.020935 1.5049e-06 -81.490 -81.490 -0.37378 673.01 0.0014859 -81.491 -81.490 -0.37378 1.3360 1.9961 1736.3 -0.0072294 751.83 0.18140 0.0052981 188.75 397.37 424.62 3.1281 0.90226 1.0910 181.48 1.5374 3.9485 0.0049863
-127.62 0.023783 1.6845e-06 -79.493 -79.493 -0.36001 672.00 0.0014881 -79.494 -79.493 -0.36001 1.3363 1.9979 1729.6 -0.0072160 734.67 0.18083 0.0059776 167.29 398.27 425.71 3.1116 0.90545 1.0942 182.05 1.5114 3.9760 0.0050506
-126.62 0.026966 1.8818e-06 -77.494 -77.494 -0.34632 670.98 0.0014904 -77.495 -77.495 -0.34632 1.3365 1.9997 1722.9 -0.0072025 718.14 0.18025 0.0067313 148.56 399.18 426.80 3.0954 0.90863 1.0974 182.62 1.4861 4.0035 0.0051152
-125.62 0.030515 2.0981e-06 -75.493 -75.493 -0.33271 669.97 0.0014926 -75.494 -75.494 -0.33272 1.3368 2.0015 1716.2 -0.0071888 702.18 0.17968 0.0075660 132.17 400.09 427.89 3.0795 0.91181 1.1006 183.18 1.4615 4.0310 0.0051800
-124.62 0.034467 2.3347e-06 -73.491 -73.490 -0.31918 668.95 0.0014949 -73.492 -73.492 -0.31919 1.3371 2.0033 1709.5 -0.0071749 686.79 0.17910 0.0084885 117.81 401.00 428.99 3.0640 0.91499 1.1038 183.74 1.4375 4.0584 0.0052452
-123.62 0.038859 2.5931e-06 -71.486 -71.486 -0.30573 667.94 0.0014971 -71.488 -71.487 -0.30574 1.3374 2.0051 1702.8 -0.0071609 671.93 0.17852 0.0095065 105.19 401.91 430.10 3.0488 0.91816 1.1070 184.30 1.4141 4.0859 0.0053106
-122.62 0.043731 2.8748e-06 -69.480 -69.480 -0.29236 666.92 0.0014994 -69.482 -69.481 -0.29237 1.3377 2.0070 1696.2 -0.0071466 657.57 0.17794 0.010628 94.092 402.83 431.20 3.0339 0.92134 1.1102 184.86 1.3913 4.1134 0.0053764
-121.62 0.049128 3.1813e-06 -67.472 -67.472 -0.27906 665.91 0.0015017 -67.474 -67.473 -0.27907 1.3380 2.0089 1689.5 -0.0071322 643.70 0.17736 0.011861 84.309 403.75 432.31 3.0193 0.92451 1.1134 185.41 1.3691 4.1409 0.0054424
-120.62 0.055096 3.5141e-06 -65.462 -65.462 -0.26584 664.89 0.0015040 -65.464 -65.463 -0.26585 1.3384 2.0107 1682.8 -0.0071176 630.28 0.17678 0.013215 75.669 404.67 433.42 3.0050 0.92767 1.1166 185.96 1.3475 4.1683 0.0055087
-119.62 0.061684 3.8751e-06 -63.450 -63.450 -0.25269 663.87 0.0015063 -63.452 -63.452 -0.25271 1.3387 2.0126 1676.1 -0.0071028 617.30 0.17619 0.014700 68.027 405.60 434.53 2.9909 0.93084 1.1198 186.51 1.3264 4.1958 0.0055752
-118.62 0.068946 4.2657e-06 -61.437 -61.436 -0.23962 662.86 0.0015086 -61.439 -61.438 -0.23963 1.3391 2.0146 1669.4 -0.0070878 604.74 0.17560 0.016325 61.255 406.53 435.64 2.9772 0.93401 1.1231 187.06 1.3058 4.2233 0.0056421
-117.62 0.076937 4.6878e-06 -59.421 -59.420 -0.22662 661.84 0.0015109 -59.423 -59.422 -0.22663 1.3395 2.0165 1662.8 -0.0070726 592.58 0.17501 0.018101 55.245 407.46 436.76 2.9638 0.93718 1.1263 187.60 1.2857 4.2507 0.0057092
-116.62 0.085718 5.1431e-06 -57.403 -57.402 -0.21369 660.82 0.0015133 -57.406 -57.405 -0.21370 1.3400 2.0184 1656.1 -0.0070573 580.80 0.17442 0.020040 49.901 408.39 437.88 2.9506 0.94035 1.1295 188.14 1.2660 4.2782 0.0057767
-115.62 0.095353 5.6335e-06 -55.384 -55.383 -0.20082 659.80 0.0015156 -55.386 -55.385 -0.20084 1.3404 2.0204 1649.4 -0.0070417 569.38 0.17383 0.022152 45.142 409.33 439.01 2.9377 0.94352 1.1327 188.68 1.2468 4.3056 0.0058444
-114.62 0.10591 6.1607e-06 -53.362 -53.361 -0.18803 658.78 0.0015180 -53.365 -53.364 -0.18805 1.3409 2.0224 1642.7 -0.0070260 558.32 0.17323 0.024451 40.898 410.27 440.13 2.9250 0.94669 1.1360 189.22 1.2281 4.3330 0.0059123
-113.62 0.11746 6.7267e-06 -51.338 -51.337 -0.17531 657.76 0.0015203 -51.342 -51.340 -0.17533 1.3413 2.0244 1636.0 -0.0070100 547.59 0.17264 0.026949 37.107 411.21 441.26 2.9126 0.94987 1.1392 189.75 1.2097 4.3604 0.0059806
-112.62 0.13008 7.3333e-06 -49.313 -49.311 -0.16265 656.73 0.0015227 -49.316 -49.315 -0.16267 1.3418 2.0264 1629.3 -0.0069938 537.18 0.17204 0.029661 33.715 412.16 442.39 2.9005 0.95305 1.1424 190.28 1.1918 4.3879 0.0060491
-111.62 0.14384 7.9824e-06 -47.285 -47.283 -0.15005 655.71 0.0015251 -47.289 -47.287 -0.15008 1.3424 2.0285 1622.7 -0.0069774 527.08 0.17144 0.032600 30.675 413.10 443.53 2.8885 0.95623 1.1457 190.81 1.1742 4.4153 0.0061180
-110.62 0.15884 8.6760e-06 -45.255 -45.253 -0.13753 654.69 0.0015274 -45.259 -45.258 -0.13755 1.3429 2.0305 1616.0 -0.0069609 517.28 0.17084 0.035781 27.948 414.06 444.66 2.8769 0.95942 1.1490 191.34 1.1570 4.4427 0.0061871
-109.62 0.17516 9.4160e-06 -43.223 -43.221 -0.12506 653.66 0.0015298 -43.228 -43.226 -0.12509 1.3435 2.0326 1609.3 -0.0069441 507.76 0.17024 0.039220 25.497 415.01 445.80 2.8654 0.96261 1.1522 191.86 1.1402 4.4701 0.0062564
-108.62 0.19290 1.0204e-05 -41.189 -41.187 -0.11266 652.64 0.0015322 -41.194 -41.192 -0.11269 1.3441 2.0347 1602.6 -0.0069271 498.51 0.16964 0.042933 23.292 415.96 446.94 2.8542 0.96581 1.1555 192.38 1.1236 4.4974 0.0063261
-107.62 0.21215 1.1043e-05 -39.153 -39.151 -0.10032 651.61 0.0015347 -39.158 -39.156 -0.10036 1.3447 2.0369 1595.9 -0.0069098 489.52 0.16903 0.046937 21.305 416.92 448.09 2.8433 0.96901 1.1588 192.90 1.1075 4.5248 0.0063960
-106.62 0.23301 1.1933e-05 -37.115 -37.112 -0.088048 650.58 0.0015371 -37.120 -37.118 -0.088082 1.3453 2.0390 1589.2 -0.0068924 480.79 0.16843 0.051250 19.512 417.88 449.23 2.8325 0.97222 1.1621 193.41 1.0916 4.5522 0.0064662
-105.62 0.25561 1.2878e-05 -35.075 -35.071 -0.075831 649.55 0.0015395 -35.080 -35.078 -0.075868 1.3460 2.0412 1582.6 -0.0068747 472.30 0.16782 0.055891 17.892 418.85 450.38 2.8220 0.97544 1.1655 193.93 1.0760 4.5795 0.0065367
-104.62 0.28004 1.3878e-05 -33.032 -33.029 -0.063674 648.52 0.0015420 -33.038 -33.035 -0.063714 1.3467 2.0434 1575.9 -0.0068569 464.04 0.16721 0.060878 16.426 419.81 451.53 2.8116 0.97867 1.1688 194.44 1.0608 4.6069 0.0066074
-103.62 0.30643 1.4936e-05 -30.987 -30.983 -0.051576 647.49 0.0015444 -30.994 -30.991 -0.051619 1.3474 2.0456 1569.2 -0.0068387 456.00 0.16660 0.066231 15.099 420.78 452.68 2.8015 0.98191 1.1722 194.94 1.0458 4.6342 0.0066785
-102.62 0.33490 1.6053e-05 -28.940 -28.936 -0.039536 646.46 0.0015469 -28.947 -28.944 -0.039582 1.3481 2.0478 1562.5 -0.0068204 448.18 0.16600 0.071971 13.894 421.75 453.84 2.7916 0.98516 1.1755 195.44 1.0310 4.6615 0.0067498
-101.62 0.36558 1.7231e-05 -26.891 -26.886 -0.027553 645.43 0.0015494 -26.898 -26.894 -0.027602 1.3489 2.0501 1555.8 -0.0068018 440.57 0.16539 0.078120 12.801 422.73 454.99 2.7818 0.98841 1.1789 195.95 1.0166 4.6888 0.0068213
-100.62 0.39862 1.8472e-05 -24.839 -24.834 -0.015627 644.39 0.0015519 -24.847 -24.843 -0.015678 1.3497 2.0524 1549.1 -0.0067830 433.16 0.16478 0.084699 11.807 423.70 456.15 2.7723 0.99168 1.1823 196.44 1.0024 4.7161 0.0068932
-99.625 0.43414 1.9776e-05 -22.785 -22.780 -0.0037555 643.36 0.0015544 -22.794 -22.789 -0.0038103 1.3505 2.0547 1542.4 -0.0067639 425.95 0.16416 0.091731 10.901 424.68 457.31 2.7630 0.99496 1.1858 196.94 0.98838 4.7434 0.0069653
-98.625 0.47230 2.1146e-05 -20.729 -20.723 0.0080608 642.32 0.0015569 -20.738 -20.733 0.0080027 1.3514 2.0570 1535.7 -0.0067447 418.92 0.16355 0.099240 10.077 425.66 458.48 2.7538 0.99825 1.1892 197.43 0.97464 4.7707 0.0070377
-97.625 0.51325 2.2583e-05 -18.670 -18.664 0.019823 641.28 0.0015594 -18.680 -18.674 0.019762 1.3522 2.0594 1529.0 -0.0067251 412.07 0.16294 0.10725 9.3239 426.65 459.64 2.7448 1.0016 1.1927 197.92 0.96112 4.7979 0.0071103
-96.625 0.55714 2.4088e-05 -16.609 -16.602 0.031532 640.24 0.0015619 -16.620 -16.614 0.031467 1.3531 2.0618 1522.3 -0.0067053 405.39 0.16233 0.11579 8.6365 427.63 460.81 2.7360 1.0049 1.1962 198.40 0.94783 4.8251 0.0071832
-95.625 0.60416 2.5662e-05 -14.545 -14.538 0.043189 639.20 0.0015645 -14.557 -14.550 0.043120 1.3540 2.0642 1515.7 -0.0066853 398.88 0.16171 0.12488 8.0078 428.62 461.98 2.7274 1.0082 1.1997 198.88 0.93475 4.8524 0.0072564
-94.625 0.65446 2.7306e-05 -12.479 -12.471 0.054794 638.16 0.0015670 -12.491 -12.484 0.054721 1.3550 2.0667 1509.0 -0.0066650 392.53 0.16110 0.13455 7.4323 429.61 463.15 2.7189 1.0116 1.2032 199.36 0.92188 4.8796 0.0073299
-93.625 0.70822 2.9020e-05 -10.411 -10.402 0.066348 637.12 0.0015696 -10.424 -10.416 0.066271 1.3560 2.0691 1502.3 -0.0066444 386.34 0.16048 0.14482 6.9050 430.60 464.32 2.7107 1.0149 1.2068 199.83 0.90921 4.9068 0.0074036
-92.625 0.76564 3.0805e-05 -8.3400 -8.3306 0.077851 636.07 0.0015722 -8.3535 -8.3452 0.077771 1.3570 2.0716 1495.6 -0.0066236 380.31 0.15987 0.15573 6.4212 431.60 465.49 2.7025 1.0183 1.2104 200.30 0.89673 4.9340 0.0074776
-91.625 0.82689 3.2662e-05 -6.2665 -6.2564 0.089305 635.02 0.0015747 -6.2808 -6.2719 0.089220 1.3580 2.0742 1488.9 -0.0066025 374.41 0.15925 0.16731 5.9769 432.59 466.67 2.6946 1.0217 1.2140 200.77 0.88445 4.9611 0.0075518
-90.625 0.89218 3.4591e-05 -4.1905 -4.1796 0.10071 633.98 0.0015773 -4.2056 -4.1959 0.10062 1.3591 2.0767 1482.2 -0.0065811 368.66 0.15864 0.17958 5.5685 433.59 467.84 2.6868 1.0251 1.2177 201.24 0.87236 4.9883 0.0076263
-89.625 0.96172 3.6592e-05 -2.1119 -2.1002 0.11207 632.93 0.0015800 -2.1279 -2.1174 0.11197 1.3602 2.0793 1475.5 -0.0065595 363.05 0.15802 0.19258 5.1928 434.59 469.02 2.6791 1.0285 1.2213 201.70 0.86045 5.0154 0.0077011
-88.625 1.0357 3.8664e-05 -0.030673 -0.018034 0.12338 631.88 0.0015826 -0.047516 -0.036215 0.12328 1.3613 2.0819 1468.8 -0.0065375 357.56 0.15740 0.20633 4.8466 435.59 470.20 2.6717 1.0320 1.2250 202.15 0.84873 5.0425 0.0077761
-87.625 1.1144 4.0806e-05 2.0532 2.0668 0.13464 630.83 0.0015852 2.0355 2.0476 0.13454 1.3625 2.0846 1462.1 -0.0065153 352.21 0.15679 0.22087 4.5276 436.60 471.39 2.6643 1.0354 1.2288 202.61 0.83718 5.0696 0.0078514
-86.625 1.1979 4.3019e-05 4.1397 4.1543 0.14586 629.77 0.0015879 4.1211 4.1342 0.14575 1.3637 2.0873 1455.4 -0.0064928 346.98 0.15617 0.23623 4.2331 437.61 472.57 2.6571 1.0389 1.2325 203.06 0.82580 5.0967 0.0079270
-85.625 1.2866 4.5301e-05 6.2289 6.2446 0.15703 628.72 0.0015905 6.2094 6.2235 0.15691 1.3649 2.0900 1448.8 -0.0064701 341.87 0.15555 0.25245 3.9612 438.61 473.75 2.6501 1.0424 1.2363 203.50 0.81460 5.1237 0.0080028
-84.625 1.3806 4.7651e-05 8.3209 8.3378 0.16815 627.66 0.0015932 8.3004 8.3155 0.16803 1.3661 2.0927 1442.1 -0.0064470 336.87 0.15494 0.26956 3.7097 439.63 474.94 2.6432 1.0460 1.2402 203.95 0.80356 5.1508 0.0080789
-83.625 1.4803 5.0067e-05 10.416 10.434 0.17923 626.60 0.0015959 10.394 10.410 0.17911 1.3674 2.0955 1435.4 -0.0064236 331.99 0.15432 0.28760 3.4771 440.64 476.13 2.6364 1.0495 1.2440 204.38 0.79269 5.1778 0.0081553
-82.625 1.5858 5.2547e-05 12.513 12.533 0.19027 625.54 0.0015986 12.491 12.508 0.19014 1.3687 2.0983 1428.7 -0.0063999 327.22 0.15370 0.30659 3.2616 441.65 477.31 2.6298 1.0531 1.2479 204.82 0.78199 5.2048 0.0082319
-81.625 1.6975 5.5089e-05 14.613 14.634 0.20127 624.48 0.0016013 14.590 14.609 0.20113 1.3700 2.1012 1422.0 -0.0063759 322.55 0.15309 0.32659 3.0619 442.67 478.50 2.6233 1.0567 1.2519 205.25 0.77144 5.2318 0.0083088
-80.625 1.8155 5.7689e-05 16.717 16.739 0.21222 623.42 0.0016041 16.692 16.712 0.21208 1.3714 2.1041 1415.4 -0.0063516 317.99 0.15247 0.34763 2.8766 443.69 479.70 2.6169 1.0603 1.2558 205.67 0.76106 5.2587 0.0083860
-79.625 1.9402 6.0346e-05 18.823 18.846 0.22313 622.36 0.0016068 18.797 18.819 0.22299 1.3728 2.1070 1408.7 -0.0063270 313.52 0.15186 0.36974 2.7046 444.71 480.89 2.6106 1.0639 1.2598 206.10 0.75083 5.2857 0.0084634
-78.625 2.0718 6.3055e-05 20.932 20.957 0.23400 621.29 0.0016096 20.905 20.928 0.23385 1.3742 2.1099 1402.0 -0.0063021 309.15 0.15124 0.39296 2.5448 445.73 482.08 2.6045 1.0676 1.2639 206.51 0.74076 5.3126 0.0085411
-77.625 2.2107 6.5812e-05 23.044 23.071 0.24483 620.22 0.0016123 23.016 23.040 0.24468 1.3757 2.1129 1395.3 -0.0062768 304.88 0.15062 0.41735 2.3961 446.75 483.27 2.5985 1.0712 1.2680 206.93 0.73084 5.3395 0.0086190
-76.625 2.3571 6.8614e-05 25.159 25.187 0.25562 619.15 0.0016151 25.130 25.156 0.25546 1.3772 2.1159 1388.7 -0.0062512 300.69 0.15001 0.44292 2.2577 447.78 484.47 2.5926 1.0749 1.2721 207.34 0.72107 5.3664 0.0086972
-75.625 2.5113 7.1455e-05 27.277 27.307 0.26637 618.08 0.0016179 27.247 27.275 0.26620 1.3787 2.1190 1382.0 -0.0062253 296.59 0.14939 0.46974 2.1288 448.81 485.67 2.5869 1.0787 1.2762 207.74 0.71146 5.3933 0.0087757
-74.625 2.6736 7.4330e-05 29.398 29.430 0.27708 617.01 0.0016207 29.366 29.396 0.27691 1.3802 2.1221 1375.4 -0.0061990 292.58 0.14878 0.49783 2.0087 449.83 486.86 2.5812 1.0824 1.2804 208.14 0.70200 5.4201 0.0088544
-73.625 2.8444 7.7233e-05 31.522 31.556 0.28775 615.93 0.0016236 31.489 31.521 0.28758 1.3818 2.1252 1368.7 -0.0061724 288.65 0.14816 0.52725 1.8966 450.86 488.06 2.5757 1.0862 1.2847 208.54 0.69268 5.4469 0.0089334
-72.625 3.0240 8.0158e-05 33.649 33.686 0.29839 614.85 0.0016264 33.615 33.649 0.29821 1.3834 2.1284 1362.0 -0.0061454 284.81 0.14755 0.55804 1.7920 451.90 489.26 2.5703 1.0900 1.2889 208.93 0.68351 5.4737 0.0090126
-71.625 3.2127 8.3098e-05 35.779 35.818 0.30898 613.78 0.0016293 35.745 35.781 0.30880 1.3851 2.1316 1355.4 -0.0061181 281.03 0.14694 0.59024 1.6942 452.93 490.46 2.5650 1.0938 1.2932 209.32 0.67448 5.5005 0.0090922
-70.625 3.4108 8.6046e-05 37.913 37.954 0.31955 612.69 0.0016321 37.877 37.915 0.31935 1.3867 2.1349 1348.7 -0.0060904 277.34 0.14632 0.62390 1.6028 453.96 491.66 2.5598 1.0976 1.2976 209.70 0.66560 5.5273 0.0091720
-69.625 3.6187 8.8994e-05 40.050 40.094 0.33007 611.61 0.0016350 40.013 40.053 0.32987 1.3884 2.1382 1342.1 -0.0060624 273.72 0.14571 0.65906 1.5173 455.00 492.86 2.5547 1.1015 1.3020 210.08 0.65687 5.5540 0.0092520
-68.625 3.8367 9.1933e-05 42.190 42.236 0.34056 610.53 0.0016379 42.152 42.195 0.34036 1.3902 2.1415 1335.5 -0.0060339 270.17 0.14510 0.69577 1.4372 456.04 494.06 2.5497 1.1054 1.3064 210.45 0.64827 5.5807 0.0093324
-67.625 4.0652 9.4854e-05 44.333 44.382 0.35101 609.44 0.0016409 44.294 44.340 0.35080 1.3919 2.1449 1328.8 -0.0060051 266.69 0.14449 0.73408 1.3622 457.08 495.26 2.5448 1.1093 1.3109 210.82 0.63981 5.6074 0.0094130
-66.625 4.3046 9.7746e-05 46.479 46.532 0.36143 608.35 0.0016438 46.439 46.488 0.36122 1.3937 2.1483 1322.2 -0.0059760 263.28 0.14388 0.77404 1.2919 458.12 496.46 2.5400 1.1133 1.3154 211.18 0.63150 5.6341 0.0094939
-65.625 4.5551 0.00010060 48.629 48.685 0.37182 607.26 0.0016467 48.588 48.640 0.37160 1.3955 2.1518 1315.6 -0.0059464 259.93 0.14327 0.81570 1.2259 459.16 497.67 2.5353 1.1172 1.3200 211.54 0.62332 5.6608 0.0095750
-64.625 4.8173 0.00010340 50.783 50.842 0.38217 606.16 0.0016497 50.740 50.795 0.38195 1.3974 2.1553 1308.9 -0.0059164 256.65 0.14266 0.85910 1.1640 460.21 498.87 2.5307 1.1212 1.3246 211.89 0.61527 5.6874 0.0096564
-63.625 5.0915 0.00010615 52.940 53.002 0.39249 605.07 0.0016527 52.896 52.954 0.39226 1.3993 2.1588 1302.3 -0.0058861 253.42 0.14205 0.90429 1.1058 461.25 500.07 2.5262 1.1252 1.3293 212.24 0.60736 5.7140 0.0097382
-62.625 5.3781 0.00010882 55.100 55.165 0.40277 603.97 0.0016557 55.055 55.117 0.40254 1.4012 2.1624 1295.7 -0.0058553 250.26 0.14144 0.95134 1.0511 462.30 501.28 2.5218 1.1293 1.3340 212.58 0.59958 5.7406 0.0098201
-61.625 5.6774 0.00011140 57.263 57.333 0.41303 602.87 0.0016587 57.218 57.283 0.41279 1.4031 2.1660 1289.1 -0.0058241 247.16 0.14084 1.0003 0.99972 463.35 502.48 2.5175 1.1333 1.3387 212.92 0.59194 5.7672 0.0099024
-60.625 5.9899 0.00011387 59.431 59.504 0.42325 601.77 0.0016618 59.385 59.453 0.42301 1.4051 2.1697 1282.5 -0.0057925 244.12 0.14023 1.0512 0.95131 464.40 503.68 2.5133 1.1374 1.3435 213.26 0.58442 5.7938 0.0099850
-59.625 6.3160 0.00011623 61.601 61.679 0.43344 600.66 0.0016648 61.554 61.627 0.43320 1.4071 2.1734 1275.9 -0.0057605 241.13 0.13962 1.1041 0.90573 465.45 504.89 2.5091 1.1415 1.3483 213.58 0.57704 5.8203 0.010068
-58.625 6.6561 0.00011846 63.776 63.857 0.44360 599.55 0.0016679 63.728 63.805 0.44335 1.4091 2.1772 1269.3 -0.0057280 238.19 0.13902 1.1591 0.86277 466.50 506.09 2.5051 1.1457 1.3532 213.90 0.56978 5.8468 0.010151
-57.625 7.0107 0.00012054 65.954 66.039 0.45373 598.44 0.0016710 65.905 65.986 0.45348 1.4111 2.1810 1262.7 -0.0056951 235.31 0.13842 1.2161 0.82228 467.55 507.30 2.5011 1.1498 1.3581 214.22 0.56265 5.8733 0.010234
-56.625 7.3801 0.00012244 68.135 68.226 0.46383 597.33 0.0016741 68.086 68.172 0.46358 1.4132 2.1848 1256.1 -0.0056617 232.48 0.13781 1.2754 0.78408 468.60 508.50 2.4972 1.1540 1.3631 214.53 0.55564 5.8998 0.010318
-55.625 7.7648 0.00012417 70.321 70.416 0.47389 596.22 0.0016772 70.271 70.361 0.47364 1.4153 2.1887 1249.5 -0.0056279 229.69 0.13721 1.3369 0.74802 469.66 509.71 2.4934 1.1582 1.3681 214.84 0.54875 5.9263 0.010402
-54.625 8.1652 0.00012568 72.510 72.610 0.48394 595.10 0.0016804 72.460 72.554 0.48368 1.4174 2.1927 1242.9 -0.0055937 226.96 0.13661 1.4006 0.71396 470.72 510.91 2.4897 1.1624 1.3731 215.14 0.54199 5.9527 0.010486
-53.625 8.5819 0.00012697 74.703 74.808 0.49395 593.98 0.0016836 74.652 74.752 0.49369 1.4196 2.1967 1236.3 -0.0055589 224.27 0.13601 1.4667 0.68178 471.77 512.11 2.4860 1.1667 1.3782 215.43 0.53535 5.9792 0.010571
-52.625 9.0151 0.00012801 76.899 77.009 0.50393 592.86 0.0016867 76.849 76.954 0.50368 1.4218 2.2007 1229.8 -0.0055237 221.63 0.13541 1.5353 0.65136 472.83 513.32 2.4824 1.1710 1.3834 215.72 0.52882 6.0056 0.010656
-51.625 9.4655 0.00012878 79.100 79.215 0.51389 591.73 0.0016900 79.049 79.159 0.51363 1.4240 2.2048 1223.2 -0.0054880 219.04 0.13482 1.6062 0.62258 473.89 514.52 2.4789 1.1752 1.3886 216.00 0.52241 6.0320 0.010741
-50.625 9.9335 0.00012925 81.304 81.425 0.52381 590.60 0.0016932 81.253 81.369 0.52356 1.4262 2.2089 1216.6 -0.0054519 216.48 0.13422 1.6797 0.59534 474.95 515.73 2.4755 1.1796 1.3938 216.28 0.51612 6.0584 0.010827
-49.625 10.419 0.00012940 83.513 83.640 0.53372 589.47 0.0016964 83.462 83.584 0.53347 1.4285 2.2131 1210.1 -0.0054152 213.98 0.13363 1.7558 0.56954 476.01 516.93 2.4722 1.1839 1.3991 216.55 0.50994 6.0848 0.010913
-48.625 10.924 0.00012920 85.725 85.858 0.54359 588.34 0.0016997 85.674 85.802 0.54334 1.4308 2.2173 1203.5 -0.0053780 211.51 0.13303 1.8345 0.54510 477.07 518.13 2.4689 1.1883 1.4044 216.82 0.50387 6.1112 0.010999
-47.625 11.448 0.00012863 87.941 88.081 0.55344 587.20 0.0017030 87.891 88.025 0.55319 1.4331 2.2216 1196.9 -0.0053403 209.08 0.13244 1.9159 0.52194 478.14 519.33 2.4657 1.1927 1.4098 217.08 0.49792 6.1375 0.011085
-46.625 11.991 0.00012766 90.161 90.307 0.56326 586.06 0.0017063 90.111 90.252 0.56302 1.4354 2.2259 1190.4 -0.0053020 206.69 0.13185 2.0001 0.49997 479.20 520.53 2.4625 1.1971 1.4153 217.33 0.49207 6.1639 0.011172
-45.625 12.554 0.00012625 92.385 92.538 0.57306 584.92 0.0017096 92.336 92.484 0.57282 1.4378 2.2303 1183.8 -0.0052633 204.34 0.13126 2.0872 0.47912 480.27 521.74 2.4594 1.2015 1.4207 217.58 0.48633 6.1902 0.011259
-44.625 13.137 0.00012438 94.613 94.774 0.58283 583.77 0.0017130 94.565 94.720 0.58260 1.4402 2.2347 1177.3 -0.0052240 202.03 0.13067 2.1771 0.45933 481.33 522.94 2.4564 1.2060 1.4263 217.82 0.48069 6.2165 0.011347
-43.625 13.741 0.00012201 96.846 97.013 0.59258 582.62 0.0017164 96.799 96.961 0.59235 1.4426 2.2392 1170.7 -0.0051841 199.75 0.13008 2.2700 0.44053 482.40 524.14 2.4535 1.2104 1.4319 218.05 0.47516 6.2429 0.011435
-42.625 14.367 0.00011911 99.082 99.257 0.60230 581.47 0.0017198 99.036 99.207 0.60208 1.4450 2.2437 1164.2 -0.0051437 197.51 0.12949 2.3659 0.42267 483.46 525.33 2.4506 1.2149 1.4375 218.28 0.46973 6.2692 0.011523
-41.625 15.015 0.00011565 101.32 101.51 0.61200 580.32 0.0017232 101.28 101.46 0.61179 1.4475 2.2483 1157.7 -0.0051027 195.30 0.12891 2.4649 0.40569 484.53 526.53 2.4478 1.2195 1.4432 218.50 0.46440 6.2955 0.011612
-40.625 15.686 0.00011158 103.57 103.76 0.62167 579.16 0.0017266 103.52 103.71 0.62147 1.4500 2.2529 1151.1 -0.0050611 193.13 0.12832 2.5671 0.38954 485.60 527.73 2.4450 1.2240 1.4489 218.72 0.45917 6.3218 0.011701
-39.625 16.380 0.00010687 105.82 106.02 0.63133 578.00 0.0017301 105.78 105.97 0.63113 1.4525 2.2576 1144.6 -0.0050189 190.99 0.12774 2.6725 0.37418 486.67 528.93 2.4423 1.2286 1.4547 218.93 0.45403 6.3481 0.011790
-38.625 17.097 0.00010147 108.07 108.28 0.64095 576.83 0.0017336 108.03 108.24 0.64077 1.4550 2.2623 1138.0 -0.0049761 188.88 0.12716 2.7813 0.35955 487.74 530.12 2.4397 1.2332 1.4606 219.13 0.44900 6.3744 0.011880
-37.625 17.838 9.5353e-05 110.33 110.55 0.65056 575.66 0.0017371 110.29 110.51 0.65039 1.4576 2.2671 1131.5 -0.0049327 186.81 0.12658 2.8934 0.34562 488.81 531.32 2.4371 1.2378 1.4665 219.33 0.44405 6.4007 0.011970
-36.625 18.604 8.8465e-05 112.59 112.82 0.66014 574.49 0.0017407 112.56 112.78 0.65999 1.4602 2.2719 1125.0 -0.0048887 184.76 0.12600 3.0089 0.33235 489.88 532.51 2.4346 1.2424 1.4724 219.52 0.43920 6.4270 0.012060
-35.625 19.395 8.0763e-05 114.86 115.09 0.66970 573.32 0.0017442 114.83 115.06 0.66956 1.4628 2.2768 1118.5 -0.0048440 182.75 0.12542 3.1280 0.31969 490.95 533.70 2.4321 1.2471 1.4784 219.70 0.43444 6.4533 0.012151
-34.625 20.212 7.2201e-05 117.13 117.37 0.67924 572.14 0.0017478 117.10 117.34 0.67912 1.4654 2.2818 1111.9 -0.0047987 180.76 0.12485 3.2506 0.30763 492.02 534.89 2.4297 1.2517 1.4845 219.88 0.42977 6.4797 0.012243
-33.625 21.056 6.2727e-05 119.40 119.66 0.68876 570.96 0.0017514 119.38 119.63 0.68865 1.4681 2.2868 1105.4 -0.0047527 178.80 0.12427 3.3770 0.29612 493.09 536.08 2.4273 1.2564 1.4906 220.05 0.42519 6.5060 0.012334
-32.625 21.926 5.2293e-05 121.68 121.95 0.69826 569.77 0.0017551 121.66 121.93 0.69817 1.4708 2.2918 1098.9 -0.0047061 176.87 0.12370 3.5071 0.28514 494.17 537.27 2.4250 1.2611 1.4968 220.21 0.42070 6.5323 0.012426
-31.625 22.823 4.0844e-05 123.97 124.24 0.70774 568.58 0.0017588 123.95 124.23 0.70767 1.4735 2.2970 1092.3 -0.0046587 174.97 0.12313 3.6410 0.27465 495.24 538.46 2.4227 1.2659 1.5031 220.36 0.41629 6.5587 0.012519
-30.625 23.749 2.8324e-05 126.25 126.54 0.71719 567.39 0.0017625 126.24 126.53 0.71714 1.4762 2.3021 1085.8 -0.0046107 173.09 0.12256 3.7787 0.26464 496.31 539.64 2.4205 1.2706 1.5094 220.51 0.41196 6.5850 0.012612
-29.625 24.703 1.4677e-05 128.55 128.85 0.72663 566.19 0.0017662 128.54 128.84 0.72660 1.4790 2.3074 1079.3 -0.0045619 171.24 0.12200 3.9205 0.25507 497.38 540.83 2.4184 1.2754 1.5157 220.65 0.40772 6.6114 0.012706
-28.625 26.993 undefined 130.84 131.17 0.73601 565.00 0.0017699 130.84 131.17 0.73601 1.4818 2.3126 1072.9 -0.0045132 169.43 0.12144 565.00 0.0017699 130.84 131.17 0.73601 1.4818 2.3126 1072.9 -0.0045132 169.43 0.12144
-27.625 156.65 undefined 132.32 134.23 0.74206 565.00 0.0017699 132.32 134.23 0.74206 1.4853 2.3113 1075.6 -0.0045399 169.36 0.12155 565.00 0.0017699 132.32 134.23 0.74206 1.4853 2.3113 1075.6 -0.0045399 169.36 0.12155
-26.625 286.20 undefined 133.81 137.30 0.74811 565.00 0.0017699 133.81 137.30 0.74811 1.4889 2.3102 1078.3 -0.0045659 169.28 0.12167 565.00 0.0017699 133.81 137.30 0.74811 1.4889 2.3102 1078.3 -0.0045659 169.28 0.12167
-25.625 415.63 undefined 135.30 140.37 0.75414 565.00 0.0017699 135.30 140.37 0.75414 1.4924 2.3092 1081.1 -0.0045913 169.21 0.12179 565.00 0.0017699 135.30 140.37 0.75414 1.4924 2.3092 1081.1 -0.0045913 169.21 0.12179
-24.625 544.93 undefined 136.79 143.44 0.76017 565.00 0.0017699 136.79 143.44 0.76017 1.4960 2.3082 1083.7 -0.0046161 169.13 0.12190 565.00 0.0017699 136.79 143.44 0.76017 1.4960 2.3082 1083.7 -0.0046161 169.13 0.12190
-23.625 674.12 undefined 138.29 146.52 0.76618 565.00 0.0017699 138.29 146.52 0.76618 1.4996 2.3073 1086.4 -0.0046402 169.06 0.12202 565.00 0.0017699 138.29 146.52 0.76618 1.4996 2.3073 1086.4 -0.0046402 169.06 0.12202
-22.625 803.19 undefined 139.79 149.59 0.77219 565.00 0.0017699 139.79 149.59 0.77219 1.5033 2.3066 1089.0 -0.0046638 168.99 0.12214 565.00 0.0017699 139.79 149.59 0.77219 1.5033 2.3066 1089.0 -0.0046638 168.99 0.12214
-21.625 932.14 undefined 141.30 152.67 0.77818 565.00 0.0017699 141.30 152.67 0.77818 1.5069 2.3059 1091.7 -0.0046868 168.92 0.12226 565.00 0.0017699 141.30 152.67 0.77818 1.5069 2.3059 1091.7 -0.0046868 168.92 0.12226
-20.625 1061.0 undefined 142.80 155.75 0.78417 565.00 0.0017699 142.80 155.75 0.78417 1.5106 2.3053 1094.3 -0.0047092 168.85 0.12237 565.00 0.0017699 142.80 155.75 0.78417 1.5106 2.3053 1094.3 -0.0047092 168.85 0.12237
-19.625 1189.7 undefined 144.32 158.83 0.79015 565.00 0.0017699 144.32 158.83 0.79015 1.5142 2.3048 1096.8 -0.0047310 168.78 0.12249 565.00 0.0017699 144.32 158.83 0.79015 1.5142 2.3048 1096.8 -0.0047310 168.78 0.12249
-18.625 1318.3 undefined 145.83 161.92 0.79611 565.00 0.0017699 145.83 161.92 0.79611 1.5179 2.3044 1099.4 -0.0047523 168.71 0.12261 565.00 0.0017699 145.83 161.92 0.79611 1.5179 2.3044 1099.4 -0.0047523 168.71 0.12261
-17.625 1446.7 undefined 147.35 165.01 0.80207 565.00 0.0017699 147.35 165.01 0.80207 1.5216 2.3041 1101.9 -0.0047731 168.64 0.12273 565.00 0.0017699 147.35 165.01 0.80207 1.5216 2.3041 1101.9 -0.0047731 168.64 0.12273
-16.625 1575.1 undefined 148.88 168.10 0.80802 565.00 0.0017699 148.88 168.10 0.80802 1.5254 2.3038 1104.4 -0.0047933 168.58 0.12285 565.00 0.0017699 148.88 168.10 0.80802 1.5254 2.3038 1104.4 -0.0047933 168.58 0.12285
-15.625 1703.3 undefined 150.40 171.19 0.81397 565.00 0.0017699 150.40 171.19 0.81397 1.5291 2.3036 1106.9 -0.0048131 168.51 0.12297 565.00 0.0017699 150.40 171.19 0.81397 1.5291 2.3036 1106.9 -0.0048131 168.51 0.12297
-14.625 1831.4 undefined 151.93 174.28 0.81990 565.00 0.0017699 151.93 174.28 0.81990 1.5328 2.3035 1109.4 -0.0048323 168.45 0.12309 565.00 0.0017699 151.93 174.28 0.81990 1.5328 2.3035 1109.4 -0.0048323 168.45 0.12309
-13.625 1959.4 undefined 153.47 177.38 0.82582 565.00 0.0017699 153.47 177.38 0.82582 1.5366 2.3035 1111.8 -0.0048511 168.38 0.12321 565.00 0.0017699 153.47 177.38 0.82582 1.5366 2.3035 1111.8 -0.0048511 168.38 0.12321
-12.625 2087.3 undefined 155.01 180.48 0.83174 565.00 0.0017699 155.01 180.48 0.83174 1.5404 2.3035 1114.3 -0.0048694 168.32 0.12333 565.00 0.0017699 155.01 180.48 0.83174 1.5404 2.3035 1114.3 -0.0048694 168.32 0.12333
-11.625 2215.0 undefined 156.55 183.58 0.83765 565.00 0.0017699 156.55 183.58 0.83765 1.5442 2.3036 1116.7 -0.0048872 168.26 0.12346 565.00 0.0017699 156.55 183.58 0.83765 1.5442 2.3036 1116.7 -0.0048872 168.26 0.12346
-10.625 2342.6 undefined 158.10 186.68 0.84355 565.00 0.0017699 158.10 186.68 0.84355 1.5480 2.3038 1119.1 -0.0049046 168.19 0.12358 565.00 0.0017699 158.10 186.68 0.84355 1.5480 2.3038 1119.1 -0.0049046 168.19 0.12358
-9.6250 2470.1 undefined 159.65 189.79 0.84944 565.00 0.0017699 159.65 189.79 0.84944 1.5518 2.3041 1121.5 -0.0049215 168.13 0.12370 565.00 0.0017699 159.65 189.79 0.84944 1.5518 2.3041 1121.5 -0.0049215 168.13 0.12370
-8.6250 2597.5 undefined 161.20 192.90 0.85533 565.00 0.0017699 161.20 192.90 0.85533 1.5557 2.3044 1123.8 -0.0049380 168.07 0.12382 565.00 0.0017699 161.20 192.90 0.85533 1.5557 2.3044 1123.8 -0.0049380 168.07 0.12382
-7.6250 2724.7 undefined 162.76 196.01 0.86121 565.00 0.0017699 162.76 196.01 0.86121 1.5595 2.3048 1126.2 -0.0049541 168.01 0.12394 565.00 0.0017699 162.76 196.01 0.86121 1.5595 2.3048 1126.2 -0.0049541 168.01 0.12394
-6.6250 2851.8 undefined 164.32 199.12 0.86707 565.00 0.0017699 164.32 199.12 0.86707 1.5634 2.3052 1128.5 -0.0049697 167.95 0.12407 565.00 0.0017699 164.32 199.12 0.86707 1.5634 2.3052 1128.5 -0.0049697 167.95 0.12407
-5.6250 2978.8 undefined 165.88 202.23 0.87294 565.00 0.0017699 165.88 202.23 0.87294 1.5673 2.3057 1130.8 -0.0049850 167.90 0.12419 565.00 0.0017699 165.88 202.23 0.87294 1.5673 2.3057 1130.8 -0.0049850 167.90 0.12419
-4.6250 3105.7 undefined 167.45 205.35 0.87879 565.00 0.0017699 167.45 205.35 0.87879 1.5712 2.3063 1133.1 -0.0049998 167.84 0.12431 565.00 0.0017699 167.45 205.35 0.87879 1.5712 2.3063 1133.1 -0.0049998 167.84 0.12431
-3.6250 3232.4 undefined 169.03 208.47 0.88464 565.00 0.0017699 169.03 208.47 0.88464 1.5751 2.3069 1135.4 -0.0050143 167.78 0.12444 565.00 0.0017699 169.03 208.47 0.88464 1.5751 2.3069 1135.4 -0.0050143 167.78 0.12444
-2.6250 3359.0 undefined 170.60 211.59 0.89048 565.00 0.0017699 170.60 211.59 0.89048 1.5790 2.3076 1137.6 -0.0050283 167.72 0.12456 565.00 0.0017699 170.60 211.59 0.89048 1.5790 2.3076 1137.6 -0.0050283 167.72 0.12456
-1.6250 3485.5 undefined 172.18 214.72 0.89631 565.00 0.0017699 172.18 214.72 0.89631 1.5830 2.3083 1139.9 -0.0050420 167.67 0.12469 565.00 0.0017699 172.18 214.72 0.89631 1.5830 2.3083 1139.9 -0.0050420 167.67 0.12469
-0.62500 3611.9 undefined 173.77 217.85 0.90214 565.00 0.0017699 173.77 217.85 0.90214 1.5869 2.3091 1142.1 -0.0050554 167.61 0.12481 565.00 0.0017699 173.77 217.85 0.90214 1.5869 2.3091 1142.1 -0.0050554 167.61 0.12481
0.37500 3738.1 undefined 175.36 220.98 0.90796 565.00 0.0017699 175.36 220.98 0.90796 1.5909 2.3099 1144.3 -0.0050684 167.56 0.12494 565.00 0.0017699 175.36 220.98 0.90796 1.5909 2.3099 1144.3 -0.0050684 167.56 0.12494
1.3750 3864.2 undefined 176.95 224.11 0.91377 565.00 0.0017699 176.95 224.11 0.91377 1.5948 2.3108 1146.5 -0.0050810 167.51 0.12506 565.00 0.0017699 176.95 224.11 0.91377 1.5948 2.3108 1146.5 -0.0050810 167.51 0.12506
2.3750 3990.2 undefined 178.55 227.24 0.91958 565.00 0.0017699 178.55 227.24 0.91958 1.5988 2.3118 1148.7 -0.0050933 167.45 0.12519 565.00 0.0017699 178.55 227.24 0.91958 1.5988 2.3118 1148.7 -0.0050933 167.45 0.12519
3.3750 4116.1 undefined 180.15 230.38 0.92538 565.00 0.0017699 180.15 230.38 0.92538 1.6028 2.3128 1150.9 -0.0051052 167.40 0.12531 565.00 0.0017699 180.15 230.38 0.92538 1.6028 2.3128 1150.9 -0.0051052 167.40 0.12531
4.3750 4241.8 undefined 181.75 233.52 0.93117 565.00 0.0017699 181.75 233.52 0.93117 1.6069 2.3138 1153.0 -0.0051169 167.35 0.12544 565.00 0.0017699 181.75 233.52 0.93117 1.6069 2.3138 1153.0 -0.0051169 167.35 0.12544
5.3750 4367.4 undefined 183.36 236.66 0.93696 565.00 0.0017699 183.36 236.66 0.93696 1.6109 2.3149 1155.2 -0.0051282 167.30 0.12557 565.00 0.0017699 183.36 236.66 0.93696 1.6109 2.3149 1155.2 -0.0051282 167.30 0.12557
6.3750 4492.9 undefined 184.98 239.80 0.94274 565.00 0.0017699 184.98 239.80 0.94274 1.6149 2.3161 1157.3 -0.0051391 167.25 0.12569 565.00 0.0017699 184.98 239.80 0.94274 1.6149 2.3161 1157.3 -0.0051391 167.25 0.12569
7.3750 4618.3 undefined 186.59 242.95 0.94851 565.00 0.0017699 186.59 242.95 0.94851 1.6190 2.3173 1159.4 -0.0051498 167.20 0.12582 565.00 0.0017699 186.59 242.95 0.94851 1.6190 2.3173 1159.4 -0.0051498 167.20 0.12582
8.3750 4743.5 undefined 188.21 246.10 0.95428 565.00 0.0017699 188.21 246.10 0.95428 1.6230 2.3185 1161.5 -0.0051602 167.15 0.12595 565.00 0.0017699 188.21 246.10 0.95428 1.6230 2.3185 1161.5 -0.0051602 167.15 0.12595
9.3750 4868.6 undefined 189.84 249.25 0.96004 565.00 0.0017699 189.84 249.25 0.96004 1.6271 2.3198 1163.6 -0.0051703 167.10 0.12608 565.00 0.0017699 189.84 249.25 0.96004 1.6271 2.3198 1163.6 -0.0051703 167.10 0.12608
10.375 4993.6 undefined 191.47 252.40 0.96580 565.00 0.0017699 191.47 252.40 0.96580 1.6312 2.3211 1165.7 -0.0051801 167.06 0.12620 565.00 0.0017699 191.47 252.40 0.96580 1.6312 2.3211 1165.7 -0.0051801 167.06 0.12620
11.375 5118.4 undefined 193.10 255.56 0.97155 565.00 0.0017699 193.10 255.56 0.97155 1.6353 2.3225 1167.7 -0.0051896 167.01 0.12633 565.00 0.0017699 193.10 255.56 0.97155 1.6353 2.3225 1167.7 -0.0051896 167.01 0.12633
12.375 5243.2 undefined 194.74 258.72 0.97729 565.00 0.0017699 194.74 258.72 0.97729 1.6394 2.3239 1169.8 -0.0051988 166.96 0.12646 565.00 0.0017699 194.74 258.72 0.97729 1.6394 2.3239 1169.8 -0.0051988 166.96 0.12646
13.375 5367.8 undefined 196.38 261.88 0.98303 565.00 0.0017699 196.38 261.88 0.98303 1.6435 2.3254 1171.8 -0.0052077 166.92 0.12659 565.00 0.0017699 196.38 261.88 0.98303 1.6435 2.3254 1171.8 -0.0052077 166.92 0.12659
14.375 5492.2 undefined 198.03 265.05 0.98877 565.00 0.0017699 198.03 265.05 0.98877 1.6477 2.3269 1173.8 -0.0052164 166.87 0.12672 565.00 0.0017699 198.03 265.05 0.98877 1.6477 2.3269 1173.8 -0.0052164 166.87 0.12672
15.375 5616.6 undefined 199.68 268.21 0.99449 565.00 0.0017699 199.68 268.21 0.99449 1.6518 2.3284 1175.8 -0.0052248 166.83 0.12685 565.00 0.0017699 199.68 268.21 0.99449 1.6518 2.3284 1175.8 -0.0052248 166.83 0.12685
16.375 5740.8 undefined 201.33 271.38 1.0002 565.00 0.0017699 201.33 271.38 1.0002 1.6560 2.3300 1177.8 -0.0052330 166.78 0.12698 565.00 0.0017699 201.33 271.38 1.0002 1.6560 2.3300 1177.8 -0.0052330 166.78 0.12698
17.375 5864.9 undefined 202.99 274.56 1.0059 565.00 0.0017699 202.99 274.56 1.0059 1.6601 2.3316 1179.8 -0.0052409 166.74 0.12711 565.00 0.0017699 202.99 274.56 1.0059 1.6601 2.3316 1179.8 -0.0052409 166.74 0.12711
18.375 5988.9 undefined 204.65 277.73 1.0116 565.00 0.0017699 204.65 277.73 1.0116 1.6643 2.3333 1181.8 -0.0052485 166.70 0.12724 565.00 0.0017699 204.65 277.73 1.0116 1.6643 2.3333 1181.8 -0.0052485 166.70 0.12724
19.375 6112.7 undefined 206.32 280.91 1.0174 565.00 0.0017699 206.32 280.91 1.0174 1.6685 2.3350 1183.8 -0.0052560 166.65 0.12737 565.00 0.0017699 206.32 280.91 1.0174 1.6685 2.3350 1183.8 -0.0052560 166.65 0.12737
20.375 6236.4 undefined 207.99 284.09 1.0231 565.00 0.0017699 207.99 284.09 1.0231 1.6726 2.3367 1185.7 -0.0052631 166.61 0.12750 565.00 0.0017699 207.99 284.09 1.0231 1.6726 2.3367 1185.7 -0.0052631 166.61 0.12750
21.375 6360.0 undefined 209.66 287.27 1.0287 565.00 0.0017699 209.66 287.27 1.0287 1.6768 2.3385 1187.7 -0.0052701 166.57 0.12763 565.00 0.0017699 209.66 287.27 1.0287 1.6768 2.3385 1187.7 -0.0052701 166.57 0.12763
22.375 6483.5 undefined 211.34 290.46 1.0344 565.00 0.0017699 211.34 290.46 1.0344 1.6810 2.3403 1189.6 -0.0052768 166.53 0.12776 565.00 0.0017699 211.34 290.46 1.0344 1.6810 2.3403 1189.6 -0.0052768 166.53 0.12776
23.375 6606.8 undefined 213.02 293.65 1.0401 565.00 0.0017699 213.02 293.65 1.0401 1.6853 2.3421 1191.5 -0.0052833 166.49 0.12789 565.00 0.0017699 213.02 293.65 1.0401 1.6853 2.3421 1191.5 -0.0052833 166.49 0.12789
24.375 6730.0 undefined 214.71 296.84 1.0458 565.00 0.0017699 214.71 296.84 1.0458 1.6895 2.3440 1193.5 -0.0052895 166.45 0.12803 565.00 0.0017699 214.71 296.84 1.0458 1.6895 2.3440 1193.5 -0.0052895 166.45 0.12803
25.375 6853.1 undefined 216.40 300.03 1.0515 565.00 0.0017699 216.40 300.03 1.0515 1.6937 2.3459 1195.4 -0.0052956 166.41 0.12816 565.00 0.0017699 216.40 300.03 1.0515 1.6937 2.3459 1195.4 -0.0052956 166.41 0.12816
26.375 6976.1 undefined 218.10 303.23 1.0572 565.00 0.0017699 218.10 303.23 1.0572 1.6979 2.3479 1197.3 -0.0053014 166.37 0.12829 565.00 0.0017699 218.10 303.23 1.0572 1.6979 2.3479 1197.3 -0.0053014 166.37 0.12829
27.375 7098.9 undefined 219.80 306.43 1.0628 565.00 0.0017699 219.80 306.43 1.0628 1.7022 2.3498 1199.1 -0.0053071 166.34 0.12842 565.00 0.0017699 219.80 306.43 1.0628 1.7022 2.3498 1199.1 -0.0053071 166.34 0.12842
28.375 7221.6 undefined 221.50 309.63 1.0685 565.00 0.0017699 221.50 309.63 1.0685 1.7064 2.3518 1201.0 -0.0053125 166.30 0.12856 565.00 0.0017699 221.50 309.63 1.0685 1.7064 2.3518 1201.0 -0.0053125 166.30 0.12856
29.375 7344.2 undefined 223.21 312.83 1.0741 565.00 0.0017699 223.21 312.83 1.0741 1.7107 2.3539 1202.9 -0.0053177 166.26 0.12869 565.00 0.0017699 223.21 312.83 1.0741 1.7107 2.3539 1202.9 -0.0053177 166.26 0.12869
30.375 7466.7 undefined 224.92 316.04 1.0798 565.00 0.0017699 224.92 316.04 1.0798 1.7150 2.3559 1204.7 -0.0053227 166.22 0.12882 565.00 0.0017699 224.92 316.04 1.0798 1.7150 2.3559 1204.7 -0.0053227 166.22 0.12882
31.375 7589.0 undefined 226.64 319.25 1.0854 565.00 0.0017699 226.64 319.25 1.0854 1.7192 2.3580 1206.6 -0.0053276 166.19 0.12896 565.00 0.0017699 226.64 319.25 1.0854 1.7192 2.3580 1206.6 -0.0053276 166.19 0.12896
32.375 7711.2 undefined 228.36 322.46 1.0911 565.00 0.0017699 228.36 322.46 1.0911 1.7235 2.3601 1208.4 -0.0053322 166.15 0.12909 565.00 0.0017699 228.36 322.46 1.0911 1.7235 2.3601 1208.4 -0.0053322 166.15 0.12909
33.375 7833.3 undefined 230.09 325.68 1.0967 565.00 0.0017699 230.09 325.68 1.0967 1.7278 2.3623 1210.3 -0.0053367 166.12 0.12923 565.00 0.0017699 230.09 325.68 1.0967 1.7278 2.3623 1210.3 -0.0053367 166.12 0.12923
34.375 7955.3 undefined 231.82 328.90 1.1024 565.00 0.0017699 231.82 328.90 1.1024 1.7321 2.3645 1212.1 -0.0053410 166.08 0.12936 565.00 0.0017699 231.82 328.90 1.1024 1.7321 2.3645 1212.1 -0.0053410 166.08 0.12936
35.375 8077.1 undefined 233.55 332.12 1.1080 565.00 0.0017699 233.55 332.12 1.1080 1.7364 2.3667 1213.9 -0.0053451 166.05 0.12950 565.00 0.0017699 233.55 332.12 1.1080 1.7364 2.3667 1213.9 -0.0053451 166.05 0.12950
36.375 8198.9 undefined 235.29 335.34 1.1136 565.00 0.0017699 235.29 335.34 1.1136 1.7407 2.3689 1215.7 -0.0053490 166.01 0.12963 565.00 0.0017699 235.29 335.34 1.1136 1.7407 2.3689 1215.7 -0.0053490 166.01 0.12963
37.375 8320.5 undefined 237.03 338.57 1.1192 565.00 0.0017699 237.03 338.57 1.1192 1.7450 2.3712 1217.5 -0.0053527 165.98 0.12977 565.00 0.0017699 237.03 338.57 1.1192 1.7450 2.3712 1217.5 -0.0053527 165.98 0.12977
38.375 8441.9 undefined 238.78 341.80 1.1248 565.00 0.0017699 238.78 341.80 1.1248 1.7493 2.3734 1219.3 -0.0053563 165.95 0.12990 565.00 0.0017699 238.78 341.80 1.1248 1.7493 2.3734 1219.3 -0.0053563 165.95 0.12990
39.375 8563.3 undefined 240.53 345.03 1.1305 565.00 0.0017699 240.53 345.03 1.1305 1.7536 2.3757 1221.1 -0.0053598 165.91 0.13004 565.00 0.0017699 240.53 345.03 1.1305 1.7536 2.3757 1221.1 -0.0053598 165.91 0.13004
40.375 8684.5 undefined 242.29 348.27 1.1361 565.00 0.0017699 242.29 348.27 1.1361 1.7579 2.3781 1222.9 -0.0053630 165.88 0.13018 565.00 0.0017699 242.29 348.27 1.1361 1.7579 2.3781 1222.9 -0.0053630 165.88 0.13018
41.375 8805.6 undefined 244.05 351.50 1.1417 565.00 0.0017699 244.05 351.50 1.1417 1.7623 2.3804 1224.6 -0.0053661 165.85 0.13032 565.00 0.0017699 244.05 351.50 1.1417 1.7623 2.3804 1224.6 -0.0053661 165.85 0.13032
42.375 8926.6 undefined 245.81 354.74 1.1473 565.00 0.0017699 245.81 354.74 1.1473 1.7666 2.3828 1226.4 -0.0053691 165.82 0.13045 565.00 0.0017699 245.81 354.74 1.1473 1.7666 2.3828 1226.4 -0.0053691 165.82 0.13045
43.375 9047.5 undefined 247.58 357.99 1.1529 565.00 0.0017699 247.58 357.99 1.1529 1.7709 2.3852 1228.2 -0.0053719 165.79 0.13059 565.00 0.0017699 247.58 357.99 1.1529 1.7709 2.3852 1228.2 -0.0053719 165.79 0.13059
44.375 9168.3 undefined 249.35 361.24 1.1585 565.00 0.0017699 249.35 361.24 1.1585 1.7753 2.3877 1229.9 -0.0053745 165.76 0.13073 565.00 0.0017699 249.35 361.24 1.1585 1.7753 2.3877 1229.9 -0.0053745 165.76 0.13073
45.375 9288.9 undefined 251.13 364.48 1.1641 565.00 0.0017699 251.13 364.48 1.1641 1.7796 2.3901 1231.7 -0.0053770 165.73 0.13087 565.00 0.0017699 251.13 364.48 1.1641 1.7796 2.3901 1231.7 -0.0053770 165.73 0.13087
46.375 9409.4 undefined 252.91 367.74 1.1696 565.00 0.0017699 252.91 367.74 1.1696 1.7840 2.3926 1233.4 -0.0053793 165.70 0.13100 565.00 0.0017699 252.91 367.74 1.1696 1.7840 2.3926 1233.4 -0.0053793 165.70 0.13100
47.375 9529.8 undefined 254.70 370.99 1.1752 565.00 0.0017699 254.70 370.99 1.1752 1.7883 2.3951 1235.1 -0.0053816 165.67 0.13114 565.00 0.0017699 254.70 370.99 1.1752 1.7883 2.3951 1235.1 -0.0053816 165.67 0.13114
48.375 9650.1 undefined 256.49 374.25 1.1808 565.00 0.0017699 256.49 374.25 1.1808 1.7927 2.3976 1236.8 -0.0053836 165.64 0.13128 565.00 0.0017699 256.49 374.25 1.1808 1.7927 2.3976 1236.8 -0.0053836 165.64 0.13128
49.375 9770.2 undefined 258.28 377.51 1.1864 565.00 0.0017699 258.28 377.51 1.1864 1.7971 2.4001 1238.5 -0.0053856 165.61 0.13142 565.00 0.0017699 258.28 377.51 1.1864 1.7971 2.4001 1238.5 -0.0053856 165.61 0.13142
50.375 9890.2 undefined 260.08 380.78 1.1919 565.00 0.0017699 260.08 380.78 1.1919 1.8014 2.4027 1240.3 -0.0053874 165.59 0.13156 565.00 0.0017699 260.08 380.78 1.1919 1.8014 2.4027 1240.3 -0.0053874 165.59 0.13156
51.375 10010. undefined 261.89 384.04 1.1975 565.00 0.0017699 261.89 384.04 1.1975 1.8058 2.4053 1242.0 -0.0053891 165.56 0.13170 565.00 0.0017699 261.89 384.04 1.1975 1.8058 2.4053 1242.0 -0.0053891 165.56 0.13170
52.375 10130. undefined 263.70 387.31 1.2031 565.00 0.0017699 263.70 387.31 1.2031 1.8102 2.4079 1243.6 -0.0053906 165.53 0.13184 565.00 0.0017699 263.70 387.31 1.2031 1.8102 2.4079 1243.6 -0.0053906 165.53 0.13184
53.375 10250. undefined 265.51 390.59 1.2086 565.00 0.0017699 265.51 390.59 1.2086 1.8145 2.4105 1245.3 -0.0053920 165.50 0.13198 565.00 0.0017699 265.51 390.59 1.2086 1.8145 2.4105 1245.3 -0.0053920 165.50 0.13198
54.375 10369. undefined 267.32 393.86 1.2142 565.00 0.0017699 267.32 393.86 1.2142 1.8189 2.4131 1247.0 -0.0053933 165.48 0.13212 565.00 0.0017699 267.32 393.86 1.2142 1.8189 2.4131 1247.0 -0.0053933 165.48 0.13212
55.375 10489. undefined 269.15 397.14 1.2197 565.00 0.0017699 269.15 397.14 1.2197 1.8233 2.4158 1248.7 -0.0053945 165.45 0.13226 565.00 0.0017699 269.15 397.14 1.2197 1.8233 2.4158 1248.7 -0.0053945 165.45 0.13226
56.375 10608. undefined 270.97 400.42 1.2253 565.00 0.0017699 270.97 400.42 1.2253 1.8277 2.4185 1250.4 -0.0053956 165.43 0.13241 565.00 0.0017699 270.97 400.42 1.2253 1.8277 2.4185 1250.4 -0.0053956 165.43 0.13241
57.375 10727. undefined 272.80 403.71 1.2308 565.00 0.0017699 272.80 403.71 1.2308 1.8320 2.4212 1252.0 -0.0053965 165.40 0.13255 565.00 0.0017699 272.80 403.71 1.2308 1.8320 2.4212 1252.0 -0.0053965 165.40 0.13255
58.375 10846. undefined 274.64 406.99 1.2364 565.00 0.0017699 274.64 406.99 1.2364 1.8364 2.4239 1253.7 -0.0053973 165.38 0.13269 565.00 0.0017699 274.64 406.99 1.2364 1.8364 2.4239 1253.7 -0.0053973 165.38 0.13269
59.375 10965. undefined 276.47 410.28 1.2419 565.00 0.0017699 276.47 410.28 1.2419 1.8408 2.4266 1255.3 -0.0053981 165.35 0.13283 565.00 0.0017699 276.47 410.28 1.2419 1.8408 2.4266 1255.3 -0.0053981 165.35 0.13283
60.375 11084. undefined 278.32 413.58 1.2474 565.00 0.0017699 278.32 413.58 1.2474 1.8452 2.4293 1257.0 -0.0053987 165.33 0.13297 565.00 0.0017699 278.32 413.58 1.2474 1.8452 2.4293 1257.0 -0.0053987 165.33 0.13297
61.375 11203. undefined 280.16 416.87 1.2530 565.00 0.0017699 280.16 416.87 1.2530 1.8496 2.4321 1258.6 -0.0053992 165.30 0.13312 565.00 0.0017699 280.16 416.87 1.2530 1.8496 2.4321 1258.6 -0.0053992 165.30 0.13312
62.375 11321. undefined 282.02 420.17 1.2585 565.00 0.0017699 282.02 420.17 1.2585 1.8540 2.4349 1260.3 -0.0053996 165.28 0.13326 565.00 0.0017699 282.02 420.17 1.2585 1.8540 2.4349 1260.3 -0.0053996 165.28 0.13326
63.375 11440. undefined 283.87 423.48 1.2640 565.00 0.0017699 283.87 423.48 1.2640 1.8584 2.4377 1261.9 -0.0053999 165.26 0.13340 565.00 0.0017699 283.87 423.48 1.2640 1.8584 2.4377 1261.9 -0.0053999 165.26 0.13340
64.375 11558. undefined 285.73 426.78 1.2695 565.00 0.0017699 285.73 426.78 1.2695 1.8628 2.4405 1263.5 -0.0054001 165.24 0.13355 565.00 0.0017699 285.73 426.78 1.2695 1.8628 2.4405 1263.5 -0.0054001 165.24 0.13355
65.375 11677. undefined 287.60 430.09 1.2751 565.00 0.0017699 287.60 430.09 1.2751 1.8672 2.4433 1265.1 -0.0054002 165.21 0.13369 565.00 0.0017699 287.60 430.09 1.2751 1.8672 2.4433 1265.1 -0.0054002 165.21 0.13369
66.375 11795. undefined 289.47 433.40 1.2806 565.00 0.0017699 289.47 433.40 1.2806 1.8716 2.4461 1266.7 -0.0054002 165.19 0.13384 565.00 0.0017699 289.47 433.40 1.2806 1.8716 2.4461 1266.7 -0.0054002 165.19 0.13384
67.375 11913. undefined 291.34 436.72 1.2861 565.00 0.0017699 291.34 436.72 1.2861 1.8759 2.4490 1268.3 -0.0054001 165.17 0.13398 565.00 0.0017699 291.34 436.72 1.2861 1.8759 2.4490 1268.3 -0.0054001 165.17 0.13398
68.375 12031. undefined 293.22 440.03 1.2916 565.00 0.0017699 293.22 440.03 1.2916 1.8803 2.4519 1269.9 -0.0053999 165.15 0.13413 565.00 0.0017699 293.22 440.03 1.2916 1.8803 2.4519 1269.9 -0.0053999 165.15 0.13413
69.375 12149. undefined 295.10 443.35 1.2971 565.00 0.0017699 295.10 443.35 1.2971 1.8847 2.4547 1271.5 -0.0053996 165.13 0.13427 565.00 0.0017699 295.10 443.35 1.2971 1.8847 2.4547 1271.5 -0.0053996 165.13 0.13427
70.375 12266. undefined 296.99 446.68 1.3026 565.00 0.0017699 296.99 446.68 1.3026 1.8891 2.4576 1273.1 -0.0053992 165.11 0.13442 565.00 0.0017699 296.99 446.68 1.3026 1.8891 2.4576 1273.1 -0.0053992 165.11 0.13442
71.375 12384. undefined 298.88 450.00 1.3081 565.00 0.0017699 298.88 450.00 1.3081 1.8935 2.4605 1274.7 -0.0053988 165.09 0.13456 565.00 0.0017699 298.88 450.00 1.3081 1.8935 2.4605 1274.7 -0.0053988 165.09 0.13456
72.375 12502. undefined 300.78 453.33 1.3136 565.00 0.0017699 300.78 453.33 1.3136 1.8979 2.4635 1276.3 -0.0053982 165.07 0.13471 565.00 0.0017699 300.78 453.33 1.3136 1.8979 2.4635 1276.3 -0.0053982 165.07 0.13471
73.375 12619. undefined 302.68 456.67 1.3191 565.00 0.0017699 302.68 456.67 1.3191 1.9023 2.4664 1277.9 -0.0053976 165.05 0.13486 565.00 0.0017699 302.68 456.67 1.3191 1.9023 2.4664 1277.9 -0.0053976 165.05 0.13486
74.375 12736. undefined 304.58 460.00 1.3246 565.00 0.0017699 304.58 460.00 1.3246 1.9067 2.4693 1279.4 -0.0053969 165.03 0.13500 565.00 0.0017699 304.58 460.00 1.3246 1.9067 2.4693 1279.4 -0.0053969 165.03 0.13500
75.375 12853. undefined 306.49 463.34 1.3301 565.00 0.0017699 306.49 463.34 1.3301 1.9111 2.4723 1281.0 -0.0053961 165.01 0.13515 565.00 0.0017699 306.49 463.34 1.3301 1.9111 2.4723 1281.0 -0.0053961 165.01 0.13515
76.375 12970. undefined 308.40 466.68 1.3355 565.00 0.0017699 308.40 466.68 1.3355 1.9155 2.4753 1282.6 -0.0053953 164.99 0.13530 565.00 0.0017699 308.40 466.68 1.3355 1.9155 2.4753 1282.6 -0.0053953 164.99 0.13530
77.375 13087. undefined 310.32 470.03 1.3410 565.00 0.0017699 310.32 470.03 1.3410 1.9199 2.4782 1284.1 -0.0053943 164.97 0.13544 565.00 0.0017699 310.32 470.03 1.3410 1.9199 2.4782 1284.1 -0.0053943 164.97 0.13544
78.375 13204. undefined 312.24 473.37 1.3465 565.00 0.0017699 312.24 473.37 1.3465 1.9243 2.4812 1285.7 -0.0053933 164.95 0.13559 565.00 0.0017699 312.24 473.37 1.3465 1.9243 2.4812 1285.7 -0.0053933 164.95 0.13559
79.375 13321. undefined 314.17 476.73 1.3520 565.00 0.0017699 314.17 476.73 1.3520 1.9287 2.4842 1287.2 -0.0053922 164.93 0.13574 565.00 0.0017699 314.17 476.73 1.3520 1.9287 2.4842 1287.2 -0.0053922 164.93 0.13574
80.375 13438. undefined 316.10 480.08 1.3574 565.00 0.0017699 316.10 480.08 1.3574 1.9331 2.4873 1288.8 -0.0053911 164.92 0.13589 565.00 0.0017699 316.10 480.08 1.3574 1.9331 2.4873 1288.8 -0.0053911 164.92 0.13589
81.375 13554. undefined 318.04 483.44 1.3629 565.00 0.0017699 318.04 483.44 1.3629 1.9375 2.4903 1290.3 -0.0053898 164.90 0.13604 565.00 0.0017699 318.04 483.44 1.3629 1.9375 2.4903 1290.3 -0.0053898 164.90 0.13604
82.375 13670. undefined 319.97 486.80 1.3684 565.00 0.0017699 319.97 486.80 1.3684 1.9419 2.4933 1291.8 -0.0053885 164.88 0.13619 565.00 0.0017699 319.97 486.80 1.3684 1.9419 2.4933 1291.8 -0.0053885 164.88 0.13619
83.375 13787. undefined 321.92 490.16 1.3738 565.00 0.0017699 321.92 490.16 1.3738 1.9463 2.4964 1293.4 -0.0053871 164.86 0.13634 565.00 0.0017699 321.92 490.16 1.3738 1.9463 2.4964 1293.4 -0.0053871 164.86 0.13634
84.375 13903. undefined 323.87 493.53 1.3793 565.00 0.0017699 323.87 493.53 1.3793 1.9507 2.4994 1294.9 -0.0053857 164.85 0.13649 565.00 0.0017699 323.87 493.53 1.3793 1.9507 2.4994 1294.9 -0.0053857 164.85 0.13649
85.375 14019. undefined 325.82 496.90 1.3847 565.00 0.0017699 325.82 496.90 1.3847 1.9551 2.5025 1296.4 -0.0053842 164.83 0.13663 565.00 0.0017699 325.82 496.90 1.3847 1.9551 2.5025 1296.4 -0.0053842 164.83 0.13663
86.375 14135. undefined 327.78 500.27 1.3902 565.00 0.0017699 327.78 500.27 1.3902 1.9595 2.5056 1297.9 -0.0053826 164.82 0.13679 565.00 0.0017699 327.78 500.27 1.3902 1.9595 2.5056 1297.9 -0.0053826 164.82 0.13679
87.375 14251. undefined 329.74 503.64 1.3956 565.00 0.0017699 329.74 503.64 1.3956 1.9639 2.5086 1299.4 -0.0053810 164.80 0.13694 565.00 0.0017699 329.74 503.64 1.3956 1.9639 2.5086 1299.4 -0.0053810 164.80 0.13694
88.375 14367. undefined 331.71 507.02 1.4011 565.00 0.0017699 331.71 507.02 1.4011 1.9683 2.5117 1300.9 -0.0053793 164.78 0.13709 565.00 0.0017699 331.71 507.02 1.4011 1.9683 2.5117 1300.9 -0.0053793 164.78 0.13709
89.375 14482. undefined 333.68 510.40 1.4065 565.00 0.0017699 333.68 510.40 1.4065 1.9727 2.5148 1302.4 -0.0053776 164.77 0.13724 565.00 0.0017699 333.68 510.40 1.4065 1.9727 2.5148 1302.4 -0.0053776 164.77 0.13724
90.375 14598. undefined 335.65 513.79 1.4120 565.00 0.0017699 335.65 513.79 1.4120 1.9771 2.5180 1303.9 -0.0053758 164.75 0.13739 565.00 0.0017699 335.65 513.79 1.4120 1.9771 2.5180 1303.9 -0.0053758 164.75 0.13739
91.375 14713. undefined 337.63 517.18 1.4174 565.00 0.0017699 337.63 517.18 1.4174 1.9815 2.5211 1305.4 -0.0053739 164.74 0.13754 565.00 0.0017699 337.63 517.18 1.4174 1.9815 2.5211 1305.4 -0.0053739 164.74 0.13754
92.375 14829. undefined 339.61 520.57 1.4228 565.00 0.0017699 339.61 520.57 1.4228 1.9859 2.5242 1306.9 -0.0053720 164.73 0.13769 565.00 0.0017699 339.61 520.57 1.4228 1.9859 2.5242 1306.9 -0.0053720 164.73 0.13769
93.375 14944. undefined 341.60 523.96 1.4283 565.00 0.0017699 341.60 523.96 1.4283 1.9902 2.5273 1308.4 -0.0053700 164.71 0.13784 565.00 0.0017699 341.60 523.96 1.4283 1.9902 2.5273 1308.4 -0.0053700 164.71 0.13784
94.375 15059. undefined 343.59 527.36 1.4337 565.00 0.0017699 343.59 527.36 1.4337 1.9946 2.5305 1309.9 -0.0053680 164.70 0.13800 565.00 0.0017699 343.59 527.36 1.4337 1.9946 2.5305 1309.9 -0.0053680 164.70 0.13800
95.375 15174. undefined 345.59 530.76 1.4391 565.00 0.0017699 345.59 530.76 1.4391 1.9990 2.5336 1311.4 -0.0053659 164.68 0.13815 565.00 0.0017699 345.59 530.76 1.4391 1.9990 2.5336 1311.4 -0.0053659 164.68 0.13815
96.375 15289. undefined 347.59 534.16 1.4446 565.00 0.0017699 347.59 534.16 1.4446 2.0034 2.5368 1312.8 -0.0053638 164.67 0.13830 565.00 0.0017699 347.59 534.16 1.4446 2.0034 2.5368 1312.8 -0.0053638 164.67 0.13830
97.375 15404. undefined 349.60 537.57 1.4500 565.00 0.0017699 349.60 537.57 1.4500 2.0078 2.5400 1314.3 -0.0053616 164.66 0.13846 565.00 0.0017699 349.60 537.57 1.4500 2.0078 2.5400 1314.3 -0.0053616 164.66 0.13846
98.375 15518. undefined 351.61 540.98 1.4554 565.00 0.0017699 351.61 540.98 1.4554 2.0121 2.5431 1315.8 -0.0053594 164.64 0.13861 565.00 0.0017699 351.61 540.98 1.4554 2.0121 2.5431 1315.8 -0.0053594 164.64 0.13861
99.375 15633. undefined 353.62 544.39 1.4608 565.00 0.0017699 353.62 544.39 1.4608 2.0165 2.5463 1317.2 -0.0053571 164.63 0.13876 565.00 0.0017699 353.62 544.39 1.4608 2.0165 2.5463 1317.2 -0.0053571 164.63 0.13876
100.38 15748. undefined 355.64 547.81 1.4662 565.00 0.0017699 355.64 547.81 1.4662 2.0209 2.5495 1318.7 -0.0053548 164.62 0.13892 565.00 0.0017699 355.64 547.81 1.4662 2.0209 2.5495 1318.7 -0.0053548 164.62 0.13892
101.38 15862. undefined 357.66 551.23 1.4716 565.00 0.0017699 357.66 551.23 1.4716 2.0253 2.5527 1320.2 -0.0053524 164.61 0.13907 565.00 0.0017699 357.66 551.23 1.4716 2.0253 2.5527 1320.2 -0.0053524 164.61 0.13907
102.38 15976. undefined 359.69 554.65 1.4770 565.00 0.0017699 359.69 554.65 1.4770 2.0296 2.5559 1321.6 -0.0053500 164.60 0.13923 565.00 0.0017699 359.69 554.65 1.4770 2.0296 2.5559 1321.6 -0.0053500 164.60 0.13923
103.38 16090. undefined 361.72 558.08 1.4824 565.00 0.0017699 361.72 558.08 1.4824 2.0340 2.5591 1323.1 -0.0053476 164.58 0.13938 565.00 0.0017699 361.72 558.08 1.4824 2.0340 2.5591 1323.1 -0.0053476 164.58 0.13938
104.38 16205. undefined 363.76 561.51 1.4878 565.00 0.0017699 363.76 561.51 1.4878 2.0384 2.5623 1324.5 -0.0053451 164.57 0.13954 565.00 0.0017699 363.76 561.51 1.4878 2.0384 2.5623 1324.5 -0.0053451 164.57 0.13954
105.38 16319. undefined 365.80 564.94 1.4932 565.00 0.0017699 365.80 564.94 1.4932 2.0427 2.5655 1325.9 -0.0053425 164.56 0.13969 565.00 0.0017699 365.80 564.94 1.4932 2.0427 2.5655 1325.9 -0.0053425 164.56 0.13969
106.38 16432. undefined 367.84 568.37 1.4986 565.00 0.0017699 367.84 568.37 1.4986 2.0471 2.5688 1327.4 -0.0053399 164.55 0.13985 565.00 0.0017699 367.84 568.37 1.4986 2.0471 2.5688 1327.4 -0.0053399 164.55 0.13985
107.38 16546. undefined 369.89 571.81 1.5040 565.00 0.0017699 369.89 571.81 1.5040 2.0514 2.5720 1328.8 -0.0053373 164.54 0.14001 565.00 0.0017699 369.89 571.81 1.5040 2.0514 2.5720 1328.8 -0.0053373 164.54 0.14001
108.38 16660. undefined 371.95 575.25 1.5094 565.00 0.0017699 371.95 575.25 1.5094 2.0558 2.5752 1330.2 -0.0053347 164.53 0.14016 565.00 0.0017699 371.95 575.25 1.5094 2.0558 2.5752 1330.2 -0.0053347 164.53 0.14016
109.38 16773. undefined 374.01 578.69 1.5148 565.00 0.0017699 374.01 578.69 1.5148 2.0601 2.5785 1331.6 -0.0053320 164.52 0.14032 565.00 0.0017699 374.01 578.69 1.5148 2.0601 2.5785 1331.6 -0.0053320 164.52 0.14032
110.38 16887. undefined 376.07 582.14 1.5202 565.00 0.0017699 376.07 582.14 1.5202 2.0645 2.5817 1333.1 -0.0053292 164.51 0.14048 565.00 0.0017699 376.07 582.14 1.5202 2.0645 2.5817 1333.1 -0.0053292 164.51 0.14048
111.38 17000. undefined 378.13 585.59 1.5256 565.00 0.0017699 378.13 585.59 1.5256 2.0688 2.5850 1334.5 -0.0053265 164.50 0.14064 565.00 0.0017699 378.13 585.59 1.5256 2.0688 2.5850 1334.5 -0.0053265 164.50 0.14064
112.38 17114. undefined 380.21 589.05 1.5309 565.00 0.0017699 380.21 589.05 1.5309 2.0732 2.5882 1335.9 -0.0053237 164.49 0.14079 565.00 0.0017699 380.21 589.05 1.5309 2.0732 2.5882 1335.9 -0.0053237 164.49 0.14079
113.38 17227. undefined 382.28 592.50 1.5363 565.00 0.0017699 382.28 592.50 1.5363 2.0775 2.5915 1337.3 -0.0053208 164.48 0.14095 565.00 0.0017699 382.28 592.50 1.5363 2.0775 2.5915 1337.3 -0.0053208 164.48 0.14095
114.38 17340. undefined 384.36 595.96 1.5417 565.00 0.0017699 384.36 595.96 1.5417 2.0818 2.5948 1338.7 -0.0053179 164.47 0.14111 565.00 0.0017699 384.36 595.96 1.5417 2.0818 2.5948 1338.7 -0.0053179 164.47 0.14111
115.38 17453. undefined 386.44 599.43 1.5471 565.00 0.0017699 386.44 599.43 1.5471 2.0862 2.5980 1340.1 -0.0053150 164.46 0.14127 565.00 0.0017699 386.44 599.43 1.5471 2.0862 2.5980 1340.1 -0.0053150 164.46 0.14127
116.38 17566. undefined 388.53 602.89 1.5524 565.00 0.0017699 388.53 602.89 1.5524 2.0905 2.6013 1341.5 -0.0053121 164.45 0.14143 565.00 0.0017699 388.53 602.89 1.5524 2.0905 2.6013 1341.5 -0.0053121 164.45 0.14143
117.38 17679. undefined 390.63 606.36 1.5578 565.00 0.0017699 390.63 606.36 1.5578 2.0948 2.6046 1342.9 -0.0053091 164.44 0.14159 565.00 0.0017699 390.63 606.36 1.5578 2.0948 2.6046 1342.9 -0.0053091 164.44 0.14159
118.38 17791. undefined 392.72 609.83 1.5632 565.00 0.0017699 392.72 609.83 1.5632 2.0992 2.6079 1344.3 -0.0053061 164.43 0.14175 565.00 0.0017699 392.72 609.83 1.5632 2.0992 2.6079 1344.3 -0.0053061 164.43 0.14175
119.38 17904. undefined 394.82 613.31 1.5685 565.00 0.0017699 394.82 613.31 1.5685 2.1035 2.6112 1345.7 -0.0053031 164.43 0.14191 565.00 0.0017699 394.82 613.31 1.5685 2.1035 2.6112 1345.7 -0.0053031 164.43 0.14191
120.38 18017. undefined 396.93 616.79 1.5739 565.00 0.0017699 396.93 616.79 1.5739 2.1078 2.6144 1347.1 -0.0053001 164.42 0.14207 565.00 0.0017699 396.93 616.79 1.5739 2.1078 2.6144 1347.1 -0.0053001 164.42 0.14207
121.38 18129. undefined 399.04 620.27 1.5792 565.00 0.0017699 399.04 620.27 1.5792 2.1121 2.6177 1348.5 -0.0052970 164.41 0.14223 565.00 0.0017699 399.04 620.27 1.5792 2.1121 2.6177 1348.5 -0.0052970 164.41 0.14223
122.38 18241. undefined 401.15 623.75 1.5846 565.00 0.0017699 401.15 623.75 1.5846 2.1164 2.6210 1349.8 -0.0052939 164.40 0.14239 565.00 0.0017699 401.15 623.75 1.5846 2.1164 2.6210 1349.8 -0.0052939 164.40 0.14239
123.38 18353. undefined 403.27 627.24 1.5899 565.00 0.0017699 403.27 627.24 1.5899 2.1207 2.6243 1351.2 -0.0052907 164.40 0.14255 565.00 0.0017699 403.27 627.24 1.5899 2.1207 2.6243 1351.2 -0.0052907 164.40 0.14255
124.38 18466. undefined 405.40 630.73 1.5953 565.00 0.0017699 405.40 630.73 1.5953 2.1250 2.6276 1352.6 -0.0052876 164.39 0.14271 565.00 0.0017699 405.40 630.73 1.5953 2.1250 2.6276 1352.6 -0.0052876 164.39 0.14271
125.38 18578. undefined 407.52 634.23 1.6006 565.00 0.0017699 407.52 634.23 1.6006 2.1293 2.6309 1354.0 -0.0052844 164.38 0.14287 565.00 0.0017699 407.52 634.23 1.6006 2.1293 2.6309 1354.0 -0.0052844 164.38 0.14287
126.38 18690. undefined 409.65 637.72 1.6060 565.00 0.0017699 409.65 637.72 1.6060 2.1336 2.6343 1355.3 -0.0052812 164.37 0.14303 565.00 0.0017699 409.65 637.72 1.6060 2.1336 2.6343 1355.3 -0.0052812 164.37 0.14303
127.38 18801. undefined 411.79 641.23 1.6113 565.00 0.0017699 411.79 641.23 1.6113 2.1379 2.6376 1356.7 -0.0052779 164.37 0.14320 565.00 0.0017699 411.79 641.23 1.6113 2.1379 2.6376 1356.7 -0.0052779 164.37 0.14320
128.38 18913. undefined 413.93 644.73 1.6166 565.00 0.0017699 413.93 644.73 1.6166 2.1422 2.6409 1358.0 -0.0052747 164.36 0.14336 565.00 0.0017699 413.93 644.73 1.6166 2.1422 2.6409 1358.0 -0.0052747 164.36 0.14336
129.38 19025. undefined 416.07 648.24 1.6220 565.00 0.0017699 416.07 648.24 1.6220 2.1465 2.6442 1359.4 -0.0052714 164.35 0.14352 565.00 0.0017699 416.07 648.24 1.6220 2.1465 2.6442 1359.4 -0.0052714 164.35 0.14352
130.38 19136. undefined 418.22 651.75 1.6273 565.00 0.0017699 418.22 651.75 1.6273 2.1508 2.6475 1360.8 -0.0052681 164.35 0.14368 565.00 0.0017699 418.22 651.75 1.6273 2.1508 2.6475 1360.8 -0.0052681 164.35 0.14368
131.38 19248. undefined 420.38 655.26 1.6326 565.00 0.0017699 420.38 655.26 1.6326 2.1551 2.6509 1362.1 -0.0052647 164.34 0.14385 565.00 0.0017699 420.38 655.26 1.6326 2.1551 2.6509 1362.1 -0.0052647 164.34 0.14385
132.38 19359. undefined 422.53 658.78 1.6380 565.00 0.0017699 422.53 658.78 1.6380 2.1594 2.6542 1363.4 -0.0052614 164.34 0.14401 565.00 0.0017699 422.53 658.78 1.6380 2.1594 2.6542 1363.4 -0.0052614 164.34 0.14401
133.38 19470. undefined 424.69 662.29 1.6433 565.00 0.0017699 424.69 662.29 1.6433 2.1636 2.6575 1364.8 -0.0052580 164.33 0.14418 565.00 0.0017699 424.69 662.29 1.6433 2.1636 2.6575 1364.8 -0.0052580 164.33 0.14418
134.38 19582. undefined 426.86 665.82 1.6486 565.00 0.0017699 426.86 665.82 1.6486 2.1679 2.6608 1366.1 -0.0052546 164.33 0.14434 565.00 0.0017699 426.86 665.82 1.6486 2.1679 2.6608 1366.1 -0.0052546 164.33 0.14434
135.38 19693. undefined 429.03 669.34 1.6539 565.00 0.0017699 429.03 669.34 1.6539 2.1722 2.6642 1367.5 -0.0052512 164.32 0.14450 565.00 0.0017699 429.03 669.34 1.6539 2.1722 2.6642 1367.5 -0.0052512 164.32 0.14450
136.38 19804. undefined 431.20 672.87 1.6592 565.00 0.0017699 431.20 672.87 1.6592 2.1764 2.6675 1368.8 -0.0052478 164.31 0.14467 565.00 0.0017699 431.20 672.87 1.6592 2.1764 2.6675 1368.8 -0.0052478 164.31 0.14467
137.38 19915. undefined 433.38 676.40 1.6646 565.00 0.0017699 433.38 676.40 1.6646 2.1807 2.6708 1370.1 -0.0052443 164.31 0.14483 565.00 0.0017699 433.38 676.40 1.6646 2.1807 2.6708 1370.1 -0.0052443 164.31 0.14483
138.38 20025. undefined 435.57 679.94 1.6699 565.00 0.0017699 435.57 679.94 1.6699 2.1849 2.6742 1371.5 -0.0052409 164.30 0.14500 565.00 0.0017699 435.57 679.94 1.6699 2.1849 2.6742 1371.5 -0.0052409 164.30 0.14500
139.38 20136. undefined 437.75 683.48 1.6752 565.00 0.0017699 437.75 683.48 1.6752 2.1892 2.6775 1372.8 -0.0052374 164.30 0.14517 565.00 0.0017699 437.75 683.48 1.6752 2.1892 2.6775 1372.8 -0.0052374 164.30 0.14517
140.38 20247. undefined 439.94 687.02 1.6805 565.00 0.0017699 439.94 687.02 1.6805 2.1934 2.6809 1374.1 -0.0052339 164.30 0.14533 565.00 0.0017699 439.94 687.02 1.6805 2.1934 2.6809 1374.1 -0.0052339 164.30 0.14533
141.38 20357. undefined 442.14 690.56 1.6858 565.00 0.0017699 442.14 690.56 1.6858 2.1977 2.6842 1375.4 -0.0052304 164.29 0.14550 565.00 0.0017699 442.14 690.56 1.6858 2.1977 2.6842 1375.4 -0.0052304 164.29 0.14550
142.38 20468. undefined 444.34 694.11 1.6911 565.00 0.0017699 444.34 694.11 1.6911 2.2019 2.6876 1376.7 -0.0052268 164.29 0.14566 565.00 0.0017699 444.34 694.11 1.6911 2.2019 2.6876 1376.7 -0.0052268 164.29 0.14566
143.38 20578. undefined 446.54 697.66 1.6964 565.00 0.0017699 446.54 697.66 1.6964 2.2061 2.6909 1378.1 -0.0052233 164.28 0.14583 565.00 0.0017699 446.54 697.66 1.6964 2.2061 2.6909 1378.1 -0.0052233 164.28 0.14583
144.38 20688. undefined 448.75 701.21 1.7017 565.00 0.0017699 448.75 701.21 1.7017 2.2104 2.6942 1379.4 -0.0052197 164.28 0.14600 565.00 0.0017699 448.75 701.21 1.7017 2.2104 2.6942 1379.4 -0.0052197 164.28 0.14600
145.38 20799. undefined 450.96 704.77 1.7070 565.00 0.0017699 450.96 704.77 1.7070 2.2146 2.6976 1380.7 -0.0052162 164.28 0.14617 565.00 0.0017699 450.96 704.77 1.7070 2.2146 2.6976 1380.7 -0.0052162 164.28 0.14617
146.38 20909. undefined 453.18 708.33 1.7123 565.00 0.0017699 453.18 708.33 1.7123 2.2188 2.7009 1382.0 -0.0052126 164.27 0.14633 565.00 0.0017699 453.18 708.33 1.7123 2.2188 2.7009 1382.0 -0.0052126 164.27 0.14633
147.38 21019. undefined 455.40 711.89 1.7175 565.00 0.0017699 455.40 711.89 1.7175 2.2230 2.7043 1383.3 -0.0052090 164.27 0.14650 565.00 0.0017699 455.40 711.89 1.7175 2.2230 2.7043 1383.3 -0.0052090 164.27 0.14650
148.38 21129. undefined 457.63 715.46 1.7228 565.00 0.0017699 457.63 715.46 1.7228 2.2272 2.7076 1384.6 -0.0052054 164.27 0.14667 565.00 0.0017699 457.63 715.46 1.7228 2.2272 2.7076 1384.6 -0.0052054 164.27 0.14667
149.38 21238. undefined 459.86 719.03 1.7281 565.00 0.0017699 459.86 719.03 1.7281 2.2315 2.7110 1385.9 -0.0052017 164.26 0.14684 565.00 0.0017699 459.86 719.03 1.7281 2.2315 2.7110 1385.9 -0.0052017 164.26 0.14684
150.38 21348. undefined 462.09 722.60 1.7334 565.00 0.0017699 462.09 722.60 1.7334 2.2357 2.7144 1387.2 -0.0051981 164.26 0.14701 565.00 0.0017699 462.09 722.60 1.7334 2.2357 2.7144 1387.2 -0.0051981 164.26 0.14701
151.38 21458. undefined 464.33 726.18 1.7387 565.00 0.0017699 464.33 726.18 1.7387 2.2399 2.7177 1388.5 -0.0051944 164.26 0.14718 565.00 0.0017699 464.33 726.18 1.7387 2.2399 2.7177 1388.5 -0.0051944 164.26 0.14718
152.38 21567. undefined 466.57 729.76 1.7439 565.00 0.0017699 466.57 729.76 1.7439 2.2441 2.7211 1389.8 -0.0051908 164.25 0.14735 565.00 0.0017699 466.57 729.76 1.7439 2.2441 2.7211 1389.8 -0.0051908 164.25 0.14735
153.38 21677. undefined 468.82 733.34 1.7492 565.00 0.0017699 468.82 733.34 1.7492 2.2482 2.7244 1391.0 -0.0051871 164.25 0.14752 565.00 0.0017699 468.82 733.34 1.7492 2.2482 2.7244 1391.0 -0.0051871 164.25 0.14752
154.38 21786. undefined 471.07 736.92 1.7545 565.00 0.0017699 471.07 736.92 1.7545 2.2524 2.7278 1392.3 -0.0051834 164.25 0.14769 565.00 0.0017699 471.07 736.92 1.7545 2.2524 2.7278 1392.3 -0.0051834 164.25 0.14769
155.38 21895. undefined 473.32 740.51 1.7598 565.00 0.0017699 473.32 740.51 1.7598 2.2566 2.7311 1393.6 -0.0051797 164.25 0.14786 565.00 0.0017699 473.32 740.51 1.7598 2.2566 2.7311 1393.6 -0.0051797 164.25 0.14786
156.38 22005. undefined 475.58 744.10 1.7650 565.00 0.0017699 475.58 744.10 1.7650 2.2608 2.7345 1394.9 -0.0051760 164.24 0.14803 565.00 0.0017699 475.58 744.10 1.7650 2.2608 2.7345 1394.9 -0.0051760 164.24 0.14803
157.38 22114. undefined 477.84 747.70 1.7703 565.00 0.0017699 477.84 747.70 1.7703 2.2650 2.7378 1396.2 -0.0051723 164.24 0.14820 565.00 0.0017699 477.84 747.70 1.7703 2.2650 2.7378 1396.2 -0.0051723 164.24 0.14820
158.38 22223. undefined 480.11 751.30 1.7755 565.00 0.0017699 480.11 751.30 1.7755 2.2691 2.7412 1397.4 -0.0051686 164.24 0.14837 565.00 0.0017699 480.11 751.30 1.7755 2.2691 2.7412 1397.4 -0.0051686 164.24 0.14837
159.38 22332. undefined 482.38 754.90 1.7808 565.00 0.0017699 482.38 754.90 1.7808 2.2733 2.7445 1398.7 -0.0051649 164.24 0.14854 565.00 0.0017699 482.38 754.90 1.7808 2.2733 2.7445 1398.7 -0.0051649 164.24 0.14854
160.38 22440. undefined 484.66 758.50 1.7861 565.00 0.0017699 484.66 758.50 1.7861 2.2775 2.7479 1400.0 -0.0051611 164.24 0.14871 565.00 0.0017699 484.66 758.50 1.7861 2.2775 2.7479 1400.0 -0.0051611 164.24 0.14871
161.38 22549. undefined 486.94 762.11 1.7913 565.00 0.0017699 486.94 762.11 1.7913 2.2816 2.7513 1401.2 -0.0051574 164.24 0.14889 565.00 0.0017699 486.94 762.11 1.7913 2.2816 2.7513 1401.2 -0.0051574 164.24 0.14889
162.38 22658. undefined 489.22 765.72 1.7966 565.00 0.0017699 489.22 765.72 1.7966 2.2858 2.7546 1402.5 -0.0051536 164.24 0.14906 565.00 0.0017699 489.22 765.72 1.7966 2.2858 2.7546 1402.5 -0.0051536 164.24 0.14906
163.38 22766. undefined 491.51 769.33 1.8018 565.00 0.0017699 491.51 769.33 1.8018 2.2899 2.7580 1403.7 -0.0051499 164.23 0.14923 565.00 0.0017699 491.51 769.33 1.8018 2.2899 2.7580 1403.7 -0.0051499 164.23 0.14923
164.38 22875. undefined 493.80 772.94 1.8070 565.00 0.0017699 493.80 772.94 1.8070 2.2940 2.7613 1405.0 -0.0051461 164.23 0.14940 565.00 0.0017699 493.80 772.94 1.8070 2.2940 2.7613 1405.0 -0.0051461 164.23 0.14940
165.38 22983. undefined 496.10 776.56 1.8123 565.00 0.0017699 496.10 776.56 1.8123 2.2982 2.7647 1406.3 -0.0051423 164.23 0.14958 565.00 0.0017699 496.10 776.56 1.8123 2.2982 2.7647 1406.3 -0.0051423 164.23 0.14958
166.38 23092. undefined 498.40 780.19 1.8175 565.00 0.0017699 498.40 780.19 1.8175 2.3023 2.7680 1407.5 -0.0051385 164.23 0.14975 565.00 0.0017699 498.40 780.19 1.8175 2.3023 2.7680 1407.5 -0.0051385 164.23 0.14975
167.38 23200. undefined 500.70 783.81 1.8228 565.00 0.0017699 500.70 783.81 1.8228 2.3064 2.7714 1408.8 -0.0051347 164.23 0.14992 565.00 0.0017699 500.70 783.81 1.8228 2.3064 2.7714 1408.8 -0.0051347 164.23 0.14992
168.38 23308. undefined 503.01 787.44 1.8280 565.00 0.0017699 503.01 787.44 1.8280 2.3106 2.7747 1410.0 -0.0051310 164.23 0.15010 565.00 0.0017699 503.01 787.44 1.8280 2.3106 2.7747 1410.0 -0.0051310 164.23 0.15010
169.38 23416. undefined 505.32 791.07 1.8332 565.00 0.0017699 505.32 791.07 1.8332 2.3147 2.7781 1411.2 -0.0051272 164.23 0.15027 565.00 0.0017699 505.32 791.07 1.8332 2.3147 2.7781 1411.2 -0.0051272 164.23 0.15027
170.38 23524. undefined 507.64 794.70 1.8385 565.00 0.0017699 507.64 794.70 1.8385 2.3188 2.7814 1412.5 -0.0051233 164.23 0.15045 565.00 0.0017699 507.64 794.70 1.8385 2.3188 2.7814 1412.5 -0.0051233 164.23 0.15045
171.38 23632. undefined 509.96 798.34 1.8437 565.00 0.0017699 509.96 798.34 1.8437 2.3229 2.7848 1413.7 -0.0051195 164.23 0.15062 565.00 0.0017699 509.96 798.34 1.8437 2.3229 2.7848 1413.7 -0.0051195 164.23 0.15062
172.38 23740. undefined 512.28 801.98 1.8489 565.00 0.0017699 512.28 801.98 1.8489 2.3270 2.7881 1415.0 -0.0051157 164.23 0.15080 565.00 0.0017699 512.28 801.98 1.8489 2.3270 2.7881 1415.0 -0.0051157 164.23 0.15080
173.38 23848. undefined 514.61 805.63 1.8541 565.00 0.0017699 514.61 805.63 1.8541 2.3311 2.7915 1416.2 -0.0051119 164.23 0.15097 565.00 0.0017699 514.61 805.63 1.8541 2.3311 2.7915 1416.2 -0.0051119 164.23 0.15097
174.38 23955. undefined 516.95 809.27 1.8593 565.00 0.0017699 516.95 809.27 1.8593 2.3352 2.7948 1417.4 -0.0051081 164.23 0.15115 565.00 0.0017699 516.95 809.27 1.8593 2.3352 2.7948 1417.4 -0.0051081 164.23 0.15115
175.38 24063. undefined 519.28 812.92 1.8646 565.00 0.0017699 519.28 812.92 1.8646 2.3393 2.7982 1418.7 -0.0051043 164.23 0.15133 565.00 0.0017699 519.28 812.92 1.8646 2.3393 2.7982 1418.7 -0.0051043 164.23 0.15133
176.38 24170. undefined 521.62 816.58 1.8698 565.00 0.0017699 521.62 816.58 1.8698 2.3434 2.8015 1419.9 -0.0051004 164.23 0.15150 565.00 0.0017699 521.62 816.58 1.8698 2.3434 2.8015 1419.9 -0.0051004 164.23 0.15150
177.38 24278. undefined 523.97 820.23 1.8750 565.00 0.0017699 523.97 820.23 1.8750 2.3474 2.8049 1421.1 -0.0050966 164.23 0.15168 565.00 0.0017699 523.97 820.23 1.8750 2.3474 2.8049 1421.1 -0.0050966 164.23 0.15168
178.38 24385. undefined 526.32 823.89 1.8802 565.00 0.0017699 526.32 823.89 1.8802 2.3515 2.8082 1422.3 -0.0050927 164.23 0.15186 565.00 0.0017699 526.32 823.89 1.8802 2.3515 2.8082 1422.3 -0.0050927 164.23 0.15186
179.38 24492. undefined 528.67 827.55 1.8854 565.00 0.0017699 528.67 827.55 1.8854 2.3556 2.8116 1423.6 -0.0050889 164.23 0.15203 565.00 0.0017699 528.67 827.55 1.8854 2.3556 2.8116 1423.6 -0.0050889 164.23 0.15203
180.38 24599. undefined 531.03 831.22 1.8906 565.00 0.0017699 531.03 831.22 1.8906 2.3596 2.8149 1424.8 -0.0050851 164.23 0.15221 565.00 0.0017699 531.03 831.22 1.8906 2.3596 2.8149 1424.8 -0.0050851 164.23 0.15221
181.38 24706. undefined 533.39 834.89 1.8958 565.00 0.0017699 533.39 834.89 1.8958 2.3637 2.8183 1426.0 -0.0050812 164.24 0.15239 565.00 0.0017699 533.39 834.89 1.8958 2.3637 2.8183 1426.0 -0.0050812 164.24 0.15239
182.38 24813. undefined 535.76 838.56 1.9010 565.00 0.0017699 535.76 838.56 1.9010 2.3677 2.8216 1427.2 -0.0050774 164.24 0.15257 565.00 0.0017699 535.76 838.56 1.9010 2.3677 2.8216 1427.2 -0.0050774 164.24 0.15257
183.38 24920. undefined 538.13 842.23 1.9062 565.00 0.0017699 538.13 842.23 1.9062 2.3718 2.8249 1428.4 -0.0050735 164.24 0.15275 565.00 0.0017699 538.13 842.23 1.9062 2.3718 2.8249 1428.4 -0.0050735 164.24 0.15275
184.38 25027. undefined 540.50 845.91 1.9114 565.00 0.0017699 540.50 845.91 1.9114 2.3758 2.8283 1429.6 -0.0050697 164.24 0.15293 565.00 0.0017699 540.50 845.91 1.9114 2.3758 2.8283 1429.6 -0.0050697 164.24 0.15293
185.38 25134. undefined 542.88 849.59 1.9166 565.00 0.0017699 542.88 849.59 1.9166 2.3799 2.8316 1430.8 -0.0050658 164.24 0.15310 565.00 0.0017699 542.88 849.59 1.9166 2.3799 2.8316 1430.8 -0.0050658 164.24 0.15310
186.38 25240. undefined 545.26 853.27 1.9218 565.00 0.0017699 545.26 853.27 1.9218 2.3839 2.8349 1432.0 -0.0050619 164.24 0.15328 565.00 0.0017699 545.26 853.27 1.9218 2.3839 2.8349 1432.0 -0.0050619 164.24 0.15328
187.38 25347. undefined 547.65 856.96 1.9270 565.00 0.0017699 547.65 856.96 1.9270 2.3879 2.8383 1433.2 -0.0050581 164.24 0.15346 565.00 0.0017699 547.65 856.96 1.9270 2.3879 2.8383 1433.2 -0.0050581 164.24 0.15346
188.38 25453. undefined 550.04 860.65 1.9322 565.00 0.0017699 550.04 860.65 1.9322 2.3920 2.8416 1434.4 -0.0050542 164.25 0.15364 565.00 0.0017699 550.04 860.65 1.9322 2.3920 2.8416 1434.4 -0.0050542 164.25 0.15364
189.38 25560. undefined 552.43 864.34 1.9373 565.00 0.0017699 552.43 864.34 1.9373 2.3960 2.8449 1435.6 -0.0050504 164.25 0.15382 565.00 0.0017699 552.43 864.34 1.9373 2.3960 2.8449 1435.6 -0.0050504 164.25 0.15382
190.38 25666. undefined 554.83 868.04 1.9425 565.00 0.0017699 554.83 868.04 1.9425 2.4000 2.8483 1436.8 -0.0050465 164.25 0.15400 565.00 0.0017699 554.83 868.04 1.9425 2.4000 2.8483 1436.8 -0.0050465 164.25 0.15400
191.38 25772. undefined 557.23 871.74 1.9477 565.00 0.0017699 557.23 871.74 1.9477 2.4040 2.8516 1438.0 -0.0050427 164.25 0.15419 565.00 0.0017699 557.23 871.74 1.9477 2.4040 2.8516 1438.0 -0.0050427 164.25 0.15419
192.38 25879. undefined 559.64 875.44 1.9529 565.00 0.0017699 559.64 875.44 1.9529 2.4080 2.8549 1439.2 -0.0050388 164.25 0.15437 565.00 0.0017699 559.64 875.44 1.9529 2.4080 2.8549 1439.2 -0.0050388 164.25 0.15437
193.38 25985. undefined 562.05 879.14 1.9580 565.00 0.0017699 562.05 879.14 1.9580 2.4120 2.8582 1440.4 -0.0050349 164.26 0.15455 565.00 0.0017699 562.05 879.14 1.9580 2.4120 2.8582 1440.4 -0.0050349 164.26 0.15455
194.38 26091. undefined 564.46 882.85 1.9632 565.00 0.0017699 564.46 882.85 1.9632 2.4160 2.8616 1441.6 -0.0050311 164.26 0.15473 565.00 0.0017699 564.46 882.85 1.9632 2.4160 2.8616 1441.6 -0.0050311 164.26 0.15473
195.38 26197. undefined 566.88 886.56 1.9684 565.00 0.0017699 566.88 886.56 1.9684 2.4200 2.8649 1442.7 -0.0050272 164.26 0.15491 565.00 0.0017699 566.88 886.56 1.9684 2.4200 2.8649 1442.7 -0.0050272 164.26 0.15491
196.38 26303. undefined 569.30 890.27 1.9735 565.00 0.0017699 569.30 890.27 1.9735 2.4240 2.8682 1443.9 -0.0050233 164.26 0.15509 565.00 0.0017699 569.30 890.27 1.9735 2.4240 2.8682 1443.9 -0.0050233 164.26 0.15509
197.38 26408. undefined 571.73 893.99 1.9787 565.00 0.0017699 571.73 893.99 1.9787 2.4279 2.8715 1445.1 -0.0050195 164.27 0.15528 565.00 0.0017699 571.73 893.99 1.9787 2.4279 2.8715 1445.1 -0.0050195 164.27 0.15528
198.38 26514. undefined 574.16 897.71 1.9839 565.00 0.0017699 574.16 897.71 1.9839 2.4319 2.8748 1446.3 -0.0050156 164.27 0.15546 565.00 0.0017699 574.16 897.71 1.9839 2.4319 2.8748 1446.3 -0.0050156 164.27 0.15546
199.38 26620. undefined 576.59 901.43 1.9890 565.00 0.0017699 576.59 901.43 1.9890 2.4359 2.8781 1447.5 -0.0050118 164.27 0.15564 565.00 0.0017699 576.59 901.43 1.9890 2.4359 2.8781 1447.5 -0.0050118 164.27 0.15564
200.38 26725. undefined 579.03 905.16 1.9942 565.00 0.0017699 579.03 905.16 1.9942 2.4398 2.8815 1448.6 -0.0050079 164.28 0.15583 565.00 0.0017699 579.03 905.16 1.9942 2.4398 2.8815 1448.6 -0.0050079 164.28 0.15583
201.38 26831. undefined 581.47 908.89 1.9993 565.00 0.0017699 581.47 908.89 1.9993 2.4438 2.8848 1449.8 -0.0050040 164.28 0.15601 565.00 0.0017699 581.47 908.89 1.9993 2.4438 2.8848 1449.8 -0.0050040 164.28 0.15601
202.38 26936. undefined 583.92 912.62 2.0045 565.00 0.0017699 583.92 912.62 2.0045 2.4477 2.8881 1451.0 -0.0050002 164.28 0.15620 565.00 0.0017699 583.92 912.62 2.0045 2.4477 2.8881 1451.0 -0.0050002 164.28 0.15620
203.38 27041. undefined 586.37 916.35 2.0096 565.00 0.0017699 586.37 916.35 2.0096 2.4517 2.8914 1452.1 -0.0049963 164.29 0.15638 565.00 0.0017699 586.37 916.35 2.0096 2.4517 2.8914 1452.1 -0.0049963 164.29 0.15638
204.38 27146. undefined 588.82 920.09 2.0148 565.00 0.0017699 588.82 920.09 2.0148 2.4556 2.8947 1453.3 -0.0049925 164.29 0.15656 565.00 0.0017699 588.82 920.09 2.0148 2.4556 2.8947 1453.3 -0.0049925 164.29 0.15656
205.38 27252. undefined 591.28 923.83 2.0199 565.00 0.0017699 591.28 923.83 2.0199 2.4596 2.8980 1454.5 -0.0049886 164.29 0.15675 565.00 0.0017699 591.28 923.83 2.0199 2.4596 2.8980 1454.5 -0.0049886 164.29 0.15675
206.38 27357. undefined 593.74 927.57 2.0250 565.00 0.0017699 593.74 927.57 2.0250 2.4635 2.9013 1455.6 -0.0049848 164.30 0.15693 565.00 0.0017699 593.74 927.57 2.0250 2.4635 2.9013 1455.6 -0.0049848 164.30 0.15693
207.38 27462. undefined 596.20 931.32 2.0302 565.00 0.0017699 596.20 931.32 2.0302 2.4674 2.9046 1456.8 -0.0049809 164.30 0.15712 565.00 0.0017699 596.20 931.32 2.0302 2.4674 2.9046 1456.8 -0.0049809 164.30 0.15712
208.38 27567. undefined 598.67 935.07 2.0353 565.00 0.0017699 598.67 935.07 2.0353 2.4713 2.9079 1457.9 -0.0049771 164.30 0.15731 565.00 0.0017699 598.67 935.07 2.0353 2.4713 2.9079 1457.9 -0.0049771 164.30 0.15731
209.38 27671. undefined 601.15 938.82 2.0404 565.00 0.0017699 601.15 938.82 2.0404 2.4752 2.9112 1459.1 -0.0049732 164.31 0.15749 565.00 0.0017699 601.15 938.82 2.0404 2.4752 2.9112 1459.1 -0.0049732 164.31 0.15749
210.38 27776. undefined 603.62 942.58 2.0456 565.00 0.0017699 603.62 942.58 2.0456 2.4791 2.9144 1460.2 -0.0049694 164.31 0.15768 565.00 0.0017699 603.62 942.58 2.0456 2.4791 2.9144 1460.2 -0.0049694 164.31 0.15768
211.38 27881. undefined 606.10 946.34 2.0507 565.00 0.0017699 606.10 946.34 2.0507 2.4831 2.9177 1461.4 -0.0049656 164.32 0.15787 565.00 0.0017699 606.10 946.34 2.0507 2.4831 2.9177 1461.4 -0.0049656 164.32 0.15787
212.38 27985. undefined 608.59 950.10 2.0558 565.00 0.0017699 608.59 950.10 2.0558 2.4869 2.9210 1462.5 -0.0049617 164.32 0.15805 565.00 0.0017699 608.59 950.10 2.0558 2.4869 2.9210 1462.5 -0.0049617 164.32 0.15805
213.38 28090. undefined 611.08 953.86 2.0609 565.00 0.0017699 611.08 953.86 2.0609 2.4908 2.9243 1463.7 -0.0049579 164.32 0.15824 565.00 0.0017699 611.08 953.86 2.0609 2.4908 2.9243 1463.7 -0.0049579 164.32 0.15824
214.38 28194. undefined 613.57 957.63 2.0661 565.00 0.0017699 613.57 957.63 2.0661 2.4947 2.9276 1464.8 -0.0049541 164.33 0.15843 565.00 0.0017699 613.57 957.63 2.0661 2.4947 2.9276 1464.8 -0.0049541 164.33 0.15843
215.38 28299. undefined 616.07 961.40 2.0712 565.00 0.0017699 616.07 961.40 2.0712 2.4986 2.9309 1466.0 -0.0049502 164.33 0.15862 565.00 0.0017699 616.07 961.40 2.0712 2.4986 2.9309 1466.0 -0.0049502 164.33 0.15862
216.38 28403. undefined 618.57 965.17 2.0763 565.00 0.0017699 618.57 965.17 2.0763 2.5025 2.9341 1467.1 -0.0049464 164.34 0.15880 565.00 0.0017699 618.57 965.17 2.0763 2.5025 2.9341 1467.1 -0.0049464 164.34 0.15880
217.38 28507. undefined 621.07 968.95 2.0814 565.00 0.0017699 621.07 968.95 2.0814 2.5064 2.9374 1468.2 -0.0049426 164.34 0.15899 565.00 0.0017699 621.07 968.95 2.0814 2.5064 2.9374 1468.2 -0.0049426 164.34 0.15899
218.38 28611. undefined 623.58 972.73 2.0865 565.00 0.0017699 623.58 972.73 2.0865 2.5102 2.9407 1469.4 -0.0049388 164.35 0.15918 565.00 0.0017699 623.58 972.73 2.0865 2.5102 2.9407 1469.4 -0.0049388 164.35 0.15918
219.38 28715. undefined 626.09 976.51 2.0916 565.00 0.0017699 626.09 976.51 2.0916 2.5141 2.9439 1470.5 -0.0049350 164.35 0.15937 565.00 0.0017699 626.09 976.51 2.0916 2.5141 2.9439 1470.5 -0.0049350 164.35 0.15937
220.38 28819. undefined 628.61 980.30 2.0967 565.00 0.0017699 628.61 980.30 2.0967 2.5179 2.9472 1471.6 -0.0049311 164.36 0.15956 565.00 0.0017699 628.61 980.30 2.0967 2.5179 2.9472 1471.6 -0.0049311 164.36 0.15956
221.38 28923. undefined 631.13 984.08 2.1018 565.00 0.0017699 631.13 984.08 2.1018 2.5218 2.9505 1472.8 -0.0049273 164.36 0.15975 565.00 0.0017699 631.13 984.08 2.1018 2.5218 2.9505 1472.8 -0.0049273 164.36 0.15975
222.38 29027. undefined 633.65 987.88 2.1069 565.00 0.0017699 633.65 987.88 2.1069 2.5256 2.9537 1473.9 -0.0049235 164.37 0.15994 565.00 0.0017699 633.65 987.88 2.1069 2.5256 2.9537 1473.9 -0.0049235 164.37 0.15994
223.38 29131. undefined 636.18 991.67 2.1120 565.00 0.0017699 636.18 991.67 2.1120 2.5295 2.9570 1475.0 -0.0049197 164.37 0.16013 565.00 0.0017699 636.18 991.67 2.1120 2.5295 2.9570 1475.0 -0.0049197 164.37 0.16013
224.38 29235. undefined 638.71 995.47 2.1171 565.00 0.0017699 638.71 995.47 2.1171 2.5333 2.9602 1476.1 -0.0049159 164.38 0.16032 565.00 0.0017699 638.71 995.47 2.1171 2.5333 2.9602 1476.1 -0.0049159 164.38 0.16032
225.38 29338. undefined 641.25 999.27 2.1222 565.00 0.0017699 641.25 999.27 2.1222 2.5371 2.9635 1477.3 -0.0049121 164.38 0.16051 565.00 0.0017699 641.25 999.27 2.1222 2.5371 2.9635 1477.3 -0.0049121 164.38 0.16051
226.38 29442. undefined 643.79 1003.1 2.1273 565.00 0.0017699 643.79 1003.1 2.1273 2.5410 2.9667 1478.4 -0.0049083 164.39 0.16070 565.00 0.0017699 643.79 1003.1 2.1273 2.5410 2.9667 1478.4 -0.0049083 164.39 0.16070
227.38 29545. undefined 646.33 1006.9 2.1324 565.00 0.0017699 646.33 1006.9 2.1324 2.5448 2.9700 1479.5 -0.0049046 164.39 0.16089 565.00 0.0017699 646.33 1006.9 2.1324 2.5448 2.9700 1479.5 -0.0049046 164.39 0.16089
228.38 29649. undefined 648.88 1010.7 2.1374 565.00 0.0017699 648.88 1010.7 2.1374 2.5486 2.9732 1480.6 -0.0049008 164.40 0.16109 565.00 0.0017699 648.88 1010.7 2.1374 2.5486 2.9732 1480.6 -0.0049008 164.40 0.16109
229.38 29752. undefined 651.43 1014.5 2.1425 565.00 0.0017699 651.43 1014.5 2.1425 2.5524 2.9765 1481.7 -0.0048970 164.40 0.16128 565.00 0.0017699 651.43 1014.5 2.1425 2.5524 2.9765 1481.7 -0.0048970 164.40 0.16128
230.38 29855. undefined 653.98 1018.3 2.1476 565.00 0.0017699 653.98 1018.3 2.1476 2.5562 2.9797 1482.8 -0.0048932 164.41 0.16147 565.00 0.0017699 653.98 1018.3 2.1476 2.5562 2.9797 1482.8 -0.0048932 164.41 0.16147
231.38 29958. undefined 656.54 1022.1 2.1527 565.00 0.0017699 656.54 1022.1 2.1527 2.5600 2.9829 1483.9 -0.0048894 164.41 0.16166 565.00 0.0017699 656.54 1022.1 2.1527 2.5600 2.9829 1483.9 -0.0048894 164.41 0.16166
232.38 30062. undefined 659.10 1025.9 2.1578 565.00 0.0017699 659.10 1025.9 2.1578 2.5638 2.9862 1485.1 -0.0048857 164.42 0.16186 565.00 0.0017699 659.10 1025.9 2.1578 2.5638 2.9862 1485.1 -0.0048857 164.42 0.16186
233.38 30165. undefined 661.67 1029.8 2.1628 565.00 0.0017699 661.67 1029.8 2.1628 2.5676 2.9894 1486.2 -0.0048819 164.42 0.16205 565.00 0.0017699 661.67 1029.8 2.1628 2.5676 2.9894 1486.2 -0.0048819 164.42 0.16205
234.38 30268. undefined 664.24 1033.6 2.1679 565.00 0.0017699 664.24 1033.6 2.1679 2.5714 2.9926 1487.3 -0.0048782 164.43 0.16224 565.00 0.0017699 664.24 1033.6 2.1679 2.5714 2.9926 1487.3 -0.0048782 164.43 0.16224
235.38 30370. undefined 666.81 1037.4 2.1730 565.00 0.0017699 666.81 1037.4 2.1730 2.5751 2.9958 1488.4 -0.0048744 164.44 0.16244 565.00 0.0017699 666.81 1037.4 2.1730 2.5751 2.9958 1488.4 -0.0048744 164.44 0.16244
236.38 30473. undefined 669.39 1041.3 2.1780 565.00 0.0017699 669.39 1041.3 2.1780 2.5789 2.9991 1489.5 -0.0048707 164.44 0.16263 565.00 0.0017699 669.39 1041.3 2.1780 2.5789 2.9991 1489.5 -0.0048707 164.44 0.16263
237.38 30576. undefined 671.97 1045.1 2.1831 565.00 0.0017699 671.97 1045.1 2.1831 2.5827 3.0023 1490.6 -0.0048669 164.45 0.16282 565.00 0.0017699 671.97 1045.1 2.1831 2.5827 3.0023 1490.6 -0.0048669 164.45 0.16282
238.38 30679. undefined 674.55 1048.9 2.1881 565.00 0.0017699 674.55 1048.9 2.1881 2.5864 3.0055 1491.7 -0.0048632 164.45 0.16302 565.00 0.0017699 674.55 1048.9 2.1881 2.5864 3.0055 1491.7 -0.0048632 164.45 0.16302
239.38 30781. undefined 677.14 1052.8 2.1932 565.00 0.0017699 677.14 1052.8 2.1932 2.5902 3.0087 1492.8 -0.0048594 164.46 0.16321 565.00 0.0017699 677.14 1052.8 2.1932 2.5902 3.0087 1492.8 -0.0048594 164.46 0.16321
240.38 30884. undefined 679.73 1056.6 2.1982 565.00 0.0017699 679.73 1056.6 2.1982 2.5939 3.0119 1493.9 -0.0048557 164.47 0.16341 565.00 0.0017699 679.73 1056.6 2.1982 2.5939 3.0119 1493.9 -0.0048557 164.47 0.16341
241.38 30986. undefined 682.33 1060.5 2.2033 565.00 0.0017699 682.33 1060.5 2.2033 2.5977 3.0151 1494.9 -0.0048520 164.47 0.16360 565.00 0.0017699 682.33 1060.5 2.2033 2.5977 3.0151 1494.9 -0.0048520 164.47 0.16360
242.38 31089. undefined 684.93 1064.3 2.2083 565.00 0.0017699 684.93 1064.3 2.2083 2.6014 3.0183 1496.0 -0.0048483 164.48 0.16380 565.00 0.0017699 684.93 1064.3 2.2083 2.6014 3.0183 1496.0 -0.0048483 164.48 0.16380
243.38 31191. undefined 687.53 1068.2 2.2134 565.00 0.0017699 687.53 1068.2 2.2134 2.6052 3.0215 1497.1 -0.0048446 164.49 0.16400 565.00 0.0017699 687.53 1068.2 2.2134 2.6052 3.0215 1497.1 -0.0048446 164.49 0.16400
244.38 31293. undefined 690.14 1072.0 2.2184 565.00 0.0017699 690.14 1072.0 2.2184 2.6089 3.0247 1498.2 -0.0048408 164.49 0.16419 565.00 0.0017699 690.14 1072.0 2.2184 2.6089 3.0247 1498.2 -0.0048408 164.49 0.16419
245.38 31395. undefined 692.75 1075.9 2.2235 565.00 0.0017699 692.75 1075.9 2.2235 2.6126 3.0279 1499.3 -0.0048371 164.50 0.16439 565.00 0.0017699 692.75 1075.9 2.2235 2.6126 3.0279 1499.3 -0.0048371 164.50 0.16439
246.38 31497. undefined 695.36 1079.7 2.2285 565.00 0.0017699 695.36 1079.7 2.2285 2.6163 3.0311 1500.4 -0.0048334 164.50 0.16459 565.00 0.0017699 695.36 1079.7 2.2285 2.6163 3.0311 1500.4 -0.0048334 164.50 0.16459
247.38 31600. undefined 697.98 1083.6 2.2335 565.00 0.0017699 697.98 1083.6 2.2335 2.6201 3.0343 1501.5 -0.0048298 164.51 0.16478 565.00 0.0017699 697.98 1083.6 2.2335 2.6201 3.0343 1501.5 -0.0048298 164.51 0.16478
248.38 31701. undefined 700.60 1087.5 2.2386 565.00 0.0017699 700.60 1087.5 2.2386 2.6238 3.0375 1502.5 -0.0048261 164.52 0.16498 565.00 0.0017699 700.60 1087.5 2.2386 2.6238 3.0375 1502.5 -0.0048261 164.52 0.16498
249.38 31803. undefined 703.23 1091.3 2.2436 565.00 0.0017699 703.23 1091.3 2.2436 2.6275 3.0407 1503.6 -0.0048224 164.53 0.16518 565.00 0.0017699 703.23 1091.3 2.2436 2.6275 3.0407 1503.6 -0.0048224 164.53 0.16518
250.38 31905. undefined 705.86 1095.2 2.2486 565.00 0.0017699 705.86 1095.2 2.2486 2.6312 3.0438 1504.7 -0.0048187 164.53 0.16538 565.00 0.0017699 705.86 1095.2 2.2486 2.6312 3.0438 1504.7 -0.0048187 164.53 0.16538
251.38 32007. undefined 708.49 1099.1 2.2537 565.00 0.0017699 708.49 1099.1 2.2537 2.6348 3.0470 1505.8 -0.0048150 164.54 0.16558 565.00 0.0017699 708.49 1099.1 2.2537 2.6348 3.0470 1505.8 -0.0048150 164.54 0.16558
252.38 32109. undefined 711.13 1103.0 2.2587 565.00 0.0017699 711.13 1103.0 2.2587 2.6385 3.0502 1506.8 -0.0048114 164.55 0.16577 565.00 0.0017699 711.13 1103.0 2.2587 2.6385 3.0502 1506.8 -0.0048114 164.55 0.16577
253.38 32210. undefined 713.77 1106.8 2.2637 565.00 0.0017699 713.77 1106.8 2.2637 2.6422 3.0534 1507.9 -0.0048077 164.55 0.16597 565.00 0.0017699 713.77 1106.8 2.2637 2.6422 3.0534 1507.9 -0.0048077 164.55 0.16597
254.38 32312. undefined 716.41 1110.7 2.2687 565.00 0.0017699 716.41 1110.7 2.2687 2.6459 3.0565 1509.0 -0.0048041 164.56 0.16617 565.00 0.0017699 716.41 1110.7 2.2687 2.6459 3.0565 1509.0 -0.0048041 164.56 0.16617
255.38 32413. undefined 719.06 1114.6 2.2737 565.00 0.0017699 719.06 1114.6 2.2737 2.6496 3.0597 1510.0 -0.0048004 164.57 0.16637 565.00 0.0017699 719.06 1114.6 2.2737 2.6496 3.0597 1510.0 -0.0048004 164.57 0.16637
256.38 32515. undefined 721.71 1118.5 2.2787 565.00 0.0017699 721.71 1118.5 2.2787 2.6532 3.0629 1511.1 -0.0047968 164.57 0.16657 565.00 0.0017699 721.71 1118.5 2.2787 2.6532 3.0629 1511.1 -0.0047968 164.57 0.16657
257.38 32616. undefined 724.37 1122.4 2.2837 565.00 0.0017699 724.37 1122.4 2.2837 2.6569 3.0660 1512.2 -0.0047931 164.58 0.16677 565.00 0.0017699 724.37 1122.4 2.2837 2.6569 3.0660 1512.2 -0.0047931 164.58 0.16677
258.38 32717. undefined 727.03 1126.3 2.2888 565.00 0.0017699 727.03 1126.3 2.2888 2.6605 3.0692 1513.2 -0.0047895 164.59 0.16697 565.00 0.0017699 727.03 1126.3 2.2888 2.6605 3.0692 1513.2 -0.0047895 164.59 0.16697
259.38 32818. undefined 729.69 1130.2 2.2938 565.00 0.0017699 729.69 1130.2 2.2938 2.6642 3.0723 1514.3 -0.0047859 164.60 0.16717 565.00 0.0017699 729.69 1130.2 2.2938 2.6642 3.0723 1514.3 -0.0047859 164.60 0.16717
260.38 32920. undefined 732.35 1134.1 2.2988 565.00 0.0017699 732.35 1134.1 2.2988 2.6678 3.0755 1515.4 -0.0047822 164.60 0.16737 565.00 0.0017699 732.35 1134.1 2.2988 2.6678 3.0755 1515.4 -0.0047822 164.60 0.16737
261.38 33021. undefined 735.02 1138.0 2.3038 565.00 0.0017699 735.02 1138.0 2.3038 2.6715 3.0786 1516.4 -0.0047786 164.61 0.16758 565.00 0.0017699 735.02 1138.0 2.3038 2.6715 3.0786 1516.4 -0.0047786 164.61 0.16758
262.38 33122. undefined 737.70 1141.9 2.3088 565.00 0.0017699 737.70 1141.9 2.3088 2.6751 3.0818 1517.5 -0.0047750 164.62 0.16778 565.00 0.0017699 737.70 1141.9 2.3088 2.6751 3.0818 1517.5 -0.0047750 164.62 0.16778
263.38 33223. undefined 740.37 1145.8 2.3137 565.00 0.0017699 740.37 1145.8 2.3137 2.6787 3.0849 1518.5 -0.0047714 164.63 0.16798 565.00 0.0017699 740.37 1145.8 2.3137 2.6787 3.0849 1518.5 -0.0047714 164.63 0.16798
264.38 33323. undefined 743.05 1149.7 2.3187 565.00 0.0017699 743.05 1149.7 2.3187 2.6824 3.0880 1519.6 -0.0047678 164.63 0.16818 565.00 0.0017699 743.05 1149.7 2.3187 2.6824 3.0880 1519.6 -0.0047678 164.63 0.16818
265.38 33424. undefined 745.74 1153.6 2.3237 565.00 0.0017699 745.74 1153.6 2.3237 2.6860 3.0912 1520.6 -0.0047642 164.64 0.16838 565.00 0.0017699 745.74 1153.6 2.3237 2.6860 3.0912 1520.6 -0.0047642 164.64 0.16838
266.38 33525. undefined 748.43 1157.5 2.3287 565.00 0.0017699 748.43 1157.5 2.3287 2.6896 3.0943 1521.7 -0.0047606 164.65 0.16859 565.00 0.0017699 748.43 1157.5 2.3287 2.6896 3.0943 1521.7 -0.0047606 164.65 0.16859
267.38 33626. undefined 751.12 1161.5 2.3337 565.00 0.0017699 751.12 1161.5 2.3337 2.6932 3.0974 1522.7 -0.0047571 164.66 0.16879 565.00 0.0017699 751.12 1161.5 2.3337 2.6932 3.0974 1522.7 -0.0047571 164.66 0.16879
268.38 33726. undefined 753.81 1165.4 2.3387 565.00 0.0017699 753.81 1165.4 2.3387 2.6968 3.1005 1523.8 -0.0047535 164.67 0.16899 565.00 0.0017699 753.81 1165.4 2.3387 2.6968 3.1005 1523.8 -0.0047535 164.67 0.16899
269.38 33827. undefined 756.51 1169.3 2.3437 565.00 0.0017699 756.51 1169.3 2.3437 2.7004 3.1037 1524.8 -0.0047499 164.67 0.16920 565.00 0.0017699 756.51 1169.3 2.3437 2.7004 3.1037 1524.8 -0.0047499 164.67 0.16920
270.38 33927. undefined 759.21 1173.2 2.3486 565.00 0.0017699 759.21 1173.2 2.3486 2.7040 3.1068 1525.9 -0.0047464 164.68 0.16940 565.00 0.0017699 759.21 1173.2 2.3486 2.7040 3.1068 1525.9 -0.0047464 164.68 0.16940
271.38 34027. undefined 761.92 1177.2 2.3536 565.00 0.0017699 761.92 1177.2 2.3536 2.7076 3.1099 1526.9 -0.0047428 164.69 0.16961 565.00 0.0017699 761.92 1177.2 2.3536 2.7076 3.1099 1526.9 -0.0047428 164.69 0.16961
272.38 34128. undefined 764.63 1181.1 2.3586 565.00 0.0017699 764.63 1181.1 2.3586 2.7112 3.1130 1527.9 -0.0047392 164.70 0.16981 565.00 0.0017699 764.63 1181.1 2.3586 2.7112 3.1130 1527.9 -0.0047392 164.70 0.16981
273.38 34228. undefined 767.34 1185.0 2.3635 565.00 0.0017699 767.34 1185.0 2.3635 2.7147 3.1161 1529.0 -0.0047357 164.71 0.17002 565.00 0.0017699 767.34 1185.0 2.3635 2.7147 3.1161 1529.0 -0.0047357 164.71 0.17002
274.38 34328. undefined 770.06 1189.0 2.3685 565.00 0.0017699 770.06 1189.0 2.3685 2.7183 3.1192 1530.0 -0.0047322 164.71 0.17022 565.00 0.0017699 770.06 1189.0 2.3685 2.7183 3.1192 1530.0 -0.0047322 164.71 0.17022
275.38 34428. undefined 772.78 1192.9 2.3735 565.00 0.0017699 772.78 1192.9 2.3735 2.7219 3.1223 1531.0 -0.0047286 164.72 0.17043 565.00 0.0017699 772.78 1192.9 2.3735 2.7219 3.1223 1531.0 -0.0047286 164.72 0.17043
276.38 34528. undefined 775.50 1196.9 2.3784 565.00 0.0017699 775.50 1196.9 2.3784 2.7254 3.1254 1532.1 -0.0047251 164.73 0.17063 565.00 0.0017699 775.50 1196.9 2.3784 2.7254 3.1254 1532.1 -0.0047251 164.73 0.17063
277.38 34628. undefined 778.23 1200.8 2.3834 565.00 0.0017699 778.23 1200.8 2.3834 2.7290 3.1285 1533.1 -0.0047216 164.74 0.17084 565.00 0.0017699 778.23 1200.8 2.3834 2.7290 3.1285 1533.1 -0.0047216 164.74 0.17084
278.38 34728. undefined 780.96 1204.8 2.3884 565.00 0.0017699 780.96 1204.8 2.3884 2.7326 3.1316 1534.1 -0.0047181 164.75 0.17104 565.00 0.0017699 780.96 1204.8 2.3884 2.7326 3.1316 1534.1 -0.0047181 164.75 0.17104
279.38 34828. undefined 783.69 1208.7 2.3933 565.00 0.0017699 783.69 1208.7 2.3933 2.7361 3.1347 1535.2 -0.0047146 164.75 0.17125 565.00 0.0017699 783.69 1208.7 2.3933 2.7361 3.1347 1535.2 -0.0047146 164.75 0.17125
280.38 34928. undefined 786.43 1212.7 2.3983 565.00 0.0017699 786.43 1212.7 2.3983 2.7396 3.1378 1536.2 -0.0047111 164.76 0.17146 565.00 0.0017699 786.43 1212.7 2.3983 2.7396 3.1378 1536.2 -0.0047111 164.76 0.17146
281.38 35028. undefined 789.17 1216.6 2.4032 565.00 0.0017699 789.17 1216.6 2.4032 2.7432 3.1408 1537.2 -0.0047076 164.77 0.17166 565.00 0.0017699 789.17 1216.6 2.4032 2.7432 3.1408 1537.2 -0.0047076 164.77 0.17166
282.38 35127. undefined 791.92 1220.6 2.4082 565.00 0.0017699 791.92 1220.6 2.4082 2.7467 3.1439 1538.2 -0.0047041 164.78 0.17164 565.00 0.0017699 791.92 1220.6 2.4082 2.7467 3.1439 1538.2 -0.0047041 164.78 0.17164
283.38 35227. undefined 794.67 1224.5 2.4131 565.00 0.0017699 794.67 1224.5 2.4131 2.7502 3.1470 1539.3 -0.0047006 164.79 0.17185 565.00 0.0017699 794.67 1224.5 2.4131 2.7502 3.1470 1539.3 -0.0047006 164.79 0.17185
284.38 35326. undefined 797.42 1228.5 2.4180 565.00 0.0017699 797.42 1228.5 2.4180 2.7538 3.1501 1540.3 -0.0046971 164.80 0.17206 565.00 0.0017699 797.42 1228.5 2.4180 2.7538 3.1501 1540.3 -0.0046971 164.80 0.17206
285.38 35426. undefined 800.17 1232.5 2.4230 565.00 0.0017699 800.17 1232.5 2.4230 2.7573 3.1531 1541.3 -0.0046937 164.81 0.17227 565.00 0.0017699 800.17 1232.5 2.4230 2.7573 3.1531 1541.3 -0.0046937 164.81 0.17227
286.38 35525. undefined 802.93 1236.5 2.4279 565.00 0.0017699 802.93 1236.5 2.4279 2.7608 3.1562 1542.3 -0.0046902 164.81 0.17247 565.00 0.0017699 802.93 1236.5 2.4279 2.7608 3.1562 1542.3 -0.0046902 164.81 0.17247
287.38 35625. undefined 805.70 1240.4 2.4328 565.00 0.0017699 805.70 1240.4 2.4328 2.7643 3.1592 1543.3 -0.0046867 164.82 0.17268 565.00 0.0017699 805.70 1240.4 2.4328 2.7643 3.1592 1543.3 -0.0046867 164.82 0.17268
288.38 35724. undefined 808.46 1244.4 2.4378 565.00 0.0017699 808.46 1244.4 2.4378 2.7678 3.1623 1544.4 -0.0046833 164.83 0.17289 565.00 0.0017699 808.46 1244.4 2.4378 2.7678 3.1623 1544.4 -0.0046833 164.83 0.17289
289.38 35823. undefined 811.23 1248.4 2.4427 565.00 0.0017699 811.23 1248.4 2.4427 2.7713 3.1654 1545.4 -0.0046798 164.84 0.17310 565.00 0.0017699 811.23 1248.4 2.4427 2.7713 3.1654 1545.4 -0.0046798 164.84 0.17310
290.38 35922. undefined 814.00 1252.4 2.4476 565.00 0.0017699 814.00 1252.4 2.4476 2.7748 3.1684 1546.4 -0.0046764 164.85 0.17331 565.00 0.0017699 814.00 1252.4 2.4476 2.7748 3.1684 1546.4 -0.0046764 164.85 0.17331
291.38 36021. undefined 816.78 1256.4 2.4525 565.00 0.0017699 816.78 1256.4 2.4525 2.7783 3.1714 1547.4 -0.0046730 164.86 0.17352 565.00 0.0017699 816.78 1256.4 2.4525 2.7783 3.1714 1547.4 -0.0046730 164.86 0.17352
292.38 36120. undefined 819.56 1260.3 2.4575 565.00 0.0017699 819.56 1260.3 2.4575 2.7817 3.1745 1548.4 -0.0046696 164.87 0.17373 565.00 0.0017699 819.56 1260.3 2.4575 2.7817 3.1745 1548.4 -0.0046696 164.87 0.17373
293.38 36219. undefined 822.34 1264.3 2.4624 565.00 0.0017699 822.34 1264.3 2.4624 2.7852 3.1775 1549.4 -0.0046661 164.88 0.17394 565.00 0.0017699 822.34 1264.3 2.4624 2.7852 3.1775 1549.4 -0.0046661 164.88 0.17394
294.38 36318. undefined 825.13 1268.3 2.4673 565.00 0.0017699 825.13 1268.3 2.4673 2.7887 3.1806 1550.4 -0.0046627 164.89 0.17415 565.00 0.0017699 825.13 1268.3 2.4673 2.7887 3.1806 1550.4 -0.0046627 164.89 0.17415
295.38 36417. undefined 827.92 1272.3 2.4722 565.00 0.0017699 827.92 1272.3 2.4722 2.7921 3.1836 1551.4 -0.0046593 164.89 0.17436 565.00 0.0017699 827.92 1272.3 2.4722 2.7921 3.1836 1551.4 -0.0046593 164.89 0.17436
296.38 36516. undefined 830.72 1276.3 2.4771 565.00 0.0017699 830.72 1276.3 2.4771 2.7956 3.1866 1552.4 -0.0046559 164.90 0.17457 565.00 0.0017699 830.72 1276.3 2.4771 2.7956 3.1866 1552.4 -0.0046559 164.90 0.17457
297.38 36615. undefined 833.51 1280.3 2.4820 565.00 0.0017699 833.51 1280.3 2.4820 2.7991 3.1897 1553.4 -0.0046525 164.91 0.17478 565.00 0.0017699 833.51 1280.3 2.4820 2.7991 3.1897 1553.4 -0.0046525 164.91 0.17478
298.38 36713. undefined 836.31 1284.3 2.4869 565.00 0.0017699 836.31 1284.3 2.4869 2.8025 3.1927 1554.4 -0.0046491 164.92 0.17499 565.00 0.0017699 836.31 1284.3 2.4869 2.8025 3.1927 1554.4 -0.0046491 164.92 0.17499
299.38 36812. undefined 839.12 1288.3 2.4918 565.00 0.0017699 839.12 1288.3 2.4918 2.8060 3.1957 1555.4 -0.0046458 164.93 0.17521 565.00 0.0017699 839.12 1288.3 2.4918 2.8060 3.1957 1555.4 -0.0046458 164.93 0.17521
300.38 36910. undefined 841.93 1292.3 2.4967 565.00 0.0017699 841.93 1292.3 2.4967 2.8094 3.1987 1556.4 -0.0046424 164.94 0.17542 565.00 0.0017699 841.93 1292.3 2.4967 2.8094 3.1987 1556.4 -0.0046424 164.94 0.17542