Temperature (C) Pressure (psia) Quality (l+v) Internal Energy (l+v, kJ/kg) Enthalpy (l+v, kJ/kg) Entropy (l+v, J/g*K) Density (l, kg/m3) Volume (l, m3/kg) Internal Energy (l, kJ/kg) Enthalpy (l, kJ/kg) Entropy (l, J/g*K) Cv (l, J/g*K) Cp (l, J/g*K) Sound Spd. (l, m/s) Joule-Thomson (l, F/psia) Viscosity (l, uPa*s) Therm. Cond. (l, W/m*K) Density (v, kg/m3) Volume (v, m3/kg) Internal Energy (v, kJ/kg) Enthalpy (v, kJ/kg) Entropy (v, J/g*K) Cv (v, J/g*K) Cp (v, J/g*K) Sound Spd. (v, m/s) Joule-Thomson (v, F/psia) Viscosity (v, uPa*s) Therm. Cond. (v, W/m*K)
-187.62 2.4953e-08 4.1647e-12 -196.64 -196.64 -1.3959 733.13 0.0013640 -196.64 -196.64 -1.3959 1.3553 1.9158 2136.4 -0.0077592 10960. 0.20792 1.0669e-08 9.3732e+07 350.13 366.26 5.1858 0.69067 0.87923 143.28 6.1051 2.3259 0.0017061
-186.62 3.7339e-08 6.1292e-12 -194.73 -194.73 -1.3736 732.08 0.0013660 -194.73 -194.73 -1.3736 1.3539 1.9166 2129.6 -0.0077546 10073. 0.20765 1.5780e-08 6.3371e+07 350.82 367.14 5.1200 0.69462 0.88317 144.03 5.9178 2.3534 0.0017533
-185.62 5.5322e-08 8.9322e-12 -192.81 -192.81 -1.3516 731.04 0.0013679 -192.81 -192.81 -1.3516 1.3525 1.9174 2122.9 -0.0077498 9276.1 0.20737 2.3112e-08 4.3267e+07 351.52 368.02 5.0561 0.69857 0.88713 144.77 5.7383 2.3808 0.0018007
-184.62 8.1182e-08 1.2894e-11 -190.89 -190.89 -1.3298 730.00 0.0013699 -190.89 -190.89 -1.3298 1.3513 1.9182 2116.1 -0.0077448 8557.8 0.20708 3.3533e-08 2.9821e+07 352.22 368.91 4.9939 0.70253 0.89108 145.51 5.5662 2.4083 0.0018485
-183.62 1.1803e-07 1.8444e-11 -188.97 -188.97 -1.3083 728.96 0.0013718 -188.97 -188.97 -1.3083 1.3501 1.9191 2109.3 -0.0077395 7909.8 0.20678 4.8211e-08 2.0742e+07 352.92 369.81 4.9333 0.70648 0.89504 146.24 5.4011 2.4357 0.0018965
-182.62 1.7009e-07 2.6149e-11 -187.05 -187.05 -1.2869 727.92 0.0013738 -187.05 -187.05 -1.2869 1.3490 1.9201 2102.5 -0.0077340 7324.3 0.20647 6.8704e-08 1.4555e+07 353.63 370.70 4.8744 0.71043 0.89899 146.97 5.2426 2.4632 0.0019448
-181.62 2.4299e-07 3.6759e-11 -185.13 -185.13 -1.2658 726.88 0.0013757 -185.13 -185.13 -1.2658 1.3480 1.9210 2095.7 -0.0077283 6794.5 0.20616 9.7079e-08 1.0301e+07 354.35 371.60 4.8170 0.71438 0.90294 147.69 5.0904 2.4906 0.0019934
-180.62 3.4425e-07 5.1248e-11 -183.21 -183.21 -1.2450 725.85 0.0013777 -183.21 -183.21 -1.2450 1.3470 1.9220 2088.9 -0.0077225 6314.4 0.20584 1.3605e-07 7.3504e+06 355.06 372.51 4.7612 0.71833 0.90688 148.41 4.9442 2.5181 0.0020423
-179.62 4.8378e-07 7.0878e-11 -181.29 -181.29 -1.2243 724.81 0.0013797 -181.29 -181.29 -1.2243 1.3461 1.9231 2082.0 -0.0077164 5878.8 0.20551 1.8915e-07 5.2868e+06 355.78 373.42 4.7068 0.72227 0.91082 149.13 4.8038 2.5456 0.0020915
-178.62 6.7459e-07 9.7274e-11 -179.37 -179.37 -1.2038 723.78 0.0013816 -179.37 -179.37 -1.2038 1.3453 1.9241 2075.2 -0.0077102 5482.9 0.20517 2.6096e-07 3.8320e+06 356.51 374.33 4.6538 0.72620 0.91475 149.84 4.6688 2.5731 0.0021410
-177.62 9.3358e-07 1.3251e-10 -177.44 -177.44 -1.1836 722.75 0.0013836 -177.44 -177.44 -1.1836 1.3445 1.9252 2068.4 -0.0077039 5122.6 0.20483 3.5737e-07 2.7982e+06 357.23 375.25 4.6022 0.73012 0.91867 150.54 4.5390 2.6005 0.0021907
-176.62 1.2826e-06 1.7920e-10 -175.52 -175.52 -1.1635 721.72 0.0013856 -175.52 -175.52 -1.1635 1.3437 1.9263 2061.5 -0.0076973 4794.1 0.20447 4.8588e-07 2.0581e+06 357.97 376.17 4.5519 0.73403 0.92258 151.25 4.4142 2.6280 0.0022408
-175.62 1.7496e-06 2.4064e-10 -173.59 -173.59 -1.1437 720.69 0.0013876 -173.59 -173.59 -1.1437 1.3430 1.9274 2054.7 -0.0076907 4494.3 0.20411 6.5601e-07 1.5244e+06 358.70 377.09 4.5029 0.73792 0.92648 151.95 4.2941 2.6555 0.0022912
-174.62 2.3705e-06 3.2098e-10 -171.66 -171.66 -1.1240 719.66 0.0013895 -171.66 -171.66 -1.1240 1.3423 1.9286 2047.9 -0.0076838 4220.2 0.20375 8.7976e-07 1.1367e+06 359.44 378.02 4.4551 0.74181 0.93036 152.64 4.1784 2.6830 0.0023418
-173.62 3.1903e-06 4.2532e-10 -169.73 -169.73 -1.1045 718.64 0.0013915 -169.73 -169.73 -1.1045 1.3417 1.9298 2041.0 -0.0076769 3969.3 0.20338 1.1721e-06 8.5314e+05 360.19 378.95 4.4085 0.74568 0.93423 153.33 4.0671 2.7105 0.0023928
-172.62 4.2661e-06 5.6000e-10 -167.80 -167.80 -1.0852 717.61 0.0013935 -167.80 -167.80 -1.0852 1.3411 1.9310 2034.2 -0.0076698 3739.3 0.20300 1.5518e-06 6.4441e+05 360.93 379.89 4.3631 0.74953 0.93809 154.02 3.9599 2.7379 0.0024440
-171.62 5.6692e-06 7.3279e-10 -165.87 -165.87 -1.0661 716.58 0.0013955 -165.87 -165.87 -1.0661 1.3405 1.9322 2027.3 -0.0076625 3528.0 0.20261 2.0419e-06 4.8974e+05 361.69 380.83 4.3188 0.75337 0.94193 154.71 3.8566 2.7654 0.0024955
-170.62 7.4884e-06 9.5315e-10 -163.94 -163.94 -1.0472 715.56 0.0013975 -163.94 -163.94 -1.0472 1.3400 1.9334 2020.5 -0.0076552 3333.8 0.20222 2.6708e-06 3.7442e+05 362.44 381.77 4.2755 0.75720 0.94575 155.39 3.7570 2.7929 0.0025473
-169.62 9.8334e-06 1.2326e-09 -162.00 -162.00 -1.0284 714.54 0.0013995 -162.00 -162.00 -1.0284 1.3395 1.9347 2013.6 -0.0076477 3154.9 0.20182 3.4733e-06 2.8791e+05 363.20 382.72 4.2334 0.76100 0.94956 156.07 3.6609 2.8204 0.0025994
-168.62 1.2839e-05 1.5850e-09 -160.07 -160.07 -1.0098 713.52 0.0014015 -160.07 -160.07 -1.0098 1.3390 1.9359 2006.8 -0.0076401 2989.9 0.20141 4.4917e-06 2.2263e+05 363.96 383.67 4.1922 0.76479 0.95335 156.74 3.5683 2.8479 0.0026518
-167.62 1.6672e-05 2.0270e-09 -158.13 -158.13 -0.99134 712.49 0.0014035 -158.13 -158.13 -0.99134 1.3386 1.9372 2000.0 -0.0076323 2837.5 0.20100 5.7771e-06 1.7310e+05 364.73 384.63 4.1521 0.76856 0.95712 157.41 3.4790 2.8754 0.0027045
-166.62 2.1533e-05 2.5785e-09 -156.19 -156.19 -0.97306 711.47 0.0014055 -156.19 -156.19 -0.97306 1.3382 1.9385 1993.1 -0.0076245 2696.5 0.20058 7.3914e-06 1.3529e+05 365.50 385.59 4.1129 0.77232 0.96087 158.08 3.3927 2.9029 0.0027575
-165.62 2.7666e-05 3.2632e-09 -154.25 -154.25 -0.95494 710.45 0.0014075 -154.25 -154.25 -0.95494 1.3378 1.9398 1986.3 -0.0076165 2566.0 0.20016 9.4084e-06 1.0629e+05 366.27 386.55 4.0746 0.77605 0.96460 158.75 3.3095 2.9304 0.0028108
-164.62 3.5367e-05 4.1090e-09 -152.31 -152.31 -0.93698 709.44 0.0014096 -152.31 -152.31 -0.93698 1.3375 1.9411 1979.4 -0.0076084 2444.9 0.19973 1.1916e-05 83918. 367.05 387.52 4.0372 0.77976 0.96832 159.41 3.2291 2.9579 0.0028643
-163.62 4.4989e-05 5.1488e-09 -150.37 -150.37 -0.91917 708.42 0.0014116 -150.37 -150.37 -0.91917 1.3371 1.9424 1972.6 -0.0076002 2332.3 0.19930 1.5020e-05 66577. 367.83 388.49 4.0008 0.78346 0.97201 160.07 3.1514 2.9854 0.0029182
-162.62 5.6956e-05 6.4211e-09 -148.43 -148.43 -0.90151 707.40 0.0014136 -148.43 -148.43 -0.90151 1.3368 1.9437 1965.8 -0.0075919 2227.7 0.19886 1.8844e-05 53068. 368.62 389.46 3.9651 0.78713 0.97569 160.72 3.0764 3.0129 0.0029723
-161.62 7.1773e-05 7.9711e-09 -146.48 -146.48 -0.88400 706.38 0.0014157 -146.48 -146.48 -0.88400 1.3365 1.9451 1959.0 -0.0075834 2130.2 0.19841 2.3533e-05 42494. 369.41 390.44 3.9304 0.79079 0.97935 161.38 3.0038 3.0404 0.0030268
-160.62 9.0036e-05 9.8509e-09 -144.54 -144.54 -0.86663 705.37 0.0014177 -144.54 -144.54 -0.86663 1.3363 1.9465 1952.1 -0.0075748 2039.2 0.19796 2.9258e-05 34178. 370.20 391.42 3.8964 0.79443 0.98298 162.03 2.9337 3.0679 0.0030815
-159.62 0.00011245 1.2121e-08 -142.59 -142.59 -0.84940 704.35 0.0014197 -142.59 -142.59 -0.84940 1.3360 1.9478 1945.3 -0.0075661 1954.2 0.19751 3.6221e-05 27609. 371.00 392.40 3.8632 0.79805 0.98660 162.68 2.8658 3.0955 0.0031365
-158.62 0.00013985 1.4851e-08 -140.64 -140.64 -0.83231 703.34 0.0014218 -140.64 -140.64 -0.83231 1.3358 1.9492 1938.5 -0.0075573 1874.8 0.19705 4.4652e-05 22395. 371.80 393.39 3.8307 0.80164 0.99020 163.32 2.8002 3.1230 0.0031918
-157.62 0.00017320 1.8121e-08 -138.69 -138.69 -0.81536 702.32 0.0014238 -138.69 -138.69 -0.81536 1.3356 1.9506 1931.7 -0.0075484 1800.3 0.19658 5.4822e-05 18241. 372.60 394.38 3.7990 0.80522 0.99378 163.96 2.7367 3.1505 0.0032474
-156.62 0.00021364 2.2022e-08 -136.74 -136.74 -0.79854 701.31 0.0014259 -136.74 -136.74 -0.79854 1.3354 1.9520 1924.9 -0.0075393 1730.5 0.19611 6.7040e-05 14916. 373.41 395.38 3.7680 0.80878 0.99734 164.60 2.6752 3.1780 0.0033033
-155.62 0.00026248 2.6658e-08 -134.79 -134.79 -0.78185 700.30 0.0014280 -134.79 -134.79 -0.78185 1.3352 1.9534 1918.1 -0.0075302 1664.9 0.19564 8.1666e-05 12245. 374.22 396.38 3.7377 0.81232 1.0009 165.24 2.6157 3.2055 0.0033595
-154.62 0.00032125 3.2147e-08 -132.83 -132.83 -0.76530 699.29 0.0014300 -132.83 -132.83 -0.76530 1.3350 1.9548 1911.3 -0.0075209 1603.3 0.19516 9.9109e-05 10090. 375.03 397.38 3.7081 0.81585 1.0044 165.87 2.5580 3.2330 0.0034160
-153.62 0.00039171 3.8622e-08 -130.88 -130.88 -0.74887 698.27 0.0014321 -130.88 -130.88 -0.74887 1.3349 1.9563 1904.5 -0.0075114 1545.3 0.19468 0.00011984 8344.6 375.85 398.39 3.6792 0.81935 1.0079 166.50 2.5022 3.2606 0.0034727
-152.62 0.00047590 4.6233e-08 -128.92 -128.92 -0.73256 697.26 0.0014342 -128.92 -128.92 -0.73256 1.3348 1.9577 1897.8 -0.0075019 1490.6 0.19419 0.00014439 6925.9 376.67 399.40 3.6509 0.82284 1.0114 167.13 2.4481 3.2881 0.0035298
-151.62 0.00057613 5.5148e-08 -126.96 -126.96 -0.71638 696.25 0.0014363 -126.96 -126.96 -0.71638 1.3346 1.9592 1891.0 -0.0074922 1438.9 0.19370 0.00017336 5768.4 377.49 400.41 3.6232 0.82631 1.0149 167.76 2.3957 3.3156 0.0035872
-150.62 0.00069507 6.5557e-08 -125.00 -125.00 -0.70032 695.24 0.0014384 -125.00 -125.00 -0.70032 1.3345 1.9606 1884.2 -0.0074824 1390.2 0.19320 0.00020744 4820.7 378.32 401.42 3.5962 0.82976 1.0183 168.38 2.3448 3.3431 0.0036448
-149.62 0.00083574 7.7669e-08 -123.04 -123.04 -0.68438 694.23 0.0014404 -123.04 -123.04 -0.68438 1.3345 1.9621 1877.4 -0.0074724 1344.0 0.19270 0.00024740 4042.0 379.15 402.44 3.5697 0.83319 1.0218 169.00 2.2956 3.3706 0.0037027
-148.62 0.0010016 9.1717e-08 -121.08 -121.08 -0.66855 693.22 0.0014425 -121.08 -121.08 -0.66855 1.3344 1.9636 1870.7 -0.0074623 1300.3 0.19220 0.00029412 3400.0 379.99 403.47 3.5438 0.83661 1.0252 169.62 2.2478 3.3982 0.0037610
-147.62 0.0011965 1.0796e-07 -119.11 -119.11 -0.65284 692.21 0.0014447 -119.11 -119.11 -0.65284 1.3343 1.9651 1863.9 -0.0074521 1258.9 0.19169 0.00034856 2869.0 380.83 404.49 3.5185 0.84001 1.0286 170.24 2.2014 3.4257 0.0038195
-146.62 0.0014249 1.2668e-07 -117.15 -117.15 -0.63724 691.20 0.0014468 -117.15 -117.15 -0.63724 1.3343 1.9666 1857.2 -0.0074417 1219.6 0.19117 0.00041181 2428.3 381.67 405.52 3.4938 0.84340 1.0320 170.85 2.1565 3.4532 0.0038783
-145.62 0.0016917 1.4820e-07 -115.18 -115.18 -0.62175 690.19 0.0014489 -115.18 -115.18 -0.62175 1.3343 1.9682 1850.4 -0.0074312 1182.3 0.19066 0.00048510 2061.4 382.51 406.56 3.4695 0.84677 1.0353 171.46 2.1128 3.4807 0.0039374
-144.62 0.0020026 1.7285e-07 -113.21 -113.21 -0.60637 689.18 0.0014510 -113.21 -113.21 -0.60637 1.3343 1.9697 1843.7 -0.0074206 1146.8 0.19014 0.00056976 1755.1 383.36 407.59 3.4458 0.85012 1.0387 172.07 2.0705 3.5082 0.0039967
-143.62 0.0023637 2.0103e-07 -111.24 -111.24 -0.59110 688.17 0.0014531 -111.24 -111.24 -0.59110 1.3343 1.9713 1836.9 -0.0074098 1113.0 0.18962 0.00066731 1498.6 384.21 408.63 3.4226 0.85346 1.0420 172.68 2.0294 3.5358 0.0040564
-142.62 0.0027820 2.3313e-07 -109.27 -109.27 -0.57593 687.16 0.0014553 -109.27 -109.27 -0.57593 1.3343 1.9728 1830.2 -0.0073988 1080.8 0.18909 0.00077939 1283.1 385.07 409.68 3.3999 0.85679 1.0454 173.28 1.9896 3.5633 0.0041164
-141.62 0.0032653 2.6960e-07 -107.30 -107.30 -0.56087 686.15 0.0014574 -107.30 -107.30 -0.56087 1.3343 1.9744 1823.5 -0.0073878 1050.1 0.18856 0.00090784 1101.5 385.93 410.72 3.3777 0.86011 1.0487 173.88 1.9508 3.5908 0.0041766
-140.62 0.0038222 3.1094e-07 -105.32 -105.32 -0.54591 685.14 0.0014596 -105.32 -105.32 -0.54591 1.3344 1.9760 1816.7 -0.0073765 1020.7 0.18803 0.0010547 948.16 386.79 411.77 3.3560 0.86341 1.0520 174.48 1.9133 3.6183 0.0042372
-139.62 0.0044623 3.5767e-07 -103.34 -103.34 -0.53105 684.13 0.0014617 -103.34 -103.34 -0.53105 1.3344 1.9776 1810.0 -0.0073651 992.74 0.18749 0.0012221 818.26 387.65 412.83 3.3347 0.86670 1.0553 175.08 1.8768 3.6459 0.0042980
-138.62 0.0051963 4.1036e-07 -101.37 -101.37 -0.51628 683.12 0.0014639 -101.37 -101.37 -0.51629 1.3345 1.9792 1803.3 -0.0073536 965.97 0.18695 0.0014125 707.94 388.52 413.88 3.3139 0.86998 1.0586 175.67 1.8413 3.6734 0.0043592
-137.62 0.0060358 4.6961e-07 -99.386 -99.386 -0.50162 682.11 0.0014660 -99.386 -99.386 -0.50162 1.3346 1.9808 1796.6 -0.0073419 940.35 0.18641 0.0016287 614.00 389.39 414.94 3.2935 0.87325 1.0619 176.26 1.8069 3.7009 0.0044206
-136.62 0.0069938 5.3609e-07 -97.404 -97.404 -0.48705 681.10 0.0014682 -97.404 -97.404 -0.48705 1.3347 1.9825 1789.9 -0.0073301 915.81 0.18586 0.0018733 533.80 390.26 416.00 3.2735 0.87650 1.0651 176.85 1.7734 3.7284 0.0044823
-135.62 0.0080843 6.1050e-07 -95.421 -95.421 -0.47258 680.09 0.0014704 -95.421 -95.421 -0.47258 1.3348 1.9841 1783.2 -0.0073180 892.30 0.18531 0.0021497 465.17 391.14 417.07 3.2540 0.87975 1.0684 177.44 1.7409 3.7559 0.0045443
-134.62 0.0093230 6.9358e-07 -93.436 -93.436 -0.45820 679.08 0.0014726 -93.436 -93.436 -0.45820 1.3350 1.9858 1776.5 -0.0073059 869.75 0.18476 0.0024613 406.30 392.02 418.14 3.2348 0.88299 1.0716 178.02 1.7093 3.7834 0.0046066
-133.62 0.010727 7.8615e-07 -91.449 -91.449 -0.44391 678.07 0.0014748 -91.450 -91.449 -0.44391 1.3351 1.9875 1769.8 -0.0072935 848.11 0.18421 0.0028116 355.67 392.91 419.21 3.2161 0.88622 1.0749 178.61 1.6786 3.8109 0.0046691
-132.62 0.012315 8.8904e-07 -89.461 -89.461 -0.42971 677.06 0.0014770 -89.461 -89.461 -0.42971 1.3353 1.9892 1763.1 -0.0072810 827.32 0.18365 0.0032049 312.03 393.79 420.29 3.1977 0.88944 1.0781 179.19 1.6488 3.8385 0.0047320
-131.62 0.014106 1.0032e-06 -87.471 -87.470 -0.41559 676.04 0.0014792 -87.471 -87.471 -0.41560 1.3354 1.9909 1756.4 -0.0072684 807.34 0.18309 0.0036453 274.33 394.68 421.36 3.1798 0.89266 1.0813 179.76 1.6197 3.8660 0.0047951
-130.62 0.016124 1.1295e-06 -85.479 -85.479 -0.40157 675.03 0.0014814 -85.479 -85.479 -0.40157 1.3356 1.9926 1749.7 -0.0072555 788.12 0.18253 0.0041375 241.69 395.58 422.44 3.1622 0.89586 1.0846 180.34 1.5915 3.8935 0.0048586
-129.62 0.018392 1.2689e-06 -83.485 -83.485 -0.38763 674.02 0.0014836 -83.486 -83.486 -0.38763 1.3358 1.9944 1743.0 -0.0072425 769.63 0.18196 0.0046867 213.37 396.47 423.53 3.1450 0.89906 1.0878 180.91 1.5641 3.9210 0.0049223
-128.62 0.020935 1.4227e-06 -81.490 -81.490 -0.37378 673.01 0.0014859 -81.491 -81.490 -0.37378 1.3360 1.9961 1736.3 -0.0072294 751.83 0.18140 0.0052981 188.75 397.37 424.62 3.1281 0.90226 1.0910 181.48 1.5374 3.9485 0.0049863
-127.62 0.023783 1.5917e-06 -79.493 -79.493 -0.36001 672.00 0.0014881 -79.494 -79.493 -0.36001 1.3363 1.9979 1729.6 -0.0072160 734.67 0.18083 0.0059776 167.29 398.27 425.71 3.1116 0.90545 1.0942 182.05 1.5114 3.9760 0.0050506
-126.62 0.026966 1.7773e-06 -77.494 -77.494 -0.34632 670.98 0.0014904 -77.495 -77.495 -0.34632 1.3365 1.9997 1722.9 -0.0072025 718.14 0.18025 0.0067313 148.56 399.18 426.80 3.0954 0.90863 1.0974 182.62 1.4861 4.0035 0.0051152
-125.62 0.030515 1.9806e-06 -75.493 -75.493 -0.33271 669.97 0.0014926 -75.494 -75.494 -0.33272 1.3368 2.0015 1716.2 -0.0071888 702.18 0.17968 0.0075660 132.17 400.09 427.89 3.0795 0.91181 1.1006 183.18 1.4615 4.0310 0.0051800
-124.62 0.034467 2.2029e-06 -73.491 -73.490 -0.31918 668.95 0.0014949 -73.492 -73.492 -0.31919 1.3371 2.0033 1709.5 -0.0071749 686.79 0.17910 0.0084885 117.81 401.00 428.99 3.0640 0.91499 1.1038 183.74 1.4375 4.0584 0.0052452
-123.62 0.038859 2.4455e-06 -71.487 -71.486 -0.30573 667.94 0.0014971 -71.488 -71.487 -0.30574 1.3374 2.0051 1702.8 -0.0071609 671.93 0.17852 0.0095065 105.19 401.91 430.10 3.0488 0.91816 1.1070 184.30 1.4141 4.0859 0.0053106
-122.62 0.043731 2.7098e-06 -69.480 -69.480 -0.29236 666.92 0.0014994 -69.482 -69.481 -0.29237 1.3377 2.0070 1696.2 -0.0071466 657.57 0.17794 0.010628 94.092 402.83 431.20 3.0339 0.92134 1.1102 184.86 1.3913 4.1134 0.0053764
-121.62 0.049128 2.9971e-06 -67.472 -67.472 -0.27906 665.91 0.0015017 -67.474 -67.473 -0.27907 1.3380 2.0089 1689.5 -0.0071322 643.70 0.17736 0.011861 84.309 403.75 432.31 3.0193 0.92451 1.1134 185.41 1.3691 4.1409 0.0054424
-120.62 0.055096 3.3090e-06 -65.462 -65.462 -0.26584 664.89 0.0015040 -65.464 -65.463 -0.26585 1.3384 2.0107 1682.8 -0.0071176 630.28 0.17678 0.013215 75.669 404.67 433.42 3.0050 0.92767 1.1166 185.96 1.3475 4.1683 0.0055087
-119.62 0.061684 3.6468e-06 -63.451 -63.450 -0.25269 663.87 0.0015063 -63.452 -63.452 -0.25271 1.3387 2.0126 1676.1 -0.0071028 617.30 0.17619 0.014700 68.027 405.60 434.53 2.9909 0.93084 1.1198 186.51 1.3264 4.1958 0.0055752
-118.62 0.068946 4.0122e-06 -61.437 -61.436 -0.23962 662.86 0.0015086 -61.439 -61.438 -0.23963 1.3391 2.0146 1669.4 -0.0070878 604.74 0.17560 0.016325 61.255 406.53 435.64 2.9772 0.93401 1.1231 187.06 1.3058 4.2233 0.0056421
-117.62 0.076937 4.4067e-06 -59.421 -59.420 -0.22662 661.84 0.0015109 -59.423 -59.422 -0.22663 1.3395 2.0165 1662.8 -0.0070726 592.58 0.17501 0.018101 55.245 407.46 436.76 2.9638 0.93718 1.1263 187.60 1.2857 4.2507 0.0057092
-116.62 0.085718 4.8320e-06 -57.403 -57.402 -0.21369 660.82 0.0015133 -57.406 -57.405 -0.21370 1.3400 2.0184 1656.1 -0.0070573 580.80 0.17442 0.020040 49.901 408.39 437.88 2.9506 0.94035 1.1295 188.14 1.2660 4.2782 0.0057767
-115.62 0.095353 5.2895e-06 -55.384 -55.383 -0.20082 659.80 0.0015156 -55.386 -55.385 -0.20084 1.3404 2.0204 1649.4 -0.0070417 569.38 0.17383 0.022152 45.142 409.33 439.01 2.9377 0.94352 1.1327 188.68 1.2468 4.3056 0.0058444
-114.62 0.10591 5.7811e-06 -53.362 -53.361 -0.18803 658.78 0.0015180 -53.365 -53.364 -0.18805 1.3409 2.0224 1642.7 -0.0070260 558.32 0.17323 0.024451 40.898 410.27 440.13 2.9250 0.94669 1.1360 189.22 1.2281 4.3330 0.0059123
-113.62 0.11746 6.3082e-06 -51.339 -51.337 -0.17531 657.76 0.0015203 -51.342 -51.340 -0.17533 1.3413 2.0244 1636.0 -0.0070100 547.59 0.17264 0.026949 37.107 411.21 441.26 2.9126 0.94987 1.1392 189.75 1.2097 4.3604 0.0059806
-112.62 0.13008 6.8727e-06 -49.313 -49.311 -0.16265 656.73 0.0015227 -49.316 -49.315 -0.16267 1.3418 2.0264 1629.3 -0.0069938 537.18 0.17204 0.029661 33.715 412.16 442.39 2.9005 0.95305 1.1424 190.28 1.1918 4.3879 0.0060491
-111.62 0.14384 7.4763e-06 -47.285 -47.284 -0.15006 655.71 0.0015251 -47.289 -47.287 -0.15008 1.3424 2.0285 1622.7 -0.0069774 527.08 0.17144 0.032600 30.675 413.10 443.53 2.8885 0.95623 1.1457 190.81 1.1742 4.4153 0.0061180
-110.62 0.15884 8.1205e-06 -45.256 -45.254 -0.13753 654.69 0.0015274 -45.259 -45.258 -0.13755 1.3429 2.0305 1616.0 -0.0069609 517.28 0.17084 0.035781 27.948 414.06 444.66 2.8769 0.95942 1.1490 191.34 1.1570 4.4427 0.0061871
-109.62 0.17516 8.8070e-06 -43.224 -43.222 -0.12507 653.66 0.0015298 -43.228 -43.226 -0.12509 1.3435 2.0326 1609.3 -0.0069441 507.76 0.17024 0.039220 25.497 415.01 445.80 2.8654 0.96261 1.1522 191.86 1.1402 4.4701 0.0062564
-108.62 0.19290 9.5376e-06 -41.190 -41.187 -0.11266 652.64 0.0015322 -41.194 -41.192 -0.11269 1.3441 2.0347 1602.6 -0.0069271 498.51 0.16964 0.042933 23.292 415.96 446.94 2.8542 0.96581 1.1555 192.38 1.1236 4.4974 0.0063261
-107.62 0.21215 1.0314e-05 -39.154 -39.151 -0.10033 651.61 0.0015347 -39.158 -39.156 -0.10036 1.3447 2.0369 1595.9 -0.0069098 489.52 0.16903 0.046937 21.305 416.92 448.09 2.8433 0.96901 1.1588 192.90 1.1075 4.5248 0.0063960
-106.62 0.23301 1.1137e-05 -37.115 -37.113 -0.088050 650.58 0.0015371 -37.120 -37.118 -0.088082 1.3453 2.0390 1589.2 -0.0068924 480.79 0.16843 0.051250 19.512 417.88 449.23 2.8325 0.97222 1.1621 193.41 1.0916 4.5522 0.0064662
-105.62 0.25561 1.2010e-05 -35.075 -35.072 -0.075834 649.55 0.0015395 -35.080 -35.078 -0.075868 1.3460 2.0412 1582.6 -0.0068747 472.30 0.16782 0.055891 17.892 418.85 450.38 2.8220 0.97544 1.1655 193.93 1.0760 4.5795 0.0065367
-104.62 0.28004 1.2933e-05 -33.032 -33.029 -0.063677 648.52 0.0015420 -33.038 -33.035 -0.063714 1.3467 2.0434 1575.9 -0.0068569 464.04 0.16721 0.060878 16.426 419.81 451.53 2.8116 0.97867 1.1688 194.44 1.0608 4.6069 0.0066074
-103.62 0.30643 1.3907e-05 -30.988 -30.984 -0.051579 647.49 0.0015444 -30.994 -30.991 -0.051619 1.3474 2.0456 1569.2 -0.0068387 456.00 0.16660 0.066231 15.099 420.78 452.68 2.8015 0.98191 1.1722 194.94 1.0458 4.6342 0.0066785
-102.62 0.33490 1.4935e-05 -28.940 -28.936 -0.039539 646.46 0.0015469 -28.947 -28.944 -0.039582 1.3481 2.0478 1562.5 -0.0068204 448.18 0.16600 0.071971 13.894 421.75 453.84 2.7916 0.98516 1.1755 195.44 1.0310 4.6615 0.0067498
-101.62 0.36558 1.6018e-05 -26.891 -26.887 -0.027557 645.43 0.0015494 -26.898 -26.894 -0.027602 1.3489 2.0501 1555.8 -0.0068018 440.57 0.16539 0.078120 12.801 422.73 454.99 2.7818 0.98841 1.1789 195.95 1.0166 4.6888 0.0068213
-100.62 0.39862 1.7157e-05 -24.840 -24.835 -0.015630 644.39 0.0015519 -24.847 -24.843 -0.015678 1.3497 2.0524 1549.1 -0.0067830 433.16 0.16478 0.084699 11.807 423.70 456.15 2.7723 0.99168 1.1823 196.44 1.0024 4.7161 0.0068932
-99.625 0.43414 1.8352e-05 -22.786 -22.780 -0.0037595 643.36 0.0015544 -22.794 -22.789 -0.0038103 1.3505 2.0547 1542.4 -0.0067639 425.95 0.16416 0.091731 10.901 424.68 457.31 2.7630 0.99496 1.1858 196.94 0.98838 4.7434 0.0069653
-98.625 0.47230 1.9605e-05 -20.729 -20.724 0.0080566 642.32 0.0015569 -20.738 -20.733 0.0080027 1.3514 2.0570 1535.7 -0.0067447 418.92 0.16355 0.099240 10.077 425.66 458.48 2.7538 0.99825 1.1892 197.43 0.97464 4.7707 0.0070377
-97.625 0.51325 2.0918e-05 -18.671 -18.664 0.019819 641.28 0.0015594 -18.680 -18.674 0.019762 1.3522 2.0594 1529.0 -0.0067251 412.07 0.16294 0.10725 9.3239 426.65 459.64 2.7448 1.0016 1.1927 197.92 0.96112 4.7979 0.0071103
-96.625 0.55714 2.2290e-05 -16.610 -16.603 0.031527 640.24 0.0015619 -16.620 -16.614 0.031467 1.3531 2.0618 1522.3 -0.0067053 405.39 0.16233 0.11579 8.6365 427.63 460.81 2.7360 1.0049 1.1962 198.40 0.94783 4.8251 0.0071832
-95.625 0.60416 2.3723e-05 -14.546 -14.539 0.043184 639.20 0.0015645 -14.557 -14.550 0.043120 1.3540 2.0642 1515.7 -0.0066853 398.88 0.16171 0.12488 8.0078 428.62 461.98 2.7274 1.0082 1.1997 198.88 0.93475 4.8524 0.0072564
-94.625 0.65446 2.5216e-05 -12.480 -12.472 0.054788 638.16 0.0015670 -12.491 -12.484 0.054721 1.3550 2.0667 1509.0 -0.0066650 392.53 0.16110 0.13455 7.4323 429.61 463.15 2.7189 1.0116 1.2032 199.36 0.92188 4.8796 0.0073299
-93.625 0.70822 2.6771e-05 -10.412 -10.403 0.066342 637.12 0.0015696 -10.424 -10.416 0.066271 1.3560 2.0691 1502.3 -0.0066444 386.34 0.16048 0.14482 6.9050 430.60 464.32 2.7107 1.0149 1.2068 199.83 0.90921 4.9068 0.0074036
-92.625 0.76564 2.8387e-05 -8.3410 -8.3318 0.077845 636.07 0.0015722 -8.3535 -8.3452 0.077771 1.3570 2.0716 1495.6 -0.0066236 380.31 0.15987 0.15573 6.4212 431.60 465.49 2.7025 1.0183 1.2104 200.30 0.89673 4.9340 0.0074776
-91.625 0.82689 3.0064e-05 -6.2676 -6.2576 0.089299 635.02 0.0015747 -6.2808 -6.2719 0.089220 1.3580 2.0742 1488.9 -0.0066025 374.41 0.15925 0.16731 5.9769 432.59 466.67 2.6946 1.0217 1.2140 200.77 0.88445 4.9611 0.0075518
-90.625 0.89218 3.1802e-05 -4.1917 -4.1809 0.10070 633.98 0.0015773 -4.2056 -4.1959 0.10062 1.3591 2.0767 1482.2 -0.0065811 368.66 0.15864 0.17958 5.5685 433.59 467.84 2.6868 1.0251 1.2177 201.24 0.87236 4.9883 0.0076263
-89.625 0.96172 3.3601e-05 -2.1132 -2.1016 0.11206 632.93 0.0015800 -2.1279 -2.1174 0.11197 1.3602 2.0793 1475.5 -0.0065595 363.05 0.15802 0.19258 5.1928 434.59 469.02 2.6791 1.0285 1.2213 201.70 0.86045 5.0154 0.0077011
-88.625 1.0357 3.5459e-05 -0.032069 -0.019541 0.12337 631.88 0.0015826 -0.047516 -0.036215 0.12328 1.3613 2.0819 1468.8 -0.0065375 357.56 0.15740 0.20633 4.8466 435.59 470.20 2.6717 1.0320 1.2250 202.15 0.84873 5.0425 0.0077761
-87.625 1.1144 3.7376e-05 2.0517 2.0652 0.13463 630.83 0.0015852 2.0355 2.0476 0.13454 1.3625 2.0846 1462.1 -0.0065153 352.21 0.15679 0.22087 4.5276 436.60 471.39 2.6643 1.0354 1.2288 202.61 0.83718 5.0696 0.0078514
-86.625 1.1979 3.9350e-05 4.1381 4.1526 0.14585 629.77 0.0015879 4.1211 4.1342 0.14575 1.3637 2.0873 1455.4 -0.0064928 346.98 0.15617 0.23623 4.2331 437.61 472.57 2.6571 1.0389 1.2325 203.06 0.82580 5.0967 0.0079270
-85.625 1.2866 4.1380e-05 6.2273 6.2428 0.15702 628.72 0.0015905 6.2094 6.2235 0.15691 1.3649 2.0900 1448.8 -0.0064701 341.87 0.15555 0.25245 3.9612 438.61 473.75 2.6501 1.0424 1.2363 203.50 0.81460 5.1237 0.0080028
-84.625 1.3806 4.3464e-05 8.3191 8.3358 0.16814 627.66 0.0015932 8.3004 8.3155 0.16803 1.3661 2.0927 1442.1 -0.0064470 336.87 0.15494 0.26956 3.7097 439.63 474.94 2.6432 1.0460 1.2402 203.95 0.80356 5.1508 0.0080789
-83.625 1.4803 4.5600e-05 10.414 10.432 0.17922 626.60 0.0015959 10.394 10.410 0.17911 1.3674 2.0955 1435.4 -0.0064236 331.99 0.15432 0.28760 3.4771 440.64 476.13 2.6364 1.0495 1.2440 204.38 0.79269 5.1778 0.0081553
-82.625 1.5858 4.7785e-05 12.511 12.530 0.19026 625.54 0.0015986 12.491 12.508 0.19014 1.3687 2.0983 1428.7 -0.0063999 327.22 0.15370 0.30659 3.2616 441.65 477.31 2.6298 1.0531 1.2479 204.82 0.78199 5.2048 0.0082319
-81.625 1.6975 5.0015e-05 14.611 14.632 0.20126 624.48 0.0016013 14.590 14.609 0.20113 1.3700 2.1012 1422.0 -0.0063759 322.55 0.15309 0.32659 3.0619 442.67 478.50 2.6233 1.0567 1.2519 205.25 0.77144 5.2318 0.0083088
-80.625 1.8155 5.2289e-05 16.714 16.736 0.21221 623.42 0.0016041 16.692 16.712 0.21208 1.3714 2.1041 1415.4 -0.0063516 317.99 0.15247 0.34763 2.8766 443.69 479.70 2.6169 1.0603 1.2558 205.67 0.76106 5.2587 0.0083860
-79.625 1.9402 5.4602e-05 18.820 18.844 0.22312 622.36 0.0016068 18.797 18.819 0.22299 1.3728 2.1070 1408.7 -0.0063270 313.52 0.15186 0.36974 2.7046 444.71 480.89 2.6106 1.0639 1.2598 206.10 0.75083 5.2857 0.0084634
-78.625 2.0718 5.6950e-05 20.929 20.954 0.23399 621.29 0.0016096 20.905 20.928 0.23385 1.3742 2.1099 1402.0 -0.0063021 309.15 0.15124 0.39296 2.5448 445.73 482.08 2.6045 1.0676 1.2639 206.51 0.74076 5.3126 0.0085411
-77.625 2.2107 5.9328e-05 23.041 23.068 0.24482 620.22 0.0016123 23.016 23.040 0.24468 1.3757 2.1129 1395.3 -0.0062768 304.88 0.15062 0.41735 2.3961 446.75 483.27 2.5985 1.0712 1.2680 206.93 0.73084 5.3395 0.0086190
-76.625 2.3571 6.1732e-05 25.156 25.184 0.25560 619.15 0.0016151 25.130 25.156 0.25546 1.3772 2.1159 1388.7 -0.0062512 300.69 0.15001 0.44292 2.2577 447.78 484.47 2.5926 1.0749 1.2721 207.34 0.72107 5.3664 0.0086972
-75.625 2.5113 6.4156e-05 27.274 27.304 0.26635 618.08 0.0016179 27.247 27.275 0.26620 1.3787 2.1190 1382.0 -0.0062253 296.59 0.14939 0.46974 2.1288 448.81 485.67 2.5869 1.0787 1.2762 207.74 0.71146 5.3933 0.0087757
-74.625 2.6736 6.6594e-05 29.394 29.427 0.27706 617.01 0.0016207 29.366 29.396 0.27691 1.3802 2.1221 1375.4 -0.0061990 292.58 0.14878 0.49783 2.0087 449.83 486.86 2.5812 1.0824 1.2804 208.14 0.70200 5.4201 0.0088544
-73.625 2.8444 6.9040e-05 31.518 31.553 0.28773 615.93 0.0016236 31.489 31.521 0.28758 1.3818 2.1252 1368.7 -0.0061724 288.65 0.14816 0.52725 1.8966 450.86 488.06 2.5757 1.0862 1.2847 208.54 0.69268 5.4469 0.0089334
-72.625 3.0240 7.1486e-05 33.645 33.682 0.29837 614.85 0.0016264 33.615 33.649 0.29821 1.3834 2.1284 1362.0 -0.0061454 284.81 0.14755 0.55804 1.7920 451.90 489.26 2.5703 1.0900 1.2889 208.93 0.68351 5.4737 0.0090126
-71.625 3.2127 7.3926e-05 35.775 35.814 0.30896 613.78 0.0016293 35.745 35.781 0.30880 1.3851 2.1316 1355.4 -0.0061181 281.03 0.14694 0.59024 1.6942 452.93 490.46 2.5650 1.0938 1.2932 209.32 0.67448 5.5005 0.0090922
-70.625 3.4108 7.6350e-05 37.909 37.950 0.31952 612.69 0.0016321 37.877 37.915 0.31935 1.3867 2.1349 1348.7 -0.0060904 277.34 0.14632 0.62390 1.6028 453.96 491.66 2.5598 1.0976 1.2976 209.70 0.66560 5.5273 0.0091720
-69.625 3.6187 7.8751e-05 40.045 40.089 0.33005 611.61 0.0016350 40.013 40.053 0.32987 1.3884 2.1382 1342.1 -0.0060624 273.72 0.14571 0.65906 1.5173 455.00 492.86 2.5547 1.1015 1.3020 210.08 0.65687 5.5540 0.0092520
-68.625 3.8367 8.1118e-05 42.185 42.232 0.34054 610.53 0.0016379 42.152 42.195 0.34036 1.3902 2.1415 1335.5 -0.0060339 270.17 0.14510 0.69577 1.4372 456.04 494.06 2.5497 1.1054 1.3064 210.45 0.64827 5.5807 0.0093324
-67.625 4.0652 8.3443e-05 44.328 44.377 0.35099 609.44 0.0016409 44.294 44.340 0.35080 1.3919 2.1449 1328.8 -0.0060051 266.69 0.14449 0.73408 1.3622 457.08 495.26 2.5448 1.1093 1.3109 210.82 0.63981 5.6074 0.0094130
-66.625 4.3046 8.5714e-05 46.474 46.527 0.36141 608.35 0.0016438 46.439 46.488 0.36122 1.3937 2.1483 1322.2 -0.0059760 263.28 0.14388 0.77404 1.2919 458.12 496.46 2.5400 1.1133 1.3154 211.18 0.63150 5.6341 0.0094939
-65.625 4.5551 8.7919e-05 48.624 48.679 0.37179 607.26 0.0016467 48.588 48.640 0.37160 1.3955 2.1518 1315.6 -0.0059464 259.93 0.14327 0.81570 1.2259 459.16 497.67 2.5353 1.1172 1.3200 211.54 0.62332 5.6608 0.0095750
-64.625 4.8173 9.0048e-05 50.777 50.836 0.38214 606.16 0.0016497 50.740 50.795 0.38195 1.3974 2.1553 1308.9 -0.0059164 256.65 0.14266 0.85910 1.1640 460.21 498.87 2.5307 1.1212 1.3246 211.89 0.61527 5.6874 0.0096564
-63.625 5.0915 9.2087e-05 52.934 52.995 0.39246 605.07 0.0016527 52.896 52.954 0.39226 1.3993 2.1588 1302.3 -0.0058861 253.42 0.14205 0.90429 1.1058 461.25 500.07 2.5262 1.1252 1.3293 212.24 0.60736 5.7140 0.0097382
-62.625 5.3781 9.4022e-05 55.094 55.159 0.40274 603.97 0.0016557 55.055 55.117 0.40254 1.4012 2.1624 1295.7 -0.0058553 250.26 0.14144 0.95134 1.0511 462.30 501.28 2.5218 1.1293 1.3340 212.58 0.59958 5.7406 0.0098201
-61.625 5.6774 9.5840e-05 57.257 57.326 0.41299 602.87 0.0016587 57.218 57.283 0.41279 1.4031 2.1660 1289.1 -0.0058241 247.16 0.14084 1.0003 0.99972 463.35 502.48 2.5175 1.1333 1.3387 212.92 0.59194 5.7672 0.0099024
-60.625 5.9899 9.7524e-05 59.424 59.496 0.42321 601.77 0.0016618 59.385 59.453 0.42301 1.4051 2.1697 1282.5 -0.0057925 244.12 0.14023 1.0512 0.95131 464.40 503.68 2.5133 1.1374 1.3435 213.26 0.58442 5.7938 0.0099850
-59.625 6.3160 9.9060e-05 61.594 61.671 0.43340 600.66 0.0016648 61.554 61.627 0.43320 1.4071 2.1734 1275.9 -0.0057605 241.13 0.13962 1.1041 0.90573 465.45 504.89 2.5091 1.1415 1.3483 213.58 0.57704 5.8203 0.010068
-58.625 6.6561 0.00010043 63.769 63.849 0.44356 599.55 0.0016679 63.728 63.805 0.44335 1.4091 2.1772 1269.3 -0.0057280 238.19 0.13902 1.1591 0.86277 466.50 506.09 2.5051 1.1457 1.3532 213.90 0.56978 5.8468 0.010151
-57.625 7.0107 0.00010162 65.946 66.031 0.45369 598.44 0.0016710 65.905 65.986 0.45348 1.4111 2.1810 1262.7 -0.0056951 235.31 0.13842 1.2161 0.82228 467.55 507.30 2.5011 1.1498 1.3581 214.22 0.56265 5.8733 0.010234
-56.625 7.3801 0.00010260 68.128 68.217 0.46378 597.33 0.0016741 68.086 68.172 0.46358 1.4132 2.1848 1256.1 -0.0056617 232.48 0.13781 1.2754 0.78408 468.60 508.50 2.4972 1.1540 1.3631 214.53 0.55564 5.8998 0.010318
-55.625 7.7648 0.00010336 70.313 70.406 0.47385 596.22 0.0016772 70.271 70.361 0.47364 1.4153 2.1887 1249.5 -0.0056279 229.69 0.13721 1.3369 0.74802 469.66 509.71 2.4934 1.1582 1.3681 214.84 0.54875 5.9263 0.010402
-54.625 8.1652 0.00010388 72.501 72.600 0.48389 595.10 0.0016804 72.460 72.554 0.48368 1.4174 2.1927 1242.9 -0.0055937 226.96 0.13661 1.4006 0.71396 470.72 510.91 2.4897 1.1624 1.3731 215.14 0.54199 5.9527 0.010486
-53.625 8.5819 0.00010414 74.694 74.798 0.49390 593.98 0.0016836 74.652 74.752 0.49369 1.4196 2.1967 1236.3 -0.0055589 224.27 0.13601 1.4667 0.68178 471.77 512.11 2.4860 1.1667 1.3782 215.43 0.53535 5.9792 0.010571
-52.625 9.0151 0.00010411 76.890 76.999 0.50388 592.86 0.0016867 76.849 76.954 0.50368 1.4218 2.2007 1229.8 -0.0055237 221.63 0.13541 1.5353 0.65136 472.83 513.32 2.4824 1.1710 1.3834 215.72 0.52882 6.0056 0.010656
-51.625 9.4655 0.00010377 79.090 79.205 0.51384 591.73 0.0016900 79.049 79.159 0.51363 1.4240 2.2048 1223.2 -0.0054880 219.04 0.13482 1.6062 0.62258 473.89 514.52 2.4789 1.1752 1.3886 216.00 0.52241 6.0320 0.010741
-50.625 9.9335 0.00010309 81.294 81.414 0.52376 590.60 0.0016932 81.253 81.369 0.52356 1.4262 2.2089 1216.6 -0.0054519 216.48 0.13422 1.6797 0.59534 474.95 515.73 2.4755 1.1796 1.3938 216.28 0.51612 6.0584 0.010827
-49.625 10.419 0.00010206 83.502 83.628 0.53366 589.47 0.0016964 83.462 83.584 0.53347 1.4285 2.2131 1210.1 -0.0054152 213.98 0.13363 1.7558 0.56954 476.01 516.93 2.4722 1.1839 1.3991 216.55 0.50994 6.0848 0.010913
-48.625 10.924 0.00010063 85.713 85.846 0.54354 588.34 0.0016997 85.674 85.802 0.54334 1.4308 2.2173 1203.5 -0.0053780 211.51 0.13303 1.8345 0.54510 477.07 518.13 2.4689 1.1883 1.4044 216.82 0.50387 6.1112 0.010999
-47.625 11.448 9.8788e-05 87.929 88.068 0.55338 587.20 0.0017030 87.891 88.025 0.55319 1.4331 2.2216 1196.9 -0.0053403 209.08 0.13244 1.9159 0.52194 478.14 519.33 2.4657 1.1927 1.4098 217.08 0.49792 6.1375 0.011085
-46.625 11.991 9.6499e-05 90.149 90.294 0.56320 586.06 0.0017063 90.111 90.252 0.56302 1.4354 2.2259 1190.4 -0.0053020 206.69 0.13185 2.0001 0.49997 479.20 520.53 2.4625 1.1971 1.4153 217.33 0.49207 6.1639 0.011172
-45.625 12.554 9.3731e-05 92.373 92.524 0.57300 584.92 0.0017096 92.336 92.484 0.57282 1.4378 2.2303 1183.8 -0.0052633 204.34 0.13126 2.0872 0.47912 480.27 521.74 2.4594 1.2015 1.4207 217.58 0.48633 6.1902 0.011259
-44.625 13.137 9.0454e-05 94.600 94.759 0.58277 583.77 0.0017130 94.565 94.720 0.58260 1.4402 2.2347 1177.3 -0.0052240 202.03 0.13067 2.1771 0.45933 481.33 522.94 2.4564 1.2060 1.4263 217.82 0.48069 6.2165 0.011347
-43.625 13.741 8.6633e-05 96.832 96.998 0.59251 582.62 0.0017164 96.799 96.961 0.59235 1.4426 2.2392 1170.7 -0.0051841 199.75 0.13008 2.2700 0.44053 482.40 524.14 2.4535 1.2104 1.4319 218.05 0.47516 6.2429 0.011435
-42.625 14.367 8.2232e-05 99.068 99.242 0.60223 581.47 0.0017198 99.036 99.207 0.60208 1.4450 2.2437 1164.2 -0.0051437 197.51 0.12949 2.3659 0.42267 483.46 525.33 2.4506 1.2149 1.4375 218.28 0.46973 6.2692 0.011523
-41.625 15.015 7.7216e-05 101.31 101.49 0.61193 580.32 0.0017232 101.28 101.46 0.61179 1.4475 2.2483 1157.7 -0.0051027 195.30 0.12891 2.4649 0.40569 484.53 526.53 2.4478 1.2195 1.4432 218.50 0.46440 6.2955 0.011612
-40.625 15.686 7.1546e-05 103.55 103.74 0.62160 579.16 0.0017266 103.52 103.71 0.62147 1.4500 2.2529 1151.1 -0.0050611 193.13 0.12832 2.5671 0.38954 485.60 527.73 2.4450 1.2240 1.4489 218.72 0.45917 6.3218 0.011701
-39.625 16.380 6.5182e-05 105.80 106.00 0.63125 578.00 0.0017301 105.78 105.97 0.63113 1.4525 2.2576 1144.6 -0.0050189 190.99 0.12774 2.6725 0.37418 486.67 528.93 2.4423 1.2286 1.4547 218.93 0.45403 6.3481 0.011790
-38.625 17.097 5.8082e-05 108.05 108.26 0.64088 576.83 0.0017336 108.03 108.24 0.64077 1.4550 2.2623 1138.0 -0.0049761 188.88 0.12716 2.7813 0.35955 487.74 530.12 2.4397 1.2332 1.4606 219.13 0.44900 6.3744 0.011880
-37.625 17.838 5.0205e-05 110.31 110.53 0.65048 575.66 0.0017371 110.29 110.51 0.65039 1.4576 2.2671 1131.5 -0.0049327 186.81 0.12658 2.8934 0.34562 488.81 531.32 2.4371 1.2378 1.4665 219.33 0.44405 6.4007 0.011970
-36.625 18.604 4.1504e-05 112.57 112.80 0.66006 574.49 0.0017407 112.56 112.78 0.65999 1.4602 2.2719 1125.0 -0.0048887 184.76 0.12600 3.0089 0.33235 489.88 532.51 2.4346 1.2424 1.4724 219.52 0.43920 6.4270 0.012060
-35.625 19.395 3.1933e-05 114.84 115.07 0.66962 573.32 0.0017442 114.83 115.06 0.66956 1.4628 2.2768 1118.5 -0.0048440 182.75 0.12542 3.1280 0.31969 490.95 533.70 2.4321 1.2471 1.4784 219.70 0.43444 6.4533 0.012151
-34.625 20.212 2.1444e-05 117.11 117.35 0.67916 572.14 0.0017478 117.10 117.34 0.67912 1.4654 2.2818 1111.9 -0.0047987 180.76 0.12485 3.2506 0.30763 492.02 534.89 2.4297 1.2517 1.4845 219.88 0.42977 6.4797 0.012243
-33.625 21.056 9.9860e-06 119.38 119.64 0.68867 570.96 0.0017514 119.38 119.63 0.68865 1.4681 2.2868 1105.4 -0.0047527 178.80 0.12427 3.3770 0.29612 493.09 536.08 2.4273 1.2564 1.4906 220.05 0.42519 6.5060 0.012334
-32.625 47.766 undefined 121.50 122.08 0.69751 570.00 0.0017544 121.50 122.08 0.69751 1.4709 2.2906 1100.7 -0.0047200 177.23 0.12384 570.00 0.0017544 121.50 122.08 0.69751 1.4709 2.2906 1100.7 -0.0047200 177.23 0.12384
-31.625 182.31 undefined 122.98 125.18 0.70362 570.00 0.0017544 122.98 125.18 0.70362 1.4744 2.2895 1103.4 -0.0047446 177.13 0.12395 570.00 0.0017544 122.98 125.18 0.70362 1.4744 2.2895 1103.4 -0.0047446 177.13 0.12395
-30.625 316.72 undefined 124.45 128.28 0.70972 570.00 0.0017544 124.45 128.28 0.70972 1.4780 2.2885 1106.1 -0.0047687 177.04 0.12407 570.00 0.0017544 124.45 128.28 0.70972 1.4780 2.2885 1106.1 -0.0047687 177.04 0.12407
-29.625 451.00 undefined 125.93 131.39 0.71581 570.00 0.0017544 125.93 131.39 0.71581 1.4815 2.2876 1108.8 -0.0047921 176.95 0.12419 570.00 0.0017544 125.93 131.39 0.71581 1.4815 2.2876 1108.8 -0.0047921 176.95 0.12419
-28.625 585.14 undefined 127.42 134.49 0.72189 570.00 0.0017544 127.42 134.49 0.72189 1.4850 2.2867 1111.5 -0.0048149 176.86 0.12431 570.00 0.0017544 127.42 134.49 0.72189 1.4850 2.2867 1111.5 -0.0048149 176.86 0.12431
-27.625 719.15 undefined 128.90 137.60 0.72796 570.00 0.0017544 128.90 137.60 0.72796 1.4886 2.2860 1114.1 -0.0048372 176.77 0.12443 570.00 0.0017544 128.90 137.60 0.72796 1.4886 2.2860 1114.1 -0.0048372 176.77 0.12443
-26.625 853.02 undefined 130.39 140.71 0.73402 570.00 0.0017544 130.39 140.71 0.73402 1.4922 2.2853 1116.7 -0.0048589 176.68 0.12455 570.00 0.0017544 130.39 140.71 0.73402 1.4922 2.2853 1116.7 -0.0048589 176.68 0.12455
-25.625 986.76 undefined 131.89 143.82 0.74006 570.00 0.0017544 131.89 143.82 0.74006 1.4958 2.2847 1119.3 -0.0048800 176.60 0.12467 570.00 0.0017544 131.89 143.82 0.74006 1.4958 2.2847 1119.3 -0.0048800 176.60 0.12467
-24.625 1120.4 undefined 133.38 146.94 0.74610 570.00 0.0017544 133.38 146.94 0.74610 1.4994 2.2842 1121.9 -0.0049006 176.51 0.12480 570.00 0.0017544 133.38 146.94 0.74610 1.4994 2.2842 1121.9 -0.0049006 176.51 0.12480
-23.625 1253.8 undefined 134.89 150.05 0.75213 570.00 0.0017544 134.89 150.05 0.75213 1.5030 2.2838 1124.5 -0.0049207 176.43 0.12492 570.00 0.0017544 134.89 150.05 0.75213 1.5030 2.2838 1124.5 -0.0049207 176.43 0.12492
-22.625 1387.2 undefined 136.39 153.17 0.75815 570.00 0.0017544 136.39 153.17 0.75815 1.5067 2.2835 1127.0 -0.0049403 176.34 0.12504 570.00 0.0017544 136.39 153.17 0.75815 1.5067 2.2835 1127.0 -0.0049403 176.34 0.12504
-21.625 1520.4 undefined 137.90 156.29 0.76416 570.00 0.0017544 137.90 156.29 0.76416 1.5104 2.2832 1129.5 -0.0049593 176.26 0.12516 570.00 0.0017544 137.90 156.29 0.76416 1.5104 2.2832 1129.5 -0.0049593 176.26 0.12516
-20.625 1653.4 undefined 139.41 159.41 0.77016 570.00 0.0017544 139.41 159.41 0.77016 1.5140 2.2831 1132.0 -0.0049779 176.18 0.12528 570.00 0.0017544 139.41 159.41 0.77016 1.5140 2.2831 1132.0 -0.0049779 176.18 0.12528
-19.625 1786.4 undefined 140.93 162.54 0.77615 570.00 0.0017544 140.93 162.54 0.77615 1.5177 2.2829 1134.5 -0.0049960 176.10 0.12541 570.00 0.0017544 140.93 162.54 0.77615 1.5177 2.2829 1134.5 -0.0049960 176.10 0.12541
-18.625 1919.2 undefined 142.45 165.66 0.78213 570.00 0.0017544 142.45 165.66 0.78213 1.5214 2.2829 1137.0 -0.0050136 176.02 0.12553 570.00 0.0017544 142.45 165.66 0.78213 1.5214 2.2829 1137.0 -0.0050136 176.02 0.12553
-17.625 2051.8 undefined 143.97 168.79 0.78811 570.00 0.0017544 143.97 168.79 0.78811 1.5252 2.2830 1139.4 -0.0050308 175.94 0.12565 570.00 0.0017544 143.97 168.79 0.78811 1.5252 2.2830 1139.4 -0.0050308 175.94 0.12565
-16.625 2184.3 undefined 145.50 171.92 0.79407 570.00 0.0017544 145.50 171.92 0.79407 1.5289 2.2831 1141.8 -0.0050475 175.86 0.12578 570.00 0.0017544 145.50 171.92 0.79407 1.5289 2.2831 1141.8 -0.0050475 175.86 0.12578
-15.625 2316.7 undefined 147.03 175.05 0.80003 570.00 0.0017544 147.03 175.05 0.80003 1.5327 2.2832 1144.2 -0.0050638 175.79 0.12590 570.00 0.0017544 147.03 175.05 0.80003 1.5327 2.2832 1144.2 -0.0050638 175.79 0.12590
-14.625 2449.0 undefined 148.56 178.19 0.80597 570.00 0.0017544 148.56 178.19 0.80597 1.5364 2.2835 1146.6 -0.0050797 175.71 0.12603 570.00 0.0017544 148.56 178.19 0.80597 1.5364 2.2835 1146.6 -0.0050797 175.71 0.12603
-13.625 2581.1 undefined 150.10 181.32 0.81191 570.00 0.0017544 150.10 181.32 0.81191 1.5402 2.2838 1149.0 -0.0050951 175.63 0.12615 570.00 0.0017544 150.10 181.32 0.81191 1.5402 2.2838 1149.0 -0.0050951 175.63 0.12615
-12.625 2713.0 undefined 151.64 184.46 0.81784 570.00 0.0017544 151.64 184.46 0.81784 1.5440 2.2842 1151.3 -0.0051101 175.56 0.12627 570.00 0.0017544 151.64 184.46 0.81784 1.5440 2.2842 1151.3 -0.0051101 175.56 0.12627
-11.625 2844.9 undefined 153.19 187.60 0.82377 570.00 0.0017544 153.19 187.60 0.82377 1.5478 2.2846 1153.7 -0.0051247 175.49 0.12640 570.00 0.0017544 153.19 187.60 0.82377 1.5478 2.2846 1153.7 -0.0051247 175.49 0.12640
-10.625 2976.6 undefined 154.74 190.74 0.82968 570.00 0.0017544 154.74 190.74 0.82968 1.5517 2.2851 1156.0 -0.0051390 175.42 0.12652 570.00 0.0017544 154.74 190.74 0.82968 1.5517 2.2851 1156.0 -0.0051390 175.42 0.12652
-9.6250 3108.1 undefined 156.29 193.89 0.83559 570.00 0.0017544 156.29 193.89 0.83559 1.5555 2.2857 1158.3 -0.0051528 175.34 0.12665 570.00 0.0017544 156.29 193.89 0.83559 1.5555 2.2857 1158.3 -0.0051528 175.34 0.12665
-8.6250 3239.5 undefined 157.85 197.04 0.84149 570.00 0.0017544 157.85 197.04 0.84149 1.5594 2.2863 1160.5 -0.0051663 175.27 0.12678 570.00 0.0017544 157.85 197.04 0.84149 1.5594 2.2863 1160.5 -0.0051663 175.27 0.12678
-7.6250 3370.8 undefined 159.41 200.18 0.84738 570.00 0.0017544 159.41 200.18 0.84738 1.5632 2.2870 1162.8 -0.0051794 175.20 0.12690 570.00 0.0017544 159.41 200.18 0.84738 1.5632 2.2870 1162.8 -0.0051794 175.20 0.12690
-6.6250 3502.0 undefined 160.98 203.34 0.85326 570.00 0.0017544 160.98 203.34 0.85326 1.5671 2.2877 1165.1 -0.0051921 175.13 0.12703 570.00 0.0017544 160.98 203.34 0.85326 1.5671 2.2877 1165.1 -0.0051921 175.13 0.12703
-5.6250 3633.0 undefined 162.55 206.49 0.85914 570.00 0.0017544 162.55 206.49 0.85914 1.5710 2.2885 1167.3 -0.0052045 175.07 0.12716 570.00 0.0017544 162.55 206.49 0.85914 1.5710 2.2885 1167.3 -0.0052045 175.07 0.12716
-4.6250 3763.8 undefined 164.12 209.65 0.86501 570.00 0.0017544 164.12 209.65 0.86501 1.5750 2.2893 1169.5 -0.0052165 175.00 0.12728 570.00 0.0017544 164.12 209.65 0.86501 1.5750 2.2893 1169.5 -0.0052165 175.00 0.12728
-3.6250 3894.6 undefined 165.70 212.80 0.87087 570.00 0.0017544 165.70 212.80 0.87087 1.5789 2.2902 1171.7 -0.0052282 174.93 0.12741 570.00 0.0017544 165.70 212.80 0.87087 1.5789 2.2902 1171.7 -0.0052282 174.93 0.12741
-2.6250 4025.2 undefined 167.28 215.96 0.87672 570.00 0.0017544 167.28 215.96 0.87672 1.5828 2.2911 1173.9 -0.0052396 174.87 0.12754 570.00 0.0017544 167.28 215.96 0.87672 1.5828 2.2911 1173.9 -0.0052396 174.87 0.12754
-1.6250 4155.6 undefined 168.86 219.13 0.88257 570.00 0.0017544 168.86 219.13 0.88257 1.5868 2.2921 1176.1 -0.0052506 174.80 0.12767 570.00 0.0017544 168.86 219.13 0.88257 1.5868 2.2921 1176.1 -0.0052506 174.80 0.12767
-0.62500 4285.9 undefined 170.45 222.29 0.88841 570.00 0.0017544 170.45 222.29 0.88841 1.5908 2.2932 1178.2 -0.0052614 174.74 0.12780 570.00 0.0017544 170.45 222.29 0.88841 1.5908 2.2932 1178.2 -0.0052614 174.74 0.12780
0.37500 4416.1 undefined 172.04 225.46 0.89424 570.00 0.0017544 172.04 225.46 0.89424 1.5947 2.2943 1180.4 -0.0052718 174.68 0.12792 570.00 0.0017544 172.04 225.46 0.89424 1.5947 2.2943 1180.4 -0.0052718 174.68 0.12792
1.3750 4546.1 undefined 173.64 228.63 0.90007 570.00 0.0017544 173.64 228.63 0.90007 1.5987 2.2954 1182.5 -0.0052819 174.61 0.12805 570.00 0.0017544 173.64 228.63 0.90007 1.5987 2.2954 1182.5 -0.0052819 174.61 0.12805
2.3750 4676.0 undefined 175.24 231.80 0.90589 570.00 0.0017544 175.24 231.80 0.90589 1.6027 2.2966 1184.6 -0.0052917 174.55 0.12818 570.00 0.0017544 175.24 231.80 0.90589 1.6027 2.2966 1184.6 -0.0052917 174.55 0.12818
3.3750 4805.8 undefined 176.84 234.98 0.91170 570.00 0.0017544 176.84 234.98 0.91170 1.6068 2.2979 1186.7 -0.0053012 174.49 0.12831 570.00 0.0017544 176.84 234.98 0.91170 1.6068 2.2979 1186.7 -0.0053012 174.49 0.12831
4.3750 4935.4 undefined 178.45 238.15 0.91751 570.00 0.0017544 178.45 238.15 0.91751 1.6108 2.2991 1188.8 -0.0053104 174.43 0.12844 570.00 0.0017544 178.45 238.15 0.91751 1.6108 2.2991 1188.8 -0.0053104 174.43 0.12844
5.3750 5064.9 undefined 180.07 241.33 0.92331 570.00 0.0017544 180.07 241.33 0.92331 1.6148 2.3005 1190.9 -0.0053193 174.37 0.12857 570.00 0.0017544 180.07 241.33 0.92331 1.6148 2.3005 1190.9 -0.0053193 174.37 0.12857
6.3750 5194.3 undefined 181.68 244.51 0.92911 570.00 0.0017544 181.68 244.51 0.92911 1.6189 2.3018 1192.9 -0.0053280 174.31 0.12870 570.00 0.0017544 181.68 244.51 0.92911 1.6189 2.3018 1192.9 -0.0053280 174.31 0.12870
7.3750 5323.5 undefined 183.30 247.70 0.93490 570.00 0.0017544 183.30 247.70 0.93490 1.6229 2.3032 1195.0 -0.0053364 174.25 0.12883 570.00 0.0017544 183.30 247.70 0.93490 1.6229 2.3032 1195.0 -0.0053364 174.25 0.12883
8.3750 5452.6 undefined 184.93 250.88 0.94068 570.00 0.0017544 184.93 250.88 0.94068 1.6270 2.3047 1197.0 -0.0053445 174.20 0.12896 570.00 0.0017544 184.93 250.88 0.94068 1.6270 2.3047 1197.0 -0.0053445 174.20 0.12896
9.3750 5581.5 undefined 186.56 254.07 0.94645 570.00 0.0017544 186.56 254.07 0.94645 1.6311 2.3062 1199.1 -0.0053523 174.14 0.12909 570.00 0.0017544 186.56 254.07 0.94645 1.6311 2.3062 1199.1 -0.0053523 174.14 0.12909
10.375 5710.3 undefined 188.19 257.26 0.95222 570.00 0.0017544 188.19 257.26 0.95222 1.6352 2.3077 1201.1 -0.0053599 174.08 0.12923 570.00 0.0017544 188.19 257.26 0.95222 1.6352 2.3077 1201.1 -0.0053599 174.08 0.12923
11.375 5838.9 undefined 189.83 260.46 0.95799 570.00 0.0017544 189.83 260.46 0.95799 1.6393 2.3093 1203.1 -0.0053673 174.03 0.12936 570.00 0.0017544 189.83 260.46 0.95799 1.6393 2.3093 1203.1 -0.0053673 174.03 0.12936
12.375 5967.5 undefined 191.47 263.65 0.96375 570.00 0.0017544 191.47 263.65 0.96375 1.6434 2.3109 1205.1 -0.0053744 173.97 0.12949 570.00 0.0017544 191.47 263.65 0.96375 1.6434 2.3109 1205.1 -0.0053744 173.97 0.12949
13.375 6095.9 undefined 193.12 266.85 0.96950 570.00 0.0017544 193.12 266.85 0.96950 1.6476 2.3126 1207.1 -0.0053812 173.92 0.12962 570.00 0.0017544 193.12 266.85 0.96950 1.6476 2.3126 1207.1 -0.0053812 173.92 0.12962
14.375 6224.1 undefined 194.77 270.05 0.97525 570.00 0.0017544 194.77 270.05 0.97525 1.6517 2.3143 1209.0 -0.0053879 173.87 0.12976 570.00 0.0017544 194.77 270.05 0.97525 1.6517 2.3143 1209.0 -0.0053879 173.87 0.12976
15.375 6352.2 undefined 196.42 273.26 0.98099 570.00 0.0017544 196.42 273.26 0.98099 1.6559 2.3160 1211.0 -0.0053943 173.81 0.12989 570.00 0.0017544 196.42 273.26 0.98099 1.6559 2.3160 1211.0 -0.0053943 173.81 0.12989
16.375 6480.2 undefined 198.08 276.46 0.98673 570.00 0.0017544 198.08 276.46 0.98673 1.6600 2.3178 1212.9 -0.0054004 173.76 0.13002 570.00 0.0017544 198.08 276.46 0.98673 1.6600 2.3178 1212.9 -0.0054004 173.76 0.13002
17.375 6608.0 undefined 199.74 279.67 0.99246 570.00 0.0017544 199.74 279.67 0.99246 1.6642 2.3196 1214.9 -0.0054064 173.71 0.13016 570.00 0.0017544 199.74 279.67 0.99246 1.6642 2.3196 1214.9 -0.0054064 173.71 0.13016
18.375 6735.7 undefined 201.41 282.88 0.99818 570.00 0.0017544 201.41 282.88 0.99818 1.6684 2.3214 1216.8 -0.0054121 173.66 0.13029 570.00 0.0017544 201.41 282.88 0.99818 1.6684 2.3214 1216.8 -0.0054121 173.66 0.13029
19.375 6863.3 undefined 203.08 286.09 1.0039 570.00 0.0017544 203.08 286.09 1.0039 1.6726 2.3233 1218.7 -0.0054176 173.61 0.13042 570.00 0.0017544 203.08 286.09 1.0039 1.6726 2.3233 1218.7 -0.0054176 173.61 0.13042
20.375 6990.7 undefined 204.75 289.31 1.0096 570.00 0.0017544 204.75 289.31 1.0096 1.6767 2.3252 1220.6 -0.0054229 173.56 0.13056 570.00 0.0017544 204.75 289.31 1.0096 1.6767 2.3252 1220.6 -0.0054229 173.56 0.13056
21.375 7118.0 undefined 206.43 292.53 1.0153 570.00 0.0017544 206.43 292.53 1.0153 1.6810 2.3271 1222.5 -0.0054280 173.51 0.13069 570.00 0.0017544 206.43 292.53 1.0153 1.6810 2.3271 1222.5 -0.0054280 173.51 0.13069
22.375 7245.2 undefined 208.11 295.75 1.0210 570.00 0.0017544 208.11 295.75 1.0210 1.6852 2.3291 1224.4 -0.0054329 173.46 0.13083 570.00 0.0017544 208.11 295.75 1.0210 1.6852 2.3291 1224.4 -0.0054329 173.46 0.13083
23.375 7372.2 undefined 209.80 298.97 1.0267 570.00 0.0017544 209.80 298.97 1.0267 1.6894 2.3311 1226.3 -0.0054376 173.42 0.13096 570.00 0.0017544 209.80 298.97 1.0267 1.6894 2.3311 1226.3 -0.0054376 173.42 0.13096
24.375 7499.1 undefined 211.49 302.20 1.0324 570.00 0.0017544 211.49 302.20 1.0324 1.6936 2.3331 1228.1 -0.0054421 173.37 0.13110 570.00 0.0017544 211.49 302.20 1.0324 1.6936 2.3331 1228.1 -0.0054421 173.37 0.13110
25.375 7625.9 undefined 213.19 305.43 1.0381 570.00 0.0017544 213.19 305.43 1.0381 1.6978 2.3351 1230.0 -0.0054464 173.32 0.13123 570.00 0.0017544 213.19 305.43 1.0381 1.6978 2.3351 1230.0 -0.0054464 173.32 0.13123
26.375 7752.5 undefined 214.89 308.66 1.0438 570.00 0.0017544 214.89 308.66 1.0438 1.7021 2.3372 1231.9 -0.0054505 173.28 0.13137 570.00 0.0017544 214.89 308.66 1.0438 1.7021 2.3372 1231.9 -0.0054505 173.28 0.13137
27.375 7879.0 undefined 216.59 311.90 1.0495 570.00 0.0017544 216.59 311.90 1.0495 1.7063 2.3394 1233.7 -0.0054545 173.23 0.13151 570.00 0.0017544 216.59 311.90 1.0495 1.7063 2.3394 1233.7 -0.0054545 173.23 0.13151
28.375 8005.3 undefined 218.30 315.13 1.0552 570.00 0.0017544 218.30 315.13 1.0552 1.7106 2.3415 1235.5 -0.0054582 173.19 0.13164 570.00 0.0017544 218.30 315.13 1.0552 1.7106 2.3415 1235.5 -0.0054582 173.19 0.13164
29.375 8131.5 undefined 220.01 318.37 1.0608 570.00 0.0017544 220.01 318.37 1.0608 1.7149 2.3437 1237.4 -0.0054618 173.14 0.13178 570.00 0.0017544 220.01 318.37 1.0608 1.7149 2.3437 1237.4 -0.0054618 173.14 0.13178
30.375 8257.6 undefined 221.73 321.61 1.0665 570.00 0.0017544 221.73 321.61 1.0665 1.7191 2.3459 1239.2 -0.0054652 173.10 0.13192 570.00 0.0017544 221.73 321.61 1.0665 1.7191 2.3459 1239.2 -0.0054652 173.10 0.13192
31.375 8383.6 undefined 223.45 324.86 1.0722 570.00 0.0017544 223.45 324.86 1.0722 1.7234 2.3481 1241.0 -0.0054685 173.06 0.13206 570.00 0.0017544 223.45 324.86 1.0722 1.7234 2.3481 1241.0 -0.0054685 173.06 0.13206
32.375 8509.4 undefined 225.18 328.11 1.0778 570.00 0.0017544 225.18 328.11 1.0778 1.7277 2.3504 1242.8 -0.0054715 173.01 0.13219 570.00 0.0017544 225.18 328.11 1.0778 1.7277 2.3504 1242.8 -0.0054715 173.01 0.13219
33.375 8635.1 undefined 226.91 331.36 1.0835 570.00 0.0017544 226.91 331.36 1.0835 1.7320 2.3527 1244.6 -0.0054745 172.97 0.13233 570.00 0.0017544 226.91 331.36 1.0835 1.7320 2.3527 1244.6 -0.0054745 172.97 0.13233
34.375 8760.6 undefined 228.64 334.61 1.0891 570.00 0.0017544 228.64 334.61 1.0891 1.7363 2.3550 1246.4 -0.0054772 172.93 0.13247 570.00 0.0017544 228.64 334.61 1.0891 1.7363 2.3550 1246.4 -0.0054772 172.93 0.13247
35.375 8886.1 undefined 230.38 337.86 1.0948 570.00 0.0017544 230.38 337.86 1.0948 1.7406 2.3573 1248.1 -0.0054798 172.89 0.13261 570.00 0.0017544 230.38 337.86 1.0948 1.7406 2.3573 1248.1 -0.0054798 172.89 0.13261
36.375 9011.4 undefined 232.12 341.12 1.1004 570.00 0.0017544 232.12 341.12 1.1004 1.7449 2.3597 1249.9 -0.0054822 172.85 0.13275 570.00 0.0017544 232.12 341.12 1.1004 1.7449 2.3597 1249.9 -0.0054822 172.85 0.13275
37.375 9136.5 undefined 233.87 344.38 1.1060 570.00 0.0017544 233.87 344.38 1.1060 1.7492 2.3620 1251.7 -0.0054845 172.81 0.13289 570.00 0.0017544 233.87 344.38 1.1060 1.7492 2.3620 1251.7 -0.0054845 172.81 0.13289
38.375 9261.6 undefined 235.62 347.65 1.1117 570.00 0.0017544 235.62 347.65 1.1117 1.7535 2.3645 1253.4 -0.0054867 172.77 0.13303 570.00 0.0017544 235.62 347.65 1.1117 1.7535 2.3645 1253.4 -0.0054867 172.77 0.13303
39.375 9386.5 undefined 237.38 350.91 1.1173 570.00 0.0017544 237.38 350.91 1.1173 1.7578 2.3669 1255.2 -0.0054887 172.73 0.13317 570.00 0.0017544 237.38 350.91 1.1173 1.7578 2.3669 1255.2 -0.0054887 172.73 0.13317
40.375 9511.2 undefined 239.14 354.18 1.1229 570.00 0.0017544 239.14 354.18 1.1229 1.7622 2.3693 1256.9 -0.0054905 172.69 0.13331 570.00 0.0017544 239.14 354.18 1.1229 1.7622 2.3693 1256.9 -0.0054905 172.69 0.13331
41.375 9635.9 undefined 240.90 357.46 1.1285 570.00 0.0017544 240.90 357.46 1.1285 1.7665 2.3718 1258.6 -0.0054922 172.66 0.13345 570.00 0.0017544 240.90 357.46 1.1285 1.7665 2.3718 1258.6 -0.0054922 172.66 0.13345
42.375 9760.4 undefined 242.67 360.73 1.1341 570.00 0.0017544 242.67 360.73 1.1341 1.7708 2.3743 1260.4 -0.0054938 172.62 0.13359 570.00 0.0017544 242.67 360.73 1.1341 1.7708 2.3743 1260.4 -0.0054938 172.62 0.13359
43.375 9884.8 undefined 244.44 364.01 1.1398 570.00 0.0017544 244.44 364.01 1.1398 1.7752 2.3768 1262.1 -0.0054952 172.58 0.13373 570.00 0.0017544 244.44 364.01 1.1398 1.7752 2.3768 1262.1 -0.0054952 172.58 0.13373
44.375 10009. undefined 246.22 367.29 1.1454 570.00 0.0017544 246.22 367.29 1.1454 1.7795 2.3794 1263.8 -0.0054965 172.54 0.13387 570.00 0.0017544 246.22 367.29 1.1454 1.7795 2.3794 1263.8 -0.0054965 172.54 0.13387
45.375 10133. undefined 248.00 370.57 1.1510 570.00 0.0017544 248.00 370.57 1.1510 1.7839 2.3820 1265.5 -0.0054977 172.51 0.13402 570.00 0.0017544 248.00 370.57 1.1510 1.7839 2.3820 1265.5 -0.0054977 172.51 0.13402
46.375 10257. undefined 249.79 373.86 1.1566 570.00 0.0017544 249.79 373.86 1.1566 1.7882 2.3845 1267.2 -0.0054988 172.47 0.13416 570.00 0.0017544 249.79 373.86 1.1566 1.7882 2.3845 1267.2 -0.0054988 172.47 0.13416
47.375 10381. undefined 251.58 377.15 1.1622 570.00 0.0017544 251.58 377.15 1.1622 1.7926 2.3871 1268.9 -0.0054997 172.44 0.13430 570.00 0.0017544 251.58 377.15 1.1622 1.7926 2.3871 1268.9 -0.0054997 172.44 0.13430
48.375 10505. undefined 253.37 380.44 1.1677 570.00 0.0017544 253.37 380.44 1.1677 1.7969 2.3898 1270.6 -0.0055005 172.40 0.13444 570.00 0.0017544 253.37 380.44 1.1677 1.7969 2.3898 1270.6 -0.0055005 172.40 0.13444
49.375 10628. undefined 255.17 383.73 1.1733 570.00 0.0017544 255.17 383.73 1.1733 1.8013 2.3924 1272.2 -0.0055012 172.37 0.13459 570.00 0.0017544 255.17 383.73 1.1733 1.8013 2.3924 1272.2 -0.0055012 172.37 0.13459
50.375 10752. undefined 256.97 387.03 1.1789 570.00 0.0017544 256.97 387.03 1.1789 1.8056 2.3951 1273.9 -0.0055018 172.34 0.13473 570.00 0.0017544 256.97 387.03 1.1789 1.8056 2.3951 1273.9 -0.0055018 172.34 0.13473
51.375 10875. undefined 258.78 390.33 1.1845 570.00 0.0017544 258.78 390.33 1.1845 1.8100 2.3978 1275.6 -0.0055022 172.30 0.13487 570.00 0.0017544 258.78 390.33 1.1845 1.8100 2.3978 1275.6 -0.0055022 172.30 0.13487
52.375 10998. undefined 260.59 393.63 1.1901 570.00 0.0017544 260.59 393.63 1.1901 1.8144 2.4005 1277.3 -0.0055026 172.27 0.13502 570.00 0.0017544 260.59 393.63 1.1901 1.8144 2.4005 1277.3 -0.0055026 172.27 0.13502
53.375 11122. undefined 262.41 396.94 1.1956 570.00 0.0017544 262.41 396.94 1.1956 1.8188 2.4032 1278.9 -0.0055028 172.24 0.13516 570.00 0.0017544 262.41 396.94 1.1956 1.8188 2.4032 1278.9 -0.0055028 172.24 0.13516
54.375 11245. undefined 264.23 400.25 1.2012 570.00 0.0017544 264.23 400.25 1.2012 1.8231 2.4059 1280.6 -0.0055029 172.21 0.13531 570.00 0.0017544 264.23 400.25 1.2012 1.8231 2.4059 1280.6 -0.0055029 172.21 0.13531
55.375 11367. undefined 266.06 403.56 1.2068 570.00 0.0017544 266.06 403.56 1.2068 1.8275 2.4087 1282.2 -0.0055030 172.17 0.13545 570.00 0.0017544 266.06 403.56 1.2068 1.8275 2.4087 1282.2 -0.0055030 172.17 0.13545
56.375 11490. undefined 267.89 406.87 1.2123 570.00 0.0017544 267.89 406.87 1.2123 1.8319 2.4114 1283.8 -0.0055029 172.14 0.13560 570.00 0.0017544 267.89 406.87 1.2123 1.8319 2.4114 1283.8 -0.0055029 172.14 0.13560
57.375 11613. undefined 269.72 410.19 1.2179 570.00 0.0017544 269.72 410.19 1.2179 1.8363 2.4142 1285.5 -0.0055027 172.11 0.13574 570.00 0.0017544 269.72 410.19 1.2179 1.8363 2.4142 1285.5 -0.0055027 172.11 0.13574
58.375 11735. undefined 271.56 413.51 1.2234 570.00 0.0017544 271.56 413.51 1.2234 1.8407 2.4170 1287.1 -0.0055024 172.08 0.13589 570.00 0.0017544 271.56 413.51 1.2234 1.8407 2.4170 1287.1 -0.0055024 172.08 0.13589
59.375 11858. undefined 273.40 416.83 1.2290 570.00 0.0017544 273.40 416.83 1.2290 1.8450 2.4198 1288.7 -0.0055021 172.05 0.13603 570.00 0.0017544 273.40 416.83 1.2290 1.8450 2.4198 1288.7 -0.0055021 172.05 0.13603
60.375 11980. undefined 275.25 420.16 1.2345 570.00 0.0017544 275.25 420.16 1.2345 1.8494 2.4227 1290.3 -0.0055016 172.02 0.13618 570.00 0.0017544 275.25 420.16 1.2345 1.8494 2.4227 1290.3 -0.0055016 172.02 0.13618
61.375 12102. undefined 277.10 423.49 1.2401 570.00 0.0017544 277.10 423.49 1.2401 1.8538 2.4255 1291.9 -0.0055010 171.99 0.13632 570.00 0.0017544 277.10 423.49 1.2401 1.8538 2.4255 1291.9 -0.0055010 171.99 0.13632
62.375 12224. undefined 278.96 426.82 1.2456 570.00 0.0017544 278.96 426.82 1.2456 1.8582 2.4284 1293.5 -0.0055004 171.97 0.13647 570.00 0.0017544 278.96 426.82 1.2456 1.8582 2.4284 1293.5 -0.0055004 171.97 0.13647
63.375 12346. undefined 280.82 430.15 1.2512 570.00 0.0017544 280.82 430.15 1.2512 1.8626 2.4312 1295.1 -0.0054996 171.94 0.13662 570.00 0.0017544 280.82 430.15 1.2512 1.8626 2.4312 1295.1 -0.0054996 171.94 0.13662
64.375 12468. undefined 282.68 433.49 1.2567 570.00 0.0017544 282.68 433.49 1.2567 1.8670 2.4341 1296.7 -0.0054988 171.91 0.13677 570.00 0.0017544 282.68 433.49 1.2567 1.8670 2.4341 1296.7 -0.0054988 171.91 0.13677
65.375 12589. undefined 284.55 436.83 1.2622 570.00 0.0017544 284.55 436.83 1.2622 1.8714 2.4370 1298.3 -0.0054979 171.88 0.13691 570.00 0.0017544 284.55 436.83 1.2622 1.8714 2.4370 1298.3 -0.0054979 171.88 0.13691
66.375 12711. undefined 286.42 440.18 1.2678 570.00 0.0017544 286.42 440.18 1.2678 1.8758 2.4400 1299.9 -0.0054969 171.86 0.13706 570.00 0.0017544 286.42 440.18 1.2678 1.8758 2.4400 1299.9 -0.0054969 171.86 0.13706
67.375 12832. undefined 288.30 443.52 1.2733 570.00 0.0017544 288.30 443.52 1.2733 1.8802 2.4429 1301.5 -0.0054958 171.83 0.13721 570.00 0.0017544 288.30 443.52 1.2733 1.8802 2.4429 1301.5 -0.0054958 171.83 0.13721
68.375 12954. undefined 290.19 446.87 1.2788 570.00 0.0017544 290.19 446.87 1.2788 1.8846 2.4458 1303.1 -0.0054946 171.80 0.13736 570.00 0.0017544 290.19 446.87 1.2788 1.8846 2.4458 1303.1 -0.0054946 171.80 0.13736
69.375 13075. undefined 292.07 450.22 1.2843 570.00 0.0017544 292.07 450.22 1.2843 1.8890 2.4488 1304.6 -0.0054934 171.78 0.13751 570.00 0.0017544 292.07 450.22 1.2843 1.8890 2.4488 1304.6 -0.0054934 171.78 0.13751
70.375 13196. undefined 293.96 453.58 1.2898 570.00 0.0017544 293.96 453.58 1.2898 1.8934 2.4518 1306.2 -0.0054920 171.75 0.13766 570.00 0.0017544 293.96 453.58 1.2898 1.8934 2.4518 1306.2 -0.0054920 171.75 0.13766
71.375 13317. undefined 295.86 456.94 1.2953 570.00 0.0017544 295.86 456.94 1.2953 1.8978 2.4548 1307.7 -0.0054906 171.73 0.13781 570.00 0.0017544 295.86 456.94 1.2953 1.8978 2.4548 1307.7 -0.0054906 171.73 0.13781
72.375 13437. undefined 297.76 460.30 1.3008 570.00 0.0017544 297.76 460.30 1.3008 1.9022 2.4578 1309.3 -0.0054892 171.70 0.13796 570.00 0.0017544 297.76 460.30 1.3008 1.9022 2.4578 1309.3 -0.0054892 171.70 0.13796
73.375 13558. undefined 299.66 463.66 1.3063 570.00 0.0017544 299.66 463.66 1.3063 1.9066 2.4608 1310.9 -0.0054876 171.68 0.13811 570.00 0.0017544 299.66 463.66 1.3063 1.9066 2.4608 1310.9 -0.0054876 171.68 0.13811
74.375 13679. undefined 301.57 467.03 1.3118 570.00 0.0017544 301.57 467.03 1.3118 1.9110 2.4638 1312.4 -0.0054860 171.65 0.13826 570.00 0.0017544 301.57 467.03 1.3118 1.9110 2.4638 1312.4 -0.0054860 171.65 0.13826
75.375 13799. undefined 303.48 470.40 1.3173 570.00 0.0017544 303.48 470.40 1.3173 1.9154 2.4668 1313.9 -0.0054843 171.63 0.13841 570.00 0.0017544 303.48 470.40 1.3173 1.9154 2.4668 1313.9 -0.0054843 171.63 0.13841
76.375 13920. undefined 305.40 473.77 1.3228 570.00 0.0017544 305.40 473.77 1.3228 1.9198 2.4698 1315.5 -0.0054826 171.60 0.13856 570.00 0.0017544 305.40 473.77 1.3228 1.9198 2.4698 1315.5 -0.0054826 171.60 0.13856
77.375 14040. undefined 307.32 477.15 1.3283 570.00 0.0017544 307.32 477.15 1.3283 1.9242 2.4729 1317.0 -0.0054807 171.58 0.13871 570.00 0.0017544 307.32 477.15 1.3283 1.9242 2.4729 1317.0 -0.0054807 171.58 0.13871
78.375 14160. undefined 309.25 480.53 1.3338 570.00 0.0017544 309.25 480.53 1.3338 1.9286 2.4760 1318.5 -0.0054789 171.56 0.13886 570.00 0.0017544 309.25 480.53 1.3338 1.9286 2.4760 1318.5 -0.0054789 171.56 0.13886
79.375 14280. undefined 311.18 483.91 1.3393 570.00 0.0017544 311.18 483.91 1.3393 1.9330 2.4790 1320.0 -0.0054769 171.54 0.13901 570.00 0.0017544 311.18 483.91 1.3393 1.9330 2.4790 1320.0 -0.0054769 171.54 0.13901
80.375 14400. undefined 313.12 487.30 1.3448 570.00 0.0017544 313.12 487.30 1.3448 1.9374 2.4821 1321.6 -0.0054749 171.51 0.13916 570.00 0.0017544 313.12 487.30 1.3448 1.9374 2.4821 1321.6 -0.0054749 171.51 0.13916
81.375 14520. undefined 315.06 490.69 1.3503 570.00 0.0017544 315.06 490.69 1.3503 1.9418 2.4852 1323.1 -0.0054728 171.49 0.13932 570.00 0.0017544 315.06 490.69 1.3503 1.9418 2.4852 1323.1 -0.0054728 171.49 0.13932
82.375 14639. undefined 317.00 494.08 1.3557 570.00 0.0017544 317.00 494.08 1.3557 1.9462 2.4883 1324.6 -0.0054707 171.47 0.13947 570.00 0.0017544 317.00 494.08 1.3557 1.9462 2.4883 1324.6 -0.0054707 171.47 0.13947
83.375 14759. undefined 318.95 497.47 1.3612 570.00 0.0017544 318.95 497.47 1.3612 1.9506 2.4914 1326.1 -0.0054685 171.45 0.13962 570.00 0.0017544 318.95 497.47 1.3612 1.9506 2.4914 1326.1 -0.0054685 171.45 0.13962
84.375 14878. undefined 320.90 500.87 1.3667 570.00 0.0017544 320.90 500.87 1.3667 1.9550 2.4945 1327.6 -0.0054663 171.43 0.13978 570.00 0.0017544 320.90 500.87 1.3667 1.9550 2.4945 1327.6 -0.0054663 171.43 0.13978
85.375 14997. undefined 322.86 504.27 1.3721 570.00 0.0017544 322.86 504.27 1.3721 1.9593 2.4977 1329.1 -0.0054640 171.41 0.13993 570.00 0.0017544 322.86 504.27 1.3721 1.9593 2.4977 1329.1 -0.0054640 171.41 0.13993
86.375 15117. undefined 324.82 507.67 1.3776 570.00 0.0017544 324.82 507.67 1.3776 1.9637 2.5008 1330.6 -0.0054616 171.39 0.14008 570.00 0.0017544 324.82 507.67 1.3776 1.9637 2.5008 1330.6 -0.0054616 171.39 0.14008
87.375 15236. undefined 326.79 511.08 1.3831 570.00 0.0017544 326.79 511.08 1.3831 1.9681 2.5040 1332.1 -0.0054592 171.37 0.14024 570.00 0.0017544 326.79 511.08 1.3831 1.9681 2.5040 1332.1 -0.0054592 171.37 0.14024
88.375 15355. undefined 328.76 514.49 1.3885 570.00 0.0017544 328.76 514.49 1.3885 1.9725 2.5071 1333.5 -0.0054568 171.35 0.14039 570.00 0.0017544 328.76 514.49 1.3885 1.9725 2.5071 1333.5 -0.0054568 171.35 0.14039
89.375 15474. undefined 330.73 517.90 1.3940 570.00 0.0017544 330.73 517.90 1.3940 1.9769 2.5103 1335.0 -0.0054542 171.33 0.14055 570.00 0.0017544 330.73 517.90 1.3940 1.9769 2.5103 1335.0 -0.0054542 171.33 0.14055
90.375 15592. undefined 332.71 521.32 1.3994 570.00 0.0017544 332.71 521.32 1.3994 1.9813 2.5134 1336.5 -0.0054517 171.31 0.14070 570.00 0.0017544 332.71 521.32 1.3994 1.9813 2.5134 1336.5 -0.0054517 171.31 0.14070
91.375 15711. undefined 334.69 524.73 1.4049 570.00 0.0017544 334.69 524.73 1.4049 1.9857 2.5166 1338.0 -0.0054491 171.29 0.14086 570.00 0.0017544 334.69 524.73 1.4049 1.9857 2.5166 1338.0 -0.0054491 171.29 0.14086
92.375 15829. undefined 336.68 528.16 1.4103 570.00 0.0017544 336.68 528.16 1.4103 1.9901 2.5198 1339.4 -0.0054464 171.27 0.14101 570.00 0.0017544 336.68 528.16 1.4103 1.9901 2.5198 1339.4 -0.0054464 171.27 0.14101
93.375 15948. undefined 338.67 531.58 1.4158 570.00 0.0017544 338.67 531.58 1.4158 1.9945 2.5230 1340.9 -0.0054437 171.25 0.14117 570.00 0.0017544 338.67 531.58 1.4158 1.9945 2.5230 1340.9 -0.0054437 171.25 0.14117
94.375 16066. undefined 340.67 535.01 1.4212 570.00 0.0017544 340.67 535.01 1.4212 1.9988 2.5262 1342.4 -0.0054410 171.24 0.14132 570.00 0.0017544 340.67 535.01 1.4212 1.9988 2.5262 1342.4 -0.0054410 171.24 0.14132
95.375 16184. undefined 342.67 538.44 1.4267 570.00 0.0017544 342.67 538.44 1.4267 2.0032 2.5294 1343.8 -0.0054382 171.22 0.14148 570.00 0.0017544 342.67 538.44 1.4267 2.0032 2.5294 1343.8 -0.0054382 171.22 0.14148
96.375 16302. undefined 344.68 541.87 1.4321 570.00 0.0017544 344.68 541.87 1.4321 2.0076 2.5326 1345.3 -0.0054354 171.20 0.14164 570.00 0.0017544 344.68 541.87 1.4321 2.0076 2.5326 1345.3 -0.0054354 171.20 0.14164
97.375 16420. undefined 346.69 545.31 1.4375 570.00 0.0017544 346.69 545.31 1.4375 2.0120 2.5359 1346.7 -0.0054325 171.18 0.14179 570.00 0.0017544 346.69 545.31 1.4375 2.0120 2.5359 1346.7 -0.0054325 171.18 0.14179
98.375 16538. undefined 348.70 548.75 1.4429 570.00 0.0017544 348.70 548.75 1.4429 2.0163 2.5391 1348.2 -0.0054296 171.17 0.14195 570.00 0.0017544 348.70 548.75 1.4429 2.0163 2.5391 1348.2 -0.0054296 171.17 0.14195
99.375 16656. undefined 350.72 552.19 1.4484 570.00 0.0017544 350.72 552.19 1.4484 2.0207 2.5423 1349.6 -0.0054266 171.15 0.14211 570.00 0.0017544 350.72 552.19 1.4484 2.0207 2.5423 1349.6 -0.0054266 171.15 0.14211
100.38 16774. undefined 352.74 555.64 1.4538 570.00 0.0017544 352.74 555.64 1.4538 2.0251 2.5456 1351.0 -0.0054236 171.13 0.14227 570.00 0.0017544 352.74 555.64 1.4538 2.0251 2.5456 1351.0 -0.0054236 171.13 0.14227
101.38 16891. undefined 354.77 559.09 1.4592 570.00 0.0017544 354.77 559.09 1.4592 2.0295 2.5488 1352.5 -0.0054206 171.12 0.14243 570.00 0.0017544 354.77 559.09 1.4592 2.0295 2.5488 1352.5 -0.0054206 171.12 0.14243
102.38 17009. undefined 356.80 562.54 1.4646 570.00 0.0017544 356.80 562.54 1.4646 2.0338 2.5521 1353.9 -0.0054175 171.10 0.14258 570.00 0.0017544 356.80 562.54 1.4646 2.0338 2.5521 1353.9 -0.0054175 171.10 0.14258
103.38 17126. undefined 358.84 565.99 1.4700 570.00 0.0017544 358.84 565.99 1.4700 2.0382 2.5553 1355.3 -0.0054144 171.09 0.14274 570.00 0.0017544 358.84 565.99 1.4700 2.0382 2.5553 1355.3 -0.0054144 171.09 0.14274
104.38 17243. undefined 360.88 569.45 1.4755 570.00 0.0017544 360.88 569.45 1.4755 2.0426 2.5586 1356.7 -0.0054113 171.07 0.14290 570.00 0.0017544 360.88 569.45 1.4755 2.0426 2.5586 1356.7 -0.0054113 171.07 0.14290
105.38 17360. undefined 362.92 572.91 1.4809 570.00 0.0017544 362.92 572.91 1.4809 2.0469 2.5619 1358.2 -0.0054081 171.06 0.14306 570.00 0.0017544 362.92 572.91 1.4809 2.0469 2.5619 1358.2 -0.0054081 171.06 0.14306
106.38 17477. undefined 364.97 576.38 1.4863 570.00 0.0017544 364.97 576.38 1.4863 2.0513 2.5651 1359.6 -0.0054049 171.04 0.14322 570.00 0.0017544 364.97 576.38 1.4863 2.0513 2.5651 1359.6 -0.0054049 171.04 0.14322
107.38 17594. undefined 367.02 579.85 1.4917 570.00 0.0017544 367.02 579.85 1.4917 2.0556 2.5684 1361.0 -0.0054016 171.03 0.14338 570.00 0.0017544 367.02 579.85 1.4917 2.0556 2.5684 1361.0 -0.0054016 171.03 0.14338
108.38 17711. undefined 369.08 583.32 1.4971 570.00 0.0017544 369.08 583.32 1.4971 2.0600 2.5717 1362.4 -0.0053984 171.01 0.14354 570.00 0.0017544 369.08 583.32 1.4971 2.0600 2.5717 1362.4 -0.0053984 171.01 0.14354
109.38 17828. undefined 371.14 586.79 1.5025 570.00 0.0017544 371.14 586.79 1.5025 2.0643 2.5750 1363.8 -0.0053951 171.00 0.14370 570.00 0.0017544 371.14 586.79 1.5025 2.0643 2.5750 1363.8 -0.0053951 171.00 0.14370
110.38 17944. undefined 373.21 590.27 1.5079 570.00 0.0017544 373.21 590.27 1.5079 2.0687 2.5783 1365.2 -0.0053917 170.99 0.14386 570.00 0.0017544 373.21 590.27 1.5079 2.0687 2.5783 1365.2 -0.0053917 170.99 0.14386
111.38 18061. undefined 375.28 593.75 1.5133 570.00 0.0017544 375.28 593.75 1.5133 2.0730 2.5816 1366.6 -0.0053884 170.97 0.14402 570.00 0.0017544 375.28 593.75 1.5133 2.0730 2.5816 1366.6 -0.0053884 170.97 0.14402
112.38 18177. undefined 377.36 597.23 1.5187 570.00 0.0017544 377.36 597.23 1.5187 2.0774 2.5849 1368.0 -0.0053850 170.96 0.14419 570.00 0.0017544 377.36 597.23 1.5187 2.0774 2.5849 1368.0 -0.0053850 170.96 0.14419
113.38 18293. undefined 379.44 600.72 1.5240 570.00 0.0017544 379.44 600.72 1.5240 2.0817 2.5882 1369.4 -0.0053816 170.95 0.14435 570.00 0.0017544 379.44 600.72 1.5240 2.0817 2.5882 1369.4 -0.0053816 170.95 0.14435
114.38 18410. undefined 381.52 604.20 1.5294 570.00 0.0017544 381.52 604.20 1.5294 2.0860 2.5915 1370.8 -0.0053781 170.93 0.14451 570.00 0.0017544 381.52 604.20 1.5294 2.0860 2.5915 1370.8 -0.0053781 170.93 0.14451
115.38 18526. undefined 383.61 607.70 1.5348 570.00 0.0017544 383.61 607.70 1.5348 2.0904 2.5948 1372.1 -0.0053746 170.92 0.14467 570.00 0.0017544 383.61 607.70 1.5348 2.0904 2.5948 1372.1 -0.0053746 170.92 0.14467
116.38 18642. undefined 385.70 611.19 1.5402 570.00 0.0017544 385.70 611.19 1.5402 2.0947 2.5981 1373.5 -0.0053711 170.91 0.14483 570.00 0.0017544 385.70 611.19 1.5402 2.0947 2.5981 1373.5 -0.0053711 170.91 0.14483
117.38 18757. undefined 387.80 614.69 1.5456 570.00 0.0017544 387.80 614.69 1.5456 2.0990 2.6015 1374.9 -0.0053676 170.90 0.14500 570.00 0.0017544 387.80 614.69 1.5456 2.0990 2.6015 1374.9 -0.0053676 170.90 0.14500
118.38 18873. undefined 389.90 618.19 1.5509 570.00 0.0017544 389.90 618.19 1.5509 2.1033 2.6048 1376.3 -0.0053640 170.88 0.14516 570.00 0.0017544 389.90 618.19 1.5509 2.1033 2.6048 1376.3 -0.0053640 170.88 0.14516
119.38 18989. undefined 392.00 621.70 1.5563 570.00 0.0017544 392.00 621.70 1.5563 2.1077 2.6081 1377.6 -0.0053605 170.87 0.14532 570.00 0.0017544 392.00 621.70 1.5563 2.1077 2.6081 1377.6 -0.0053605 170.87 0.14532
120.38 19104. undefined 394.11 625.20 1.5617 570.00 0.0017544 394.11 625.20 1.5617 2.1120 2.6114 1379.0 -0.0053569 170.86 0.14549 570.00 0.0017544 394.11 625.20 1.5617 2.1120 2.6114 1379.0 -0.0053569 170.86 0.14549
121.38 19220. undefined 396.23 628.71 1.5670 570.00 0.0017544 396.23 628.71 1.5670 2.1163 2.6148 1380.4 -0.0053533 170.85 0.14565 570.00 0.0017544 396.23 628.71 1.5670 2.1163 2.6148 1380.4 -0.0053533 170.85 0.14565
122.38 19335. undefined 398.35 632.23 1.5724 570.00 0.0017544 398.35 632.23 1.5724 2.1206 2.6181 1381.7 -0.0053496 170.84 0.14582 570.00 0.0017544 398.35 632.23 1.5724 2.1206 2.6181 1381.7 -0.0053496 170.84 0.14582
123.38 19451. undefined 400.47 635.74 1.5778 570.00 0.0017544 400.47 635.74 1.5778 2.1249 2.6215 1383.1 -0.0053459 170.83 0.14598 570.00 0.0017544 400.47 635.74 1.5778 2.1249 2.6215 1383.1 -0.0053459 170.83 0.14598
124.38 19566. undefined 402.60 639.26 1.5831 570.00 0.0017544 402.60 639.26 1.5831 2.1292 2.6248 1384.4 -0.0053423 170.82 0.14615 570.00 0.0017544 402.60 639.26 1.5831 2.1292 2.6248 1384.4 -0.0053423 170.82 0.14615
125.38 19681. undefined 404.73 642.79 1.5885 570.00 0.0017544 404.73 642.79 1.5885 2.1335 2.6282 1385.8 -0.0053386 170.81 0.14631 570.00 0.0017544 404.73 642.79 1.5885 2.1335 2.6282 1385.8 -0.0053386 170.81 0.14631
126.38 19796. undefined 406.86 646.31 1.5938 570.00 0.0017544 406.86 646.31 1.5938 2.1378 2.6315 1387.1 -0.0053348 170.80 0.14648 570.00 0.0017544 406.86 646.31 1.5938 2.1378 2.6315 1387.1 -0.0053348 170.80 0.14648
127.38 19911. undefined 409.00 649.84 1.5992 570.00 0.0017544 409.00 649.84 1.5992 2.1421 2.6349 1388.5 -0.0053311 170.79 0.14664 570.00 0.0017544 409.00 649.84 1.5992 2.1421 2.6349 1388.5 -0.0053311 170.79 0.14664
128.38 20025. undefined 411.15 653.38 1.6045 570.00 0.0017544 411.15 653.38 1.6045 2.1464 2.6382 1389.8 -0.0053273 170.78 0.14681 570.00 0.0017544 411.15 653.38 1.6045 2.1464 2.6382 1389.8 -0.0053273 170.78 0.14681
129.38 20140. undefined 413.30 656.91 1.6099 570.00 0.0017544 413.30 656.91 1.6099 2.1507 2.6416 1391.2 -0.0053236 170.77 0.14697 570.00 0.0017544 413.30 656.91 1.6099 2.1507 2.6416 1391.2 -0.0053236 170.77 0.14697
130.38 20254. undefined 415.45 660.45 1.6152 570.00 0.0017544 415.45 660.45 1.6152 2.1550 2.6449 1392.5 -0.0053198 170.76 0.14714 570.00 0.0017544 415.45 660.45 1.6152 2.1550 2.6449 1392.5 -0.0053198 170.76 0.14714
131.38 20369. undefined 417.61 663.99 1.6205 570.00 0.0017544 417.61 663.99 1.6205 2.1592 2.6483 1393.8 -0.0053159 170.75 0.14731 570.00 0.0017544 417.61 663.99 1.6205 2.1592 2.6483 1393.8 -0.0053159 170.75 0.14731
132.38 20483. undefined 419.77 667.54 1.6259 570.00 0.0017544 419.77 667.54 1.6259 2.1635 2.6517 1395.2 -0.0053121 170.74 0.14748 570.00 0.0017544 419.77 667.54 1.6259 2.1635 2.6517 1395.2 -0.0053121 170.74 0.14748
133.38 20598. undefined 421.93 671.08 1.6312 570.00 0.0017544 421.93 671.08 1.6312 2.1678 2.6550 1396.5 -0.0053083 170.73 0.14764 570.00 0.0017544 421.93 671.08 1.6312 2.1678 2.6550 1396.5 -0.0053083 170.73 0.14764
134.38 20712. undefined 424.10 674.63 1.6365 570.00 0.0017544 424.10 674.63 1.6365 2.1721 2.6584 1397.8 -0.0053044 170.72 0.14781 570.00 0.0017544 424.10 674.63 1.6365 2.1721 2.6584 1397.8 -0.0053044 170.72 0.14781
135.38 20826. undefined 426.28 678.19 1.6419 570.00 0.0017544 426.28 678.19 1.6419 2.1763 2.6618 1399.1 -0.0053005 170.72 0.14798 570.00 0.0017544 426.28 678.19 1.6419 2.1763 2.6618 1399.1 -0.0053005 170.72 0.14798
136.38 20940. undefined 428.46 681.74 1.6472 570.00 0.0017544 428.46 681.74 1.6472 2.1806 2.6651 1400.4 -0.0052967 170.71 0.14815 570.00 0.0017544 428.46 681.74 1.6472 2.1806 2.6651 1400.4 -0.0052967 170.71 0.14815
137.38 21054. undefined 430.64 685.30 1.6525 570.00 0.0017544 430.64 685.30 1.6525 2.1848 2.6685 1401.8 -0.0052928 170.70 0.14832 570.00 0.0017544 430.64 685.30 1.6525 2.1848 2.6685 1401.8 -0.0052928 170.70 0.14832
138.38 21167. undefined 432.83 688.87 1.6578 570.00 0.0017544 432.83 688.87 1.6578 2.1891 2.6719 1403.1 -0.0052888 170.69 0.14849 570.00 0.0017544 432.83 688.87 1.6578 2.1891 2.6719 1403.1 -0.0052888 170.69 0.14849
139.38 21281. undefined 435.02 692.43 1.6632 570.00 0.0017544 435.02 692.43 1.6632 2.1933 2.6753 1404.4 -0.0052849 170.68 0.14865 570.00 0.0017544 435.02 692.43 1.6632 2.1933 2.6753 1404.4 -0.0052849 170.68 0.14865
140.38 21395. undefined 437.21 696.00 1.6685 570.00 0.0017544 437.21 696.00 1.6685 2.1976 2.6786 1405.7 -0.0052810 170.68 0.14882 570.00 0.0017544 437.21 696.00 1.6685 2.1976 2.6786 1405.7 -0.0052810 170.68 0.14882
141.38 21508. undefined 439.41 699.58 1.6738 570.00 0.0017544 439.41 699.58 1.6738 2.2018 2.6820 1407.0 -0.0052770 170.67 0.14899 570.00 0.0017544 439.41 699.58 1.6738 2.2018 2.6820 1407.0 -0.0052770 170.67 0.14899
142.38 21621. undefined 441.62 703.15 1.6791 570.00 0.0017544 441.62 703.15 1.6791 2.2061 2.6854 1408.3 -0.0052731 170.66 0.14916 570.00 0.0017544 441.62 703.15 1.6791 2.2061 2.6854 1408.3 -0.0052731 170.66 0.14916
143.38 21735. undefined 443.82 706.73 1.6844 570.00 0.0017544 443.82 706.73 1.6844 2.2103 2.6888 1409.6 -0.0052691 170.66 0.14933 570.00 0.0017544 443.82 706.73 1.6844 2.2103 2.6888 1409.6 -0.0052691 170.66 0.14933
144.38 21848. undefined 446.04 710.31 1.6897 570.00 0.0017544 446.04 710.31 1.6897 2.2145 2.6922 1410.9 -0.0052651 170.65 0.14951 570.00 0.0017544 446.04 710.31 1.6897 2.2145 2.6922 1410.9 -0.0052651 170.65 0.14951
145.38 21961. undefined 448.25 713.90 1.6950 570.00 0.0017544 448.25 713.90 1.6950 2.2187 2.6955 1412.2 -0.0052611 170.64 0.14968 570.00 0.0017544 448.25 713.90 1.6950 2.2187 2.6955 1412.2 -0.0052611 170.64 0.14968
146.38 22074. undefined 450.47 717.48 1.7003 570.00 0.0017544 450.47 717.48 1.7003 2.2230 2.6989 1413.5 -0.0052571 170.64 0.14985 570.00 0.0017544 450.47 717.48 1.7003 2.2230 2.6989 1413.5 -0.0052571 170.64 0.14985
147.38 22187. undefined 452.70 721.07 1.7056 570.00 0.0017544 452.70 721.07 1.7056 2.2272 2.7023 1414.7 -0.0052531 170.63 0.15002 570.00 0.0017544 452.70 721.07 1.7056 2.2272 2.7023 1414.7 -0.0052531 170.63 0.15002
148.38 22300. undefined 454.93 724.67 1.7109 570.00 0.0017544 454.93 724.67 1.7109 2.2314 2.7057 1416.0 -0.0052491 170.62 0.15019 570.00 0.0017544 454.93 724.67 1.7109 2.2314 2.7057 1416.0 -0.0052491 170.62 0.15019
149.38 22412. undefined 457.16 728.27 1.7162 570.00 0.0017544 457.16 728.27 1.7162 2.2356 2.7091 1417.3 -0.0052450 170.62 0.15036 570.00 0.0017544 457.16 728.27 1.7162 2.2356 2.7091 1417.3 -0.0052450 170.62 0.15036
150.38 22525. undefined 459.40 731.87 1.7215 570.00 0.0017544 459.40 731.87 1.7215 2.2398 2.7125 1418.6 -0.0052410 170.61 0.15054 570.00 0.0017544 459.40 731.87 1.7215 2.2398 2.7125 1418.6 -0.0052410 170.61 0.15054
151.38 22638. undefined 461.64 735.47 1.7268 570.00 0.0017544 461.64 735.47 1.7268 2.2440 2.7158 1419.9 -0.0052369 170.61 0.15071 570.00 0.0017544 461.64 735.47 1.7268 2.2440 2.7158 1419.9 -0.0052369 170.61 0.15071
152.38 22750. undefined 463.89 739.07 1.7321 570.00 0.0017544 463.89 739.07 1.7321 2.2482 2.7192 1421.1 -0.0052329 170.60 0.15088 570.00 0.0017544 463.89 739.07 1.7321 2.2482 2.7192 1421.1 -0.0052329 170.60 0.15088
153.38 22862. undefined 466.14 742.68 1.7373 570.00 0.0017544 466.14 742.68 1.7373 2.2524 2.7226 1422.4 -0.0052288 170.60 0.15106 570.00 0.0017544 466.14 742.68 1.7373 2.2524 2.7226 1422.4 -0.0052288 170.60 0.15106
154.38 22975. undefined 468.39 746.30 1.7426 570.00 0.0017544 468.39 746.30 1.7426 2.2566 2.7260 1423.7 -0.0052248 170.59 0.15123 570.00 0.0017544 468.39 746.30 1.7426 2.2566 2.7260 1423.7 -0.0052248 170.59 0.15123
155.38 23087. undefined 470.65 749.91 1.7479 570.00 0.0017544 470.65 749.91 1.7479 2.2607 2.7294 1424.9 -0.0052207 170.59 0.15140 570.00 0.0017544 470.65 749.91 1.7479 2.2607 2.7294 1424.9 -0.0052207 170.59 0.15140
156.38 23199. undefined 472.91 753.53 1.7532 570.00 0.0017544 472.91 753.53 1.7532 2.2649 2.7328 1426.2 -0.0052166 170.58 0.15158 570.00 0.0017544 472.91 753.53 1.7532 2.2649 2.7328 1426.2 -0.0052166 170.58 0.15158
157.38 23311. undefined 475.18 757.15 1.7585 570.00 0.0017544 475.18 757.15 1.7585 2.2691 2.7361 1427.5 -0.0052125 170.58 0.15175 570.00 0.0017544 475.18 757.15 1.7585 2.2691 2.7361 1427.5 -0.0052125 170.58 0.15175
158.38 23423. undefined 477.45 760.78 1.7637 570.00 0.0017544 477.45 760.78 1.7637 2.2733 2.7395 1428.7 -0.0052084 170.57 0.15193 570.00 0.0017544 477.45 760.78 1.7637 2.2733 2.7395 1428.7 -0.0052084 170.57 0.15193
159.38 23535. undefined 479.73 764.40 1.7690 570.00 0.0017544 479.73 764.40 1.7690 2.2774 2.7429 1430.0 -0.0052043 170.57 0.15210 570.00 0.0017544 479.73 764.40 1.7690 2.2774 2.7429 1430.0 -0.0052043 170.57 0.15210
160.38 23646. undefined 482.01 768.03 1.7743 570.00 0.0017544 482.01 768.03 1.7743 2.2816 2.7463 1431.2 -0.0052002 170.57 0.15228 570.00 0.0017544 482.01 768.03 1.7743 2.2816 2.7463 1431.2 -0.0052002 170.57 0.15228
161.38 23758. undefined 484.29 771.67 1.7795 570.00 0.0017544 484.29 771.67 1.7795 2.2857 2.7497 1432.5 -0.0051961 170.56 0.15245 570.00 0.0017544 484.29 771.67 1.7795 2.2857 2.7497 1432.5 -0.0051961 170.56 0.15245
162.38 23869. undefined 486.58 775.31 1.7848 570.00 0.0017544 486.58 775.31 1.7848 2.2899 2.7531 1433.7 -0.0051920 170.56 0.15263 570.00 0.0017544 486.58 775.31 1.7848 2.2899 2.7531 1433.7 -0.0051920 170.56 0.15263
163.38 23981. undefined 488.87 778.94 1.7900 570.00 0.0017544 488.87 778.94 1.7900 2.2940 2.7565 1435.0 -0.0051879 170.55 0.15281 570.00 0.0017544 488.87 778.94 1.7900 2.2940 2.7565 1435.0 -0.0051879 170.55 0.15281
164.38 24092. undefined 491.17 782.59 1.7953 570.00 0.0017544 491.17 782.59 1.7953 2.2982 2.7598 1436.2 -0.0051838 170.55 0.15298 570.00 0.0017544 491.17 782.59 1.7953 2.2982 2.7598 1436.2 -0.0051838 170.55 0.15298
165.38 24203. undefined 493.47 786.23 1.8005 570.00 0.0017544 493.47 786.23 1.8005 2.3023 2.7632 1437.4 -0.0051796 170.55 0.15316 570.00 0.0017544 493.47 786.23 1.8005 2.3023 2.7632 1437.4 -0.0051796 170.55 0.15316
166.38 24315. undefined 495.77 789.88 1.8058 570.00 0.0017544 495.77 789.88 1.8058 2.3064 2.7666 1438.7 -0.0051755 170.54 0.15334 570.00 0.0017544 495.77 789.88 1.8058 2.3064 2.7666 1438.7 -0.0051755 170.54 0.15334
167.38 24426. undefined 498.08 793.53 1.8110 570.00 0.0017544 498.08 793.53 1.8110 2.3105 2.7700 1439.9 -0.0051714 170.54 0.15351 570.00 0.0017544 498.08 793.53 1.8110 2.3105 2.7700 1439.9 -0.0051714 170.54 0.15351
168.38 24537. undefined 500.39 797.19 1.8163 570.00 0.0017544 500.39 797.19 1.8163 2.3147 2.7734 1441.1 -0.0051672 170.54 0.15369 570.00 0.0017544 500.39 797.19 1.8163 2.3147 2.7734 1441.1 -0.0051672 170.54 0.15369
169.38 24648. undefined 502.71 800.85 1.8215 570.00 0.0017544 502.71 800.85 1.8215 2.3188 2.7767 1442.4 -0.0051631 170.54 0.15387 570.00 0.0017544 502.71 800.85 1.8215 2.3188 2.7767 1442.4 -0.0051631 170.54 0.15387
170.38 24758. undefined 505.03 804.51 1.8268 570.00 0.0017544 505.03 804.51 1.8268 2.3229 2.7801 1443.6 -0.0051590 170.53 0.15405 570.00 0.0017544 505.03 804.51 1.8268 2.3229 2.7801 1443.6 -0.0051590 170.53 0.15405
171.38 24869. undefined 507.36 808.17 1.8320 570.00 0.0017544 507.36 808.17 1.8320 2.3270 2.7835 1444.8 -0.0051548 170.53 0.15423 570.00 0.0017544 507.36 808.17 1.8320 2.3270 2.7835 1444.8 -0.0051548 170.53 0.15423
172.38 24980. undefined 509.68 811.84 1.8372 570.00 0.0017544 509.68 811.84 1.8372 2.3311 2.7869 1446.1 -0.0051507 170.53 0.15441 570.00 0.0017544 509.68 811.84 1.8372 2.3311 2.7869 1446.1 -0.0051507 170.53 0.15441
173.38 25090. undefined 512.02 815.51 1.8425 570.00 0.0017544 512.02 815.51 1.8425 2.3352 2.7902 1447.3 -0.0051466 170.53 0.15459 570.00 0.0017544 512.02 815.51 1.8425 2.3352 2.7902 1447.3 -0.0051466 170.53 0.15459
174.38 25201. undefined 514.35 819.18 1.8477 570.00 0.0017544 514.35 819.18 1.8477 2.3393 2.7936 1448.5 -0.0051424 170.52 0.15477 570.00 0.0017544 514.35 819.18 1.8477 2.3393 2.7936 1448.5 -0.0051424 170.52 0.15477
175.38 25311. undefined 516.70 822.86 1.8529 570.00 0.0017544 516.70 822.86 1.8529 2.3434 2.7970 1449.7 -0.0051383 170.52 0.15495 570.00 0.0017544 516.70 822.86 1.8529 2.3434 2.7970 1449.7 -0.0051383 170.52 0.15495
176.38 25421. undefined 519.04 826.54 1.8581 570.00 0.0017544 519.04 826.54 1.8581 2.3475 2.8004 1450.9 -0.0051341 170.52 0.15513 570.00 0.0017544 519.04 826.54 1.8581 2.3475 2.8004 1450.9 -0.0051341 170.52 0.15513
177.38 25532. undefined 521.39 830.22 1.8634 570.00 0.0017544 521.39 830.22 1.8634 2.3515 2.8037 1452.1 -0.0051300 170.52 0.15531 570.00 0.0017544 521.39 830.22 1.8634 2.3515 2.8037 1452.1 -0.0051300 170.52 0.15531
178.38 25642. undefined 523.74 833.91 1.8686 570.00 0.0017544 523.74 833.91 1.8686 2.3556 2.8071 1453.3 -0.0051258 170.52 0.15549 570.00 0.0017544 523.74 833.91 1.8686 2.3556 2.8071 1453.3 -0.0051258 170.52 0.15549
179.38 25752. undefined 526.10 837.60 1.8738 570.00 0.0017544 526.10 837.60 1.8738 2.3597 2.8105 1454.5 -0.0051217 170.52 0.15567 570.00 0.0017544 526.10 837.60 1.8738 2.3597 2.8105 1454.5 -0.0051217 170.52 0.15567
180.38 25862. undefined 528.46 841.29 1.8790 570.00 0.0017544 528.46 841.29 1.8790 2.3637 2.8138 1455.7 -0.0051175 170.51 0.15585 570.00 0.0017544 528.46 841.29 1.8790 2.3637 2.8138 1455.7 -0.0051175 170.51 0.15585
181.38 25971. undefined 530.83 844.98 1.8842 570.00 0.0017544 530.83 844.98 1.8842 2.3678 2.8172 1456.9 -0.0051134 170.51 0.15603 570.00 0.0017544 530.83 844.98 1.8842 2.3678 2.8172 1456.9 -0.0051134 170.51 0.15603
182.38 26081. undefined 533.20 848.68 1.8894 570.00 0.0017544 533.20 848.68 1.8894 2.3718 2.8206 1458.1 -0.0051092 170.51 0.15621 570.00 0.0017544 533.20 848.68 1.8894 2.3718 2.8206 1458.1 -0.0051092 170.51 0.15621
183.38 26191. undefined 535.57 852.38 1.8946 570.00 0.0017544 535.57 852.38 1.8946 2.3759 2.8239 1459.3 -0.0051051 170.51 0.15639 570.00 0.0017544 535.57 852.38 1.8946 2.3759 2.8239 1459.3 -0.0051051 170.51 0.15639
184.38 26300. undefined 537.95 856.08 1.8998 570.00 0.0017544 537.95 856.08 1.8998 2.3799 2.8273 1460.5 -0.0051009 170.51 0.15658 570.00 0.0017544 537.95 856.08 1.8998 2.3799 2.8273 1460.5 -0.0051009 170.51 0.15658
185.38 26410. undefined 540.33 859.79 1.9050 570.00 0.0017544 540.33 859.79 1.9050 2.3840 2.8307 1461.7 -0.0050968 170.51 0.15676 570.00 0.0017544 540.33 859.79 1.9050 2.3840 2.8307 1461.7 -0.0050968 170.51 0.15676
186.38 26519. undefined 542.72 863.50 1.9102 570.00 0.0017544 542.72 863.50 1.9102 2.3880 2.8340 1462.9 -0.0050926 170.51 0.15694 570.00 0.0017544 542.72 863.50 1.9102 2.3880 2.8340 1462.9 -0.0050926 170.51 0.15694
187.38 26629. undefined 545.11 867.21 1.9154 570.00 0.0017544 545.11 867.21 1.9154 2.3920 2.8374 1464.1 -0.0050885 170.51 0.15713 570.00 0.0017544 545.11 867.21 1.9154 2.3920 2.8374 1464.1 -0.0050885 170.51 0.15713
188.38 26738. undefined 547.50 870.93 1.9206 570.00 0.0017544 547.50 870.93 1.9206 2.3960 2.8407 1465.3 -0.0050844 170.51 0.15731 570.00 0.0017544 547.50 870.93 1.9206 2.3960 2.8407 1465.3 -0.0050844 170.51 0.15731
189.38 26847. undefined 549.90 874.65 1.9258 570.00 0.0017544 549.90 874.65 1.9258 2.4001 2.8441 1466.5 -0.0050802 170.51 0.15749 570.00 0.0017544 549.90 874.65 1.9258 2.4001 2.8441 1466.5 -0.0050802 170.51 0.15749
190.38 26956. undefined 552.30 878.37 1.9310 570.00 0.0017544 552.30 878.37 1.9310 2.4041 2.8474 1467.7 -0.0050761 170.51 0.15768 570.00 0.0017544 552.30 878.37 1.9310 2.4041 2.8474 1467.7 -0.0050761 170.51 0.15768
191.38 27065. undefined 554.71 882.09 1.9362 570.00 0.0017544 554.71 882.09 1.9362 2.4081 2.8508 1468.8 -0.0050719 170.51 0.15786 570.00 0.0017544 554.71 882.09 1.9362 2.4081 2.8508 1468.8 -0.0050719 170.51 0.15786
192.38 27174. undefined 557.12 885.82 1.9414 570.00 0.0017544 557.12 885.82 1.9414 2.4121 2.8541 1470.0 -0.0050678 170.51 0.15805 570.00 0.0017544 557.12 885.82 1.9414 2.4121 2.8541 1470.0 -0.0050678 170.51 0.15805
193.38 27283. undefined 559.53 889.55 1.9465 570.00 0.0017544 559.53 889.55 1.9465 2.4161 2.8575 1471.2 -0.0050637 170.51 0.15823 570.00 0.0017544 559.53 889.55 1.9465 2.4161 2.8575 1471.2 -0.0050637 170.51 0.15823
194.38 27392. undefined 561.95 893.28 1.9517 570.00 0.0017544 561.95 893.28 1.9517 2.4201 2.8608 1472.4 -0.0050596 170.51 0.15842 570.00 0.0017544 561.95 893.28 1.9517 2.4201 2.8608 1472.4 -0.0050596 170.51 0.15842
195.38 27500. undefined 564.37 897.02 1.9569 570.00 0.0017544 564.37 897.02 1.9569 2.4240 2.8642 1473.5 -0.0050554 170.51 0.15860 570.00 0.0017544 564.37 897.02 1.9569 2.4240 2.8642 1473.5 -0.0050554 170.51 0.15860
196.38 27609. undefined 566.80 900.76 1.9621 570.00 0.0017544 566.80 900.76 1.9621 2.4280 2.8675 1474.7 -0.0050513 170.51 0.15879 570.00 0.0017544 566.80 900.76 1.9621 2.4280 2.8675 1474.7 -0.0050513 170.51 0.15879
197.38 27717. undefined 569.23 904.50 1.9672 570.00 0.0017544 569.23 904.50 1.9672 2.4320 2.8708 1475.9 -0.0050472 170.51 0.15898 570.00 0.0017544 569.23 904.50 1.9672 2.4320 2.8708 1475.9 -0.0050472 170.51 0.15898
198.38 27826. undefined 571.66 908.25 1.9724 570.00 0.0017544 571.66 908.25 1.9724 2.4360 2.8742 1477.0 -0.0050431 170.51 0.15916 570.00 0.0017544 571.66 908.25 1.9724 2.4360 2.8742 1477.0 -0.0050431 170.51 0.15916
199.38 27934. undefined 574.10 911.99 1.9776 570.00 0.0017544 574.10 911.99 1.9776 2.4399 2.8775 1478.2 -0.0050389 170.51 0.15935 570.00 0.0017544 574.10 911.99 1.9776 2.4399 2.8775 1478.2 -0.0050389 170.51 0.15935
200.38 28042. undefined 576.54 915.75 1.9827 570.00 0.0017544 576.54 915.75 1.9827 2.4439 2.8808 1479.4 -0.0050348 170.51 0.15954 570.00 0.0017544 576.54 915.75 1.9827 2.4439 2.8808 1479.4 -0.0050348 170.51 0.15954
201.38 28151. undefined 578.99 919.50 1.9879 570.00 0.0017544 578.99 919.50 1.9879 2.4479 2.8842 1480.5 -0.0050307 170.52 0.15972 570.00 0.0017544 578.99 919.50 1.9879 2.4479 2.8842 1480.5 -0.0050307 170.52 0.15972
202.38 28259. undefined 581.44 923.26 1.9930 570.00 0.0017544 581.44 923.26 1.9930 2.4518 2.8875 1481.7 -0.0050266 170.52 0.15991 570.00 0.0017544 581.44 923.26 1.9930 2.4518 2.8875 1481.7 -0.0050266 170.52 0.15991
203.38 28367. undefined 583.89 927.02 1.9982 570.00 0.0017544 583.89 927.02 1.9982 2.4557 2.8908 1482.8 -0.0050225 170.52 0.16010 570.00 0.0017544 583.89 927.02 1.9982 2.4557 2.8908 1482.8 -0.0050225 170.52 0.16010
204.38 28475. undefined 586.35 930.78 2.0034 570.00 0.0017544 586.35 930.78 2.0034 2.4597 2.8941 1484.0 -0.0050184 170.52 0.16029 570.00 0.0017544 586.35 930.78 2.0034 2.4597 2.8941 1484.0 -0.0050184 170.52 0.16029
205.38 28582. undefined 588.81 934.55 2.0085 570.00 0.0017544 588.81 934.55 2.0085 2.4636 2.8975 1485.1 -0.0050143 170.52 0.16048 570.00 0.0017544 588.81 934.55 2.0085 2.4636 2.8975 1485.1 -0.0050143 170.52 0.16048
206.38 28690. undefined 591.28 938.32 2.0136 570.00 0.0017544 591.28 938.32 2.0136 2.4675 2.9008 1486.3 -0.0050102 170.52 0.16067 570.00 0.0017544 591.28 938.32 2.0136 2.4675 2.9008 1486.3 -0.0050102 170.52 0.16067
207.38 28798. undefined 593.75 942.09 2.0188 570.00 0.0017544 593.75 942.09 2.0188 2.4715 2.9041 1487.4 -0.0050061 170.52 0.16085 570.00 0.0017544 593.75 942.09 2.0188 2.4715 2.9041 1487.4 -0.0050061 170.52 0.16085
208.38 28905. undefined 596.22 945.86 2.0239 570.00 0.0017544 596.22 945.86 2.0239 2.4754 2.9074 1488.6 -0.0050020 170.53 0.16104 570.00 0.0017544 596.22 945.86 2.0239 2.4754 2.9074 1488.6 -0.0050020 170.53 0.16104
209.38 29013. undefined 598.70 949.64 2.0291 570.00 0.0017544 598.70 949.64 2.0291 2.4793 2.9107 1489.7 -0.0049980 170.53 0.16123 570.00 0.0017544 598.70 949.64 2.0291 2.4793 2.9107 1489.7 -0.0049980 170.53 0.16123
210.38 29120. undefined 601.18 953.42 2.0342 570.00 0.0017544 601.18 953.42 2.0342 2.4832 2.9140 1490.8 -0.0049939 170.53 0.16142 570.00 0.0017544 601.18 953.42 2.0342 2.4832 2.9140 1490.8 -0.0049939 170.53 0.16142
211.38 29228. undefined 603.66 957.21 2.0393 570.00 0.0017544 603.66 957.21 2.0393 2.4871 2.9173 1492.0 -0.0049898 170.53 0.16161 570.00 0.0017544 603.66 957.21 2.0393 2.4871 2.9173 1492.0 -0.0049898 170.53 0.16161
212.38 29335. undefined 606.15 960.99 2.0445 570.00 0.0017544 606.15 960.99 2.0445 2.4910 2.9206 1493.1 -0.0049857 170.53 0.16180 570.00 0.0017544 606.15 960.99 2.0445 2.4910 2.9206 1493.1 -0.0049857 170.53 0.16180
213.38 29442. undefined 608.65 964.78 2.0496 570.00 0.0017544 608.65 964.78 2.0496 2.4949 2.9239 1494.3 -0.0049817 170.54 0.16200 570.00 0.0017544 608.65 964.78 2.0496 2.4949 2.9239 1494.3 -0.0049817 170.54 0.16200
214.38 29549. undefined 611.14 968.57 2.0547 570.00 0.0017544 611.14 968.57 2.0547 2.4988 2.9272 1495.4 -0.0049776 170.54 0.16219 570.00 0.0017544 611.14 968.57 2.0547 2.4988 2.9272 1495.4 -0.0049776 170.54 0.16219
215.38 29656. undefined 613.64 972.37 2.0599 570.00 0.0017544 613.64 972.37 2.0599 2.5027 2.9305 1496.5 -0.0049736 170.54 0.16238 570.00 0.0017544 613.64 972.37 2.0599 2.5027 2.9305 1496.5 -0.0049736 170.54 0.16238
216.38 29763. undefined 616.15 976.17 2.0650 570.00 0.0017544 616.15 976.17 2.0650 2.5065 2.9338 1497.6 -0.0049695 170.54 0.16257 570.00 0.0017544 616.15 976.17 2.0650 2.5065 2.9338 1497.6 -0.0049695 170.54 0.16257
217.38 29870. undefined 618.66 979.97 2.0701 570.00 0.0017544 618.66 979.97 2.0701 2.5104 2.9371 1498.8 -0.0049655 170.55 0.16276 570.00 0.0017544 618.66 979.97 2.0701 2.5104 2.9371 1498.8 -0.0049655 170.55 0.16276
218.38 29977. undefined 621.17 983.77 2.0752 570.00 0.0017544 621.17 983.77 2.0752 2.5143 2.9404 1499.9 -0.0049614 170.55 0.16296 570.00 0.0017544 621.17 983.77 2.0752 2.5143 2.9404 1499.9 -0.0049614 170.55 0.16296
219.38 30084. undefined 623.69 987.58 2.0803 570.00 0.0017544 623.69 987.58 2.0803 2.5181 2.9437 1501.0 -0.0049574 170.55 0.16315 570.00 0.0017544 623.69 987.58 2.0803 2.5181 2.9437 1501.0 -0.0049574 170.55 0.16315
220.38 30190. undefined 626.21 991.39 2.0854 570.00 0.0017544 626.21 991.39 2.0854 2.5220 2.9470 1502.1 -0.0049534 170.56 0.16334 570.00 0.0017544 626.21 991.39 2.0854 2.5220 2.9470 1502.1 -0.0049534 170.56 0.16334
221.38 30297. undefined 628.73 995.20 2.0906 570.00 0.0017544 628.73 995.20 2.0906 2.5258 2.9502 1503.3 -0.0049494 170.56 0.16353 570.00 0.0017544 628.73 995.20 2.0906 2.5258 2.9502 1503.3 -0.0049494 170.56 0.16353
222.38 30403. undefined 631.26 999.02 2.0957 570.00 0.0017544 631.26 999.02 2.0957 2.5297 2.9535 1504.4 -0.0049453 170.56 0.16373 570.00 0.0017544 631.26 999.02 2.0957 2.5297 2.9535 1504.4 -0.0049453 170.56 0.16373
223.38 30510. undefined 633.79 1002.8 2.1008 570.00 0.0017544 633.79 1002.8 2.1008 2.5335 2.9568 1505.5 -0.0049413 170.57 0.16392 570.00 0.0017544 633.79 1002.8 2.1008 2.5335 2.9568 1505.5 -0.0049413 170.57 0.16392
224.38 30616. undefined 636.32 1006.7 2.1059 570.00 0.0017544 636.32 1006.7 2.1059 2.5374 2.9601 1506.6 -0.0049373 170.57 0.16412 570.00 0.0017544 636.32 1006.7 2.1059 2.5374 2.9601 1506.6 -0.0049373 170.57 0.16412
225.38 30722. undefined 638.86 1010.5 2.1110 570.00 0.0017544 638.86 1010.5 2.1110 2.5412 2.9633 1507.7 -0.0049333 170.57 0.16431 570.00 0.0017544 638.86 1010.5 2.1110 2.5412 2.9633 1507.7 -0.0049333 170.57 0.16431
226.38 30829. undefined 641.41 1014.3 2.1161 570.00 0.0017544 641.41 1014.3 2.1161 2.5450 2.9666 1508.8 -0.0049293 170.58 0.16450 570.00 0.0017544 641.41 1014.3 2.1161 2.5450 2.9666 1508.8 -0.0049293 170.58 0.16450
227.38 30935. undefined 643.95 1018.1 2.1212 570.00 0.0017544 643.95 1018.1 2.1212 2.5488 2.9698 1509.9 -0.0049253 170.58 0.16470 570.00 0.0017544 643.95 1018.1 2.1212 2.5488 2.9698 1509.9 -0.0049253 170.58 0.16470
228.38 31041. undefined 646.50 1022.0 2.1262 570.00 0.0017544 646.50 1022.0 2.1262 2.5526 2.9731 1511.0 -0.0049213 170.58 0.16490 570.00 0.0017544 646.50 1022.0 2.1262 2.5526 2.9731 1511.0 -0.0049213 170.58 0.16490
229.38 31147. undefined 649.06 1025.8 2.1313 570.00 0.0017544 649.06 1025.8 2.1313 2.5564 2.9764 1512.1 -0.0049174 170.59 0.16509 570.00 0.0017544 649.06 1025.8 2.1313 2.5564 2.9764 1512.1 -0.0049174 170.59 0.16509
230.38 31253. undefined 651.62 1029.6 2.1364 570.00 0.0017544 651.62 1029.6 2.1364 2.5602 2.9796 1513.2 -0.0049134 170.59 0.16529 570.00 0.0017544 651.62 1029.6 2.1364 2.5602 2.9796 1513.2 -0.0049134 170.59 0.16529
231.38 31358. undefined 654.18 1033.5 2.1415 570.00 0.0017544 654.18 1033.5 2.1415 2.5640 2.9829 1514.3 -0.0049094 170.60 0.16548 570.00 0.0017544 654.18 1033.5 2.1415 2.5640 2.9829 1514.3 -0.0049094 170.60 0.16548
232.38 31464. undefined 656.75 1037.3 2.1466 570.00 0.0017544 656.75 1037.3 2.1466 2.5678 2.9861 1515.4 -0.0049055 170.60 0.16568 570.00 0.0017544 656.75 1037.3 2.1466 2.5678 2.9861 1515.4 -0.0049055 170.60 0.16568
233.38 31570. undefined 659.32 1041.2 2.1517 570.00 0.0017544 659.32 1041.2 2.1517 2.5716 2.9894 1516.5 -0.0049015 170.60 0.16588 570.00 0.0017544 659.32 1041.2 2.1517 2.5716 2.9894 1516.5 -0.0049015 170.60 0.16588
234.38 31675. undefined 661.89 1045.0 2.1567 570.00 0.0017544 661.89 1045.0 2.1567 2.5754 2.9926 1517.6 -0.0048976 170.61 0.16607 570.00 0.0017544 661.89 1045.0 2.1567 2.5754 2.9926 1517.6 -0.0048976 170.61 0.16607
235.38 31781. undefined 664.47 1048.9 2.1618 570.00 0.0017544 664.47 1048.9 2.1618 2.5792 2.9958 1518.7 -0.0048936 170.61 0.16627 570.00 0.0017544 664.47 1048.9 2.1618 2.5792 2.9958 1518.7 -0.0048936 170.61 0.16627
236.38 31886. undefined 667.05 1052.7 2.1669 570.00 0.0017544 667.05 1052.7 2.1669 2.5829 2.9991 1519.8 -0.0048897 170.62 0.16647 570.00 0.0017544 667.05 1052.7 2.1669 2.5829 2.9991 1519.8 -0.0048897 170.62 0.16647
237.38 31991. undefined 669.63 1056.6 2.1719 570.00 0.0017544 669.63 1056.6 2.1719 2.5867 3.0023 1520.9 -0.0048857 170.62 0.16667 570.00 0.0017544 669.63 1056.6 2.1719 2.5867 3.0023 1520.9 -0.0048857 170.62 0.16667
238.38 32097. undefined 672.22 1060.5 2.1770 570.00 0.0017544 672.22 1060.5 2.1770 2.5905 3.0055 1522.0 -0.0048818 170.63 0.16686 570.00 0.0017544 672.22 1060.5 2.1770 2.5905 3.0055 1522.0 -0.0048818 170.63 0.16686
239.38 32202. undefined 674.81 1064.3 2.1821 570.00 0.0017544 674.81 1064.3 2.1821 2.5942 3.0088 1523.1 -0.0048779 170.63 0.16706 570.00 0.0017544 674.81 1064.3 2.1821 2.5942 3.0088 1523.1 -0.0048779 170.63 0.16706
240.38 32307. undefined 677.41 1068.2 2.1871 570.00 0.0017544 677.41 1068.2 2.1871 2.5980 3.0120 1524.2 -0.0048740 170.63 0.16726 570.00 0.0017544 677.41 1068.2 2.1871 2.5980 3.0120 1524.2 -0.0048740 170.63 0.16726
241.38 32412. undefined 680.01 1072.1 2.1922 570.00 0.0017544 680.01 1072.1 2.1922 2.6017 3.0152 1525.2 -0.0048701 170.64 0.16746 570.00 0.0017544 680.01 1072.1 2.1922 2.6017 3.0152 1525.2 -0.0048701 170.64 0.16746
242.38 32517. undefined 682.61 1075.9 2.1972 570.00 0.0017544 682.61 1075.9 2.1972 2.6054 3.0184 1526.3 -0.0048662 170.64 0.16766 570.00 0.0017544 682.61 1075.9 2.1972 2.6054 3.0184 1526.3 -0.0048662 170.64 0.16766
243.38 32622. undefined 685.22 1079.8 2.2023 570.00 0.0017544 685.22 1079.8 2.2023 2.6092 3.0217 1527.4 -0.0048623 170.65 0.16786 570.00 0.0017544 685.22 1079.8 2.2023 2.6092 3.0217 1527.4 -0.0048623 170.65 0.16786
244.38 32727. undefined 687.83 1083.7 2.2074 570.00 0.0017544 687.83 1083.7 2.2074 2.6129 3.0249 1528.5 -0.0048584 170.65 0.16806 570.00 0.0017544 687.83 1083.7 2.2074 2.6129 3.0249 1528.5 -0.0048584 170.65 0.16806
245.38 32832. undefined 690.45 1087.6 2.2124 570.00 0.0017544 690.45 1087.6 2.2124 2.6166 3.0281 1529.5 -0.0048545 170.66 0.16826 570.00 0.0017544 690.45 1087.6 2.2124 2.6166 3.0281 1529.5 -0.0048545 170.66 0.16826
246.38 32936. undefined 693.06 1091.5 2.2174 570.00 0.0017544 693.06 1091.5 2.2174 2.6203 3.0313 1530.6 -0.0048506 170.66 0.16846 570.00 0.0017544 693.06 1091.5 2.2174 2.6203 3.0313 1530.6 -0.0048506 170.66 0.16846
247.38 33041. undefined 695.69 1095.3 2.2225 570.00 0.0017544 695.69 1095.3 2.2225 2.6241 3.0345 1531.7 -0.0048468 170.67 0.16866 570.00 0.0017544 695.69 1095.3 2.2225 2.6241 3.0345 1531.7 -0.0048468 170.67 0.16866
248.38 33145. undefined 698.31 1099.2 2.2275 570.00 0.0017544 698.31 1099.2 2.2275 2.6278 3.0377 1532.8 -0.0048429 170.67 0.16886 570.00 0.0017544 698.31 1099.2 2.2275 2.6278 3.0377 1532.8 -0.0048429 170.67 0.16886
249.38 33250. undefined 700.94 1103.1 2.2326 570.00 0.0017544 700.94 1103.1 2.2326 2.6315 3.0409 1533.8 -0.0048390 170.68 0.16906 570.00 0.0017544 700.94 1103.1 2.2326 2.6315 3.0409 1533.8 -0.0048390 170.68 0.16906
250.38 33354. undefined 703.57 1107.0 2.2376 570.00 0.0017544 703.57 1107.0 2.2376 2.6352 3.0441 1534.9 -0.0048352 170.68 0.16927 570.00 0.0017544 703.57 1107.0 2.2376 2.6352 3.0441 1534.9 -0.0048352 170.68 0.16927
251.38 33458. undefined 706.21 1110.9 2.2426 570.00 0.0017544 706.21 1110.9 2.2426 2.6388 3.0473 1536.0 -0.0048314 170.69 0.16947 570.00 0.0017544 706.21 1110.9 2.2426 2.6388 3.0473 1536.0 -0.0048314 170.69 0.16947
252.38 33563. undefined 708.85 1114.8 2.2477 570.00 0.0017544 708.85 1114.8 2.2477 2.6425 3.0504 1537.0 -0.0048275 170.70 0.16967 570.00 0.0017544 708.85 1114.8 2.2477 2.6425 3.0504 1537.0 -0.0048275 170.70 0.16967
253.38 33667. undefined 711.50 1118.7 2.2527 570.00 0.0017544 711.50 1118.7 2.2527 2.6462 3.0536 1538.1 -0.0048237 170.70 0.16987 570.00 0.0017544 711.50 1118.7 2.2527 2.6462 3.0536 1538.1 -0.0048237 170.70 0.16987
254.38 33771. undefined 714.14 1122.6 2.2577 570.00 0.0017544 714.14 1122.6 2.2577 2.6499 3.0568 1539.1 -0.0048199 170.71 0.17008 570.00 0.0017544 714.14 1122.6 2.2577 2.6499 3.0568 1539.1 -0.0048199 170.71 0.17008
255.38 33875. undefined 716.80 1126.6 2.2627 570.00 0.0017544 716.80 1126.6 2.2627 2.6536 3.0600 1540.2 -0.0048161 170.71 0.17028 570.00 0.0017544 716.80 1126.6 2.2627 2.6536 3.0600 1540.2 -0.0048161 170.71 0.17028
256.38 33979. undefined 719.45 1130.5 2.2678 570.00 0.0017544 719.45 1130.5 2.2678 2.6572 3.0632 1541.3 -0.0048123 170.72 0.17048 570.00 0.0017544 719.45 1130.5 2.2678 2.6572 3.0632 1541.3 -0.0048123 170.72 0.17048
257.38 34083. undefined 722.11 1134.4 2.2728 570.00 0.0017544 722.11 1134.4 2.2728 2.6609 3.0663 1542.3 -0.0048085 170.72 0.17069 570.00 0.0017544 722.11 1134.4 2.2728 2.6609 3.0663 1542.3 -0.0048085 170.72 0.17069
258.38 34187. undefined 724.77 1138.3 2.2778 570.00 0.0017544 724.77 1138.3 2.2778 2.6645 3.0695 1543.4 -0.0048047 170.73 0.17089 570.00 0.0017544 724.77 1138.3 2.2778 2.6645 3.0695 1543.4 -0.0048047 170.73 0.17089
259.38 34290. undefined 727.44 1142.2 2.2828 570.00 0.0017544 727.44 1142.2 2.2828 2.6682 3.0727 1544.4 -0.0048009 170.74 0.17110 570.00 0.0017544 727.44 1142.2 2.2828 2.6682 3.0727 1544.4 -0.0048009 170.74 0.17110
260.38 34394. undefined 730.11 1146.1 2.2878 570.00 0.0017544 730.11 1146.1 2.2878 2.6718 3.0758 1545.5 -0.0047971 170.74 0.17130 570.00 0.0017544 730.11 1146.1 2.2878 2.6718 3.0758 1545.5 -0.0047971 170.74 0.17130
261.38 34498. undefined 732.78 1150.1 2.2928 570.00 0.0017544 732.78 1150.1 2.2928 2.6755 3.0790 1546.5 -0.0047933 170.75 0.17151 570.00 0.0017544 732.78 1150.1 2.2928 2.6755 3.0790 1546.5 -0.0047933 170.75 0.17151
262.38 34601. undefined 735.46 1154.0 2.2978 570.00 0.0017544 735.46 1154.0 2.2978 2.6791 3.0821 1547.6 -0.0047896 170.75 0.17171 570.00 0.0017544 735.46 1154.0 2.2978 2.6791 3.0821 1547.6 -0.0047896 170.75 0.17171
263.38 34705. undefined 738.14 1157.9 2.3028 570.00 0.0017544 738.14 1157.9 2.3028 2.6827 3.0853 1548.6 -0.0047858 170.76 0.17192 570.00 0.0017544 738.14 1157.9 2.3028 2.6827 3.0853 1548.6 -0.0047858 170.76 0.17192
264.38 34808. undefined 740.83 1161.9 2.3078 570.00 0.0017544 740.83 1161.9 2.3078 2.6863 3.0884 1549.7 -0.0047820 170.77 0.17212 570.00 0.0017544 740.83 1161.9 2.3078 2.6863 3.0884 1549.7 -0.0047820 170.77 0.17212
265.38 34911. undefined 743.51 1165.8 2.3128 570.00 0.0017544 743.51 1165.8 2.3128 2.6900 3.0916 1550.7 -0.0047783 170.77 0.17233 570.00 0.0017544 743.51 1165.8 2.3128 2.6900 3.0916 1550.7 -0.0047783 170.77 0.17233
266.38 35014. undefined 746.21 1169.7 2.3178 570.00 0.0017544 746.21 1169.7 2.3178 2.6936 3.0947 1551.7 -0.0047746 170.78 0.17253 570.00 0.0017544 746.21 1169.7 2.3178 2.6936 3.0947 1551.7 -0.0047746 170.78 0.17253
267.38 35118. undefined 748.90 1173.7 2.3228 570.00 0.0017544 748.90 1173.7 2.3228 2.6972 3.0979 1552.8 -0.0047708 170.79 0.17274 570.00 0.0017544 748.90 1173.7 2.3228 2.6972 3.0979 1552.8 -0.0047708 170.79 0.17274
268.38 35221. undefined 751.60 1177.6 2.3278 570.00 0.0017544 751.60 1177.6 2.3278 2.7008 3.1010 1553.8 -0.0047671 170.79 0.17295 570.00 0.0017544 751.60 1177.6 2.3278 2.7008 3.1010 1553.8 -0.0047671 170.79 0.17295
269.38 35324. undefined 754.30 1181.6 2.3328 570.00 0.0017544 754.30 1181.6 2.3328 2.7044 3.1041 1554.9 -0.0047634 170.80 0.17316 570.00 0.0017544 754.30 1181.6 2.3328 2.7044 3.1041 1554.9 -0.0047634 170.80 0.17316
270.38 35427. undefined 757.01 1185.5 2.3378 570.00 0.0017544 757.01 1185.5 2.3378 2.7080 3.1073 1555.9 -0.0047597 170.81 0.17336 570.00 0.0017544 757.01 1185.5 2.3378 2.7080 3.1073 1555.9 -0.0047597 170.81 0.17336
271.38 35530. undefined 759.72 1189.5 2.3427 570.00 0.0017544 759.72 1189.5 2.3427 2.7115 3.1104 1556.9 -0.0047560 170.81 0.17357 570.00 0.0017544 759.72 1189.5 2.3427 2.7115 3.1104 1556.9 -0.0047560 170.81 0.17357
272.38 35632. undefined 762.43 1193.4 2.3477 570.00 0.0017544 762.43 1193.4 2.3477 2.7151 3.1135 1558.0 -0.0047523 170.82 0.17378 570.00 0.0017544 762.43 1193.4 2.3477 2.7151 3.1135 1558.0 -0.0047523 170.82 0.17378
273.38 35735. undefined 765.15 1197.4 2.3527 570.00 0.0017544 765.15 1197.4 2.3527 2.7187 3.1166 1559.0 -0.0047486 170.83 0.17399 570.00 0.0017544 765.15 1197.4 2.3527 2.7187 3.1166 1559.0 -0.0047486 170.83 0.17399
274.38 35838. undefined 767.87 1201.4 2.3577 570.00 0.0017544 767.87 1201.4 2.3577 2.7223 3.1197 1560.0 -0.0047449 170.83 0.17420 570.00 0.0017544 767.87 1201.4 2.3577 2.7223 3.1197 1560.0 -0.0047449 170.83 0.17420
275.38 35940. undefined 770.59 1205.3 2.3626 570.00 0.0017544 770.59 1205.3 2.3626 2.7258 3.1228 1561.0 -0.0047412 170.84 0.17441 570.00 0.0017544 770.59 1205.3 2.3626 2.7258 3.1228 1561.0 -0.0047412 170.84 0.17441
276.38 36043. undefined 773.32 1209.3 2.3676 570.00 0.0017544 773.32 1209.3 2.3676 2.7294 3.1260 1562.1 -0.0047376 170.85 0.17461 570.00 0.0017544 773.32 1209.3 2.3676 2.7294 3.1260 1562.1 -0.0047376 170.85 0.17461
277.38 36145. undefined 776.05 1213.3 2.3726 570.00 0.0017544 776.05 1213.3 2.3726 2.7329 3.1291 1563.1 -0.0047339 170.85 0.17482 570.00 0.0017544 776.05 1213.3 2.3726 2.7329 3.1291 1563.1 -0.0047339 170.85 0.17482
278.38 36248. undefined 778.79 1217.2 2.3775 570.00 0.0017544 778.79 1217.2 2.3775 2.7365 3.1322 1564.1 -0.0047303 170.86 0.17503 570.00 0.0017544 778.79 1217.2 2.3775 2.7365 3.1322 1564.1 -0.0047303 170.86 0.17503
279.38 36350. undefined 781.53 1221.2 2.3825 570.00 0.0017544 781.53 1221.2 2.3825 2.7400 3.1353 1565.1 -0.0047266 170.87 0.17524 570.00 0.0017544 781.53 1221.2 2.3825 2.7400 3.1353 1565.1 -0.0047266 170.87 0.17524
280.38 36452. undefined 784.27 1225.2 2.3874 570.00 0.0017544 784.27 1225.2 2.3874 2.7436 3.1384 1566.1 -0.0047230 170.87 0.17546 570.00 0.0017544 784.27 1225.2 2.3874 2.7436 3.1384 1566.1 -0.0047230 170.87 0.17546
281.38 36555. undefined 787.01 1229.2 2.3924 570.00 0.0017544 787.01 1229.2 2.3924 2.7471 3.1414 1567.2 -0.0047194 170.88 0.17567 570.00 0.0017544 787.01 1229.2 2.3924 2.7471 3.1414 1567.2 -0.0047194 170.88 0.17567
282.38 36657. undefined 789.76 1233.2 2.3974 570.00 0.0017544 789.76 1233.2 2.3974 2.7506 3.1445 1568.2 -0.0047157 170.89 0.17565 570.00 0.0017544 789.76 1233.2 2.3974 2.7506 3.1445 1568.2 -0.0047157 170.89 0.17565
283.38 36759. undefined 792.51 1237.2 2.4023 570.00 0.0017544 792.51 1237.2 2.4023 2.7542 3.1476 1569.2 -0.0047121 170.90 0.17587 570.00 0.0017544 792.51 1237.2 2.4023 2.7542 3.1476 1569.2 -0.0047121 170.90 0.17587
284.38 36861. undefined 795.27 1241.1 2.4073 570.00 0.0017544 795.27 1241.1 2.4073 2.7577 3.1507 1570.2 -0.0047085 170.90 0.17608 570.00 0.0017544 795.27 1241.1 2.4073 2.7577 3.1507 1570.2 -0.0047085 170.90 0.17608
285.38 36963. undefined 798.03 1245.1 2.4122 570.00 0.0017544 798.03 1245.1 2.4122 2.7612 3.1538 1571.2 -0.0047049 170.91 0.17629 570.00 0.0017544 798.03 1245.1 2.4122 2.7612 3.1538 1571.2 -0.0047049 170.91 0.17629
286.38 37065. undefined 800.79 1249.1 2.4171 570.00 0.0017544 800.79 1249.1 2.4171 2.7647 3.1568 1572.2 -0.0047013 170.92 0.17650 570.00 0.0017544 800.79 1249.1 2.4171 2.7647 3.1568 1572.2 -0.0047013 170.92 0.17650
287.38 37166. undefined 803.56 1253.1 2.4221 570.00 0.0017544 803.56 1253.1 2.4221 2.7682 3.1599 1573.2 -0.0046977 170.93 0.17671 570.00 0.0017544 803.56 1253.1 2.4221 2.7682 3.1599 1573.2 -0.0046977 170.93 0.17671
288.38 37268. undefined 806.33 1257.1 2.4270 570.00 0.0017544 806.33 1257.1 2.4270 2.7717 3.1630 1574.2 -0.0046942 170.93 0.17692 570.00 0.0017544 806.33 1257.1 2.4270 2.7717 3.1630 1574.2 -0.0046942 170.93 0.17692
289.38 37370. undefined 809.10 1261.1 2.4320 570.00 0.0017544 809.10 1261.1 2.4320 2.7752 3.1660 1575.3 -0.0046906 170.94 0.17714 570.00 0.0017544 809.10 1261.1 2.4320 2.7752 3.1660 1575.3 -0.0046906 170.94 0.17714
290.38 37471. undefined 811.88 1265.1 2.4369 570.00 0.0017544 811.88 1265.1 2.4369 2.7787 3.1691 1576.3 -0.0046870 170.95 0.17735 570.00 0.0017544 811.88 1265.1 2.4369 2.7787 3.1691 1576.3 -0.0046870 170.95 0.17735
291.38 37573. undefined 814.66 1269.1 2.4418 570.00 0.0017544 814.66 1269.1 2.4418 2.7822 3.1722 1577.3 -0.0046835 170.96 0.17756 570.00 0.0017544 814.66 1269.1 2.4418 2.7822 3.1722 1577.3 -0.0046835 170.96 0.17756
292.38 37674. undefined 817.44 1273.2 2.4467 570.00 0.0017544 817.44 1273.2 2.4467 2.7857 3.1752 1578.3 -0.0046799 170.96 0.17778 570.00 0.0017544 817.44 1273.2 2.4467 2.7857 3.1752 1578.3 -0.0046799 170.96 0.17778
293.38 37776. undefined 820.23 1277.2 2.4517 570.00 0.0017544 820.23 1277.2 2.4517 2.7891 3.1783 1579.3 -0.0046764 170.97 0.17799 570.00 0.0017544 820.23 1277.2 2.4517 2.7891 3.1783 1579.3 -0.0046764 170.97 0.17799
294.38 37877. undefined 823.02 1281.2 2.4566 570.00 0.0017544 823.02 1281.2 2.4566 2.7926 3.1813 1580.3 -0.0046728 170.98 0.17820 570.00 0.0017544 823.02 1281.2 2.4566 2.7926 3.1813 1580.3 -0.0046728 170.98 0.17820
295.38 37978. undefined 825.82 1285.2 2.4615 570.00 0.0017544 825.82 1285.2 2.4615 2.7961 3.1844 1581.3 -0.0046693 170.99 0.17842 570.00 0.0017544 825.82 1285.2 2.4615 2.7961 3.1844 1581.3 -0.0046693 170.99 0.17842
296.38 38080. undefined 828.61 1289.2 2.4664 570.00 0.0017544 828.61 1289.2 2.4664 2.7995 3.1874 1582.3 -0.0046658 171.00 0.17863 570.00 0.0017544 828.61 1289.2 2.4664 2.7995 3.1874 1582.3 -0.0046658 171.00 0.17863
297.38 38181. undefined 831.42 1293.3 2.4713 570.00 0.0017544 831.42 1293.3 2.4713 2.8030 3.1904 1583.2 -0.0046623 171.00 0.17885 570.00 0.0017544 831.42 1293.3 2.4713 2.8030 3.1904 1583.2 -0.0046623 171.00 0.17885
298.38 38282. undefined 834.22 1297.3 2.4763 570.00 0.0017544 834.22 1297.3 2.4763 2.8064 3.1935 1584.2 -0.0046588 171.01 0.17906 570.00 0.0017544 834.22 1297.3 2.4763 2.8064 3.1935 1584.2 -0.0046588 171.01 0.17906
299.38 38383. undefined 837.03 1301.3 2.4812 570.00 0.0017544 837.03 1301.3 2.4812 2.8099 3.1965 1585.2 -0.0046553 171.02 0.17928 570.00 0.0017544 837.03 1301.3 2.4812 2.8099 3.1965 1585.2 -0.0046553 171.02 0.17928
300.38 38484. undefined 839.84 1305.3 2.4861 570.00 0.0017544 839.84 1305.3 2.4861 2.8133 3.1995 1586.2 -0.0046518 171.03 0.17949 570.00 0.0017544 839.84 1305.3 2.4861 2.8133 3.1995 1586.2 -0.0046518 171.03 0.17949