Temperature (C) Pressure (psia) Quality (l+v) Internal Energy (l+v, kJ/kg) Enthalpy (l+v, kJ/kg) Entropy (l+v, J/g*K) Density (l, kg/m3) Volume (l, m3/kg) Internal Energy (l, kJ/kg) Enthalpy (l, kJ/kg) Entropy (l, J/g*K) Cv (l, J/g*K) Cp (l, J/g*K) Sound Spd. (l, m/s) Joule-Thomson (l, F/psia) Viscosity (l, uPa*s) Therm. Cond. (l, W/m*K) Density (v, kg/m3) Volume (v, m3/kg) Internal Energy (v, kJ/kg) Enthalpy (v, kJ/kg) Entropy (v, J/g*K) Cv (v, J/g*K) Cp (v, J/g*K) Sound Spd. (v, m/s) Joule-Thomson (v, F/psia) Viscosity (v, uPa*s) Therm. Cond. (v, W/m*K)
-187.62 2.4953e-08 3.5302e-12 -196.64 -196.64 -1.3959 733.13 0.0013640 -196.64 -196.64 -1.3959 1.3553 1.9158 2136.4 -0.0077592 10960. 0.20792 1.0669e-08 9.3732e+07 350.13 366.26 5.1858 0.69067 0.87923 143.28 6.1051 2.3259 0.0017061
-186.62 3.7339e-08 5.1908e-12 -194.73 -194.73 -1.3736 732.08 0.0013660 -194.73 -194.73 -1.3736 1.3539 1.9166 2129.6 -0.0077546 10073. 0.20765 1.5780e-08 6.3371e+07 350.82 367.14 5.1200 0.69462 0.88317 144.03 5.9178 2.3534 0.0017533
-185.62 5.5322e-08 7.5577e-12 -192.81 -192.81 -1.3516 731.04 0.0013679 -192.81 -192.81 -1.3516 1.3525 1.9174 2122.9 -0.0077498 9276.1 0.20737 2.3112e-08 4.3267e+07 351.52 368.02 5.0561 0.69857 0.88713 144.77 5.7383 2.3808 0.0018007
-184.62 8.1182e-08 1.0900e-11 -190.89 -190.89 -1.3298 730.00 0.0013699 -190.89 -190.89 -1.3298 1.3513 1.9182 2116.1 -0.0077448 8557.8 0.20708 3.3533e-08 2.9821e+07 352.22 368.91 4.9939 0.70253 0.89108 145.51 5.5662 2.4083 0.0018485
-183.62 1.1803e-07 1.5577e-11 -188.97 -188.97 -1.3083 728.96 0.0013718 -188.97 -188.97 -1.3083 1.3501 1.9191 2109.3 -0.0077395 7909.8 0.20678 4.8211e-08 2.0742e+07 352.92 369.81 4.9333 0.70648 0.89504 146.24 5.4011 2.4357 0.0018965
-182.62 1.7009e-07 2.2064e-11 -187.05 -187.05 -1.2869 727.92 0.0013738 -187.05 -187.05 -1.2869 1.3490 1.9201 2102.5 -0.0077340 7324.3 0.20647 6.8704e-08 1.4555e+07 353.63 370.70 4.8744 0.71043 0.89899 146.97 5.2426 2.4632 0.0019448
-181.62 2.4299e-07 3.0986e-11 -185.13 -185.13 -1.2658 726.88 0.0013757 -185.13 -185.13 -1.2658 1.3480 1.9210 2095.7 -0.0077283 6794.5 0.20616 9.7079e-08 1.0301e+07 354.35 371.60 4.8170 0.71438 0.90294 147.69 5.0904 2.4906 0.0019934
-180.62 3.4425e-07 4.3157e-11 -183.21 -183.21 -1.2450 725.85 0.0013777 -183.21 -183.21 -1.2450 1.3470 1.9220 2088.9 -0.0077225 6314.4 0.20584 1.3605e-07 7.3504e+06 355.06 372.51 4.7612 0.71833 0.90688 148.41 4.9442 2.5181 0.0020423
-179.62 4.8378e-07 5.9630e-11 -181.29 -181.29 -1.2243 724.81 0.0013797 -181.29 -181.29 -1.2243 1.3461 1.9231 2082.0 -0.0077164 5878.8 0.20551 1.8915e-07 5.2868e+06 355.78 373.42 4.7068 0.72227 0.91082 149.13 4.8038 2.5456 0.0020915
-178.62 6.7459e-07 8.1755e-11 -179.37 -179.37 -1.2038 723.78 0.0013816 -179.37 -179.37 -1.2038 1.3453 1.9241 2075.2 -0.0077102 5482.9 0.20517 2.6096e-07 3.8320e+06 356.51 374.33 4.6538 0.72620 0.91475 149.84 4.6688 2.5731 0.0021410
-177.62 9.3358e-07 1.1125e-10 -177.44 -177.44 -1.1836 722.75 0.0013836 -177.44 -177.44 -1.1836 1.3445 1.9252 2068.4 -0.0077039 5122.6 0.20483 3.5737e-07 2.7982e+06 357.23 375.25 4.6022 0.73012 0.91867 150.54 4.5390 2.6005 0.0021907
-176.62 1.2826e-06 1.5030e-10 -175.52 -175.52 -1.1635 721.72 0.0013856 -175.52 -175.52 -1.1635 1.3437 1.9263 2061.5 -0.0076973 4794.1 0.20447 4.8588e-07 2.0581e+06 357.97 376.17 4.5519 0.73403 0.92258 151.25 4.4142 2.6280 0.0022408
-175.62 1.7496e-06 2.0163e-10 -173.59 -173.59 -1.1437 720.69 0.0013876 -173.59 -173.59 -1.1437 1.3430 1.9274 2054.7 -0.0076907 4494.3 0.20411 6.5601e-07 1.5244e+06 358.70 377.09 4.5029 0.73792 0.92648 151.95 4.2941 2.6555 0.0022912
-174.62 2.3705e-06 2.6866e-10 -171.66 -171.66 -1.1240 719.66 0.0013895 -171.66 -171.66 -1.1240 1.3423 1.9286 2047.9 -0.0076838 4220.2 0.20375 8.7976e-07 1.1367e+06 359.44 378.02 4.4551 0.74181 0.93036 152.64 4.1784 2.6830 0.0023418
-173.62 3.1903e-06 3.5561e-10 -169.73 -169.73 -1.1045 718.64 0.0013915 -169.73 -169.73 -1.1045 1.3417 1.9298 2041.0 -0.0076769 3969.3 0.20338 1.1721e-06 8.5314e+05 360.19 378.95 4.4085 0.74568 0.93423 153.33 4.0671 2.7105 0.0023928
-172.62 4.2661e-06 4.6772e-10 -167.80 -167.80 -1.0852 717.61 0.0013935 -167.80 -167.80 -1.0852 1.3411 1.9310 2034.2 -0.0076698 3739.3 0.20300 1.5518e-06 6.4441e+05 360.93 379.89 4.3631 0.74953 0.93809 154.02 3.9599 2.7379 0.0024440
-171.62 5.6692e-06 6.1136e-10 -165.87 -165.87 -1.0661 716.58 0.0013955 -165.87 -165.87 -1.0661 1.3405 1.9322 2027.3 -0.0076625 3528.0 0.20261 2.0419e-06 4.8974e+05 361.69 380.83 4.3188 0.75337 0.94193 154.71 3.8566 2.7654 0.0024955
-170.62 7.4884e-06 7.9432e-10 -163.94 -163.94 -1.0472 715.56 0.0013975 -163.94 -163.94 -1.0472 1.3400 1.9334 2020.5 -0.0076552 3333.8 0.20222 2.6708e-06 3.7442e+05 362.44 381.77 4.2755 0.75720 0.94575 155.39 3.7570 2.7929 0.0025473
-169.62 9.8334e-06 1.0260e-09 -162.00 -162.00 -1.0284 714.54 0.0013995 -162.00 -162.00 -1.0284 1.3395 1.9347 2013.6 -0.0076477 3154.9 0.20182 3.4733e-06 2.8791e+05 363.20 382.72 4.2334 0.76100 0.94956 156.07 3.6609 2.8204 0.0025994
-168.62 1.2839e-05 1.3179e-09 -160.07 -160.07 -1.0098 713.52 0.0014015 -160.07 -160.07 -1.0098 1.3390 1.9359 2006.8 -0.0076401 2989.9 0.20141 4.4917e-06 2.2263e+05 363.96 383.67 4.1922 0.76479 0.95335 156.74 3.5683 2.8479 0.0026518
-167.62 1.6672e-05 1.6834e-09 -158.13 -158.13 -0.99134 712.49 0.0014035 -158.13 -158.13 -0.99134 1.3386 1.9372 2000.0 -0.0076323 2837.5 0.20100 5.7771e-06 1.7310e+05 364.73 384.63 4.1521 0.76856 0.95712 157.41 3.4790 2.8754 0.0027045
-166.62 2.1533e-05 2.1389e-09 -156.19 -156.19 -0.97306 711.47 0.0014055 -156.19 -156.19 -0.97306 1.3382 1.9385 1993.1 -0.0076245 2696.5 0.20058 7.3914e-06 1.3529e+05 365.50 385.59 4.1129 0.77232 0.96087 158.08 3.3927 2.9029 0.0027575
-165.62 2.7666e-05 2.7037e-09 -154.25 -154.25 -0.95494 710.45 0.0014075 -154.25 -154.25 -0.95494 1.3378 1.9398 1986.3 -0.0076165 2566.0 0.20016 9.4084e-06 1.0629e+05 366.27 386.55 4.0746 0.77605 0.96460 158.75 3.3095 2.9304 0.0028108
-164.62 3.5367e-05 3.4003e-09 -152.31 -152.31 -0.93698 709.44 0.0014096 -152.31 -152.31 -0.93698 1.3375 1.9411 1979.4 -0.0076084 2444.9 0.19973 1.1916e-05 83918. 367.05 387.52 4.0372 0.77976 0.96832 159.41 3.2291 2.9579 0.0028643
-163.62 4.4989e-05 4.2555e-09 -150.37 -150.37 -0.91917 708.42 0.0014116 -150.37 -150.37 -0.91917 1.3371 1.9424 1972.6 -0.0076002 2332.3 0.19930 1.5020e-05 66577. 367.83 388.49 4.0008 0.78346 0.97201 160.07 3.1514 2.9854 0.0029182
-162.62 5.6956e-05 5.3005e-09 -148.43 -148.43 -0.90151 707.40 0.0014136 -148.43 -148.43 -0.90151 1.3368 1.9437 1965.8 -0.0075919 2227.7 0.19886 1.8844e-05 53068. 368.62 389.46 3.9651 0.78713 0.97569 160.72 3.0764 3.0129 0.0029723
-161.62 7.1773e-05 6.5716e-09 -146.48 -146.48 -0.88400 706.38 0.0014157 -146.48 -146.48 -0.88400 1.3365 1.9451 1959.0 -0.0075834 2130.2 0.19841 2.3533e-05 42494. 369.41 390.44 3.9304 0.79079 0.97935 161.38 3.0038 3.0404 0.0030268
-160.62 9.0036e-05 8.1109e-09 -144.54 -144.54 -0.86663 705.37 0.0014177 -144.54 -144.54 -0.86663 1.3363 1.9465 1952.1 -0.0075748 2039.2 0.19796 2.9258e-05 34178. 370.20 391.42 3.8964 0.79443 0.98298 162.03 2.9337 3.0679 0.0030815
-159.62 0.00011245 9.9670e-09 -142.59 -142.59 -0.84940 704.35 0.0014197 -142.59 -142.59 -0.84940 1.3360 1.9478 1945.3 -0.0075661 1954.2 0.19751 3.6221e-05 27609. 371.00 392.40 3.8632 0.79805 0.98660 162.68 2.8658 3.0955 0.0031365
-158.62 0.00013985 1.2196e-08 -140.64 -140.64 -0.83231 703.34 0.0014218 -140.64 -140.64 -0.83231 1.3358 1.9492 1938.5 -0.0075573 1874.8 0.19705 4.4652e-05 22395. 371.80 393.39 3.8307 0.80164 0.99020 163.32 2.8002 3.1230 0.0031918
-157.62 0.00017320 1.4861e-08 -138.69 -138.69 -0.81536 702.32 0.0014238 -138.69 -138.69 -0.81536 1.3356 1.9506 1931.7 -0.0075484 1800.3 0.19658 5.4822e-05 18241. 372.60 394.38 3.7990 0.80522 0.99378 163.96 2.7367 3.1505 0.0032474
-156.62 0.00021364 1.8035e-08 -136.74 -136.74 -0.79854 701.31 0.0014259 -136.74 -136.74 -0.79854 1.3354 1.9520 1924.9 -0.0075393 1730.5 0.19611 6.7040e-05 14916. 373.41 395.38 3.7680 0.80878 0.99734 164.60 2.6752 3.1780 0.0033033
-155.62 0.00026248 2.1801e-08 -134.79 -134.79 -0.78185 700.30 0.0014280 -134.79 -134.79 -0.78185 1.3352 1.9534 1918.1 -0.0075302 1664.9 0.19564 8.1666e-05 12245. 374.22 396.38 3.7377 0.81232 1.0009 165.24 2.6157 3.2055 0.0033595
-154.62 0.00032125 2.6252e-08 -132.83 -132.83 -0.76530 699.29 0.0014300 -132.83 -132.83 -0.76530 1.3350 1.9548 1911.3 -0.0075209 1603.3 0.19516 9.9109e-05 10090. 375.03 397.38 3.7081 0.81585 1.0044 165.87 2.5580 3.2330 0.0034160
-153.62 0.00039171 3.1495e-08 -130.88 -130.88 -0.74887 698.27 0.0014321 -130.88 -130.88 -0.74887 1.3349 1.9563 1904.5 -0.0075114 1545.3 0.19468 0.00011984 8344.6 375.85 398.39 3.6792 0.81935 1.0079 166.50 2.5022 3.2606 0.0034727
-152.62 0.00047590 3.7646e-08 -128.92 -128.92 -0.73256 697.26 0.0014342 -128.92 -128.92 -0.73256 1.3348 1.9577 1897.8 -0.0075019 1490.6 0.19419 0.00014439 6925.9 376.67 399.40 3.6509 0.82284 1.0114 167.13 2.4481 3.2881 0.0035298
-151.62 0.00057613 4.4839e-08 -126.96 -126.96 -0.71638 696.25 0.0014363 -126.96 -126.96 -0.71638 1.3346 1.9592 1891.0 -0.0074922 1438.9 0.19370 0.00017336 5768.4 377.49 400.41 3.6232 0.82631 1.0149 167.76 2.3957 3.3156 0.0035872
-150.62 0.00069507 5.3221e-08 -125.00 -125.00 -0.70032 695.24 0.0014384 -125.00 -125.00 -0.70032 1.3345 1.9606 1884.2 -0.0074824 1390.2 0.19320 0.00020744 4820.7 378.32 401.42 3.5962 0.82976 1.0183 168.38 2.3448 3.3431 0.0036448
-149.62 0.00083574 6.2956e-08 -123.04 -123.04 -0.68438 694.23 0.0014404 -123.04 -123.04 -0.68438 1.3345 1.9621 1877.4 -0.0074724 1344.0 0.19270 0.00024740 4042.0 379.15 402.44 3.5697 0.83319 1.0218 169.00 2.2956 3.3706 0.0037027
-148.62 0.0010016 7.4225e-08 -121.08 -121.08 -0.66855 693.22 0.0014425 -121.08 -121.08 -0.66855 1.3344 1.9636 1870.7 -0.0074623 1300.3 0.19220 0.00029412 3400.0 379.99 403.47 3.5438 0.83661 1.0252 169.62 2.2478 3.3982 0.0037610
-147.62 0.0011965 8.7230e-08 -119.11 -119.11 -0.65284 692.21 0.0014447 -119.11 -119.11 -0.65284 1.3343 1.9651 1863.9 -0.0074521 1258.9 0.19169 0.00034856 2869.0 380.83 404.49 3.5185 0.84001 1.0286 170.24 2.2014 3.4257 0.0038195
-146.62 0.0014249 1.0219e-07 -117.15 -117.15 -0.63724 691.20 0.0014468 -117.15 -117.15 -0.63724 1.3343 1.9666 1857.2 -0.0074417 1219.6 0.19117 0.00041181 2428.3 381.67 405.52 3.4938 0.84340 1.0320 170.85 2.1565 3.4532 0.0038783
-145.62 0.0016917 1.1935e-07 -115.18 -115.18 -0.62175 690.19 0.0014489 -115.18 -115.18 -0.62175 1.3343 1.9682 1850.4 -0.0074312 1182.3 0.19066 0.00048510 2061.4 382.51 406.56 3.4695 0.84677 1.0353 171.46 2.1128 3.4807 0.0039374
-144.62 0.0020026 1.3897e-07 -113.21 -113.21 -0.60637 689.18 0.0014510 -113.21 -113.21 -0.60637 1.3343 1.9697 1843.7 -0.0074206 1146.8 0.19014 0.00056976 1755.1 383.36 407.59 3.4458 0.85012 1.0387 172.07 2.0705 3.5082 0.0039967
-143.62 0.0023637 1.6134e-07 -111.24 -111.24 -0.59110 688.17 0.0014531 -111.24 -111.24 -0.59110 1.3343 1.9713 1836.9 -0.0074098 1113.0 0.18962 0.00066731 1498.6 384.21 408.63 3.4226 0.85346 1.0420 172.68 2.0294 3.5358 0.0040564
-142.62 0.0027820 1.8678e-07 -109.27 -109.27 -0.57593 687.16 0.0014553 -109.27 -109.27 -0.57593 1.3343 1.9728 1830.2 -0.0073988 1080.8 0.18909 0.00077939 1283.1 385.07 409.68 3.3999 0.85679 1.0454 173.28 1.9896 3.5633 0.0041164
-141.62 0.0032653 2.1561e-07 -107.30 -107.30 -0.56087 686.15 0.0014574 -107.30 -107.30 -0.56087 1.3343 1.9744 1823.5 -0.0073878 1050.1 0.18856 0.00090784 1101.5 385.93 410.72 3.3777 0.86011 1.0487 173.88 1.9508 3.5908 0.0041766
-140.62 0.0038222 2.4822e-07 -105.32 -105.32 -0.54591 685.14 0.0014596 -105.32 -105.32 -0.54591 1.3344 1.9760 1816.7 -0.0073765 1020.7 0.18803 0.0010547 948.16 386.79 411.77 3.3560 0.86341 1.0520 174.48 1.9133 3.6183 0.0042372
-139.62 0.0044623 2.8499e-07 -103.34 -103.34 -0.53105 684.13 0.0014617 -103.34 -103.34 -0.53105 1.3344 1.9776 1810.0 -0.0073651 992.74 0.18749 0.0012221 818.26 387.65 412.83 3.3347 0.86670 1.0553 175.08 1.8768 3.6459 0.0042980
-138.62 0.0051963 3.2635e-07 -101.37 -101.37 -0.51628 683.12 0.0014639 -101.37 -101.37 -0.51629 1.3345 1.9792 1803.3 -0.0073536 965.97 0.18695 0.0014125 707.94 388.52 413.88 3.3139 0.86998 1.0586 175.67 1.8413 3.6734 0.0043592
-137.62 0.0060358 3.7276e-07 -99.386 -99.386 -0.50162 682.11 0.0014660 -99.386 -99.386 -0.50162 1.3346 1.9808 1796.6 -0.0073419 940.35 0.18641 0.0016287 614.00 389.39 414.94 3.2935 0.87325 1.0619 176.26 1.8069 3.7009 0.0044206
-136.62 0.0069938 4.2468e-07 -97.404 -97.404 -0.48705 681.10 0.0014682 -97.404 -97.404 -0.48705 1.3347 1.9825 1789.9 -0.0073301 915.81 0.18586 0.0018733 533.80 390.26 416.00 3.2735 0.87650 1.0651 176.85 1.7734 3.7284 0.0044823
-135.62 0.0080843 4.8265e-07 -95.421 -95.421 -0.47258 680.09 0.0014704 -95.421 -95.421 -0.47258 1.3348 1.9841 1783.2 -0.0073180 892.30 0.18531 0.0021497 465.17 391.14 417.07 3.2540 0.87975 1.0684 177.44 1.7409 3.7559 0.0045443
-134.62 0.0093230 5.4721e-07 -93.436 -93.436 -0.45820 679.08 0.0014726 -93.436 -93.436 -0.45820 1.3350 1.9858 1776.5 -0.0073059 869.75 0.18476 0.0024613 406.30 392.02 418.14 3.2348 0.88299 1.0716 178.02 1.7093 3.7834 0.0046066
-133.62 0.010727 6.1894e-07 -91.449 -91.449 -0.44391 678.07 0.0014748 -91.450 -91.449 -0.44391 1.3351 1.9875 1769.8 -0.0072935 848.11 0.18421 0.0028116 355.67 392.91 419.21 3.2161 0.88622 1.0749 178.61 1.6786 3.8109 0.0046691
-132.62 0.012315 6.9844e-07 -89.461 -89.461 -0.42971 677.06 0.0014770 -89.461 -89.461 -0.42971 1.3353 1.9892 1763.1 -0.0072810 827.32 0.18365 0.0032049 312.03 393.79 420.29 3.1977 0.88944 1.0781 179.19 1.6488 3.8385 0.0047320
-131.62 0.014106 7.8637e-07 -87.471 -87.471 -0.41559 676.04 0.0014792 -87.471 -87.471 -0.41560 1.3354 1.9909 1756.4 -0.0072684 807.34 0.18309 0.0036453 274.33 394.68 421.36 3.1798 0.89266 1.0813 179.76 1.6197 3.8660 0.0047951
-130.62 0.016124 8.8339e-07 -85.479 -85.479 -0.40157 675.03 0.0014814 -85.479 -85.479 -0.40157 1.3356 1.9926 1749.7 -0.0072555 788.12 0.18253 0.0041375 241.69 395.58 422.44 3.1622 0.89586 1.0846 180.34 1.5915 3.8935 0.0048586
-129.62 0.018392 9.9021e-07 -83.485 -83.485 -0.38763 674.02 0.0014836 -83.486 -83.486 -0.38763 1.3358 1.9944 1743.0 -0.0072425 769.63 0.18196 0.0046867 213.37 396.47 423.53 3.1450 0.89906 1.0878 180.91 1.5641 3.9210 0.0049223
-128.62 0.020935 1.1076e-06 -81.490 -81.490 -0.37378 673.01 0.0014859 -81.491 -81.490 -0.37378 1.3360 1.9961 1736.3 -0.0072294 751.83 0.18140 0.0052981 188.75 397.37 424.62 3.1281 0.90226 1.0910 181.48 1.5374 3.9485 0.0049863
-127.62 0.023783 1.2362e-06 -79.493 -79.493 -0.36001 672.00 0.0014881 -79.494 -79.493 -0.36001 1.3363 1.9979 1729.6 -0.0072160 734.67 0.18083 0.0059776 167.29 398.27 425.71 3.1116 0.90545 1.0942 182.05 1.5114 3.9760 0.0050506
-126.62 0.026966 1.3770e-06 -77.494 -77.494 -0.34632 670.98 0.0014904 -77.495 -77.495 -0.34632 1.3365 1.9997 1722.9 -0.0072025 718.14 0.18025 0.0067313 148.56 399.18 426.80 3.0954 0.90863 1.0974 182.62 1.4861 4.0035 0.0051152
-125.62 0.030515 1.5307e-06 -75.494 -75.493 -0.33271 669.97 0.0014926 -75.494 -75.494 -0.33272 1.3368 2.0015 1716.2 -0.0071888 702.18 0.17968 0.0075660 132.17 400.09 427.89 3.0795 0.91181 1.1006 183.18 1.4615 4.0310 0.0051800
-124.62 0.034467 1.6981e-06 -73.491 -73.491 -0.31918 668.95 0.0014949 -73.492 -73.492 -0.31919 1.3371 2.0033 1709.5 -0.0071749 686.79 0.17910 0.0084885 117.81 401.00 428.99 3.0640 0.91499 1.1038 183.74 1.4375 4.0584 0.0052452
-123.62 0.038859 1.8802e-06 -71.487 -71.486 -0.30573 667.94 0.0014971 -71.488 -71.487 -0.30574 1.3374 2.0051 1702.8 -0.0071609 671.93 0.17852 0.0095065 105.19 401.91 430.10 3.0488 0.91816 1.1070 184.30 1.4141 4.0859 0.0053106
-122.62 0.043731 2.0777e-06 -69.481 -69.480 -0.29236 666.92 0.0014994 -69.482 -69.481 -0.29237 1.3377 2.0070 1696.2 -0.0071466 657.57 0.17794 0.010628 94.092 402.83 431.20 3.0339 0.92134 1.1102 184.86 1.3913 4.1134 0.0053764
-121.62 0.049128 2.2917e-06 -67.473 -67.472 -0.27907 665.91 0.0015017 -67.474 -67.473 -0.27907 1.3380 2.0089 1689.5 -0.0071322 643.70 0.17736 0.011861 84.309 403.75 432.31 3.0193 0.92451 1.1134 185.41 1.3691 4.1409 0.0054424
-120.62 0.055096 2.5230e-06 -65.463 -65.462 -0.26584 664.89 0.0015040 -65.464 -65.463 -0.26585 1.3384 2.0107 1682.8 -0.0071176 630.28 0.17678 0.013215 75.669 404.67 433.42 3.0050 0.92767 1.1166 185.96 1.3475 4.1683 0.0055087
-119.62 0.061684 2.7726e-06 -63.451 -63.450 -0.25270 663.87 0.0015063 -63.452 -63.452 -0.25271 1.3387 2.0126 1676.1 -0.0071028 617.30 0.17619 0.014700 68.027 405.60 434.53 2.9909 0.93084 1.1198 186.51 1.3264 4.1958 0.0055752
-118.62 0.068946 3.0413e-06 -61.437 -61.436 -0.23962 662.86 0.0015086 -61.439 -61.438 -0.23963 1.3391 2.0146 1669.4 -0.0070878 604.74 0.17560 0.016325 61.255 406.53 435.64 2.9772 0.93401 1.1231 187.06 1.3058 4.2233 0.0056421
-117.62 0.076937 3.3302e-06 -59.422 -59.421 -0.22662 661.84 0.0015109 -59.423 -59.422 -0.22663 1.3395 2.0165 1662.8 -0.0070726 592.58 0.17501 0.018101 55.245 407.46 436.76 2.9638 0.93718 1.1263 187.60 1.2857 4.2507 0.0057092
-116.62 0.085718 3.6402e-06 -57.404 -57.403 -0.21369 660.82 0.0015133 -57.406 -57.405 -0.21370 1.3400 2.0184 1656.1 -0.0070573 580.80 0.17442 0.020040 49.901 408.39 437.88 2.9506 0.94035 1.1295 188.14 1.2660 4.2782 0.0057767
-115.62 0.095353 3.9721e-06 -55.384 -55.383 -0.20083 659.80 0.0015156 -55.386 -55.385 -0.20084 1.3404 2.0204 1649.4 -0.0070417 569.38 0.17383 0.022152 45.142 409.33 439.01 2.9377 0.94352 1.1327 188.68 1.2468 4.3056 0.0058444
-114.62 0.10591 4.3269e-06 -53.363 -53.362 -0.18804 658.78 0.0015180 -53.365 -53.364 -0.18805 1.3409 2.0224 1642.7 -0.0070260 558.32 0.17323 0.024451 40.898 410.27 440.13 2.9250 0.94669 1.1360 189.22 1.2281 4.3330 0.0059123
-113.62 0.11746 4.7055e-06 -51.339 -51.338 -0.17531 657.76 0.0015203 -51.342 -51.340 -0.17533 1.3413 2.0244 1636.0 -0.0070100 547.59 0.17264 0.026949 37.107 411.21 441.26 2.9126 0.94987 1.1392 189.75 1.2097 4.3604 0.0059806
-112.62 0.13008 5.1087e-06 -49.314 -49.312 -0.16265 656.73 0.0015227 -49.316 -49.315 -0.16267 1.3418 2.0264 1629.3 -0.0069938 537.18 0.17204 0.029661 33.715 412.16 442.39 2.9005 0.95305 1.1424 190.28 1.1918 4.3879 0.0060491
-111.62 0.14384 5.5374e-06 -47.286 -47.285 -0.15006 655.71 0.0015251 -47.289 -47.287 -0.15008 1.3424 2.0285 1622.7 -0.0069774 527.08 0.17144 0.032600 30.675 413.10 443.53 2.8885 0.95623 1.1457 190.81 1.1742 4.4153 0.0061180
-110.62 0.15884 5.9924e-06 -45.257 -45.255 -0.13753 654.69 0.0015274 -45.259 -45.258 -0.13755 1.3429 2.0305 1616.0 -0.0069609 517.28 0.17084 0.035781 27.948 414.06 444.66 2.8769 0.95942 1.1490 191.34 1.1570 4.4427 0.0061871
-109.62 0.17516 6.4745e-06 -43.225 -43.223 -0.12507 653.66 0.0015298 -43.228 -43.226 -0.12509 1.3435 2.0326 1609.3 -0.0069441 507.76 0.17024 0.039220 25.497 415.01 445.80 2.8654 0.96261 1.1522 191.86 1.1402 4.4701 0.0062564
-108.62 0.19290 6.9842e-06 -41.191 -41.189 -0.11267 652.64 0.0015322 -41.194 -41.192 -0.11269 1.3441 2.0347 1602.6 -0.0069271 498.51 0.16964 0.042933 23.292 415.96 446.94 2.8542 0.96581 1.1555 192.38 1.1236 4.4974 0.0063261
-107.62 0.21215 7.5223e-06 -39.155 -39.152 -0.10033 651.61 0.0015347 -39.158 -39.156 -0.10036 1.3447 2.0369 1595.9 -0.0069098 489.52 0.16903 0.046937 21.305 416.92 448.09 2.8433 0.96901 1.1588 192.90 1.1075 4.5248 0.0063960
-106.62 0.23301 8.0894e-06 -37.117 -37.114 -0.088059 650.58 0.0015371 -37.120 -37.118 -0.088082 1.3453 2.0390 1589.2 -0.0068924 480.79 0.16843 0.051250 19.512 417.88 449.23 2.8325 0.97222 1.1621 193.41 1.0916 4.5522 0.0064662
-105.62 0.25561 8.6858e-06 -35.077 -35.074 -0.075843 649.55 0.0015395 -35.080 -35.078 -0.075868 1.3460 2.0412 1582.6 -0.0068747 472.30 0.16782 0.055891 17.892 418.85 450.38 2.8220 0.97544 1.1655 193.93 1.0760 4.5795 0.0065367
-104.62 0.28004 9.3120e-06 -33.034 -33.031 -0.063687 648.52 0.0015420 -33.038 -33.035 -0.063714 1.3467 2.0434 1575.9 -0.0068569 464.04 0.16721 0.060878 16.426 419.81 451.53 2.8116 0.97867 1.1688 194.44 1.0608 4.6069 0.0066074
-103.62 0.30643 9.9683e-06 -30.989 -30.986 -0.051590 647.49 0.0015444 -30.994 -30.991 -0.051619 1.3474 2.0456 1569.2 -0.0068387 456.00 0.16660 0.066231 15.099 420.78 452.68 2.8015 0.98191 1.1722 194.94 1.0458 4.6342 0.0066785
-102.62 0.33490 1.0655e-05 -28.942 -28.939 -0.039552 646.46 0.0015469 -28.947 -28.944 -0.039582 1.3481 2.0478 1562.5 -0.0068204 448.18 0.16600 0.071971 13.894 421.75 453.84 2.7916 0.98516 1.1755 195.44 1.0310 4.6615 0.0067498
-101.62 0.36558 1.1372e-05 -26.893 -26.889 -0.027570 645.43 0.0015494 -26.898 -26.894 -0.027602 1.3489 2.0501 1555.8 -0.0068018 440.57 0.16539 0.078120 12.801 422.73 454.99 2.7818 0.98841 1.1789 195.95 1.0166 4.6888 0.0068213
-100.62 0.39862 1.2119e-05 -24.842 -24.837 -0.015644 644.39 0.0015519 -24.847 -24.843 -0.015678 1.3497 2.0524 1549.1 -0.0067830 433.16 0.16478 0.084699 11.807 423.70 456.15 2.7723 0.99168 1.1823 196.44 1.0024 4.7161 0.0068932
-99.625 0.43414 1.2896e-05 -22.788 -22.783 -0.0037746 643.36 0.0015544 -22.794 -22.789 -0.0038103 1.3505 2.0547 1542.4 -0.0067639 425.95 0.16416 0.091731 10.901 424.68 457.31 2.7630 0.99496 1.1858 196.94 0.98838 4.7434 0.0069653
-98.625 0.47230 1.3703e-05 -20.732 -20.726 0.0080404 642.32 0.0015569 -20.738 -20.733 0.0080027 1.3514 2.0570 1535.7 -0.0067447 418.92 0.16355 0.099240 10.077 425.66 458.48 2.7538 0.99825 1.1892 197.43 0.97464 4.7707 0.0070377
-97.625 0.51325 1.4539e-05 -18.673 -18.667 0.019801 641.28 0.0015594 -18.680 -18.674 0.019762 1.3522 2.0594 1529.0 -0.0067251 412.07 0.16294 0.10725 9.3239 426.65 459.64 2.7448 1.0016 1.1927 197.92 0.96112 4.7979 0.0071103
-96.625 0.55714 1.5403e-05 -16.613 -16.606 0.031509 640.24 0.0015619 -16.620 -16.614 0.031467 1.3531 2.0618 1522.3 -0.0067053 405.39 0.16233 0.11579 8.6365 427.63 460.81 2.7360 1.0049 1.1962 198.40 0.94783 4.8251 0.0071832
-95.625 0.60416 1.6295e-05 -14.549 -14.542 0.043164 639.20 0.0015645 -14.557 -14.550 0.043120 1.3540 2.0642 1515.7 -0.0066853 398.88 0.16171 0.12488 8.0078 428.62 461.98 2.7274 1.0082 1.1997 198.88 0.93475 4.8524 0.0072564
-94.625 0.65446 1.7213e-05 -12.484 -12.476 0.054767 638.16 0.0015670 -12.491 -12.484 0.054721 1.3550 2.0667 1509.0 -0.0066650 392.53 0.16110 0.13455 7.4323 429.61 463.15 2.7189 1.0116 1.2032 199.36 0.92188 4.8796 0.0073299
-93.625 0.70822 1.8156e-05 -10.416 -10.407 0.066319 637.12 0.0015696 -10.424 -10.416 0.066271 1.3560 2.0691 1502.3 -0.0066444 386.34 0.16048 0.14482 6.9050 430.60 464.32 2.7107 1.0149 1.2068 199.83 0.90921 4.9068 0.0074036
-92.625 0.76564 1.9123e-05 -8.3451 -8.3362 0.077821 636.07 0.0015722 -8.3535 -8.3452 0.077771 1.3570 2.0716 1495.6 -0.0066236 380.31 0.15987 0.15573 6.4212 431.60 465.49 2.7025 1.0183 1.2104 200.30 0.89673 4.9340 0.0074776
-91.625 0.82689 2.0112e-05 -6.2720 -6.2624 0.089273 635.02 0.0015747 -6.2808 -6.2719 0.089220 1.3580 2.0742 1488.9 -0.0066025 374.41 0.15925 0.16731 5.9769 432.59 466.67 2.6946 1.0217 1.2140 200.77 0.88445 4.9611 0.0075518
-90.625 0.89218 2.1120e-05 -4.1964 -4.1860 0.10068 633.98 0.0015773 -4.2056 -4.1959 0.10062 1.3591 2.0767 1482.2 -0.0065811 368.66 0.15864 0.17958 5.5685 433.59 467.84 2.6868 1.0251 1.2177 201.24 0.87236 4.9883 0.0076263
-89.625 0.96172 2.2145e-05 -2.1182 -2.1070 0.11203 632.93 0.0015800 -2.1279 -2.1174 0.11197 1.3602 2.0793 1475.5 -0.0065595 363.05 0.15802 0.19258 5.1928 434.59 469.02 2.6791 1.0285 1.2213 201.70 0.86045 5.0154 0.0077011
-88.625 1.0357 2.3185e-05 -0.037416 -0.025313 0.12334 631.88 0.0015826 -0.047516 -0.036215 0.12328 1.3613 2.0819 1468.8 -0.0065375 357.56 0.15740 0.20633 4.8466 435.59 470.20 2.6717 1.0320 1.2250 202.15 0.84873 5.0425 0.0077761
-87.625 1.1144 2.4236e-05 2.0460 2.0590 0.13460 630.83 0.0015852 2.0355 2.0476 0.13454 1.3625 2.0846 1462.1 -0.0065153 352.21 0.15679 0.22087 4.5276 436.60 471.39 2.6643 1.0354 1.2288 202.61 0.83718 5.0696 0.0078514
-86.625 1.1979 2.5296e-05 4.1320 4.1460 0.14581 629.77 0.0015879 4.1211 4.1342 0.14575 1.3637 2.0873 1455.4 -0.0064928 346.98 0.15617 0.23623 4.2331 437.61 472.57 2.6571 1.0389 1.2325 203.06 0.82580 5.0967 0.0079270
-85.625 1.2866 2.6361e-05 6.2208 6.2358 0.15698 628.72 0.0015905 6.2094 6.2235 0.15691 1.3649 2.0900 1448.8 -0.0064701 341.87 0.15555 0.25245 3.9612 438.61 473.75 2.6501 1.0424 1.2363 203.50 0.81460 5.1237 0.0080028
-84.625 1.3806 2.7427e-05 8.3122 8.3283 0.16810 627.66 0.0015932 8.3004 8.3155 0.16803 1.3661 2.0927 1442.1 -0.0064470 336.87 0.15494 0.26956 3.7097 439.63 474.94 2.6432 1.0460 1.2402 203.95 0.80356 5.1508 0.0080789
-83.625 1.4803 2.8489e-05 10.406 10.424 0.17918 626.60 0.0015959 10.394 10.410 0.17911 1.3674 2.0955 1435.4 -0.0064236 331.99 0.15432 0.28760 3.4771 440.64 476.13 2.6364 1.0495 1.2440 204.38 0.79269 5.1778 0.0081553
-82.625 1.5858 2.9542e-05 12.503 12.522 0.19022 625.54 0.0015986 12.491 12.508 0.19014 1.3687 2.0983 1428.7 -0.0063999 327.22 0.15370 0.30659 3.2616 441.65 477.31 2.6298 1.0531 1.2479 204.82 0.78199 5.2048 0.0082319
-81.625 1.6975 3.0583e-05 14.603 14.623 0.20121 624.48 0.0016013 14.590 14.609 0.20113 1.3700 2.1012 1422.0 -0.0063759 322.55 0.15309 0.32659 3.0619 442.67 478.50 2.6233 1.0567 1.2519 205.25 0.77144 5.2318 0.0083088
-80.625 1.8155 3.1604e-05 16.706 16.727 0.21216 623.42 0.0016041 16.692 16.712 0.21208 1.3714 2.1041 1415.4 -0.0063516 317.99 0.15247 0.34763 2.8766 443.69 479.70 2.6169 1.0603 1.2558 205.67 0.76106 5.2587 0.0083860
-79.625 1.9402 3.2600e-05 18.811 18.834 0.22307 622.36 0.0016068 18.797 18.819 0.22299 1.3728 2.1070 1408.7 -0.0063270 313.52 0.15186 0.36974 2.7046 444.71 480.89 2.6106 1.0639 1.2598 206.10 0.75083 5.2857 0.0084634
-78.625 2.0718 3.3565e-05 20.919 20.943 0.23393 621.29 0.0016096 20.905 20.928 0.23385 1.3742 2.1099 1402.0 -0.0063021 309.15 0.15124 0.39296 2.5448 445.73 482.08 2.6045 1.0676 1.2639 206.51 0.74076 5.3126 0.0085411
-77.625 2.2107 3.4492e-05 23.030 23.056 0.24476 620.22 0.0016123 23.016 23.040 0.24468 1.3757 2.1129 1395.3 -0.0062768 304.88 0.15062 0.41735 2.3961 446.75 483.27 2.5985 1.0712 1.2680 206.93 0.73084 5.3395 0.0086190
-76.625 2.3571 3.5372e-05 25.145 25.172 0.25554 619.15 0.0016151 25.130 25.156 0.25546 1.3772 2.1159 1388.7 -0.0062512 300.69 0.15001 0.44292 2.2577 447.78 484.47 2.5926 1.0749 1.2721 207.34 0.72107 5.3664 0.0086972
-75.625 2.5113 3.6199e-05 27.262 27.291 0.26629 618.08 0.0016179 27.247 27.275 0.26620 1.3787 2.1190 1382.0 -0.0062253 296.59 0.14939 0.46974 2.1288 448.81 485.67 2.5869 1.0787 1.2762 207.74 0.71146 5.3933 0.0087757
-74.625 2.6736 3.6964e-05 29.382 29.413 0.27699 617.01 0.0016207 29.366 29.396 0.27691 1.3802 2.1221 1375.4 -0.0061990 292.58 0.14878 0.49783 2.0087 449.83 486.86 2.5812 1.0824 1.2804 208.14 0.70200 5.4201 0.0088544
-73.625 2.8444 3.7657e-05 31.505 31.538 0.28766 615.93 0.0016236 31.489 31.521 0.28758 1.3818 2.1252 1368.7 -0.0061724 288.65 0.14816 0.52725 1.8966 450.86 488.06 2.5757 1.0862 1.2847 208.54 0.69268 5.4469 0.0089334
-72.625 3.0240 3.8269e-05 33.631 33.667 0.29829 614.85 0.0016264 33.615 33.649 0.29821 1.3834 2.1284 1362.0 -0.0061454 284.81 0.14755 0.55804 1.7920 451.90 489.26 2.5703 1.0900 1.2889 208.93 0.68351 5.4737 0.0090126
-71.625 3.2127 3.8790e-05 35.761 35.798 0.30888 613.78 0.0016293 35.745 35.781 0.30880 1.3851 2.1316 1355.4 -0.0061181 281.03 0.14694 0.59024 1.6942 452.93 490.46 2.5650 1.0938 1.2932 209.32 0.67448 5.5005 0.0090922
-70.625 3.4108 3.9209e-05 37.893 37.933 0.31944 612.69 0.0016321 37.877 37.915 0.31935 1.3867 2.1349 1348.7 -0.0060904 277.34 0.14632 0.62390 1.6028 453.96 491.66 2.5598 1.0976 1.2976 209.70 0.66560 5.5273 0.0091720
-69.625 3.6187 3.9514e-05 40.029 40.071 0.32996 611.61 0.0016350 40.013 40.053 0.32987 1.3884 2.1382 1342.1 -0.0060624 273.72 0.14571 0.65906 1.5173 455.00 492.86 2.5547 1.1015 1.3020 210.08 0.65687 5.5540 0.0092520
-68.625 3.8367 3.9693e-05 42.168 42.213 0.34044 610.53 0.0016379 42.152 42.195 0.34036 1.3902 2.1415 1335.5 -0.0060339 270.17 0.14510 0.69577 1.4372 456.04 494.06 2.5497 1.1054 1.3064 210.45 0.64827 5.5807 0.0093324
-67.625 4.0652 3.9734e-05 44.310 44.358 0.35089 609.44 0.0016409 44.294 44.340 0.35080 1.3919 2.1449 1328.8 -0.0060051 266.69 0.14449 0.73408 1.3622 457.08 495.26 2.5448 1.1093 1.3109 210.82 0.63981 5.6074 0.0094130
-66.625 4.3046 3.9622e-05 46.456 46.506 0.36131 608.35 0.0016438 46.439 46.488 0.36122 1.3937 2.1483 1322.2 -0.0059760 263.28 0.14388 0.77404 1.2919 458.12 496.46 2.5400 1.1133 1.3154 211.18 0.63150 5.6341 0.0094939
-65.625 4.5551 3.9344e-05 48.604 48.657 0.37168 607.26 0.0016467 48.588 48.640 0.37160 1.3955 2.1518 1315.6 -0.0059464 259.93 0.14327 0.81570 1.2259 459.16 497.67 2.5353 1.1172 1.3200 211.54 0.62332 5.6608 0.0095750
-64.625 4.8173 3.8884e-05 50.756 50.813 0.38203 606.16 0.0016497 50.740 50.795 0.38195 1.3974 2.1553 1308.9 -0.0059164 256.65 0.14266 0.85910 1.1640 460.21 498.87 2.5307 1.1212 1.3246 211.89 0.61527 5.6874 0.0096564
-63.625 5.0915 3.8227e-05 52.912 52.971 0.39234 605.07 0.0016527 52.896 52.954 0.39226 1.3993 2.1588 1302.3 -0.0058861 253.42 0.14205 0.90429 1.1058 461.25 500.07 2.5262 1.1252 1.3293 212.24 0.60736 5.7140 0.0097382
-62.625 5.3781 3.7356e-05 55.071 55.133 0.40262 603.97 0.0016557 55.055 55.117 0.40254 1.4012 2.1624 1295.7 -0.0058553 250.26 0.14144 0.95134 1.0511 462.30 501.28 2.5218 1.1293 1.3340 212.58 0.59958 5.7406 0.0098201
-61.625 5.6774 3.6253e-05 57.233 57.299 0.41287 602.87 0.0016587 57.218 57.283 0.41279 1.4031 2.1660 1289.1 -0.0058241 247.16 0.14084 1.0003 0.99972 463.35 502.48 2.5175 1.1333 1.3387 212.92 0.59194 5.7672 0.0099024
-60.625 5.9899 3.4900e-05 59.399 59.469 0.42308 601.77 0.0016618 59.385 59.453 0.42301 1.4051 2.1697 1282.5 -0.0057925 244.12 0.14023 1.0512 0.95131 464.40 503.68 2.5133 1.1374 1.3435 213.26 0.58442 5.7938 0.0099850
-59.625 6.3160 3.3278e-05 61.568 61.642 0.43327 600.66 0.0016648 61.554 61.627 0.43320 1.4071 2.1734 1275.9 -0.0057605 241.13 0.13962 1.1041 0.90573 465.45 504.89 2.5091 1.1415 1.3483 213.58 0.57704 5.8203 0.010068
-58.625 6.6561 3.1367e-05 63.741 63.819 0.44342 599.55 0.0016679 63.728 63.805 0.44335 1.4091 2.1772 1269.3 -0.0057280 238.19 0.13902 1.1591 0.86277 466.50 506.09 2.5051 1.1457 1.3532 213.90 0.56978 5.8468 0.010151
-57.625 7.0107 2.9145e-05 65.917 65.999 0.45354 598.44 0.0016710 65.905 65.986 0.45348 1.4111 2.1810 1262.7 -0.0056951 235.31 0.13842 1.2161 0.82228 467.55 507.30 2.5011 1.1498 1.3581 214.22 0.56265 5.8733 0.010234
-56.625 7.3801 2.6591e-05 68.097 68.183 0.46363 597.33 0.0016741 68.086 68.172 0.46358 1.4132 2.1848 1256.1 -0.0056617 232.48 0.13781 1.2754 0.78408 468.60 508.50 2.4972 1.1540 1.3631 214.53 0.55564 5.8998 0.010318
-55.625 7.7648 2.3681e-05 70.281 70.371 0.47369 596.22 0.0016772 70.271 70.361 0.47364 1.4153 2.1887 1249.5 -0.0056279 229.69 0.13721 1.3369 0.74802 469.66 509.71 2.4934 1.1582 1.3681 214.84 0.54875 5.9263 0.010402
-54.625 8.1652 2.0392e-05 72.468 72.563 0.48372 595.10 0.0016804 72.460 72.554 0.48368 1.4174 2.1927 1242.9 -0.0055937 226.96 0.13661 1.4006 0.71396 470.72 510.91 2.4897 1.1624 1.3731 215.14 0.54199 5.9527 0.010486
-53.625 8.5819 1.6697e-05 74.659 74.759 0.49373 593.98 0.0016836 74.652 74.752 0.49369 1.4196 2.1967 1236.3 -0.0055589 224.27 0.13601 1.4667 0.68178 471.77 512.11 2.4860 1.1667 1.3782 215.43 0.53535 5.9792 0.010571
-52.625 9.0151 1.2571e-05 76.854 76.959 0.50370 592.86 0.0016867 76.849 76.954 0.50368 1.4218 2.2007 1229.8 -0.0055237 221.63 0.13541 1.5353 0.65136 472.83 513.32 2.4824 1.1710 1.3834 215.72 0.52882 6.0056 0.010656
-51.625 9.4655 7.9870e-06 79.052 79.163 0.51365 591.73 0.0016900 79.049 79.159 0.51363 1.4240 2.2048 1223.2 -0.0054880 219.04 0.13482 1.6062 0.62258 473.89 514.52 2.4789 1.1752 1.3886 216.00 0.52241 6.0320 0.010741
-50.625 9.9335 2.9155e-06 81.255 81.371 0.52357 590.60 0.0016932 81.253 81.369 0.52356 1.4262 2.2089 1216.6 -0.0054519 216.48 0.13422 1.6797 0.59534 474.95 515.73 2.4755 1.1796 1.3938 216.28 0.51612 6.0584 0.010827
-49.625 83.094 undefined 83.097 84.068 0.53183 590.00 0.0016949 83.097 84.068 0.53183 1.4290 2.2107 1214.4 -0.0054410 215.05 0.13396 590.00 0.0016949 83.097 84.068 0.53183 1.4290 2.2107 1214.4 -0.0054410 215.05 0.13396
-48.625 239.23 undefined 84.528 87.324 0.53822 590.00 0.0016949 84.528 87.324 0.53822 1.4323 2.2099 1217.0 -0.0054592 214.85 0.13410 590.00 0.0016949 84.528 87.324 0.53822 1.4323 2.2099 1217.0 -0.0054592 214.85 0.13410
-47.625 395.16 undefined 85.962 90.580 0.54459 590.00 0.0016949 85.962 90.580 0.54459 1.4356 2.2092 1219.7 -0.0054769 214.65 0.13423 590.00 0.0016949 85.962 90.580 0.54459 1.4356 2.2092 1219.7 -0.0054769 214.65 0.13423
-46.625 550.87 undefined 87.399 93.837 0.55095 590.00 0.0016949 87.399 93.837 0.55095 1.4390 2.2085 1222.3 -0.0054941 214.46 0.13436 590.00 0.0016949 87.399 93.837 0.55095 1.4390 2.2085 1222.3 -0.0054941 214.46 0.13436
-45.625 706.38 undefined 88.840 97.095 0.55730 590.00 0.0016949 88.840 97.095 0.55730 1.4424 2.2079 1224.9 -0.0055109 214.27 0.13449 590.00 0.0016949 88.840 97.095 0.55730 1.4424 2.2079 1224.9 -0.0055109 214.27 0.13449
-44.625 861.68 undefined 90.284 100.35 0.56363 590.00 0.0016949 90.284 100.35 0.56363 1.4457 2.2074 1227.5 -0.0055271 214.08 0.13462 590.00 0.0016949 90.284 100.35 0.56363 1.4457 2.2074 1227.5 -0.0055271 214.08 0.13462
-43.625 1016.8 undefined 91.731 103.61 0.56995 590.00 0.0016949 91.731 103.61 0.56995 1.4491 2.2070 1230.1 -0.0055429 213.89 0.13476 590.00 0.0016949 91.731 103.61 0.56995 1.4491 2.2070 1230.1 -0.0055429 213.89 0.13476
-42.625 1171.6 undefined 93.182 106.87 0.57626 590.00 0.0016949 93.182 106.87 0.57626 1.4525 2.2066 1232.6 -0.0055582 213.71 0.13489 590.00 0.0016949 93.182 106.87 0.57626 1.4525 2.2066 1232.6 -0.0055582 213.71 0.13489
-41.625 1326.3 undefined 94.636 110.14 0.58255 590.00 0.0016949 94.636 110.14 0.58255 1.4560 2.2064 1235.1 -0.0055732 213.52 0.13502 590.00 0.0016949 94.636 110.14 0.58255 1.4560 2.2064 1235.1 -0.0055732 213.52 0.13502
-40.625 1480.8 undefined 96.094 113.40 0.58883 590.00 0.0016949 96.094 113.40 0.58883 1.4594 2.2062 1237.6 -0.0055876 213.34 0.13516 590.00 0.0016949 96.094 113.40 0.58883 1.4594 2.2062 1237.6 -0.0055876 213.34 0.13516
-39.625 1635.1 undefined 97.555 116.66 0.59510 590.00 0.0016949 97.555 116.66 0.59510 1.4629 2.2060 1240.1 -0.0056017 213.17 0.13529 590.00 0.0016949 97.555 116.66 0.59510 1.4629 2.2060 1240.1 -0.0056017 213.17 0.13529
-38.625 1789.1 undefined 99.020 119.93 0.60136 590.00 0.0016949 99.020 119.93 0.60136 1.4663 2.2060 1242.6 -0.0056153 212.99 0.13542 590.00 0.0016949 99.020 119.93 0.60136 1.4663 2.2060 1242.6 -0.0056153 212.99 0.13542
-37.625 1943.0 undefined 100.49 123.19 0.60761 590.00 0.0016949 100.49 123.19 0.60761 1.4698 2.2060 1245.1 -0.0056286 212.81 0.13556 590.00 0.0016949 100.49 123.19 0.60761 1.4698 2.2060 1245.1 -0.0056286 212.81 0.13556
-36.625 2096.6 undefined 101.96 126.46 0.61384 590.00 0.0016949 101.96 126.46 0.61384 1.4733 2.2060 1247.5 -0.0056414 212.64 0.13569 590.00 0.0016949 101.96 126.46 0.61384 1.4733 2.2060 1247.5 -0.0056414 212.64 0.13569
-35.625 2250.1 undefined 103.43 129.73 0.62007 590.00 0.0016949 103.43 129.73 0.62007 1.4768 2.2062 1249.9 -0.0056539 212.47 0.13583 590.00 0.0016949 103.43 129.73 0.62007 1.4768 2.2062 1249.9 -0.0056539 212.47 0.13583
-34.625 2403.3 undefined 104.91 133.00 0.62628 590.00 0.0016949 104.91 133.00 0.62628 1.4803 2.2064 1252.3 -0.0056660 212.30 0.13597 590.00 0.0016949 104.91 133.00 0.62628 1.4803 2.2064 1252.3 -0.0056660 212.30 0.13597
-33.625 2556.4 undefined 106.40 136.27 0.63248 590.00 0.0016949 106.40 136.27 0.63248 1.4839 2.2066 1254.7 -0.0056777 212.14 0.13610 590.00 0.0016949 106.40 136.27 0.63248 1.4839 2.2066 1254.7 -0.0056777 212.14 0.13610
-32.625 2709.2 undefined 107.88 139.54 0.63867 590.00 0.0016949 107.88 139.54 0.63867 1.4874 2.2069 1257.1 -0.0056890 211.97 0.13624 590.00 0.0016949 107.88 139.54 0.63867 1.4874 2.2069 1257.1 -0.0056890 211.97 0.13624
-31.625 2861.8 undefined 109.37 142.81 0.64485 590.00 0.0016949 109.37 142.81 0.64485 1.4910 2.2073 1259.4 -0.0057000 211.81 0.13637 590.00 0.0016949 109.37 142.81 0.64485 1.4910 2.2073 1259.4 -0.0057000 211.81 0.13637
-30.625 3014.3 undefined 110.86 146.09 0.65101 590.00 0.0016949 110.86 146.09 0.65101 1.4946 2.2078 1261.7 -0.0057107 211.65 0.13651 590.00 0.0016949 110.86 146.09 0.65101 1.4946 2.2078 1261.7 -0.0057107 211.65 0.13651
-29.625 3166.5 undefined 112.36 149.36 0.65717 590.00 0.0016949 112.36 149.36 0.65717 1.4982 2.2083 1264.0 -0.0057210 211.49 0.13665 590.00 0.0016949 112.36 149.36 0.65717 1.4982 2.2083 1264.0 -0.0057210 211.49 0.13665
-28.625 3318.6 undefined 113.86 152.64 0.66332 590.00 0.0016949 113.86 152.64 0.66332 1.5018 2.2088 1266.3 -0.0057310 211.33 0.13678 590.00 0.0016949 113.86 152.64 0.66332 1.5018 2.2088 1266.3 -0.0057310 211.33 0.13678
-27.625 3470.4 undefined 115.36 155.92 0.66946 590.00 0.0016949 115.36 155.92 0.66946 1.5054 2.2094 1268.6 -0.0057406 211.18 0.13692 590.00 0.0016949 115.36 155.92 0.66946 1.5054 2.2094 1268.6 -0.0057406 211.18 0.13692
-26.625 3622.0 undefined 116.87 159.20 0.67558 590.00 0.0016949 116.87 159.20 0.67558 1.5090 2.2101 1270.9 -0.0057499 211.03 0.13706 590.00 0.0016949 116.87 159.20 0.67558 1.5090 2.2101 1270.9 -0.0057499 211.03 0.13706
-25.625 3773.5 undefined 118.38 162.48 0.68170 590.00 0.0016949 118.38 162.48 0.68170 1.5127 2.2108 1273.1 -0.0057589 210.87 0.13720 590.00 0.0016949 118.38 162.48 0.68170 1.5127 2.2108 1273.1 -0.0057589 210.87 0.13720
-24.625 3924.7 undefined 119.90 165.76 0.68780 590.00 0.0016949 119.90 165.76 0.68780 1.5164 2.2116 1275.4 -0.0057677 210.72 0.13734 590.00 0.0016949 119.90 165.76 0.68780 1.5164 2.2116 1275.4 -0.0057677 210.72 0.13734
-23.625 4075.8 undefined 121.41 169.04 0.69390 590.00 0.0016949 121.41 169.04 0.69390 1.5201 2.2124 1277.6 -0.0057761 210.58 0.13747 590.00 0.0016949 121.41 169.04 0.69390 1.5201 2.2124 1277.6 -0.0057761 210.58 0.13747
-22.625 4226.6 undefined 122.94 172.33 0.69999 590.00 0.0016949 122.94 172.33 0.69999 1.5238 2.2133 1279.8 -0.0057842 210.43 0.13761 590.00 0.0016949 122.94 172.33 0.69999 1.5238 2.2133 1279.8 -0.0057842 210.43 0.13761
-21.625 4377.3 undefined 124.46 175.61 0.70607 590.00 0.0016949 124.46 175.61 0.70607 1.5275 2.2142 1282.0 -0.0057920 210.28 0.13775 590.00 0.0016949 124.46 175.61 0.70607 1.5275 2.2142 1282.0 -0.0057920 210.28 0.13775
-20.625 4527.7 undefined 125.99 178.90 0.71213 590.00 0.0016949 125.99 178.90 0.71213 1.5312 2.2152 1284.1 -0.0057995 210.14 0.13789 590.00 0.0016949 125.99 178.90 0.71213 1.5312 2.2152 1284.1 -0.0057995 210.14 0.13789
-19.625 4678.0 undefined 127.52 182.19 0.71819 590.00 0.0016949 127.52 182.19 0.71819 1.5350 2.2162 1286.3 -0.0058068 210.00 0.13803 590.00 0.0016949 127.52 182.19 0.71819 1.5350 2.2162 1286.3 -0.0058068 210.00 0.13803
-18.625 4828.0 undefined 129.06 185.48 0.72424 590.00 0.0016949 129.06 185.48 0.72424 1.5387 2.2173 1288.4 -0.0058138 209.86 0.13817 590.00 0.0016949 129.06 185.48 0.72424 1.5387 2.2173 1288.4 -0.0058138 209.86 0.13817
-17.625 4977.9 undefined 130.60 188.77 0.73028 590.00 0.0016949 130.60 188.77 0.73028 1.5425 2.2184 1290.6 -0.0058205 209.72 0.13831 590.00 0.0016949 130.60 188.77 0.73028 1.5425 2.2184 1290.6 -0.0058205 209.72 0.13831
-16.625 5127.6 undefined 132.15 192.07 0.73632 590.00 0.0016949 132.15 192.07 0.73632 1.5463 2.2195 1292.7 -0.0058269 209.59 0.13845 590.00 0.0016949 132.15 192.07 0.73632 1.5463 2.2195 1292.7 -0.0058269 209.59 0.13845
-15.625 5277.0 undefined 133.69 195.36 0.74234 590.00 0.0016949 133.69 195.36 0.74234 1.5501 2.2208 1294.8 -0.0058331 209.45 0.13859 590.00 0.0016949 133.69 195.36 0.74234 1.5501 2.2208 1294.8 -0.0058331 209.45 0.13859
-14.625 5426.3 undefined 135.25 198.66 0.74836 590.00 0.0016949 135.25 198.66 0.74836 1.5540 2.2220 1296.9 -0.0058391 209.32 0.13874 590.00 0.0016949 135.25 198.66 0.74836 1.5540 2.2220 1296.9 -0.0058391 209.32 0.13874
-13.625 5575.4 undefined 136.80 201.96 0.75436 590.00 0.0016949 136.80 201.96 0.75436 1.5578 2.2233 1298.9 -0.0058447 209.18 0.13888 590.00 0.0016949 136.80 201.96 0.75436 1.5578 2.2233 1298.9 -0.0058447 209.18 0.13888
-12.625 5724.3 undefined 138.36 205.26 0.76036 590.00 0.0016949 138.36 205.26 0.76036 1.5616 2.2246 1301.0 -0.0058502 209.05 0.13902 590.00 0.0016949 138.36 205.26 0.76036 1.5616 2.2246 1301.0 -0.0058502 209.05 0.13902
-11.625 5873.0 undefined 139.92 208.56 0.76635 590.00 0.0016949 139.92 208.56 0.76635 1.5655 2.2260 1303.0 -0.0058554 208.93 0.13916 590.00 0.0016949 139.92 208.56 0.76635 1.5655 2.2260 1303.0 -0.0058554 208.93 0.13916
-10.625 6021.5 undefined 141.49 211.86 0.77233 590.00 0.0016949 141.49 211.86 0.77233 1.5694 2.2275 1305.1 -0.0058604 208.80 0.13930 590.00 0.0016949 141.49 211.86 0.77233 1.5694 2.2275 1305.1 -0.0058604 208.80 0.13930
-9.6250 6169.8 undefined 143.06 215.16 0.77831 590.00 0.0016949 143.06 215.16 0.77831 1.5733 2.2289 1307.1 -0.0058651 208.67 0.13945 590.00 0.0016949 143.06 215.16 0.77831 1.5733 2.2289 1307.1 -0.0058651 208.67 0.13945
-8.6250 6318.0 undefined 144.64 218.47 0.78427 590.00 0.0016949 144.64 218.47 0.78427 1.5772 2.2304 1309.1 -0.0058696 208.55 0.13959 590.00 0.0016949 144.64 218.47 0.78427 1.5772 2.2304 1309.1 -0.0058696 208.55 0.13959
-7.6250 6465.9 undefined 146.22 221.78 0.79023 590.00 0.0016949 146.22 221.78 0.79023 1.5811 2.2320 1311.1 -0.0058739 208.42 0.13973 590.00 0.0016949 146.22 221.78 0.79023 1.5811 2.2320 1311.1 -0.0058739 208.42 0.13973
-6.6250 6613.6 undefined 147.80 225.09 0.79618 590.00 0.0016949 147.80 225.09 0.79618 1.5850 2.2336 1313.1 -0.0058780 208.30 0.13988 590.00 0.0016949 147.80 225.09 0.79618 1.5850 2.2336 1313.1 -0.0058780 208.30 0.13988
-5.6250 6761.2 undefined 149.39 228.40 0.80213 590.00 0.0016949 149.39 228.40 0.80213 1.5890 2.2352 1315.0 -0.0058819 208.18 0.14002 590.00 0.0016949 149.39 228.40 0.80213 1.5890 2.2352 1315.0 -0.0058819 208.18 0.14002
-4.6250 6908.6 undefined 150.98 231.71 0.80806 590.00 0.0016949 150.98 231.71 0.80806 1.5929 2.2368 1317.0 -0.0058855 208.06 0.14017 590.00 0.0016949 150.98 231.71 0.80806 1.5929 2.2368 1317.0 -0.0058855 208.06 0.14017
-3.6250 7055.7 undefined 152.57 235.03 0.81399 590.00 0.0016949 152.57 235.03 0.81399 1.5969 2.2385 1319.0 -0.0058890 207.94 0.14031 590.00 0.0016949 152.57 235.03 0.81399 1.5969 2.2385 1319.0 -0.0058890 207.94 0.14031
-2.6250 7202.7 undefined 154.17 238.34 0.81991 590.00 0.0016949 154.17 238.34 0.81991 1.6009 2.2403 1320.9 -0.0058922 207.83 0.14045 590.00 0.0016949 154.17 238.34 0.81991 1.6009 2.2403 1320.9 -0.0058922 207.83 0.14045
-1.6250 7349.5 undefined 155.78 241.66 0.82583 590.00 0.0016949 155.78 241.66 0.82583 1.6049 2.2420 1322.8 -0.0058953 207.71 0.14060 590.00 0.0016949 155.78 241.66 0.82583 1.6049 2.2420 1322.8 -0.0058953 207.71 0.14060
-0.62500 7496.1 undefined 157.38 244.98 0.83173 590.00 0.0016949 157.38 244.98 0.83173 1.6089 2.2438 1324.7 -0.0058981 207.60 0.14075 590.00 0.0016949 157.38 244.98 0.83173 1.6089 2.2438 1324.7 -0.0058981 207.60 0.14075
0.37500 7642.6 undefined 158.99 248.30 0.83763 590.00 0.0016949 158.99 248.30 0.83763 1.6129 2.2457 1326.7 -0.0059008 207.49 0.14089 590.00 0.0016949 158.99 248.30 0.83763 1.6129 2.2457 1326.7 -0.0059008 207.49 0.14089
1.3750 7788.8 undefined 160.61 251.63 0.84353 590.00 0.0016949 160.61 251.63 0.84353 1.6169 2.2476 1328.5 -0.0059033 207.38 0.14104 590.00 0.0016949 160.61 251.63 0.84353 1.6169 2.2476 1328.5 -0.0059033 207.38 0.14104
2.3750 7934.9 undefined 162.23 254.95 0.84941 590.00 0.0016949 162.23 254.95 0.84941 1.6210 2.2495 1330.4 -0.0059056 207.27 0.14118 590.00 0.0016949 162.23 254.95 0.84941 1.6210 2.2495 1330.4 -0.0059056 207.27 0.14118
3.3750 8080.7 undefined 163.85 258.28 0.85529 590.00 0.0016949 163.85 258.28 0.85529 1.6250 2.2514 1332.3 -0.0059077 207.16 0.14133 590.00 0.0016949 163.85 258.28 0.85529 1.6250 2.2514 1332.3 -0.0059077 207.16 0.14133
4.3750 8226.4 undefined 165.48 261.61 0.86117 590.00 0.0016949 165.48 261.61 0.86117 1.6291 2.2534 1334.2 -0.0059096 207.05 0.14148 590.00 0.0016949 165.48 261.61 0.86117 1.6291 2.2534 1334.2 -0.0059096 207.05 0.14148
5.3750 8371.9 undefined 167.11 264.94 0.86703 590.00 0.0016949 167.11 264.94 0.86703 1.6332 2.2554 1336.0 -0.0059114 206.94 0.14162 590.00 0.0016949 167.11 264.94 0.86703 1.6332 2.2554 1336.0 -0.0059114 206.94 0.14162
6.3750 8517.3 undefined 168.74 268.28 0.87289 590.00 0.0016949 168.74 268.28 0.87289 1.6372 2.2574 1337.9 -0.0059130 206.84 0.14177 590.00 0.0016949 168.74 268.28 0.87289 1.6372 2.2574 1337.9 -0.0059130 206.84 0.14177
7.3750 8662.4 undefined 170.38 271.61 0.87875 590.00 0.0016949 170.38 271.61 0.87875 1.6413 2.2595 1339.7 -0.0059144 206.73 0.14192 590.00 0.0016949 170.38 271.61 0.87875 1.6413 2.2595 1339.7 -0.0059144 206.73 0.14192
8.3750 8807.3 undefined 172.03 274.95 0.88459 590.00 0.0016949 172.03 274.95 0.88459 1.6454 2.2616 1341.5 -0.0059157 206.63 0.14207 590.00 0.0016949 172.03 274.95 0.88459 1.6454 2.2616 1341.5 -0.0059157 206.63 0.14207
9.3750 8952.1 undefined 173.67 278.29 0.89044 590.00 0.0016949 173.67 278.29 0.89044 1.6496 2.2637 1343.4 -0.0059168 206.53 0.14222 590.00 0.0016949 173.67 278.29 0.89044 1.6496 2.2637 1343.4 -0.0059168 206.53 0.14222
10.375 9096.7 undefined 175.33 281.63 0.89627 590.00 0.0016949 175.33 281.63 0.89627 1.6537 2.2659 1345.2 -0.0059177 206.43 0.14236 590.00 0.0016949 175.33 281.63 0.89627 1.6537 2.2659 1345.2 -0.0059177 206.43 0.14236
11.375 9241.1 undefined 176.98 284.97 0.90210 590.00 0.0016949 176.98 284.97 0.90210 1.6578 2.2681 1347.0 -0.0059185 206.33 0.14251 590.00 0.0016949 176.98 284.97 0.90210 1.6578 2.2681 1347.0 -0.0059185 206.33 0.14251
12.375 9385.3 undefined 178.64 288.32 0.90793 590.00 0.0016949 178.64 288.32 0.90793 1.6620 2.2703 1348.8 -0.0059192 206.23 0.14266 590.00 0.0016949 178.64 288.32 0.90793 1.6620 2.2703 1348.8 -0.0059192 206.23 0.14266
13.375 9529.4 undefined 180.31 291.67 0.91374 590.00 0.0016949 180.31 291.67 0.91374 1.6661 2.2725 1350.6 -0.0059197 206.13 0.14281 590.00 0.0016949 180.31 291.67 0.91374 1.6661 2.2725 1350.6 -0.0059197 206.13 0.14281
14.375 9673.3 undefined 181.97 295.02 0.91956 590.00 0.0016949 181.97 295.02 0.91956 1.6703 2.2748 1352.3 -0.0059201 206.04 0.14296 590.00 0.0016949 181.97 295.02 0.91956 1.6703 2.2748 1352.3 -0.0059201 206.04 0.14296
15.375 9817.0 undefined 183.65 298.37 0.92536 590.00 0.0016949 183.65 298.37 0.92536 1.6744 2.2771 1354.1 -0.0059203 205.94 0.14311 590.00 0.0016949 183.65 298.37 0.92536 1.6744 2.2771 1354.1 -0.0059203 205.94 0.14311
16.375 9960.5 undefined 185.32 301.72 0.93116 590.00 0.0016949 185.32 301.72 0.93116 1.6786 2.2794 1355.9 -0.0059203 205.85 0.14326 590.00 0.0016949 185.32 301.72 0.93116 1.6786 2.2794 1355.9 -0.0059203 205.85 0.14326
17.375 10104. undefined 187.00 305.08 0.93696 590.00 0.0016949 187.00 305.08 0.93696 1.6828 2.2818 1357.6 -0.0059203 205.75 0.14341 590.00 0.0016949 187.00 305.08 0.93696 1.6828 2.2818 1357.6 -0.0059203 205.75 0.14341
18.375 10247. undefined 188.69 308.43 0.94275 590.00 0.0016949 188.69 308.43 0.94275 1.6870 2.2841 1359.4 -0.0059201 205.66 0.14356 590.00 0.0016949 188.69 308.43 0.94275 1.6870 2.2841 1359.4 -0.0059201 205.66 0.14356
19.375 10390. undefined 190.38 311.79 0.94853 590.00 0.0016949 190.38 311.79 0.94853 1.6912 2.2865 1361.1 -0.0059198 205.57 0.14372 590.00 0.0016949 190.38 311.79 0.94853 1.6912 2.2865 1361.1 -0.0059198 205.57 0.14372
20.375 10533. undefined 192.07 315.16 0.95431 590.00 0.0016949 192.07 315.16 0.95431 1.6954 2.2890 1362.8 -0.0059193 205.48 0.14387 590.00 0.0016949 192.07 315.16 0.95431 1.6954 2.2890 1362.8 -0.0059193 205.48 0.14387
21.375 10675. undefined 193.77 318.52 0.96008 590.00 0.0016949 193.77 318.52 0.96008 1.6996 2.2914 1364.5 -0.0059187 205.39 0.14402 590.00 0.0016949 193.77 318.52 0.96008 1.6996 2.2914 1364.5 -0.0059187 205.39 0.14402
22.375 10818. undefined 195.47 321.89 0.96585 590.00 0.0016949 195.47 321.89 0.96585 1.7038 2.2939 1366.3 -0.0059180 205.31 0.14417 590.00 0.0016949 195.47 321.89 0.96585 1.7038 2.2939 1366.3 -0.0059180 205.31 0.14417
23.375 10960. undefined 197.18 325.26 0.97161 590.00 0.0016949 197.18 325.26 0.97161 1.7081 2.2964 1368.0 -0.0059172 205.22 0.14432 590.00 0.0016949 197.18 325.26 0.97161 1.7081 2.2964 1368.0 -0.0059172 205.22 0.14432
24.375 11102. undefined 198.89 328.63 0.97737 590.00 0.0016949 198.89 328.63 0.97737 1.7123 2.2989 1369.7 -0.0059163 205.13 0.14448 590.00 0.0016949 198.89 328.63 0.97737 1.7123 2.2989 1369.7 -0.0059163 205.13 0.14448
25.375 11244. undefined 200.60 332.00 0.98312 590.00 0.0016949 200.60 332.00 0.98312 1.7165 2.3014 1371.4 -0.0059152 205.05 0.14463 590.00 0.0016949 200.60 332.00 0.98312 1.7165 2.3014 1371.4 -0.0059152 205.05 0.14463
26.375 11386. undefined 202.32 335.38 0.98887 590.00 0.0016949 202.32 335.38 0.98887 1.7208 2.3040 1373.0 -0.0059140 204.96 0.14478 590.00 0.0016949 202.32 335.38 0.98887 1.7208 2.3040 1373.0 -0.0059140 204.96 0.14478
27.375 11528. undefined 204.04 338.75 0.99461 590.00 0.0016949 204.04 338.75 0.99461 1.7251 2.3066 1374.7 -0.0059127 204.88 0.14494 590.00 0.0016949 204.04 338.75 0.99461 1.7251 2.3066 1374.7 -0.0059127 204.88 0.14494
28.375 11669. undefined 205.77 342.13 1.0004 590.00 0.0016949 205.77 342.13 1.0004 1.7293 2.3092 1376.4 -0.0059113 204.80 0.14509 590.00 0.0016949 205.77 342.13 1.0004 1.7293 2.3092 1376.4 -0.0059113 204.80 0.14509
29.375 11810. undefined 207.50 345.52 1.0061 590.00 0.0016949 207.50 345.52 1.0061 1.7336 2.3118 1378.1 -0.0059098 204.72 0.14524 590.00 0.0016949 207.50 345.52 1.0061 1.7336 2.3118 1378.1 -0.0059098 204.72 0.14524
30.375 11951. undefined 209.24 348.90 1.0118 590.00 0.0016949 209.24 348.90 1.0118 1.7379 2.3145 1379.7 -0.0059082 204.64 0.14540 590.00 0.0016949 209.24 348.90 1.0118 1.7379 2.3145 1379.7 -0.0059082 204.64 0.14540
31.375 12092. undefined 210.98 352.29 1.0175 590.00 0.0016949 210.98 352.29 1.0175 1.7421 2.3171 1381.4 -0.0059065 204.56 0.14555 590.00 0.0016949 210.98 352.29 1.0175 1.7421 2.3171 1381.4 -0.0059065 204.56 0.14555
32.375 12233. undefined 212.72 355.68 1.0233 590.00 0.0016949 212.72 355.68 1.0233 1.7464 2.3198 1383.0 -0.0059047 204.48 0.14571 590.00 0.0016949 212.72 355.68 1.0233 1.7464 2.3198 1383.0 -0.0059047 204.48 0.14571
33.375 12374. undefined 214.47 359.07 1.0290 590.00 0.0016949 214.47 359.07 1.0290 1.7507 2.3225 1384.7 -0.0059028 204.40 0.14586 590.00 0.0016949 214.47 359.07 1.0290 1.7507 2.3225 1384.7 -0.0059028 204.40 0.14586
34.375 12514. undefined 216.22 362.46 1.0347 590.00 0.0016949 216.22 362.46 1.0347 1.7550 2.3253 1386.3 -0.0059008 204.32 0.14602 590.00 0.0016949 216.22 362.46 1.0347 1.7550 2.3253 1386.3 -0.0059008 204.32 0.14602
35.375 12654. undefined 217.98 365.86 1.0404 590.00 0.0016949 217.98 365.86 1.0404 1.7593 2.3280 1387.9 -0.0058987 204.25 0.14618 590.00 0.0016949 217.98 365.86 1.0404 1.7593 2.3280 1387.9 -0.0058987 204.25 0.14618
36.375 12794. undefined 219.74 369.26 1.0461 590.00 0.0016949 219.74 369.26 1.0461 1.7636 2.3308 1389.5 -0.0058965 204.17 0.14633 590.00 0.0016949 219.74 369.26 1.0461 1.7636 2.3308 1389.5 -0.0058965 204.17 0.14633
37.375 12934. undefined 221.51 372.66 1.0518 590.00 0.0016949 221.51 372.66 1.0518 1.7679 2.3336 1391.2 -0.0058943 204.10 0.14649 590.00 0.0016949 221.51 372.66 1.0518 1.7679 2.3336 1391.2 -0.0058943 204.10 0.14649
38.375 13074. undefined 223.28 376.06 1.0575 590.00 0.0016949 223.28 376.06 1.0575 1.7722 2.3364 1392.8 -0.0058919 204.02 0.14665 590.00 0.0016949 223.28 376.06 1.0575 1.7722 2.3364 1392.8 -0.0058919 204.02 0.14665
39.375 13214. undefined 225.05 379.47 1.0632 590.00 0.0016949 225.05 379.47 1.0632 1.7766 2.3392 1394.4 -0.0058894 203.95 0.14680 590.00 0.0016949 225.05 379.47 1.0632 1.7766 2.3392 1394.4 -0.0058894 203.95 0.14680
40.375 13353. undefined 226.83 382.87 1.0688 590.00 0.0016949 226.83 382.87 1.0688 1.7809 2.3420 1396.0 -0.0058869 203.88 0.14696 590.00 0.0016949 226.83 382.87 1.0688 1.7809 2.3420 1396.0 -0.0058869 203.88 0.14696
41.375 13492. undefined 228.61 386.29 1.0745 590.00 0.0016949 228.61 386.29 1.0745 1.7852 2.3449 1397.6 -0.0058843 203.81 0.14712 590.00 0.0016949 228.61 386.29 1.0745 1.7852 2.3449 1397.6 -0.0058843 203.81 0.14712
42.375 13632. undefined 230.40 389.70 1.0802 590.00 0.0016949 230.40 389.70 1.0802 1.7896 2.3477 1399.1 -0.0058816 203.74 0.14728 590.00 0.0016949 230.40 389.70 1.0802 1.7896 2.3477 1399.1 -0.0058816 203.74 0.14728
43.375 13770. undefined 232.19 393.11 1.0859 590.00 0.0016949 232.19 393.11 1.0859 1.7939 2.3506 1400.7 -0.0058788 203.67 0.14743 590.00 0.0016949 232.19 393.11 1.0859 1.7939 2.3506 1400.7 -0.0058788 203.67 0.14743
44.375 13909. undefined 233.99 396.53 1.0915 590.00 0.0016949 233.99 396.53 1.0915 1.7982 2.3535 1402.3 -0.0058759 203.60 0.14759 590.00 0.0016949 233.99 396.53 1.0915 1.7982 2.3535 1402.3 -0.0058759 203.60 0.14759
45.375 14048. undefined 235.79 399.95 1.0972 590.00 0.0016949 235.79 399.95 1.0972 1.8026 2.3564 1403.9 -0.0058730 203.53 0.14775 590.00 0.0016949 235.79 399.95 1.0972 1.8026 2.3564 1403.9 -0.0058730 203.53 0.14775
46.375 14186. undefined 237.59 403.38 1.1028 590.00 0.0016949 237.59 403.38 1.1028 1.8069 2.3594 1405.4 -0.0058700 203.46 0.14791 590.00 0.0016949 237.59 403.38 1.1028 1.8069 2.3594 1405.4 -0.0058700 203.46 0.14791
47.375 14325. undefined 239.40 406.80 1.1085 590.00 0.0016949 239.40 406.80 1.1085 1.8113 2.3623 1407.0 -0.0058669 203.40 0.14807 590.00 0.0016949 239.40 406.80 1.1085 1.8113 2.3623 1407.0 -0.0058669 203.40 0.14807
48.375 14463. undefined 241.22 410.23 1.1141 590.00 0.0016949 241.22 410.23 1.1141 1.8156 2.3653 1408.6 -0.0058638 203.33 0.14823 590.00 0.0016949 241.22 410.23 1.1141 1.8156 2.3653 1408.6 -0.0058638 203.33 0.14823
49.375 14601. undefined 243.03 413.66 1.1198 590.00 0.0016949 243.03 413.66 1.1198 1.8200 2.3682 1410.1 -0.0058605 203.27 0.14839 590.00 0.0016949 243.03 413.66 1.1198 1.8200 2.3682 1410.1 -0.0058605 203.27 0.14839
50.375 14739. undefined 244.86 417.09 1.1254 590.00 0.0016949 244.86 417.09 1.1254 1.8243 2.3712 1411.7 -0.0058573 203.20 0.14855 590.00 0.0016949 244.86 417.09 1.1254 1.8243 2.3712 1411.7 -0.0058573 203.20 0.14855
51.375 14876. undefined 246.68 420.53 1.1311 590.00 0.0016949 246.68 420.53 1.1311 1.8287 2.3742 1413.2 -0.0058539 203.14 0.14871 590.00 0.0016949 246.68 420.53 1.1311 1.8287 2.3742 1413.2 -0.0058539 203.14 0.14871
52.375 15014. undefined 248.51 423.97 1.1367 590.00 0.0016949 248.51 423.97 1.1367 1.8331 2.3773 1414.7 -0.0058505 203.08 0.14887 590.00 0.0016949 248.51 423.97 1.1367 1.8331 2.3773 1414.7 -0.0058505 203.08 0.14887
53.375 15151. undefined 250.35 427.41 1.1423 590.00 0.0016949 250.35 427.41 1.1423 1.8374 2.3803 1416.3 -0.0058470 203.01 0.14903 590.00 0.0016949 250.35 427.41 1.1423 1.8374 2.3803 1416.3 -0.0058470 203.01 0.14903
54.375 15288. undefined 252.19 430.85 1.1480 590.00 0.0016949 252.19 430.85 1.1480 1.8418 2.3833 1417.8 -0.0058435 202.95 0.14919 590.00 0.0016949 252.19 430.85 1.1480 1.8418 2.3833 1417.8 -0.0058435 202.95 0.14919
55.375 15426. undefined 254.03 434.29 1.1536 590.00 0.0016949 254.03 434.29 1.1536 1.8462 2.3864 1419.3 -0.0058399 202.89 0.14936 590.00 0.0016949 254.03 434.29 1.1536 1.8462 2.3864 1419.3 -0.0058399 202.89 0.14936
56.375 15562. undefined 255.88 437.74 1.1592 590.00 0.0016949 255.88 437.74 1.1592 1.8505 2.3895 1420.8 -0.0058362 202.83 0.14952 590.00 0.0016949 255.88 437.74 1.1592 1.8505 2.3895 1420.8 -0.0058362 202.83 0.14952
57.375 15699. undefined 257.73 441.19 1.1648 590.00 0.0016949 257.73 441.19 1.1648 1.8549 2.3925 1422.3 -0.0058325 202.77 0.14968 590.00 0.0016949 257.73 441.19 1.1648 1.8549 2.3925 1422.3 -0.0058325 202.77 0.14968
58.375 15836. undefined 259.59 444.65 1.1704 590.00 0.0016949 259.59 444.65 1.1704 1.8593 2.3956 1423.8 -0.0058287 202.71 0.14984 590.00 0.0016949 259.59 444.65 1.1704 1.8593 2.3956 1423.8 -0.0058287 202.71 0.14984
59.375 15972. undefined 261.45 448.10 1.1760 590.00 0.0016949 261.45 448.10 1.1760 1.8637 2.3987 1425.4 -0.0058249 202.65 0.15001 590.00 0.0016949 261.45 448.10 1.1760 1.8637 2.3987 1425.4 -0.0058249 202.65 0.15001
60.375 16109. undefined 263.32 451.56 1.1816 590.00 0.0016949 263.32 451.56 1.1816 1.8680 2.4019 1426.8 -0.0058210 202.60 0.15017 590.00 0.0016949 263.32 451.56 1.1816 1.8680 2.4019 1426.8 -0.0058210 202.60 0.15017
61.375 16245. undefined 265.19 455.02 1.1872 590.00 0.0016949 265.19 455.02 1.1872 1.8724 2.4050 1428.3 -0.0058171 202.54 0.15033 590.00 0.0016949 265.19 455.02 1.1872 1.8724 2.4050 1428.3 -0.0058171 202.54 0.15033
62.375 16381. undefined 267.06 458.49 1.1928 590.00 0.0016949 267.06 458.49 1.1928 1.8768 2.4081 1429.8 -0.0058131 202.48 0.15050 590.00 0.0016949 267.06 458.49 1.1928 1.8768 2.4081 1429.8 -0.0058131 202.48 0.15050
63.375 16517. undefined 268.94 461.95 1.1984 590.00 0.0016949 268.94 461.95 1.1984 1.8812 2.4113 1431.3 -0.0058091 202.43 0.15066 590.00 0.0016949 268.94 461.95 1.1984 1.8812 2.4113 1431.3 -0.0058091 202.43 0.15066
64.375 16652. undefined 270.82 465.42 1.2040 590.00 0.0016949 270.82 465.42 1.2040 1.8856 2.4145 1432.8 -0.0058050 202.37 0.15083 590.00 0.0016949 270.82 465.42 1.2040 1.8856 2.4145 1432.8 -0.0058050 202.37 0.15083
65.375 16788. undefined 272.71 468.90 1.2096 590.00 0.0016949 272.71 468.90 1.2096 1.8900 2.4176 1434.3 -0.0058009 202.32 0.15099 590.00 0.0016949 272.71 468.90 1.2096 1.8900 2.4176 1434.3 -0.0058009 202.32 0.15099
66.375 16923. undefined 274.60 472.37 1.2152 590.00 0.0016949 274.60 472.37 1.2152 1.8943 2.4208 1435.8 -0.0057967 202.26 0.15116 590.00 0.0016949 274.60 472.37 1.2152 1.8943 2.4208 1435.8 -0.0057967 202.26 0.15116
67.375 17059. undefined 276.50 475.85 1.2207 590.00 0.0016949 276.50 475.85 1.2207 1.8987 2.4240 1437.2 -0.0057925 202.21 0.15132 590.00 0.0016949 276.50 475.85 1.2207 1.8987 2.4240 1437.2 -0.0057925 202.21 0.15132
68.375 17194. undefined 278.40 479.33 1.2263 590.00 0.0016949 278.40 479.33 1.2263 1.9031 2.4272 1438.7 -0.0057882 202.16 0.15149 590.00 0.0016949 278.40 479.33 1.2263 1.9031 2.4272 1438.7 -0.0057882 202.16 0.15149
69.375 17329. undefined 280.31 482.81 1.2319 590.00 0.0016949 280.31 482.81 1.2319 1.9075 2.4304 1440.1 -0.0057839 202.11 0.15165 590.00 0.0016949 280.31 482.81 1.2319 1.9075 2.4304 1440.1 -0.0057839 202.11 0.15165
70.375 17463. undefined 282.22 486.29 1.2375 590.00 0.0016949 282.22 486.29 1.2375 1.9119 2.4336 1441.6 -0.0057796 202.05 0.15182 590.00 0.0016949 282.22 486.29 1.2375 1.9119 2.4336 1441.6 -0.0057796 202.05 0.15182
71.375 17598. undefined 284.13 489.78 1.2430 590.00 0.0016949 284.13 489.78 1.2430 1.9163 2.4369 1443.1 -0.0057752 202.00 0.15199 590.00 0.0016949 284.13 489.78 1.2430 1.9163 2.4369 1443.1 -0.0057752 202.00 0.15199
72.375 17733. undefined 286.05 493.27 1.2486 590.00 0.0016949 286.05 493.27 1.2486 1.9207 2.4401 1444.5 -0.0057708 201.95 0.15215 590.00 0.0016949 286.05 493.27 1.2486 1.9207 2.4401 1444.5 -0.0057708 201.95 0.15215
73.375 17867. undefined 287.97 496.77 1.2541 590.00 0.0016949 287.97 496.77 1.2541 1.9251 2.4433 1445.9 -0.0057663 201.90 0.15232 590.00 0.0016949 287.97 496.77 1.2541 1.9251 2.4433 1445.9 -0.0057663 201.90 0.15232
74.375 18001. undefined 289.90 500.26 1.2597 590.00 0.0016949 289.90 500.26 1.2597 1.9294 2.4466 1447.4 -0.0057618 201.85 0.15249 590.00 0.0016949 289.90 500.26 1.2597 1.9294 2.4466 1447.4 -0.0057618 201.85 0.15249
75.375 18135. undefined 291.83 503.76 1.2652 590.00 0.0016949 291.83 503.76 1.2652 1.9338 2.4499 1448.8 -0.0057573 201.81 0.15265 590.00 0.0016949 291.83 503.76 1.2652 1.9338 2.4499 1448.8 -0.0057573 201.81 0.15265
76.375 18269. undefined 293.77 507.26 1.2708 590.00 0.0016949 293.77 507.26 1.2708 1.9382 2.4531 1450.3 -0.0057528 201.76 0.15282 590.00 0.0016949 293.77 507.26 1.2708 1.9382 2.4531 1450.3 -0.0057528 201.76 0.15282
77.375 18403. undefined 295.71 510.77 1.2763 590.00 0.0016949 295.71 510.77 1.2763 1.9426 2.4564 1451.7 -0.0057482 201.71 0.15299 590.00 0.0016949 295.71 510.77 1.2763 1.9426 2.4564 1451.7 -0.0057482 201.71 0.15299
78.375 18537. undefined 297.65 514.27 1.2819 590.00 0.0016949 297.65 514.27 1.2819 1.9470 2.4597 1453.1 -0.0057435 201.66 0.15316 590.00 0.0016949 297.65 514.27 1.2819 1.9470 2.4597 1453.1 -0.0057435 201.66 0.15316
79.375 18670. undefined 299.60 517.78 1.2874 590.00 0.0016949 299.60 517.78 1.2874 1.9514 2.4630 1454.5 -0.0057389 201.62 0.15333 590.00 0.0016949 299.60 517.78 1.2874 1.9514 2.4630 1454.5 -0.0057389 201.62 0.15333
80.375 18804. undefined 301.55 521.30 1.2929 590.00 0.0016949 301.55 521.30 1.2929 1.9558 2.4663 1456.0 -0.0057342 201.57 0.15350 590.00 0.0016949 301.55 521.30 1.2929 1.9558 2.4663 1456.0 -0.0057342 201.57 0.15350
81.375 18937. undefined 303.51 524.81 1.2985 590.00 0.0016949 303.51 524.81 1.2985 1.9602 2.4696 1457.4 -0.0057295 201.52 0.15367 590.00 0.0016949 303.51 524.81 1.2985 1.9602 2.4696 1457.4 -0.0057295 201.52 0.15367
82.375 19070. undefined 305.48 528.33 1.3040 590.00 0.0016949 305.48 528.33 1.3040 1.9645 2.4729 1458.8 -0.0057247 201.48 0.15384 590.00 0.0016949 305.48 528.33 1.3040 1.9645 2.4729 1458.8 -0.0057247 201.48 0.15384
83.375 19203. undefined 307.44 531.85 1.3095 590.00 0.0016949 307.44 531.85 1.3095 1.9689 2.4763 1460.2 -0.0057199 201.43 0.15401 590.00 0.0016949 307.44 531.85 1.3095 1.9689 2.4763 1460.2 -0.0057199 201.43 0.15401
84.375 19336. undefined 309.41 535.37 1.3150 590.00 0.0016949 309.41 535.37 1.3150 1.9733 2.4796 1461.6 -0.0057151 201.39 0.15418 590.00 0.0016949 309.41 535.37 1.3150 1.9733 2.4796 1461.6 -0.0057151 201.39 0.15418
85.375 19469. undefined 311.39 538.90 1.3206 590.00 0.0016949 311.39 538.90 1.3206 1.9777 2.4829 1463.0 -0.0057103 201.35 0.15435 590.00 0.0016949 311.39 538.90 1.3206 1.9777 2.4829 1463.0 -0.0057103 201.35 0.15435
86.375 19601. undefined 313.37 542.43 1.3261 590.00 0.0016949 313.37 542.43 1.3261 1.9821 2.4863 1464.4 -0.0057054 201.30 0.15452 590.00 0.0016949 313.37 542.43 1.3261 1.9821 2.4863 1464.4 -0.0057054 201.30 0.15452
87.375 19734. undefined 315.35 545.96 1.3316 590.00 0.0016949 315.35 545.96 1.3316 1.9865 2.4896 1465.8 -0.0057005 201.26 0.15469 590.00 0.0016949 315.35 545.96 1.3316 1.9865 2.4896 1465.8 -0.0057005 201.26 0.15469
88.375 19866. undefined 317.34 549.50 1.3371 590.00 0.0016949 317.34 549.50 1.3371 1.9908 2.4930 1467.2 -0.0056956 201.22 0.15486 590.00 0.0016949 317.34 549.50 1.3371 1.9908 2.4930 1467.2 -0.0056956 201.22 0.15486
89.375 19998. undefined 319.33 553.03 1.3426 590.00 0.0016949 319.33 553.03 1.3426 1.9952 2.4963 1468.5 -0.0056907 201.18 0.15503 590.00 0.0016949 319.33 553.03 1.3426 1.9952 2.4963 1468.5 -0.0056907 201.18 0.15503
90.375 20130. undefined 321.33 556.57 1.3481 590.00 0.0016949 321.33 556.57 1.3481 1.9996 2.4997 1469.9 -0.0056858 201.14 0.15520 590.00 0.0016949 321.33 556.57 1.3481 1.9996 2.4997 1469.9 -0.0056858 201.14 0.15520
91.375 20262. undefined 323.33 560.12 1.3536 590.00 0.0016949 323.33 560.12 1.3536 2.0040 2.5031 1471.3 -0.0056808 201.10 0.15538 590.00 0.0016949 323.33 560.12 1.3536 2.0040 2.5031 1471.3 -0.0056808 201.10 0.15538
92.375 20394. undefined 325.34 563.66 1.3591 590.00 0.0016949 325.34 563.66 1.3591 2.0083 2.5065 1472.7 -0.0056758 201.06 0.15555 590.00 0.0016949 325.34 563.66 1.3591 2.0083 2.5065 1472.7 -0.0056758 201.06 0.15555
93.375 20525. undefined 327.35 567.21 1.3646 590.00 0.0016949 327.35 567.21 1.3646 2.0127 2.5098 1474.1 -0.0056708 201.02 0.15572 590.00 0.0016949 327.35 567.21 1.3646 2.0127 2.5098 1474.1 -0.0056708 201.02 0.15572
94.375 20657. undefined 329.37 570.76 1.3701 590.00 0.0016949 329.37 570.76 1.3701 2.0171 2.5132 1475.4 -0.0056657 200.98 0.15590 590.00 0.0016949 329.37 570.76 1.3701 2.0171 2.5132 1475.4 -0.0056657 200.98 0.15590
95.375 20788. undefined 331.38 574.32 1.3756 590.00 0.0016949 331.38 574.32 1.3756 2.0215 2.5166 1476.8 -0.0056607 200.94 0.15607 590.00 0.0016949 331.38 574.32 1.3756 2.0215 2.5166 1476.8 -0.0056607 200.94 0.15607
96.375 20919. undefined 333.41 577.87 1.3811 590.00 0.0016949 333.41 577.87 1.3811 2.0258 2.5200 1478.2 -0.0056556 200.90 0.15624 590.00 0.0016949 333.41 577.87 1.3811 2.0258 2.5200 1478.2 -0.0056556 200.90 0.15624
97.375 21051. undefined 335.44 581.43 1.3865 590.00 0.0016949 335.44 581.43 1.3865 2.0302 2.5234 1479.5 -0.0056505 200.86 0.15642 590.00 0.0016949 335.44 581.43 1.3865 2.0302 2.5234 1479.5 -0.0056505 200.86 0.15642
98.375 21182. undefined 337.47 585.00 1.3920 590.00 0.0016949 337.47 585.00 1.3920 2.0346 2.5268 1480.9 -0.0056454 200.82 0.15659 590.00 0.0016949 337.47 585.00 1.3920 2.0346 2.5268 1480.9 -0.0056454 200.82 0.15659
99.375 21312. undefined 339.51 588.56 1.3975 590.00 0.0016949 339.51 588.56 1.3975 2.0389 2.5303 1482.2 -0.0056403 200.79 0.15677 590.00 0.0016949 339.51 588.56 1.3975 2.0389 2.5303 1482.2 -0.0056403 200.79 0.15677
100.38 21443. undefined 341.55 592.13 1.4030 590.00 0.0016949 341.55 592.13 1.4030 2.0433 2.5337 1483.6 -0.0056352 200.75 0.15694 590.00 0.0016949 341.55 592.13 1.4030 2.0433 2.5337 1483.6 -0.0056352 200.75 0.15694
101.38 21574. undefined 343.59 595.70 1.4084 590.00 0.0016949 343.59 595.70 1.4084 2.0476 2.5371 1484.9 -0.0056300 200.71 0.15712 590.00 0.0016949 343.59 595.70 1.4084 2.0476 2.5371 1484.9 -0.0056300 200.71 0.15712
102.38 21704. undefined 345.64 599.28 1.4139 590.00 0.0016949 345.64 599.28 1.4139 2.0520 2.5405 1486.3 -0.0056248 200.68 0.15729 590.00 0.0016949 345.64 599.28 1.4139 2.0520 2.5405 1486.3 -0.0056248 200.68 0.15729
103.38 21834. undefined 347.70 602.85 1.4194 590.00 0.0016949 347.70 602.85 1.4194 2.0564 2.5439 1487.6 -0.0056197 200.64 0.15747 590.00 0.0016949 347.70 602.85 1.4194 2.0564 2.5439 1487.6 -0.0056197 200.64 0.15747
104.38 21965. undefined 349.75 606.43 1.4248 590.00 0.0016949 349.75 606.43 1.4248 2.0607 2.5474 1488.9 -0.0056145 200.61 0.15764 590.00 0.0016949 349.75 606.43 1.4248 2.0607 2.5474 1488.9 -0.0056145 200.61 0.15764
105.38 22095. undefined 351.82 610.01 1.4303 590.00 0.0016949 351.82 610.01 1.4303 2.0651 2.5508 1490.3 -0.0056093 200.57 0.15782 590.00 0.0016949 351.82 610.01 1.4303 2.0651 2.5508 1490.3 -0.0056093 200.57 0.15782
106.38 22224. undefined 353.88 613.60 1.4357 590.00 0.0016949 353.88 613.60 1.4357 2.0694 2.5542 1491.6 -0.0056040 200.54 0.15800 590.00 0.0016949 353.88 613.60 1.4357 2.0694 2.5542 1491.6 -0.0056040 200.54 0.15800
107.38 22354. undefined 355.96 617.19 1.4412 590.00 0.0016949 355.96 617.19 1.4412 2.0737 2.5577 1492.9 -0.0055988 200.51 0.15817 590.00 0.0016949 355.96 617.19 1.4412 2.0737 2.5577 1492.9 -0.0055988 200.51 0.15817
108.38 22484. undefined 358.03 620.78 1.4466 590.00 0.0016949 358.03 620.78 1.4466 2.0781 2.5611 1494.3 -0.0055936 200.47 0.15835 590.00 0.0016949 358.03 620.78 1.4466 2.0781 2.5611 1494.3 -0.0055936 200.47 0.15835
109.38 22613. undefined 360.11 624.37 1.4521 590.00 0.0016949 360.11 624.37 1.4521 2.0824 2.5646 1495.6 -0.0055883 200.44 0.15853 590.00 0.0016949 360.11 624.37 1.4521 2.0824 2.5646 1495.6 -0.0055883 200.44 0.15853
110.38 22743. undefined 362.20 627.97 1.4575 590.00 0.0016949 362.20 627.97 1.4575 2.0868 2.5680 1496.9 -0.0055831 200.41 0.15871 590.00 0.0016949 362.20 627.97 1.4575 2.0868 2.5680 1496.9 -0.0055831 200.41 0.15871
111.38 22872. undefined 364.29 631.57 1.4630 590.00 0.0016949 364.29 631.57 1.4630 2.0911 2.5715 1498.2 -0.0055778 200.37 0.15889 590.00 0.0016949 364.29 631.57 1.4630 2.0911 2.5715 1498.2 -0.0055778 200.37 0.15889
112.38 23001. undefined 366.38 635.17 1.4684 590.00 0.0016949 366.38 635.17 1.4684 2.0954 2.5749 1499.5 -0.0055725 200.34 0.15906 590.00 0.0016949 366.38 635.17 1.4684 2.0954 2.5749 1499.5 -0.0055725 200.34 0.15906
113.38 23130. undefined 368.48 638.78 1.4738 590.00 0.0016949 368.48 638.78 1.4738 2.0998 2.5784 1500.8 -0.0055672 200.31 0.15924 590.00 0.0016949 368.48 638.78 1.4738 2.0998 2.5784 1500.8 -0.0055672 200.31 0.15924
114.38 23259. undefined 370.58 642.39 1.4793 590.00 0.0016949 370.58 642.39 1.4793 2.1041 2.5819 1502.1 -0.0055619 200.28 0.15942 590.00 0.0016949 370.58 642.39 1.4793 2.1041 2.5819 1502.1 -0.0055619 200.28 0.15942
115.38 23388. undefined 372.68 646.00 1.4847 590.00 0.0016949 372.68 646.00 1.4847 2.1084 2.5853 1503.5 -0.0055566 200.25 0.15960 590.00 0.0016949 372.68 646.00 1.4847 2.1084 2.5853 1503.5 -0.0055566 200.25 0.15960
116.38 23517. undefined 374.80 649.61 1.4901 590.00 0.0016949 374.80 649.61 1.4901 2.1127 2.5888 1504.8 -0.0055513 200.22 0.15978 590.00 0.0016949 374.80 649.61 1.4901 2.1127 2.5888 1504.8 -0.0055513 200.22 0.15978
117.38 23645. undefined 376.91 653.23 1.4955 590.00 0.0016949 376.91 653.23 1.4955 2.1170 2.5923 1506.1 -0.0055460 200.19 0.15996 590.00 0.0016949 376.91 653.23 1.4955 2.1170 2.5923 1506.1 -0.0055460 200.19 0.15996
118.38 23774. undefined 379.03 656.85 1.5010 590.00 0.0016949 379.03 656.85 1.5010 2.1214 2.5957 1507.3 -0.0055407 200.16 0.16014 590.00 0.0016949 379.03 656.85 1.5010 2.1214 2.5957 1507.3 -0.0055407 200.16 0.16014
119.38 23902. undefined 381.15 660.47 1.5064 590.00 0.0016949 381.15 660.47 1.5064 2.1257 2.5992 1508.6 -0.0055354 200.13 0.16032 590.00 0.0016949 381.15 660.47 1.5064 2.1257 2.5992 1508.6 -0.0055354 200.13 0.16032
120.38 24030. undefined 383.28 664.10 1.5118 590.00 0.0016949 383.28 664.10 1.5118 2.1300 2.6027 1509.9 -0.0055300 200.10 0.16050 590.00 0.0016949 383.28 664.10 1.5118 2.1300 2.6027 1509.9 -0.0055300 200.10 0.16050
121.38 24158. undefined 385.41 667.73 1.5172 590.00 0.0016949 385.41 667.73 1.5172 2.1343 2.6062 1511.2 -0.0055247 200.07 0.16068 590.00 0.0016949 385.41 667.73 1.5172 2.1343 2.6062 1511.2 -0.0055247 200.07 0.16068
122.38 24286. undefined 387.55 671.36 1.5226 590.00 0.0016949 387.55 671.36 1.5226 2.1386 2.6096 1512.5 -0.0055193 200.04 0.16086 590.00 0.0016949 387.55 671.36 1.5226 2.1386 2.6096 1512.5 -0.0055193 200.04 0.16086
123.38 24414. undefined 389.69 674.99 1.5280 590.00 0.0016949 389.69 674.99 1.5280 2.1429 2.6131 1513.8 -0.0055140 200.02 0.16105 590.00 0.0016949 389.69 674.99 1.5280 2.1429 2.6131 1513.8 -0.0055140 200.02 0.16105
124.38 24542. undefined 391.83 678.63 1.5334 590.00 0.0016949 391.83 678.63 1.5334 2.1472 2.6166 1515.1 -0.0055086 199.99 0.16123 590.00 0.0016949 391.83 678.63 1.5334 2.1472 2.6166 1515.1 -0.0055086 199.99 0.16123
125.38 24669. undefined 393.98 682.27 1.5388 590.00 0.0016949 393.98 682.27 1.5388 2.1515 2.6201 1516.3 -0.0055033 199.96 0.16141 590.00 0.0016949 393.98 682.27 1.5388 2.1515 2.6201 1516.3 -0.0055033 199.96 0.16141
126.38 24797. undefined 396.14 685.91 1.5442 590.00 0.0016949 396.14 685.91 1.5442 2.1557 2.6236 1517.6 -0.0054979 199.93 0.16159 590.00 0.0016949 396.14 685.91 1.5442 2.1557 2.6236 1517.6 -0.0054979 199.93 0.16159
127.38 24924. undefined 398.30 689.56 1.5496 590.00 0.0016949 398.30 689.56 1.5496 2.1600 2.6271 1518.9 -0.0054926 199.91 0.16178 590.00 0.0016949 398.30 689.56 1.5496 2.1600 2.6271 1518.9 -0.0054926 199.91 0.16178
128.38 25051. undefined 400.46 693.21 1.5550 590.00 0.0016949 400.46 693.21 1.5550 2.1643 2.6305 1520.2 -0.0054872 199.88 0.16196 590.00 0.0016949 400.46 693.21 1.5550 2.1643 2.6305 1520.2 -0.0054872 199.88 0.16196
129.38 25178. undefined 402.62 696.86 1.5604 590.00 0.0016949 402.62 696.86 1.5604 2.1686 2.6340 1521.4 -0.0054819 199.86 0.16214 590.00 0.0016949 402.62 696.86 1.5604 2.1686 2.6340 1521.4 -0.0054819 199.86 0.16214
130.38 25305. undefined 404.80 700.51 1.5658 590.00 0.0016949 404.80 700.51 1.5658 2.1729 2.6375 1522.7 -0.0054765 199.83 0.16233 590.00 0.0016949 404.80 700.51 1.5658 2.1729 2.6375 1522.7 -0.0054765 199.83 0.16233
131.38 25432. undefined 406.97 704.17 1.5712 590.00 0.0016949 406.97 704.17 1.5712 2.1771 2.6410 1523.9 -0.0054711 199.80 0.16251 590.00 0.0016949 406.97 704.17 1.5712 2.1771 2.6410 1523.9 -0.0054711 199.80 0.16251
132.38 25559. undefined 409.15 707.83 1.5765 590.00 0.0016949 409.15 707.83 1.5765 2.1814 2.6445 1525.2 -0.0054658 199.78 0.16270 590.00 0.0016949 409.15 707.83 1.5765 2.1814 2.6445 1525.2 -0.0054658 199.78 0.16270
133.38 25685. undefined 411.33 711.49 1.5819 590.00 0.0016949 411.33 711.49 1.5819 2.1857 2.6480 1526.5 -0.0054604 199.75 0.16288 590.00 0.0016949 411.33 711.49 1.5819 2.1857 2.6480 1526.5 -0.0054604 199.75 0.16288
134.38 25812. undefined 413.52 715.16 1.5873 590.00 0.0016949 413.52 715.16 1.5873 2.1899 2.6515 1527.7 -0.0054550 199.73 0.16306 590.00 0.0016949 413.52 715.16 1.5873 2.1899 2.6515 1527.7 -0.0054550 199.73 0.16306
135.38 25938. undefined 415.71 718.83 1.5927 590.00 0.0016949 415.71 718.83 1.5927 2.1942 2.6550 1529.0 -0.0054497 199.71 0.16325 590.00 0.0016949 415.71 718.83 1.5927 2.1942 2.6550 1529.0 -0.0054497 199.71 0.16325
136.38 26065. undefined 417.91 722.50 1.5980 590.00 0.0016949 417.91 722.50 1.5980 2.1984 2.6585 1530.2 -0.0054443 199.68 0.16344 590.00 0.0016949 417.91 722.50 1.5980 2.1984 2.6585 1530.2 -0.0054443 199.68 0.16344
137.38 26191. undefined 420.11 726.17 1.6034 590.00 0.0016949 420.11 726.17 1.6034 2.2027 2.6620 1531.5 -0.0054390 199.66 0.16362 590.00 0.0016949 420.11 726.17 1.6034 2.2027 2.6620 1531.5 -0.0054390 199.66 0.16362
138.38 26317. undefined 422.31 729.85 1.6088 590.00 0.0016949 422.31 729.85 1.6088 2.2069 2.6655 1532.7 -0.0054336 199.64 0.16381 590.00 0.0016949 422.31 729.85 1.6088 2.2069 2.6655 1532.7 -0.0054336 199.64 0.16381
139.38 26443. undefined 424.52 733.53 1.6141 590.00 0.0016949 424.52 733.53 1.6141 2.2112 2.6690 1533.9 -0.0054282 199.61 0.16399 590.00 0.0016949 424.52 733.53 1.6141 2.2112 2.6690 1533.9 -0.0054282 199.61 0.16399
140.38 26568. undefined 426.74 737.22 1.6195 590.00 0.0016949 426.74 737.22 1.6195 2.2154 2.6724 1535.2 -0.0054229 199.59 0.16418 590.00 0.0016949 426.74 737.22 1.6195 2.2154 2.6724 1535.2 -0.0054229 199.59 0.16418
141.38 26694. undefined 428.95 740.90 1.6248 590.00 0.0016949 428.95 740.90 1.6248 2.2196 2.6759 1536.4 -0.0054175 199.57 0.16437 590.00 0.0016949 428.95 740.90 1.6248 2.2196 2.6759 1536.4 -0.0054175 199.57 0.16437
142.38 26820. undefined 431.18 744.59 1.6302 590.00 0.0016949 431.18 744.59 1.6302 2.2238 2.6794 1537.7 -0.0054122 199.55 0.16455 590.00 0.0016949 431.18 744.59 1.6302 2.2238 2.6794 1537.7 -0.0054122 199.55 0.16455
143.38 26945. undefined 433.40 748.28 1.6355 590.00 0.0016949 433.40 748.28 1.6355 2.2281 2.6829 1538.9 -0.0054068 199.52 0.16474 590.00 0.0016949 433.40 748.28 1.6355 2.2281 2.6829 1538.9 -0.0054068 199.52 0.16474
144.38 27071. undefined 435.63 751.98 1.6409 590.00 0.0016949 435.63 751.98 1.6409 2.2323 2.6864 1540.1 -0.0054015 199.50 0.16493 590.00 0.0016949 435.63 751.98 1.6409 2.2323 2.6864 1540.1 -0.0054015 199.50 0.16493
145.38 27196. undefined 437.87 755.68 1.6462 590.00 0.0016949 437.87 755.68 1.6462 2.2365 2.6899 1541.3 -0.0053961 199.48 0.16512 590.00 0.0016949 437.87 755.68 1.6462 2.2365 2.6899 1541.3 -0.0053961 199.48 0.16512
146.38 27321. undefined 440.11 759.38 1.6516 590.00 0.0016949 440.11 759.38 1.6516 2.2407 2.6934 1542.6 -0.0053908 199.46 0.16531 590.00 0.0016949 440.11 759.38 1.6516 2.2407 2.6934 1542.6 -0.0053908 199.46 0.16531
147.38 27446. undefined 442.35 763.08 1.6569 590.00 0.0016949 442.35 763.08 1.6569 2.2449 2.6969 1543.8 -0.0053854 199.44 0.16550 590.00 0.0016949 442.35 763.08 1.6569 2.2449 2.6969 1543.8 -0.0053854 199.44 0.16550
148.38 27571. undefined 444.59 766.79 1.6623 590.00 0.0016949 444.59 766.79 1.6623 2.2491 2.7004 1545.0 -0.0053801 199.42 0.16568 590.00 0.0016949 444.59 766.79 1.6623 2.2491 2.7004 1545.0 -0.0053801 199.42 0.16568
149.38 27696. undefined 446.85 770.50 1.6676 590.00 0.0016949 446.85 770.50 1.6676 2.2533 2.7039 1546.2 -0.0053748 199.40 0.16587 590.00 0.0016949 446.85 770.50 1.6676 2.2533 2.7039 1546.2 -0.0053748 199.40 0.16587
150.38 27820. undefined 449.10 774.21 1.6729 590.00 0.0016949 449.10 774.21 1.6729 2.2575 2.7074 1547.4 -0.0053694 199.38 0.16606 590.00 0.0016949 449.10 774.21 1.6729 2.2575 2.7074 1547.4 -0.0053694 199.38 0.16606
151.38 27945. undefined 451.36 777.93 1.6782 590.00 0.0016949 451.36 777.93 1.6782 2.2617 2.7109 1548.6 -0.0053641 199.36 0.16625 590.00 0.0016949 451.36 777.93 1.6782 2.2617 2.7109 1548.6 -0.0053641 199.36 0.16625
152.38 28069. undefined 453.62 781.64 1.6836 590.00 0.0016949 453.62 781.64 1.6836 2.2659 2.7144 1549.9 -0.0053588 199.34 0.16644 590.00 0.0016949 453.62 781.64 1.6836 2.2659 2.7144 1549.9 -0.0053588 199.34 0.16644
153.38 28194. undefined 455.89 785.36 1.6889 590.00 0.0016949 455.89 785.36 1.6889 2.2701 2.7178 1551.1 -0.0053535 199.32 0.16663 590.00 0.0016949 455.89 785.36 1.6889 2.2701 2.7178 1551.1 -0.0053535 199.32 0.16663
154.38 28318. undefined 458.17 789.09 1.6942 590.00 0.0016949 458.17 789.09 1.6942 2.2742 2.7213 1552.3 -0.0053482 199.30 0.16682 590.00 0.0016949 458.17 789.09 1.6942 2.2742 2.7213 1552.3 -0.0053482 199.30 0.16682
155.38 28442. undefined 460.44 792.82 1.6995 590.00 0.0016949 460.44 792.82 1.6995 2.2784 2.7248 1553.5 -0.0053428 199.28 0.16702 590.00 0.0016949 460.44 792.82 1.6995 2.2784 2.7248 1553.5 -0.0053428 199.28 0.16702
156.38 28566. undefined 462.72 796.54 1.7048 590.00 0.0016949 462.72 796.54 1.7048 2.2826 2.7283 1554.7 -0.0053375 199.27 0.16721 590.00 0.0016949 462.72 796.54 1.7048 2.2826 2.7283 1554.7 -0.0053375 199.27 0.16721
157.38 28690. undefined 465.01 800.28 1.7102 590.00 0.0016949 465.01 800.28 1.7102 2.2867 2.7318 1555.9 -0.0053322 199.25 0.16740 590.00 0.0016949 465.01 800.28 1.7102 2.2867 2.7318 1555.9 -0.0053322 199.25 0.16740
158.38 28814. undefined 467.30 804.01 1.7155 590.00 0.0016949 467.30 804.01 1.7155 2.2909 2.7353 1557.1 -0.0053270 199.23 0.16759 590.00 0.0016949 467.30 804.01 1.7155 2.2909 2.7353 1557.1 -0.0053270 199.23 0.16759
159.38 28937. undefined 469.59 807.75 1.7208 590.00 0.0016949 469.59 807.75 1.7208 2.2951 2.7388 1558.3 -0.0053217 199.21 0.16778 590.00 0.0016949 469.59 807.75 1.7208 2.2951 2.7388 1558.3 -0.0053217 199.21 0.16778
160.38 29061. undefined 471.89 811.49 1.7261 590.00 0.0016949 471.89 811.49 1.7261 2.2992 2.7422 1559.4 -0.0053164 199.19 0.16798 590.00 0.0016949 471.89 811.49 1.7261 2.2992 2.7422 1559.4 -0.0053164 199.19 0.16798
161.38 29184. undefined 474.19 815.24 1.7314 590.00 0.0016949 474.19 815.24 1.7314 2.3034 2.7457 1560.6 -0.0053111 199.18 0.16817 590.00 0.0016949 474.19 815.24 1.7314 2.3034 2.7457 1560.6 -0.0053111 199.18 0.16817
162.38 29308. undefined 476.49 818.98 1.7367 590.00 0.0016949 476.49 818.98 1.7367 2.3075 2.7492 1561.8 -0.0053059 199.16 0.16836 590.00 0.0016949 476.49 818.98 1.7367 2.3075 2.7492 1561.8 -0.0053059 199.16 0.16836
163.38 29431. undefined 478.80 822.73 1.7420 590.00 0.0016949 478.80 822.73 1.7420 2.3116 2.7527 1563.0 -0.0053006 199.14 0.16855 590.00 0.0016949 478.80 822.73 1.7420 2.3116 2.7527 1563.0 -0.0053006 199.14 0.16855
164.38 29554. undefined 481.12 826.49 1.7473 590.00 0.0016949 481.12 826.49 1.7473 2.3158 2.7562 1564.2 -0.0052953 199.13 0.16875 590.00 0.0016949 481.12 826.49 1.7473 2.3158 2.7562 1564.2 -0.0052953 199.13 0.16875
165.38 29677. undefined 483.43 830.24 1.7526 590.00 0.0016949 483.43 830.24 1.7526 2.3199 2.7596 1565.4 -0.0052901 199.11 0.16894 590.00 0.0016949 483.43 830.24 1.7526 2.3199 2.7596 1565.4 -0.0052901 199.11 0.16894
166.38 29800. undefined 485.76 834.00 1.7579 590.00 0.0016949 485.76 834.00 1.7579 2.3240 2.7631 1566.6 -0.0052849 199.10 0.16914 590.00 0.0016949 485.76 834.00 1.7579 2.3240 2.7631 1566.6 -0.0052849 199.10 0.16914
167.38 29923. undefined 488.08 837.76 1.7631 590.00 0.0016949 488.08 837.76 1.7631 2.3281 2.7666 1567.7 -0.0052796 199.08 0.16933 590.00 0.0016949 488.08 837.76 1.7631 2.3281 2.7666 1567.7 -0.0052796 199.08 0.16933
168.38 30046. undefined 490.41 841.53 1.7684 590.00 0.0016949 490.41 841.53 1.7684 2.3322 2.7701 1568.9 -0.0052744 199.06 0.16953 590.00 0.0016949 490.41 841.53 1.7684 2.3322 2.7701 1568.9 -0.0052744 199.06 0.16953
169.38 30168. undefined 492.75 845.29 1.7737 590.00 0.0016949 492.75 845.29 1.7737 2.3363 2.7735 1570.1 -0.0052692 199.05 0.16972 590.00 0.0016949 492.75 845.29 1.7737 2.3363 2.7735 1570.1 -0.0052692 199.05 0.16972
170.38 30291. undefined 495.08 849.06 1.7790 590.00 0.0016949 495.08 849.06 1.7790 2.3404 2.7770 1571.2 -0.0052640 199.03 0.16992 590.00 0.0016949 495.08 849.06 1.7790 2.3404 2.7770 1571.2 -0.0052640 199.03 0.16992
171.38 30413. undefined 497.43 852.84 1.7843 590.00 0.0016949 497.43 852.84 1.7843 2.3445 2.7805 1572.4 -0.0052588 199.02 0.17011 590.00 0.0016949 497.43 852.84 1.7843 2.3445 2.7805 1572.4 -0.0052588 199.02 0.17011
172.38 30536. undefined 499.77 856.61 1.7895 590.00 0.0016949 499.77 856.61 1.7895 2.3486 2.7839 1573.6 -0.0052536 199.00 0.17031 590.00 0.0016949 499.77 856.61 1.7895 2.3486 2.7839 1573.6 -0.0052536 199.00 0.17031
173.38 30658. undefined 502.12 860.39 1.7948 590.00 0.0016949 502.12 860.39 1.7948 2.3527 2.7874 1574.7 -0.0052484 198.99 0.17050 590.00 0.0016949 502.12 860.39 1.7948 2.3527 2.7874 1574.7 -0.0052484 198.99 0.17050
174.38 30780. undefined 504.48 864.17 1.8001 590.00 0.0016949 504.48 864.17 1.8001 2.3568 2.7909 1575.9 -0.0052432 198.98 0.17070 590.00 0.0016949 504.48 864.17 1.8001 2.3568 2.7909 1575.9 -0.0052432 198.98 0.17070
175.38 30902. undefined 506.84 867.96 1.8053 590.00 0.0016949 506.84 867.96 1.8053 2.3609 2.7943 1577.1 -0.0052381 198.96 0.17090 590.00 0.0016949 506.84 867.96 1.8053 2.3609 2.7943 1577.1 -0.0052381 198.96 0.17090
176.38 31024. undefined 509.20 871.74 1.8106 590.00 0.0016949 509.20 871.74 1.8106 2.3650 2.7978 1578.2 -0.0052329 198.95 0.17110 590.00 0.0016949 509.20 871.74 1.8106 2.3650 2.7978 1578.2 -0.0052329 198.95 0.17110
177.38 31146. undefined 511.57 875.54 1.8159 590.00 0.0016949 511.57 875.54 1.8159 2.3690 2.8012 1579.4 -0.0052277 198.93 0.17129 590.00 0.0016949 511.57 875.54 1.8159 2.3690 2.8012 1579.4 -0.0052277 198.93 0.17129
178.38 31267. undefined 513.94 879.33 1.8211 590.00 0.0016949 513.94 879.33 1.8211 2.3731 2.8047 1580.5 -0.0052226 198.92 0.17149 590.00 0.0016949 513.94 879.33 1.8211 2.3731 2.8047 1580.5 -0.0052226 198.92 0.17149
179.38 31389. undefined 516.31 883.12 1.8264 590.00 0.0016949 516.31 883.12 1.8264 2.3771 2.8081 1581.7 -0.0052175 198.91 0.17169 590.00 0.0016949 516.31 883.12 1.8264 2.3771 2.8081 1581.7 -0.0052175 198.91 0.17169
180.38 31510. undefined 518.69 886.92 1.8316 590.00 0.0016949 518.69 886.92 1.8316 2.3812 2.8116 1582.8 -0.0052123 198.89 0.17189 590.00 0.0016949 518.69 886.92 1.8316 2.3812 2.8116 1582.8 -0.0052123 198.89 0.17189
181.38 31632. undefined 521.08 890.72 1.8369 590.00 0.0016949 521.08 890.72 1.8369 2.3852 2.8150 1584.0 -0.0052072 198.88 0.17209 590.00 0.0016949 521.08 890.72 1.8369 2.3852 2.8150 1584.0 -0.0052072 198.88 0.17209
182.38 31753. undefined 523.46 894.53 1.8421 590.00 0.0016949 523.46 894.53 1.8421 2.3893 2.8185 1585.1 -0.0052021 198.87 0.17228 590.00 0.0016949 523.46 894.53 1.8421 2.3893 2.8185 1585.1 -0.0052021 198.87 0.17228
183.38 31874. undefined 525.85 898.34 1.8474 590.00 0.0016949 525.85 898.34 1.8474 2.3933 2.8219 1586.3 -0.0051970 198.86 0.17248 590.00 0.0016949 525.85 898.34 1.8474 2.3933 2.8219 1586.3 -0.0051970 198.86 0.17248
184.38 31995. undefined 528.25 902.15 1.8526 590.00 0.0016949 528.25 902.15 1.8526 2.3974 2.8254 1587.4 -0.0051919 198.84 0.17268 590.00 0.0016949 528.25 902.15 1.8526 2.3974 2.8254 1587.4 -0.0051919 198.84 0.17268
185.38 32116. undefined 530.65 905.96 1.8578 590.00 0.0016949 530.65 905.96 1.8578 2.4014 2.8288 1588.5 -0.0051868 198.83 0.17288 590.00 0.0016949 530.65 905.96 1.8578 2.4014 2.8288 1588.5 -0.0051868 198.83 0.17288
186.38 32237. undefined 533.05 909.78 1.8631 590.00 0.0016949 533.05 909.78 1.8631 2.4054 2.8322 1589.7 -0.0051817 198.82 0.17308 590.00 0.0016949 533.05 909.78 1.8631 2.4054 2.8322 1589.7 -0.0051817 198.82 0.17308
187.38 32358. undefined 535.46 913.59 1.8683 590.00 0.0016949 535.46 913.59 1.8683 2.4094 2.8357 1590.8 -0.0051767 198.81 0.17328 590.00 0.0016949 535.46 913.59 1.8683 2.4094 2.8357 1590.8 -0.0051767 198.81 0.17328
188.38 32478. undefined 537.87 917.42 1.8735 590.00 0.0016949 537.87 917.42 1.8735 2.4134 2.8391 1592.0 -0.0051716 198.80 0.17348 590.00 0.0016949 537.87 917.42 1.8735 2.4134 2.8391 1592.0 -0.0051716 198.80 0.17348
189.38 32599. undefined 540.29 921.24 1.8788 590.00 0.0016949 540.29 921.24 1.8788 2.4174 2.8425 1593.1 -0.0051666 198.79 0.17369 590.00 0.0016949 540.29 921.24 1.8788 2.4174 2.8425 1593.1 -0.0051666 198.79 0.17369
190.38 32720. undefined 542.71 925.07 1.8840 590.00 0.0016949 542.71 925.07 1.8840 2.4214 2.8460 1594.2 -0.0051615 198.78 0.17389 590.00 0.0016949 542.71 925.07 1.8840 2.4214 2.8460 1594.2 -0.0051615 198.78 0.17389
191.38 32840. undefined 545.13 928.90 1.8892 590.00 0.0016949 545.13 928.90 1.8892 2.4254 2.8494 1595.3 -0.0051565 198.77 0.17409 590.00 0.0016949 545.13 928.90 1.8892 2.4254 2.8494 1595.3 -0.0051565 198.77 0.17409
192.38 32960. undefined 547.56 932.73 1.8944 590.00 0.0016949 547.56 932.73 1.8944 2.4294 2.8528 1596.5 -0.0051515 198.75 0.17429 590.00 0.0016949 547.56 932.73 1.8944 2.4294 2.8528 1596.5 -0.0051515 198.75 0.17429
193.38 33080. undefined 549.99 936.57 1.8997 590.00 0.0016949 549.99 936.57 1.8997 2.4334 2.8562 1597.6 -0.0051465 198.74 0.17449 590.00 0.0016949 549.99 936.57 1.8997 2.4334 2.8562 1597.6 -0.0051465 198.74 0.17449
194.38 33200. undefined 552.42 940.41 1.9049 590.00 0.0016949 552.42 940.41 1.9049 2.4374 2.8596 1598.7 -0.0051415 198.73 0.17469 590.00 0.0016949 552.42 940.41 1.9049 2.4374 2.8596 1598.7 -0.0051415 198.73 0.17469
195.38 33320. undefined 554.86 944.25 1.9101 590.00 0.0016949 554.86 944.25 1.9101 2.4414 2.8631 1599.8 -0.0051365 198.72 0.17490 590.00 0.0016949 554.86 944.25 1.9101 2.4414 2.8631 1599.8 -0.0051365 198.72 0.17490
196.38 33440. undefined 557.31 948.09 1.9153 590.00 0.0016949 557.31 948.09 1.9153 2.4454 2.8665 1601.0 -0.0051315 198.71 0.17510 590.00 0.0016949 557.31 948.09 1.9153 2.4454 2.8665 1601.0 -0.0051315 198.71 0.17510
197.38 33560. undefined 559.75 951.94 1.9205 590.00 0.0016949 559.75 951.94 1.9205 2.4493 2.8699 1602.1 -0.0051265 198.70 0.17530 590.00 0.0016949 559.75 951.94 1.9205 2.4493 2.8699 1602.1 -0.0051265 198.70 0.17530
198.38 33680. undefined 562.21 955.79 1.9257 590.00 0.0016949 562.21 955.79 1.9257 2.4533 2.8733 1603.2 -0.0051216 198.69 0.17551 590.00 0.0016949 562.21 955.79 1.9257 2.4533 2.8733 1603.2 -0.0051216 198.69 0.17551
199.38 33799. undefined 564.66 959.64 1.9309 590.00 0.0016949 564.66 959.64 1.9309 2.4572 2.8767 1604.3 -0.0051166 198.68 0.17571 590.00 0.0016949 564.66 959.64 1.9309 2.4572 2.8767 1604.3 -0.0051166 198.68 0.17571
200.38 33919. undefined 567.12 963.50 1.9361 590.00 0.0016949 567.12 963.50 1.9361 2.4612 2.8801 1605.4 -0.0051117 198.68 0.17592 590.00 0.0016949 567.12 963.50 1.9361 2.4612 2.8801 1605.4 -0.0051117 198.68 0.17592
201.38 34038. undefined 569.58 967.36 1.9413 590.00 0.0016949 569.58 967.36 1.9413 2.4651 2.8835 1606.5 -0.0051068 198.67 0.17612 590.00 0.0016949 569.58 967.36 1.9413 2.4651 2.8835 1606.5 -0.0051068 198.67 0.17612
202.38 34158. undefined 572.05 971.22 1.9465 590.00 0.0016949 572.05 971.22 1.9465 2.4691 2.8869 1607.6 -0.0051018 198.66 0.17632 590.00 0.0016949 572.05 971.22 1.9465 2.4691 2.8869 1607.6 -0.0051018 198.66 0.17632
203.38 34277. undefined 574.52 975.08 1.9517 590.00 0.0016949 574.52 975.08 1.9517 2.4730 2.8903 1608.7 -0.0050969 198.65 0.17653 590.00 0.0016949 574.52 975.08 1.9517 2.4730 2.8903 1608.7 -0.0050969 198.65 0.17653
204.38 34396. undefined 577.00 978.95 1.9569 590.00 0.0016949 577.00 978.95 1.9569 2.4769 2.8937 1609.8 -0.0050920 198.64 0.17674 590.00 0.0016949 577.00 978.95 1.9569 2.4769 2.8937 1609.8 -0.0050920 198.64 0.17674
205.38 34515. undefined 579.48 982.82 1.9621 590.00 0.0016949 579.48 982.82 1.9621 2.4809 2.8971 1610.9 -0.0050871 198.63 0.17694 590.00 0.0016949 579.48 982.82 1.9621 2.4809 2.8971 1610.9 -0.0050871 198.63 0.17694
206.38 34634. undefined 581.96 986.69 1.9672 590.00 0.0016949 581.96 986.69 1.9672 2.4848 2.9004 1612.0 -0.0050823 198.62 0.17715 590.00 0.0016949 581.96 986.69 1.9672 2.4848 2.9004 1612.0 -0.0050823 198.62 0.17715
207.38 34753. undefined 584.44 990.57 1.9724 590.00 0.0016949 584.44 990.57 1.9724 2.4887 2.9038 1613.1 -0.0050774 198.62 0.17735 590.00 0.0016949 584.44 990.57 1.9724 2.4887 2.9038 1613.1 -0.0050774 198.62 0.17735
208.38 34871. undefined 586.94 994.44 1.9776 590.00 0.0016949 586.94 994.44 1.9776 2.4926 2.9072 1614.2 -0.0050725 198.61 0.17756 590.00 0.0016949 586.94 994.44 1.9776 2.4926 2.9072 1614.2 -0.0050725 198.61 0.17756
209.38 34990. undefined 589.43 998.32 1.9828 590.00 0.0016949 589.43 998.32 1.9828 2.4965 2.9106 1615.3 -0.0050677 198.60 0.17777 590.00 0.0016949 589.43 998.32 1.9828 2.4965 2.9106 1615.3 -0.0050677 198.60 0.17777
210.38 35109. undefined 591.93 1002.2 1.9879 590.00 0.0016949 591.93 1002.2 1.9879 2.5004 2.9140 1616.4 -0.0050629 198.59 0.17797 590.00 0.0016949 591.93 1002.2 1.9879 2.5004 2.9140 1616.4 -0.0050629 198.59 0.17797
211.38 35227. undefined 594.43 1006.1 1.9931 590.00 0.0016949 594.43 1006.1 1.9931 2.5043 2.9173 1617.5 -0.0050580 198.58 0.17818 590.00 0.0016949 594.43 1006.1 1.9931 2.5043 2.9173 1617.5 -0.0050580 198.58 0.17818
212.38 35345. undefined 596.94 1010.0 1.9983 590.00 0.0016949 596.94 1010.0 1.9983 2.5082 2.9207 1618.6 -0.0050532 198.58 0.17839 590.00 0.0016949 596.94 1010.0 1.9983 2.5082 2.9207 1618.6 -0.0050532 198.58 0.17839
213.38 35464. undefined 599.45 1013.9 2.0034 590.00 0.0016949 599.45 1013.9 2.0034 2.5121 2.9241 1619.7 -0.0050484 198.57 0.17860 590.00 0.0016949 599.45 1013.9 2.0034 2.5121 2.9241 1619.7 -0.0050484 198.57 0.17860
214.38 35582. undefined 601.96 1017.8 2.0086 590.00 0.0016949 601.96 1017.8 2.0086 2.5160 2.9274 1620.8 -0.0050436 198.56 0.17881 590.00 0.0016949 601.96 1017.8 2.0086 2.5160 2.9274 1620.8 -0.0050436 198.56 0.17881
215.38 35700. undefined 604.48 1021.7 2.0138 590.00 0.0016949 604.48 1021.7 2.0138 2.5198 2.9308 1621.9 -0.0050388 198.56 0.17901 590.00 0.0016949 604.48 1021.7 2.0138 2.5198 2.9308 1621.9 -0.0050388 198.56 0.17901
216.38 35818. undefined 607.00 1025.6 2.0189 590.00 0.0016949 607.00 1025.6 2.0189 2.5237 2.9341 1622.9 -0.0050341 198.55 0.17922 590.00 0.0016949 607.00 1025.6 2.0189 2.5237 2.9341 1622.9 -0.0050341 198.55 0.17922
217.38 35936. undefined 609.53 1029.5 2.0241 590.00 0.0016949 609.53 1029.5 2.0241 2.5276 2.9375 1624.0 -0.0050293 198.54 0.17943 590.00 0.0016949 609.53 1029.5 2.0241 2.5276 2.9375 1624.0 -0.0050293 198.54 0.17943
218.38 36054. undefined 612.06 1033.4 2.0292 590.00 0.0016949 612.06 1033.4 2.0292 2.5314 2.9408 1625.1 -0.0050246 198.54 0.17964 590.00 0.0016949 612.06 1033.4 2.0292 2.5314 2.9408 1625.1 -0.0050246 198.54 0.17964
219.38 36171. undefined 614.59 1037.3 2.0344 590.00 0.0016949 614.59 1037.3 2.0344 2.5353 2.9442 1626.2 -0.0050198 198.53 0.17985 590.00 0.0016949 614.59 1037.3 2.0344 2.5353 2.9442 1626.2 -0.0050198 198.53 0.17985
220.38 36289. undefined 617.13 1041.2 2.0395 590.00 0.0016949 617.13 1041.2 2.0395 2.5391 2.9475 1627.3 -0.0050151 198.52 0.18006 590.00 0.0016949 617.13 1041.2 2.0395 2.5391 2.9475 1627.3 -0.0050151 198.52 0.18006
221.38 36406. undefined 619.67 1045.1 2.0447 590.00 0.0016949 619.67 1045.1 2.0447 2.5429 2.9509 1628.3 -0.0050104 198.52 0.18027 590.00 0.0016949 619.67 1045.1 2.0447 2.5429 2.9509 1628.3 -0.0050104 198.52 0.18027
222.38 36524. undefined 622.21 1049.0 2.0498 590.00 0.0016949 622.21 1049.0 2.0498 2.5468 2.9542 1629.4 -0.0050057 198.51 0.18048 590.00 0.0016949 622.21 1049.0 2.0498 2.5468 2.9542 1629.4 -0.0050057 198.51 0.18048
223.38 36641. undefined 624.76 1053.0 2.0550 590.00 0.0016949 624.76 1053.0 2.0550 2.5506 2.9575 1630.5 -0.0050010 198.51 0.18069 590.00 0.0016949 624.76 1053.0 2.0550 2.5506 2.9575 1630.5 -0.0050010 198.51 0.18069
224.38 36758. undefined 627.31 1056.9 2.0601 590.00 0.0016949 627.31 1056.9 2.0601 2.5544 2.9609 1631.5 -0.0049963 198.50 0.18090 590.00 0.0016949 627.31 1056.9 2.0601 2.5544 2.9609 1631.5 -0.0049963 198.50 0.18090
225.38 36876. undefined 629.87 1060.8 2.0652 590.00 0.0016949 629.87 1060.8 2.0652 2.5583 2.9642 1632.6 -0.0049916 198.50 0.18112 590.00 0.0016949 629.87 1060.8 2.0652 2.5583 2.9642 1632.6 -0.0049916 198.50 0.18112
226.38 36993. undefined 632.43 1064.7 2.0703 590.00 0.0016949 632.43 1064.7 2.0703 2.5621 2.9675 1633.7 -0.0049869 198.49 0.18133 590.00 0.0016949 632.43 1064.7 2.0703 2.5621 2.9675 1633.7 -0.0049869 198.49 0.18133
227.38 37110. undefined 634.99 1068.7 2.0755 590.00 0.0016949 634.99 1068.7 2.0755 2.5659 2.9708 1634.7 -0.0049823 198.48 0.18154 590.00 0.0016949 634.99 1068.7 2.0755 2.5659 2.9708 1634.7 -0.0049823 198.48 0.18154
228.38 37226. undefined 637.56 1072.6 2.0806 590.00 0.0016949 637.56 1072.6 2.0806 2.5697 2.9741 1635.8 -0.0049776 198.48 0.18175 590.00 0.0016949 637.56 1072.6 2.0806 2.5697 2.9741 1635.8 -0.0049776 198.48 0.18175
229.38 37343. undefined 640.13 1076.5 2.0857 590.00 0.0016949 640.13 1076.5 2.0857 2.5735 2.9775 1636.9 -0.0049730 198.47 0.18196 590.00 0.0016949 640.13 1076.5 2.0857 2.5735 2.9775 1636.9 -0.0049730 198.47 0.18196
230.38 37460. undefined 642.71 1080.5 2.0908 590.00 0.0016949 642.71 1080.5 2.0908 2.5773 2.9808 1637.9 -0.0049684 198.47 0.18218 590.00 0.0016949 642.71 1080.5 2.0908 2.5773 2.9808 1637.9 -0.0049684 198.47 0.18218
231.38 37577. undefined 645.29 1084.4 2.0960 590.00 0.0016949 645.29 1084.4 2.0960 2.5811 2.9841 1639.0 -0.0049638 198.47 0.18239 590.00 0.0016949 645.29 1084.4 2.0960 2.5811 2.9841 1639.0 -0.0049638 198.47 0.18239
232.38 37693. undefined 647.87 1088.4 2.1011 590.00 0.0016949 647.87 1088.4 2.1011 2.5848 2.9874 1640.0 -0.0049592 198.46 0.18260 590.00 0.0016949 647.87 1088.4 2.1011 2.5848 2.9874 1640.0 -0.0049592 198.46 0.18260
233.38 37810. undefined 650.46 1092.3 2.1062 590.00 0.0016949 650.46 1092.3 2.1062 2.5886 2.9907 1641.1 -0.0049546 198.46 0.18282 590.00 0.0016949 650.46 1092.3 2.1062 2.5886 2.9907 1641.1 -0.0049546 198.46 0.18282
234.38 37926. undefined 653.05 1096.3 2.1113 590.00 0.0016949 653.05 1096.3 2.1113 2.5924 2.9940 1642.1 -0.0049500 198.45 0.18303 590.00 0.0016949 653.05 1096.3 2.1113 2.5924 2.9940 1642.1 -0.0049500 198.45 0.18303
235.38 38042. undefined 655.64 1100.2 2.1164 590.00 0.0016949 655.64 1100.2 2.1164 2.5962 2.9973 1643.2 -0.0049454 198.45 0.18325 590.00 0.0016949 655.64 1100.2 2.1164 2.5962 2.9973 1643.2 -0.0049454 198.45 0.18325
236.38 38158. undefined 658.24 1104.2 2.1215 590.00 0.0016949 658.24 1104.2 2.1215 2.5999 3.0006 1644.2 -0.0049409 198.44 0.18346 590.00 0.0016949 658.24 1104.2 2.1215 2.5999 3.0006 1644.2 -0.0049409 198.44 0.18346
237.38 38275. undefined 660.84 1108.1 2.1266 590.00 0.0016949 660.84 1108.1 2.1266 2.6037 3.0038 1645.3 -0.0049363 198.44 0.18368 590.00 0.0016949 660.84 1108.1 2.1266 2.6037 3.0038 1645.3 -0.0049363 198.44 0.18368
238.38 38391. undefined 663.45 1112.1 2.1317 590.00 0.0016949 663.45 1112.1 2.1317 2.6074 3.0071 1646.3 -0.0049318 198.44 0.18389 590.00 0.0016949 663.45 1112.1 2.1317 2.6074 3.0071 1646.3 -0.0049318 198.44 0.18389
239.38 38506. undefined 666.06 1116.0 2.1368 590.00 0.0016949 666.06 1116.0 2.1368 2.6112 3.0104 1647.4 -0.0049273 198.43 0.18411 590.00 0.0016949 666.06 1116.0 2.1368 2.6112 3.0104 1647.4 -0.0049273 198.43 0.18411
240.38 38622. undefined 668.67 1120.0 2.1419 590.00 0.0016949 668.67 1120.0 2.1419 2.6149 3.0137 1648.4 -0.0049228 198.43 0.18432 590.00 0.0016949 668.67 1120.0 2.1419 2.6149 3.0137 1648.4 -0.0049228 198.43 0.18432
241.38 38738. undefined 671.29 1124.0 2.1470 590.00 0.0016949 671.29 1124.0 2.1470 2.6186 3.0170 1649.5 -0.0049183 198.43 0.18454 590.00 0.0016949 671.29 1124.0 2.1470 2.6186 3.0170 1649.5 -0.0049183 198.43 0.18454
242.38 38854. undefined 673.91 1128.0 2.1521 590.00 0.0016949 673.91 1128.0 2.1521 2.6224 3.0202 1650.5 -0.0049138 198.42 0.18476 590.00 0.0016949 673.91 1128.0 2.1521 2.6224 3.0202 1650.5 -0.0049138 198.42 0.18476
243.38 38969. undefined 676.53 1131.9 2.1572 590.00 0.0016949 676.53 1131.9 2.1572 2.6261 3.0235 1651.5 -0.0049093 198.42 0.18497 590.00 0.0016949 676.53 1131.9 2.1572 2.6261 3.0235 1651.5 -0.0049093 198.42 0.18497
244.38 39085. undefined 679.16 1135.9 2.1622 590.00 0.0016949 679.16 1135.9 2.1622 2.6298 3.0268 1652.6 -0.0049048 198.42 0.18519 590.00 0.0016949 679.16 1135.9 2.1622 2.6298 3.0268 1652.6 -0.0049048 198.42 0.18519
245.38 39200. undefined 681.79 1139.9 2.1673 590.00 0.0016949 681.79 1139.9 2.1673 2.6335 3.0300 1653.6 -0.0049004 198.41 0.18541 590.00 0.0016949 681.79 1139.9 2.1673 2.6335 3.0300 1653.6 -0.0049004 198.41 0.18541
246.38 39315. undefined 684.43 1143.9 2.1724 590.00 0.0016949 684.43 1143.9 2.1724 2.6372 3.0333 1654.7 -0.0048959 198.41 0.18562 590.00 0.0016949 684.43 1143.9 2.1724 2.6372 3.0333 1654.7 -0.0048959 198.41 0.18562
247.38 39431. undefined 687.07 1147.9 2.1775 590.00 0.0016949 687.07 1147.9 2.1775 2.6409 3.0365 1655.7 -0.0048915 198.41 0.18584 590.00 0.0016949 687.07 1147.9 2.1775 2.6409 3.0365 1655.7 -0.0048915 198.41 0.18584
248.38 39546. undefined 689.71 1151.8 2.1825 590.00 0.0016949 689.71 1151.8 2.1825 2.6446 3.0398 1656.7 -0.0048871 198.41 0.18606 590.00 0.0016949 689.71 1151.8 2.1825 2.6446 3.0398 1656.7 -0.0048871 198.41 0.18606
249.38 39661. undefined 692.36 1155.8 2.1876 590.00 0.0016949 692.36 1155.8 2.1876 2.6483 3.0430 1657.7 -0.0048827 198.40 0.18628 590.00 0.0016949 692.36 1155.8 2.1876 2.6483 3.0430 1657.7 -0.0048827 198.40 0.18628
250.38 39776. undefined 695.01 1159.8 2.1927 590.00 0.0016949 695.01 1159.8 2.1927 2.6520 3.0463 1658.8 -0.0048783 198.40 0.18650 590.00 0.0016949 695.01 1159.8 2.1927 2.6520 3.0463 1658.8 -0.0048783 198.40 0.18650
251.38 39891. undefined 697.66 1163.8 2.1978 590.00 0.0016949 697.66 1163.8 2.1978 2.6557 3.0495 1659.8 -0.0048739 198.40 0.18672 590.00 0.0016949 697.66 1163.8 2.1978 2.6557 3.0495 1659.8 -0.0048739 198.40 0.18672
252.38 40006. undefined 700.32 1167.8 2.2028 590.00 0.0016949 700.32 1167.8 2.2028 2.6594 3.0527 1660.8 -0.0048695 198.40 0.18694 590.00 0.0016949 700.32 1167.8 2.2028 2.6594 3.0527 1660.8 -0.0048695 198.40 0.18694
253.38 40120. undefined 702.98 1171.8 2.2079 590.00 0.0016949 702.98 1171.8 2.2079 2.6630 3.0560 1661.8 -0.0048651 198.39 0.18716 590.00 0.0016949 702.98 1171.8 2.2079 2.6630 3.0560 1661.8 -0.0048651 198.39 0.18716
254.38 40235. undefined 705.64 1175.8 2.2129 590.00 0.0016949 705.64 1175.8 2.2129 2.6667 3.0592 1662.9 -0.0048608 198.39 0.18738 590.00 0.0016949 705.64 1175.8 2.2129 2.6667 3.0592 1662.9 -0.0048608 198.39 0.18738
255.38 40349. undefined 708.31 1179.8 2.2180 590.00 0.0016949 708.31 1179.8 2.2180 2.6704 3.0624 1663.9 -0.0048564 198.39 0.18760 590.00 0.0016949 708.31 1179.8 2.2180 2.6704 3.0624 1663.9 -0.0048564 198.39 0.18760
256.38 40464. undefined 710.98 1183.8 2.2230 590.00 0.0016949 710.98 1183.8 2.2230 2.6740 3.0656 1664.9 -0.0048521 198.39 0.18782 590.00 0.0016949 710.98 1183.8 2.2230 2.6740 3.0656 1664.9 -0.0048521 198.39 0.18782
257.38 40578. undefined 713.66 1187.9 2.2281 590.00 0.0016949 713.66 1187.9 2.2281 2.6777 3.0688 1665.9 -0.0048477 198.39 0.18804 590.00 0.0016949 713.66 1187.9 2.2281 2.6777 3.0688 1665.9 -0.0048477 198.39 0.18804
258.38 40693. undefined 716.34 1191.9 2.2331 590.00 0.0016949 716.34 1191.9 2.2331 2.6813 3.0721 1666.9 -0.0048434 198.39 0.18826 590.00 0.0016949 716.34 1191.9 2.2331 2.6813 3.0721 1666.9 -0.0048434 198.39 0.18826
259.38 40807. undefined 719.02 1195.9 2.2382 590.00 0.0016949 719.02 1195.9 2.2382 2.6850 3.0753 1668.0 -0.0048391 198.38 0.18848 590.00 0.0016949 719.02 1195.9 2.2382 2.6850 3.0753 1668.0 -0.0048391 198.38 0.18848
260.38 40921. undefined 721.71 1199.9 2.2432 590.00 0.0016949 721.71 1199.9 2.2432 2.6886 3.0785 1669.0 -0.0048348 198.38 0.18870 590.00 0.0016949 721.71 1199.9 2.2432 2.6886 3.0785 1669.0 -0.0048348 198.38 0.18870
261.38 41035. undefined 724.40 1203.9 2.2482 590.00 0.0016949 724.40 1203.9 2.2482 2.6922 3.0817 1670.0 -0.0048305 198.38 0.18892 590.00 0.0016949 724.40 1203.9 2.2482 2.6922 3.0817 1670.0 -0.0048305 198.38 0.18892
262.38 41149. undefined 727.09 1208.0 2.2533 590.00 0.0016949 727.09 1208.0 2.2533 2.6958 3.0849 1671.0 -0.0048263 198.38 0.18915 590.00 0.0016949 727.09 1208.0 2.2533 2.6958 3.0849 1671.0 -0.0048263 198.38 0.18915
263.38 41263. undefined 729.79 1212.0 2.2583 590.00 0.0016949 729.79 1212.0 2.2583 2.6995 3.0881 1672.0 -0.0048220 198.38 0.18937 590.00 0.0016949 729.79 1212.0 2.2583 2.6995 3.0881 1672.0 -0.0048220 198.38 0.18937
264.38 41377. undefined 732.49 1216.0 2.2633 590.00 0.0016949 732.49 1216.0 2.2633 2.7031 3.0913 1673.0 -0.0048178 198.38 0.18959 590.00 0.0016949 732.49 1216.0 2.2633 2.7031 3.0913 1673.0 -0.0048178 198.38 0.18959
265.38 41490. undefined 735.20 1220.1 2.2684 590.00 0.0016949 735.20 1220.1 2.2684 2.7067 3.0944 1674.0 -0.0048135 198.38 0.18982 590.00 0.0016949 735.20 1220.1 2.2684 2.7067 3.0944 1674.0 -0.0048135 198.38 0.18982
266.38 41604. undefined 737.91 1224.1 2.2734 590.00 0.0016949 737.91 1224.1 2.2734 2.7103 3.0976 1675.0 -0.0048093 198.38 0.19004 590.00 0.0016949 737.91 1224.1 2.2734 2.7103 3.0976 1675.0 -0.0048093 198.38 0.19004
267.38 41718. undefined 740.62 1228.1 2.2784 590.00 0.0016949 740.62 1228.1 2.2784 2.7139 3.1008 1676.0 -0.0048051 198.38 0.19026 590.00 0.0016949 740.62 1228.1 2.2784 2.7139 3.1008 1676.0 -0.0048051 198.38 0.19026
268.38 41831. undefined 743.33 1232.2 2.2834 590.00 0.0016949 743.33 1232.2 2.2834 2.7175 3.1040 1677.0 -0.0048009 198.38 0.19049 590.00 0.0016949 743.33 1232.2 2.2834 2.7175 3.1040 1677.0 -0.0048009 198.38 0.19049
269.38 41945. undefined 746.05 1236.2 2.2885 590.00 0.0016949 746.05 1236.2 2.2885 2.7211 3.1072 1678.0 -0.0047967 198.38 0.19071 590.00 0.0016949 746.05 1236.2 2.2885 2.7211 3.1072 1678.0 -0.0047967 198.38 0.19071
270.38 42058. undefined 748.78 1240.3 2.2935 590.00 0.0016949 748.78 1240.3 2.2935 2.7246 3.1103 1679.0 -0.0047925 198.37 0.19094 590.00 0.0016949 748.78 1240.3 2.2935 2.7246 3.1103 1679.0 -0.0047925 198.37 0.19094
271.38 42171. undefined 751.50 1244.3 2.2985 590.00 0.0016949 751.50 1244.3 2.2985 2.7282 3.1135 1680.0 -0.0047883 198.37 0.19116 590.00 0.0016949 751.50 1244.3 2.2985 2.7282 3.1135 1680.0 -0.0047883 198.37 0.19116
272.38 42284. undefined 754.23 1248.4 2.3035 590.00 0.0016949 754.23 1248.4 2.3035 2.7318 3.1167 1681.0 -0.0047841 198.37 0.19139 590.00 0.0016949 754.23 1248.4 2.3035 2.7318 3.1167 1681.0 -0.0047841 198.37 0.19139
273.38 42397. undefined 756.97 1252.4 2.3085 590.00 0.0016949 756.97 1252.4 2.3085 2.7353 3.1198 1682.0 -0.0047800 198.37 0.19161 590.00 0.0016949 756.97 1252.4 2.3085 2.7353 3.1198 1682.0 -0.0047800 198.37 0.19161
274.38 42510. undefined 759.70 1256.5 2.3135 590.00 0.0016949 759.70 1256.5 2.3135 2.7389 3.1230 1683.0 -0.0047758 198.37 0.19184 590.00 0.0016949 759.70 1256.5 2.3135 2.7389 3.1230 1683.0 -0.0047758 198.37 0.19184
275.38 42623. undefined 762.44 1260.5 2.3185 590.00 0.0016949 762.44 1260.5 2.3185 2.7425 3.1261 1684.0 -0.0047717 198.37 0.19206 590.00 0.0016949 762.44 1260.5 2.3185 2.7425 3.1261 1684.0 -0.0047717 198.37 0.19206
276.38 42736. undefined 765.19 1264.6 2.3235 590.00 0.0016949 765.19 1264.6 2.3235 2.7460 3.1293 1685.0 -0.0047676 198.37 0.19229 590.00 0.0016949 765.19 1264.6 2.3235 2.7460 3.1293 1685.0 -0.0047676 198.37 0.19229
277.38 42849. undefined 767.94 1268.7 2.3285 590.00 0.0016949 767.94 1268.7 2.3285 2.7496 3.1324 1686.0 -0.0047635 198.38 0.19252 590.00 0.0016949 767.94 1268.7 2.3285 2.7496 3.1324 1686.0 -0.0047635 198.38 0.19252
278.38 42962. undefined 770.69 1272.7 2.3335 590.00 0.0016949 770.69 1272.7 2.3335 2.7531 3.1356 1687.0 -0.0047593 198.38 0.19274 590.00 0.0016949 770.69 1272.7 2.3335 2.7531 3.1356 1687.0 -0.0047593 198.38 0.19274
279.38 43074. undefined 773.44 1276.8 2.3385 590.00 0.0016949 773.44 1276.8 2.3385 2.7566 3.1387 1687.9 -0.0047553 198.38 0.19297 590.00 0.0016949 773.44 1276.8 2.3385 2.7566 3.1387 1687.9 -0.0047553 198.38 0.19297
280.38 43187. undefined 776.20 1280.9 2.3435 590.00 0.0016949 776.20 1280.9 2.3435 2.7602 3.1418 1688.9 -0.0047512 198.38 0.19320 590.00 0.0016949 776.20 1280.9 2.3435 2.7602 3.1418 1688.9 -0.0047512 198.38 0.19320
281.38 43299. undefined 778.96 1285.0 2.3485 590.00 0.0016949 778.96 1285.0 2.3485 2.7637 3.1450 1689.9 -0.0047471 198.38 0.19343 590.00 0.0016949 778.96 1285.0 2.3485 2.7637 3.1450 1689.9 -0.0047471 198.38 0.19343
282.38 43411. undefined 781.73 1289.0 2.3534 590.00 0.0016949 781.73 1289.0 2.3534 2.7672 3.1481 1690.9 -0.0047430 198.38 0.19346 590.00 0.0016949 781.73 1289.0 2.3534 2.7672 3.1481 1690.9 -0.0047430 198.38 0.19346
283.38 43524. undefined 784.50 1293.1 2.3584 590.00 0.0016949 784.50 1293.1 2.3584 2.7707 3.1512 1691.9 -0.0047390 198.38 0.19368 590.00 0.0016949 784.50 1293.1 2.3584 2.7707 3.1512 1691.9 -0.0047390 198.38 0.19368
284.38 43636. undefined 787.27 1297.2 2.3634 590.00 0.0016949 787.27 1297.2 2.3634 2.7742 3.1543 1692.9 -0.0047349 198.38 0.19391 590.00 0.0016949 787.27 1297.2 2.3634 2.7742 3.1543 1692.9 -0.0047349 198.38 0.19391
285.38 43748. undefined 790.04 1301.3 2.3684 590.00 0.0016949 790.04 1301.3 2.3684 2.7777 3.1574 1693.8 -0.0047309 198.38 0.19414 590.00 0.0016949 790.04 1301.3 2.3684 2.7777 3.1574 1693.8 -0.0047309 198.38 0.19414
286.38 43860. undefined 792.82 1305.4 2.3733 590.00 0.0016949 792.82 1305.4 2.3733 2.7812 3.1606 1694.8 -0.0047269 198.38 0.19437 590.00 0.0016949 792.82 1305.4 2.3733 2.7812 3.1606 1694.8 -0.0047269 198.38 0.19437
287.38 43972. undefined 795.61 1309.5 2.3783 590.00 0.0016949 795.61 1309.5 2.3783 2.7847 3.1637 1695.8 -0.0047229 198.38 0.19460 590.00 0.0016949 795.61 1309.5 2.3783 2.7847 3.1637 1695.8 -0.0047229 198.38 0.19460
288.38 44084. undefined 798.39 1313.6 2.3833 590.00 0.0016949 798.39 1313.6 2.3833 2.7882 3.1668 1696.8 -0.0047189 198.38 0.19483 590.00 0.0016949 798.39 1313.6 2.3833 2.7882 3.1668 1696.8 -0.0047189 198.38 0.19483
289.38 44196. undefined 801.18 1317.7 2.3882 590.00 0.0016949 801.18 1317.7 2.3882 2.7917 3.1699 1697.7 -0.0047149 198.39 0.19506 590.00 0.0016949 801.18 1317.7 2.3882 2.7917 3.1699 1697.7 -0.0047149 198.39 0.19506
290.38 44308. undefined 803.98 1321.8 2.3932 590.00 0.0016949 803.98 1321.8 2.3932 2.7952 3.1730 1698.7 -0.0047109 198.39 0.19529 590.00 0.0016949 803.98 1321.8 2.3932 2.7952 3.1730 1698.7 -0.0047109 198.39 0.19529
291.38 44419. undefined 806.77 1325.9 2.3982 590.00 0.0016949 806.77 1325.9 2.3982 2.7987 3.1761 1699.7 -0.0047069 198.39 0.19552 590.00 0.0016949 806.77 1325.9 2.3982 2.7987 3.1761 1699.7 -0.0047069 198.39 0.19552
292.38 44531. undefined 809.57 1330.0 2.4031 590.00 0.0016949 809.57 1330.0 2.4031 2.8021 3.1791 1700.6 -0.0047030 198.39 0.19575 590.00 0.0016949 809.57 1330.0 2.4031 2.8021 3.1791 1700.6 -0.0047030 198.39 0.19575
293.38 44642. undefined 812.38 1334.1 2.4081 590.00 0.0016949 812.38 1334.1 2.4081 2.8056 3.1822 1701.6 -0.0046990 198.39 0.19598 590.00 0.0016949 812.38 1334.1 2.4081 2.8056 3.1822 1701.6 -0.0046990 198.39 0.19598
294.38 44754. undefined 815.19 1338.2 2.4130 590.00 0.0016949 815.19 1338.2 2.4130 2.8091 3.1853 1702.6 -0.0046951 198.39 0.19621 590.00 0.0016949 815.19 1338.2 2.4130 2.8091 3.1853 1702.6 -0.0046951 198.39 0.19621
295.38 44865. undefined 818.00 1342.3 2.4180 590.00 0.0016949 818.00 1342.3 2.4180 2.8125 3.1884 1703.5 -0.0046912 198.40 0.19644 590.00 0.0016949 818.00 1342.3 2.4180 2.8125 3.1884 1703.5 -0.0046912 198.40 0.19644
296.38 44976. undefined 820.81 1346.4 2.4229 590.00 0.0016949 820.81 1346.4 2.4229 2.8160 3.1915 1704.5 -0.0046873 198.40 0.19667 590.00 0.0016949 820.81 1346.4 2.4229 2.8160 3.1915 1704.5 -0.0046873 198.40 0.19667
297.38 45088. undefined 823.63 1350.5 2.4279 590.00 0.0016949 823.63 1350.5 2.4279 2.8194 3.1945 1705.5 -0.0046833 198.40 0.19690 590.00 0.0016949 823.63 1350.5 2.4279 2.8194 3.1945 1705.5 -0.0046833 198.40 0.19690
298.38 45199. undefined 826.45 1354.6 2.4328 590.00 0.0016949 826.45 1354.6 2.4328 2.8228 3.1976 1706.4 -0.0046794 198.40 0.19714 590.00 0.0016949 826.45 1354.6 2.4328 2.8228 3.1976 1706.4 -0.0046794 198.40 0.19714
299.38 45310. undefined 829.27 1358.8 2.4377 590.00 0.0016949 829.27 1358.8 2.4377 2.8263 3.2007 1707.4 -0.0046756 198.40 0.19737 590.00 0.0016949 829.27 1358.8 2.4377 2.8263 3.2007 1707.4 -0.0046756 198.40 0.19737
300.38 45421. undefined 832.10 1362.9 2.4427 590.00 0.0016949 832.10 1362.9 2.4427 2.8297 3.2037 1708.4 -0.0046717 198.41 0.19760 590.00 0.0016949 832.10 1362.9 2.4427 2.8297 3.2037 1708.4 -0.0046717 198.41 0.19760