Temperature (C) Pressure (psia) Quality (l+v) Internal Energy (l+v, kJ/kg) Enthalpy (l+v, kJ/kg) Entropy (l+v, J/g*K) Density (l, kg/m3) Volume (l, m3/kg) Internal Energy (l, kJ/kg) Enthalpy (l, kJ/kg) Entropy (l, J/g*K) Cv (l, J/g*K) Cp (l, J/g*K) Sound Spd. (l, m/s) Joule-Thomson (l, F/psia) Viscosity (l, uPa*s) Therm. Cond. (l, W/m*K) Density (v, kg/m3) Volume (v, m3/kg) Internal Energy (v, kJ/kg) Enthalpy (v, kJ/kg) Entropy (v, J/g*K) Cv (v, J/g*K) Cp (v, J/g*K) Sound Spd. (v, m/s) Joule-Thomson (v, F/psia) Viscosity (v, uPa*s) Therm. Cond. (v, W/m*K)
-187.62 2.4953e-08 2.9373e-12 -196.64 -196.64 -1.3959 733.13 0.0013640 -196.64 -196.64 -1.3959 1.3553 1.9158 2136.4 -0.0077592 10960. 0.20792 1.0669e-08 9.3732e+07 350.13 366.26 5.1858 0.69067 0.87923 143.28 6.1051 2.3259 0.0017061
-186.62 3.7339e-08 4.3139e-12 -194.73 -194.73 -1.3736 732.08 0.0013660 -194.73 -194.73 -1.3736 1.3539 1.9166 2129.6 -0.0077546 10073. 0.20765 1.5780e-08 6.3371e+07 350.82 367.14 5.1200 0.69462 0.88317 144.03 5.9178 2.3534 0.0017533
-185.62 5.5322e-08 6.2734e-12 -192.81 -192.81 -1.3516 731.04 0.0013679 -192.81 -192.81 -1.3516 1.3525 1.9174 2122.9 -0.0077498 9276.1 0.20737 2.3112e-08 4.3267e+07 351.52 368.02 5.0561 0.69857 0.88713 144.77 5.7383 2.3808 0.0018007
-184.62 8.1182e-08 9.0365e-12 -190.89 -190.89 -1.3298 730.00 0.0013699 -190.89 -190.89 -1.3298 1.3513 1.9182 2116.1 -0.0077448 8557.8 0.20708 3.3533e-08 2.9821e+07 352.22 368.91 4.9939 0.70253 0.89108 145.51 5.5662 2.4083 0.0018485
-183.62 1.1803e-07 1.2898e-11 -188.97 -188.97 -1.3083 728.96 0.0013718 -188.97 -188.97 -1.3083 1.3501 1.9191 2109.3 -0.0077395 7909.8 0.20678 4.8211e-08 2.0742e+07 352.92 369.81 4.9333 0.70648 0.89504 146.24 5.4011 2.4357 0.0018965
-182.62 1.7009e-07 1.8246e-11 -187.05 -187.05 -1.2869 727.92 0.0013738 -187.05 -187.05 -1.2869 1.3490 1.9201 2102.5 -0.0077340 7324.3 0.20647 6.8704e-08 1.4555e+07 353.63 370.70 4.8744 0.71043 0.89899 146.97 5.2426 2.4632 0.0019448
-181.62 2.4299e-07 2.5591e-11 -185.13 -185.13 -1.2658 726.88 0.0013757 -185.13 -185.13 -1.2658 1.3480 1.9210 2095.7 -0.0077283 6794.5 0.20616 9.7079e-08 1.0301e+07 354.35 371.60 4.8170 0.71438 0.90294 147.69 5.0904 2.4906 0.0019934
-180.62 3.4425e-07 3.5596e-11 -183.21 -183.21 -1.2450 725.85 0.0013777 -183.21 -183.21 -1.2450 1.3470 1.9220 2088.9 -0.0077225 6314.4 0.20584 1.3605e-07 7.3504e+06 355.06 372.51 4.7612 0.71833 0.90688 148.41 4.9442 2.5181 0.0020423
-179.62 4.8378e-07 4.9118e-11 -181.29 -181.29 -1.2243 724.81 0.0013797 -181.29 -181.29 -1.2243 1.3461 1.9231 2082.0 -0.0077164 5878.8 0.20551 1.8915e-07 5.2868e+06 355.78 373.42 4.7068 0.72227 0.91082 149.13 4.8038 2.5456 0.0020915
-178.62 6.7459e-07 6.7253e-11 -179.37 -179.37 -1.2038 723.78 0.0013816 -179.37 -179.37 -1.2038 1.3453 1.9241 2075.2 -0.0077102 5482.9 0.20517 2.6096e-07 3.8320e+06 356.51 374.33 4.6538 0.72620 0.91475 149.84 4.6688 2.5731 0.0021410
-177.62 9.3358e-07 9.1393e-11 -177.44 -177.44 -1.1836 722.75 0.0013836 -177.44 -177.44 -1.1836 1.3445 1.9252 2068.4 -0.0077039 5122.6 0.20483 3.5737e-07 2.7982e+06 357.23 375.25 4.6022 0.73012 0.91867 150.54 4.5390 2.6005 0.0021907
-176.62 1.2826e-06 1.2330e-10 -175.52 -175.52 -1.1635 721.72 0.0013856 -175.52 -175.52 -1.1635 1.3437 1.9263 2061.5 -0.0076973 4794.1 0.20447 4.8588e-07 2.0581e+06 357.97 376.17 4.5519 0.73403 0.92258 151.25 4.4142 2.6280 0.0022408
-175.62 1.7496e-06 1.6518e-10 -173.59 -173.59 -1.1437 720.69 0.0013876 -173.59 -173.59 -1.1437 1.3430 1.9274 2054.7 -0.0076907 4494.3 0.20411 6.5601e-07 1.5244e+06 358.70 377.09 4.5029 0.73792 0.92648 151.95 4.2941 2.6555 0.0022912
-174.62 2.3705e-06 2.1977e-10 -171.66 -171.66 -1.1240 719.66 0.0013895 -171.66 -171.66 -1.1240 1.3423 1.9286 2047.9 -0.0076838 4220.2 0.20375 8.7976e-07 1.1367e+06 359.44 378.02 4.4551 0.74181 0.93036 152.64 4.1784 2.6830 0.0023418
-173.62 3.1903e-06 2.9048e-10 -169.73 -169.73 -1.1045 718.64 0.0013915 -169.73 -169.73 -1.1045 1.3417 1.9298 2041.0 -0.0076769 3969.3 0.20338 1.1721e-06 8.5314e+05 360.19 378.95 4.4085 0.74568 0.93423 153.33 4.0671 2.7105 0.0023928
-172.62 4.2661e-06 3.8148e-10 -167.80 -167.80 -1.0852 717.61 0.0013935 -167.80 -167.80 -1.0852 1.3411 1.9310 2034.2 -0.0076698 3739.3 0.20300 1.5518e-06 6.4441e+05 360.93 379.89 4.3631 0.74953 0.93809 154.02 3.9599 2.7379 0.0024440
-171.62 5.6692e-06 4.9789e-10 -165.87 -165.87 -1.0661 716.58 0.0013955 -165.87 -165.87 -1.0661 1.3405 1.9322 2027.3 -0.0076625 3528.0 0.20261 2.0419e-06 4.8974e+05 361.69 380.83 4.3188 0.75337 0.94193 154.71 3.8566 2.7654 0.0024955
-170.62 7.4884e-06 6.4590e-10 -163.94 -163.94 -1.0472 715.56 0.0013975 -163.94 -163.94 -1.0472 1.3400 1.9334 2020.5 -0.0076552 3333.8 0.20222 2.6708e-06 3.7442e+05 362.44 381.77 4.2755 0.75720 0.94575 155.39 3.7570 2.7929 0.0025473
-169.62 9.8334e-06 8.3302e-10 -162.00 -162.00 -1.0284 714.54 0.0013995 -162.00 -162.00 -1.0284 1.3395 1.9347 2013.6 -0.0076477 3154.9 0.20182 3.4733e-06 2.8791e+05 363.20 382.72 4.2334 0.76100 0.94956 156.07 3.6609 2.8204 0.0025994
-168.62 1.2839e-05 1.0683e-09 -160.07 -160.07 -1.0098 713.52 0.0014015 -160.07 -160.07 -1.0098 1.3390 1.9359 2006.8 -0.0076401 2989.9 0.20141 4.4917e-06 2.2263e+05 363.96 383.67 4.1922 0.76479 0.95335 156.74 3.5683 2.8479 0.0026518
-167.62 1.6672e-05 1.3624e-09 -158.13 -158.13 -0.99134 712.49 0.0014035 -158.13 -158.13 -0.99134 1.3386 1.9372 2000.0 -0.0076323 2837.5 0.20100 5.7771e-06 1.7310e+05 364.73 384.63 4.1521 0.76856 0.95712 157.41 3.4790 2.8754 0.0027045
-166.62 2.1533e-05 1.7282e-09 -156.19 -156.19 -0.97306 711.47 0.0014055 -156.19 -156.19 -0.97306 1.3382 1.9385 1993.1 -0.0076245 2696.5 0.20058 7.3914e-06 1.3529e+05 365.50 385.59 4.1129 0.77232 0.96087 158.08 3.3927 2.9029 0.0027575
-165.62 2.7666e-05 2.1808e-09 -154.25 -154.25 -0.95494 710.45 0.0014075 -154.25 -154.25 -0.95494 1.3378 1.9398 1986.3 -0.0076165 2566.0 0.20016 9.4084e-06 1.0629e+05 366.27 386.55 4.0746 0.77605 0.96460 158.75 3.3095 2.9304 0.0028108
-164.62 3.5367e-05 2.7381e-09 -152.31 -152.31 -0.93698 709.44 0.0014096 -152.31 -152.31 -0.93698 1.3375 1.9411 1979.4 -0.0076084 2444.9 0.19973 1.1916e-05 83918. 367.05 387.52 4.0372 0.77976 0.96832 159.41 3.2291 2.9579 0.0028643
-163.62 4.4989e-05 3.4208e-09 -150.37 -150.37 -0.91917 708.42 0.0014116 -150.37 -150.37 -0.91917 1.3371 1.9424 1972.6 -0.0076002 2332.3 0.19930 1.5020e-05 66577. 367.83 388.49 4.0008 0.78346 0.97201 160.07 3.1514 2.9854 0.0029182
-162.62 5.6956e-05 4.2533e-09 -148.43 -148.43 -0.90151 707.40 0.0014136 -148.43 -148.43 -0.90151 1.3368 1.9437 1965.8 -0.0075919 2227.7 0.19886 1.8844e-05 53068. 368.62 389.46 3.9651 0.78713 0.97569 160.72 3.0764 3.0129 0.0029723
-161.62 7.1773e-05 5.2639e-09 -146.48 -146.48 -0.88400 706.38 0.0014157 -146.48 -146.48 -0.88400 1.3365 1.9451 1959.0 -0.0075834 2130.2 0.19841 2.3533e-05 42494. 369.41 390.44 3.9304 0.79079 0.97935 161.38 3.0038 3.0404 0.0030268
-160.62 9.0036e-05 6.4850e-09 -144.54 -144.54 -0.86663 705.37 0.0014177 -144.54 -144.54 -0.86663 1.3363 1.9465 1952.1 -0.0075748 2039.2 0.19796 2.9258e-05 34178. 370.20 391.42 3.8964 0.79443 0.98298 162.03 2.9337 3.0679 0.0030815
-159.62 0.00011245 7.9542e-09 -142.59 -142.59 -0.84940 704.35 0.0014197 -142.59 -142.59 -0.84940 1.3360 1.9478 1945.3 -0.0075661 1954.2 0.19751 3.6221e-05 27609. 371.00 392.40 3.8632 0.79805 0.98660 162.68 2.8658 3.0955 0.0031365
-158.62 0.00013985 9.7142e-09 -140.64 -140.64 -0.83231 703.34 0.0014218 -140.64 -140.64 -0.83231 1.3358 1.9492 1938.5 -0.0075573 1874.8 0.19705 4.4652e-05 22395. 371.80 393.39 3.8307 0.80164 0.99020 163.32 2.8002 3.1230 0.0031918
-157.62 0.00017320 1.1814e-08 -138.69 -138.69 -0.81536 702.32 0.0014238 -138.69 -138.69 -0.81536 1.3356 1.9506 1931.7 -0.0075484 1800.3 0.19658 5.4822e-05 18241. 372.60 394.38 3.7990 0.80522 0.99378 163.96 2.7367 3.1505 0.0032474
-156.62 0.00021364 1.4309e-08 -136.74 -136.74 -0.79854 701.31 0.0014259 -136.74 -136.74 -0.79854 1.3354 1.9520 1924.9 -0.0075393 1730.5 0.19611 6.7040e-05 14916. 373.41 395.38 3.7680 0.80878 0.99734 164.60 2.6752 3.1780 0.0033033
-155.62 0.00026248 1.7263e-08 -134.79 -134.79 -0.78185 700.30 0.0014280 -134.79 -134.79 -0.78185 1.3352 1.9534 1918.1 -0.0075302 1664.9 0.19564 8.1666e-05 12245. 374.22 396.38 3.7377 0.81232 1.0009 165.24 2.6157 3.2055 0.0033595
-154.62 0.00032125 2.0745e-08 -132.83 -132.83 -0.76530 699.29 0.0014300 -132.83 -132.83 -0.76530 1.3350 1.9548 1911.3 -0.0075209 1603.3 0.19516 9.9109e-05 10090. 375.03 397.38 3.7081 0.81585 1.0044 165.87 2.5580 3.2330 0.0034160
-153.62 0.00039171 2.4835e-08 -130.88 -130.88 -0.74887 698.27 0.0014321 -130.88 -130.88 -0.74887 1.3349 1.9563 1904.5 -0.0075114 1545.3 0.19468 0.00011984 8344.6 375.85 398.39 3.6792 0.81935 1.0079 166.50 2.5022 3.2606 0.0034727
-152.62 0.00047590 2.9622e-08 -128.92 -128.92 -0.73256 697.26 0.0014342 -128.92 -128.92 -0.73256 1.3348 1.9577 1897.8 -0.0075019 1490.6 0.19419 0.00014439 6925.9 376.67 399.40 3.6509 0.82284 1.0114 167.13 2.4481 3.2881 0.0035298
-151.62 0.00057613 3.5205e-08 -126.96 -126.96 -0.71638 696.25 0.0014363 -126.96 -126.96 -0.71638 1.3346 1.9592 1891.0 -0.0074922 1438.9 0.19370 0.00017336 5768.4 377.49 400.41 3.6232 0.82631 1.0149 167.76 2.3957 3.3156 0.0035872
-150.62 0.00069507 4.1693e-08 -125.00 -125.00 -0.70032 695.24 0.0014384 -125.00 -125.00 -0.70032 1.3345 1.9606 1884.2 -0.0074824 1390.2 0.19320 0.00020744 4820.7 378.32 401.42 3.5962 0.82976 1.0183 168.38 2.3448 3.3431 0.0036448
-149.62 0.00083574 4.9207e-08 -123.04 -123.04 -0.68438 694.23 0.0014404 -123.04 -123.04 -0.68438 1.3345 1.9621 1877.4 -0.0074724 1344.0 0.19270 0.00024740 4042.0 379.15 402.44 3.5697 0.83319 1.0218 169.00 2.2956 3.3706 0.0037027
-148.62 0.0010016 5.7881e-08 -121.08 -121.08 -0.66855 693.22 0.0014425 -121.08 -121.08 -0.66855 1.3344 1.9636 1870.7 -0.0074623 1300.3 0.19220 0.00029412 3400.0 379.99 403.47 3.5438 0.83661 1.0252 169.62 2.2478 3.3982 0.0037610
-147.62 0.0011965 6.7860e-08 -119.11 -119.11 -0.65284 692.21 0.0014447 -119.11 -119.11 -0.65284 1.3343 1.9651 1863.9 -0.0074521 1258.9 0.19169 0.00034856 2869.0 380.83 404.49 3.5185 0.84001 1.0286 170.24 2.2014 3.4257 0.0038195
-146.62 0.0014249 7.9306e-08 -117.15 -117.15 -0.63724 691.20 0.0014468 -117.15 -117.15 -0.63724 1.3343 1.9666 1857.2 -0.0074417 1219.6 0.19117 0.00041181 2428.3 381.67 405.52 3.4938 0.84340 1.0320 170.85 2.1565 3.4532 0.0038783
-145.62 0.0016917 9.2392e-08 -115.18 -115.18 -0.62175 690.19 0.0014489 -115.18 -115.18 -0.62175 1.3343 1.9682 1850.4 -0.0074312 1182.3 0.19066 0.00048510 2061.4 382.51 406.56 3.4695 0.84677 1.0353 171.46 2.1128 3.4807 0.0039374
-144.62 0.0020026 1.0731e-07 -113.21 -113.21 -0.60637 689.18 0.0014510 -113.21 -113.21 -0.60637 1.3343 1.9697 1843.7 -0.0074206 1146.8 0.19014 0.00056976 1755.1 383.36 407.59 3.4458 0.85012 1.0387 172.07 2.0705 3.5082 0.0039967
-143.62 0.0023637 1.2426e-07 -111.24 -111.24 -0.59110 688.17 0.0014531 -111.24 -111.24 -0.59110 1.3343 1.9713 1836.9 -0.0074098 1113.0 0.18962 0.00066731 1498.6 384.21 408.63 3.4226 0.85346 1.0420 172.68 2.0294 3.5358 0.0040564
-142.62 0.0027820 1.4346e-07 -109.27 -109.27 -0.57593 687.16 0.0014553 -109.27 -109.27 -0.57593 1.3343 1.9728 1830.2 -0.0073988 1080.8 0.18909 0.00077939 1283.1 385.07 409.68 3.3999 0.85679 1.0454 173.28 1.9896 3.5633 0.0041164
-141.62 0.0032653 1.6517e-07 -107.30 -107.30 -0.56087 686.15 0.0014574 -107.30 -107.30 -0.56087 1.3343 1.9744 1823.5 -0.0073878 1050.1 0.18856 0.00090784 1101.5 385.93 410.72 3.3777 0.86011 1.0487 173.88 1.9508 3.5908 0.0041766
-140.62 0.0038222 1.8961e-07 -105.32 -105.32 -0.54591 685.14 0.0014596 -105.32 -105.32 -0.54591 1.3344 1.9760 1816.7 -0.0073765 1020.7 0.18803 0.0010547 948.16 386.79 411.77 3.3560 0.86341 1.0520 174.48 1.9133 3.6183 0.0042372
-139.62 0.0044623 2.1708e-07 -103.34 -103.34 -0.53105 684.13 0.0014617 -103.34 -103.34 -0.53105 1.3344 1.9776 1810.0 -0.0073651 992.74 0.18749 0.0012221 818.26 387.65 412.83 3.3347 0.86670 1.0553 175.08 1.8768 3.6459 0.0042980
-138.62 0.0051963 2.4786e-07 -101.37 -101.37 -0.51629 683.12 0.0014639 -101.37 -101.37 -0.51629 1.3345 1.9792 1803.3 -0.0073536 965.97 0.18695 0.0014125 707.94 388.52 413.88 3.3139 0.86998 1.0586 175.67 1.8413 3.6734 0.0043592
-137.62 0.0060358 2.8225e-07 -99.386 -99.386 -0.50162 682.11 0.0014660 -99.386 -99.386 -0.50162 1.3346 1.9808 1796.6 -0.0073419 940.35 0.18641 0.0016287 614.00 389.39 414.94 3.2935 0.87325 1.0619 176.26 1.8069 3.7009 0.0044206
-136.62 0.0069938 3.2058e-07 -97.404 -97.404 -0.48705 681.10 0.0014682 -97.404 -97.404 -0.48705 1.3347 1.9825 1789.9 -0.0073301 915.81 0.18586 0.0018733 533.80 390.26 416.00 3.2735 0.87650 1.0651 176.85 1.7734 3.7284 0.0044823
-135.62 0.0080843 3.6319e-07 -95.421 -95.421 -0.47258 680.09 0.0014704 -95.421 -95.421 -0.47258 1.3348 1.9841 1783.2 -0.0073180 892.30 0.18531 0.0021497 465.17 391.14 417.07 3.2540 0.87975 1.0684 177.44 1.7409 3.7559 0.0045443
-134.62 0.0093230 4.1044e-07 -93.436 -93.436 -0.45820 679.08 0.0014726 -93.436 -93.436 -0.45820 1.3350 1.9858 1776.5 -0.0073059 869.75 0.18476 0.0024613 406.30 392.02 418.14 3.2348 0.88299 1.0716 178.02 1.7093 3.7834 0.0046066
-133.62 0.010727 4.6269e-07 -91.449 -91.449 -0.44391 678.07 0.0014748 -91.450 -91.449 -0.44391 1.3351 1.9875 1769.8 -0.0072935 848.11 0.18421 0.0028116 355.67 392.91 419.21 3.2161 0.88622 1.0749 178.61 1.6786 3.8109 0.0046691
-132.62 0.012315 5.2034e-07 -89.461 -89.461 -0.42971 677.06 0.0014770 -89.461 -89.461 -0.42971 1.3353 1.9892 1763.1 -0.0072810 827.32 0.18365 0.0032049 312.03 393.79 420.29 3.1977 0.88944 1.0781 179.19 1.6488 3.8385 0.0047320
-131.62 0.014106 5.8379e-07 -87.471 -87.471 -0.41559 676.04 0.0014792 -87.471 -87.471 -0.41560 1.3354 1.9909 1756.4 -0.0072684 807.34 0.18309 0.0036453 274.33 394.68 421.36 3.1798 0.89266 1.0813 179.76 1.6197 3.8660 0.0047951
-130.62 0.016124 6.5346e-07 -85.479 -85.479 -0.40157 675.03 0.0014814 -85.479 -85.479 -0.40157 1.3356 1.9926 1749.7 -0.0072555 788.12 0.18253 0.0041375 241.69 395.58 422.44 3.1622 0.89586 1.0846 180.34 1.5915 3.8935 0.0048586
-129.62 0.018392 7.2977e-07 -83.486 -83.485 -0.38763 674.02 0.0014836 -83.486 -83.486 -0.38763 1.3358 1.9944 1743.0 -0.0072425 769.63 0.18196 0.0046867 213.37 396.47 423.53 3.1450 0.89906 1.0878 180.91 1.5641 3.9210 0.0049223
-128.62 0.020935 8.1315e-07 -81.490 -81.490 -0.37378 673.01 0.0014859 -81.491 -81.490 -0.37378 1.3360 1.9961 1736.3 -0.0072294 751.83 0.18140 0.0052981 188.75 397.37 424.62 3.1281 0.90226 1.0910 181.48 1.5374 3.9485 0.0049863
-127.62 0.023783 9.0405e-07 -79.493 -79.493 -0.36001 672.00 0.0014881 -79.494 -79.493 -0.36001 1.3363 1.9979 1729.6 -0.0072160 734.67 0.18083 0.0059776 167.29 398.27 425.71 3.1116 0.90545 1.0942 182.05 1.5114 3.9760 0.0050506
-126.62 0.026966 1.0029e-06 -77.494 -77.494 -0.34632 670.98 0.0014904 -77.495 -77.495 -0.34632 1.3365 1.9997 1722.9 -0.0072025 718.14 0.18025 0.0067313 148.56 399.18 426.80 3.0954 0.90863 1.0974 182.62 1.4861 4.0035 0.0051152
-125.62 0.030515 1.1102e-06 -75.494 -75.493 -0.33271 669.97 0.0014926 -75.494 -75.494 -0.33272 1.3368 2.0015 1716.2 -0.0071888 702.18 0.17968 0.0075660 132.17 400.09 427.89 3.0795 0.91181 1.1006 183.18 1.4615 4.0310 0.0051800
-124.62 0.034467 1.2264e-06 -73.491 -73.491 -0.31918 668.95 0.0014949 -73.492 -73.492 -0.31919 1.3371 2.0033 1709.5 -0.0071749 686.79 0.17910 0.0084885 117.81 401.00 428.99 3.0640 0.91499 1.1038 183.74 1.4375 4.0584 0.0052452
-123.62 0.038859 1.3519e-06 -71.487 -71.487 -0.30573 667.94 0.0014971 -71.488 -71.487 -0.30574 1.3374 2.0051 1702.8 -0.0071609 671.93 0.17852 0.0095065 105.19 401.91 430.10 3.0488 0.91816 1.1070 184.30 1.4141 4.0859 0.0053106
-122.62 0.043731 1.4871e-06 -69.481 -69.480 -0.29236 666.92 0.0014994 -69.482 -69.481 -0.29237 1.3377 2.0070 1696.2 -0.0071466 657.57 0.17794 0.010628 94.092 402.83 431.20 3.0339 0.92134 1.1102 184.86 1.3913 4.1134 0.0053764
-121.62 0.049128 1.6326e-06 -67.473 -67.472 -0.27907 665.91 0.0015017 -67.474 -67.473 -0.27907 1.3380 2.0089 1689.5 -0.0071322 643.70 0.17736 0.011861 84.309 403.75 432.31 3.0193 0.92451 1.1134 185.41 1.3691 4.1409 0.0054424
-120.62 0.055096 1.7886e-06 -65.463 -65.462 -0.26585 664.89 0.0015040 -65.464 -65.463 -0.26585 1.3384 2.0107 1682.8 -0.0071176 630.28 0.17678 0.013215 75.669 404.67 433.42 3.0050 0.92767 1.1166 185.96 1.3475 4.1683 0.0055087
-119.62 0.061684 1.9557e-06 -63.451 -63.451 -0.25270 663.87 0.0015063 -63.452 -63.452 -0.25271 1.3387 2.0126 1676.1 -0.0071028 617.30 0.17619 0.014700 68.027 405.60 434.53 2.9909 0.93084 1.1198 186.51 1.3264 4.1958 0.0055752
-118.62 0.068946 2.1341e-06 -61.438 -61.437 -0.23963 662.86 0.0015086 -61.439 -61.438 -0.23963 1.3391 2.0146 1669.4 -0.0070878 604.74 0.17560 0.016325 61.255 406.53 435.64 2.9772 0.93401 1.1231 187.06 1.3058 4.2233 0.0056421
-117.62 0.076937 2.3243e-06 -59.422 -59.421 -0.22662 661.84 0.0015109 -59.423 -59.422 -0.22663 1.3395 2.0165 1662.8 -0.0070726 592.58 0.17501 0.018101 55.245 407.46 436.76 2.9638 0.93718 1.1263 187.60 1.2857 4.2507 0.0057092
-116.62 0.085718 2.5265e-06 -57.405 -57.404 -0.21369 660.82 0.0015133 -57.406 -57.405 -0.21370 1.3400 2.0184 1656.1 -0.0070573 580.80 0.17442 0.020040 49.901 408.39 437.88 2.9506 0.94035 1.1295 188.14 1.2660 4.2782 0.0057767
-115.62 0.095353 2.7410e-06 -55.385 -55.384 -0.20083 659.80 0.0015156 -55.386 -55.385 -0.20084 1.3404 2.0204 1649.4 -0.0070417 569.38 0.17383 0.022152 45.142 409.33 439.01 2.9377 0.94352 1.1327 188.68 1.2468 4.3056 0.0058444
-114.62 0.10591 2.9681e-06 -53.364 -53.362 -0.18804 658.78 0.0015180 -53.365 -53.364 -0.18805 1.3409 2.0224 1642.7 -0.0070260 558.32 0.17323 0.024451 40.898 410.27 440.13 2.9250 0.94669 1.1360 189.22 1.2281 4.3330 0.0059123
-113.62 0.11746 3.2078e-06 -51.340 -51.339 -0.17532 657.76 0.0015203 -51.342 -51.340 -0.17533 1.3413 2.0244 1636.0 -0.0070100 547.59 0.17264 0.026949 37.107 411.21 441.26 2.9126 0.94987 1.1392 189.75 1.2097 4.3604 0.0059806
-112.62 0.13008 3.4604e-06 -49.315 -49.313 -0.16266 656.73 0.0015227 -49.316 -49.315 -0.16267 1.3418 2.0264 1629.3 -0.0069938 537.18 0.17204 0.029661 33.715 412.16 442.39 2.9005 0.95305 1.1424 190.28 1.1918 4.3879 0.0060491
-111.62 0.14384 3.7258e-06 -47.287 -47.285 -0.15007 655.71 0.0015251 -47.289 -47.287 -0.15008 1.3424 2.0285 1622.7 -0.0069774 527.08 0.17144 0.032600 30.675 413.10 443.53 2.8885 0.95623 1.1457 190.81 1.1742 4.4153 0.0061180
-110.62 0.15884 4.0040e-06 -45.257 -45.256 -0.13754 654.69 0.0015274 -45.259 -45.258 -0.13755 1.3429 2.0305 1616.0 -0.0069609 517.28 0.17084 0.035781 27.948 414.06 444.66 2.8769 0.95942 1.1490 191.34 1.1570 4.4427 0.0061871
-109.62 0.17516 4.2949e-06 -43.226 -43.224 -0.12508 653.66 0.0015298 -43.228 -43.226 -0.12509 1.3435 2.0326 1609.3 -0.0069441 507.76 0.17024 0.039220 25.497 415.01 445.80 2.8654 0.96261 1.1522 191.86 1.1402 4.4701 0.0062564
-108.62 0.19290 4.5983e-06 -41.192 -41.190 -0.11268 652.64 0.0015322 -41.194 -41.192 -0.11269 1.3441 2.0347 1602.6 -0.0069271 498.51 0.16964 0.042933 23.292 415.96 446.94 2.8542 0.96581 1.1555 192.38 1.1236 4.4974 0.0063261
-107.62 0.21215 4.9138e-06 -39.156 -39.154 -0.10034 651.61 0.0015347 -39.158 -39.156 -0.10036 1.3447 2.0369 1595.9 -0.0069098 489.52 0.16903 0.046937 21.305 416.92 448.09 2.8433 0.96901 1.1588 192.90 1.1075 4.5248 0.0063960
-106.62 0.23301 5.2411e-06 -37.118 -37.115 -0.088067 650.58 0.0015371 -37.120 -37.118 -0.088082 1.3453 2.0390 1589.2 -0.0068924 480.79 0.16843 0.051250 19.512 417.88 449.23 2.8325 0.97222 1.1621 193.41 1.0916 4.5522 0.0064662
-105.62 0.25561 5.5796e-06 -35.078 -35.075 -0.075852 649.55 0.0015395 -35.080 -35.078 -0.075868 1.3460 2.0412 1582.6 -0.0068747 472.30 0.16782 0.055891 17.892 418.85 450.38 2.8220 0.97544 1.1655 193.93 1.0760 4.5795 0.0065367
-104.62 0.28004 5.9286e-06 -33.036 -33.032 -0.063697 648.52 0.0015420 -33.038 -33.035 -0.063714 1.3467 2.0434 1575.9 -0.0068569 464.04 0.16721 0.060878 16.426 419.81 451.53 2.8116 0.97867 1.1688 194.44 1.0608 4.6069 0.0066074
-103.62 0.30643 6.2874e-06 -30.991 -30.988 -0.051601 647.49 0.0015444 -30.994 -30.991 -0.051619 1.3474 2.0456 1569.2 -0.0068387 456.00 0.16660 0.066231 15.099 420.78 452.68 2.8015 0.98191 1.1722 194.94 1.0458 4.6342 0.0066785
-102.62 0.33490 6.6548e-06 -28.944 -28.940 -0.039563 646.46 0.0015469 -28.947 -28.944 -0.039582 1.3481 2.0478 1562.5 -0.0068204 448.18 0.16600 0.071971 13.894 421.75 453.84 2.7916 0.98516 1.1755 195.44 1.0310 4.6615 0.0067498
-101.62 0.36558 7.0299e-06 -26.895 -26.891 -0.027582 645.43 0.0015494 -26.898 -26.894 -0.027602 1.3489 2.0501 1555.8 -0.0068018 440.57 0.16539 0.078120 12.801 422.73 454.99 2.7818 0.98841 1.1789 195.95 1.0166 4.6888 0.0068213
-100.62 0.39862 7.4113e-06 -24.844 -24.839 -0.015657 644.39 0.0015519 -24.847 -24.843 -0.015678 1.3497 2.0524 1549.1 -0.0067830 433.16 0.16478 0.084699 11.807 423.70 456.15 2.7723 0.99168 1.1823 196.44 1.0024 4.7161 0.0068932
-99.625 0.43414 7.7976e-06 -22.790 -22.785 -0.0037887 643.36 0.0015544 -22.794 -22.789 -0.0038103 1.3505 2.0547 1542.4 -0.0067639 425.95 0.16416 0.091731 10.901 424.68 457.31 2.7630 0.99496 1.1858 196.94 0.98838 4.7434 0.0069653
-98.625 0.47230 8.1870e-06 -20.734 -20.729 0.0080252 642.32 0.0015569 -20.738 -20.733 0.0080027 1.3514 2.0570 1535.7 -0.0067447 418.92 0.16355 0.099240 10.077 425.66 458.48 2.7538 0.99825 1.1892 197.43 0.97464 4.7707 0.0070377
-97.625 0.51325 8.5776e-06 -18.676 -18.670 0.019785 641.28 0.0015594 -18.680 -18.674 0.019762 1.3522 2.0594 1529.0 -0.0067251 412.07 0.16294 0.10725 9.3239 426.65 459.64 2.7448 1.0016 1.1927 197.92 0.96112 4.7979 0.0071103
-96.625 0.55714 8.9673e-06 -16.616 -16.609 0.031491 640.24 0.0015619 -16.620 -16.614 0.031467 1.3531 2.0618 1522.3 -0.0067053 405.39 0.16233 0.11579 8.6365 427.63 460.81 2.7360 1.0049 1.1962 198.40 0.94783 4.8251 0.0071832
-95.625 0.60416 9.3538e-06 -14.553 -14.546 0.043145 639.20 0.0015645 -14.557 -14.550 0.043120 1.3540 2.0642 1515.7 -0.0066853 398.88 0.16171 0.12488 8.0078 428.62 461.98 2.7274 1.0082 1.1997 198.88 0.93475 4.8524 0.0072564
-94.625 0.65446 9.7345e-06 -12.487 -12.480 0.054747 638.16 0.0015670 -12.491 -12.484 0.054721 1.3550 2.0667 1509.0 -0.0066650 392.53 0.16110 0.13455 7.4323 429.61 463.15 2.7189 1.0116 1.2032 199.36 0.92188 4.8796 0.0073299
-93.625 0.70822 1.0106e-05 -10.419 -10.411 0.066298 637.12 0.0015696 -10.424 -10.416 0.066271 1.3560 2.0691 1502.3 -0.0066444 386.34 0.16048 0.14482 6.9050 430.60 464.32 2.7107 1.0149 1.2068 199.83 0.90921 4.9068 0.0074036
-92.625 0.76564 1.0467e-05 -8.3489 -8.3403 0.077798 636.07 0.0015722 -8.3535 -8.3452 0.077771 1.3570 2.0716 1495.6 -0.0066236 380.31 0.15987 0.15573 6.4212 431.60 465.49 2.7025 1.0183 1.2104 200.30 0.89673 4.9340 0.0074776
-91.625 0.82689 1.0811e-05 -6.2761 -6.2668 0.089248 635.02 0.0015747 -6.2808 -6.2719 0.089220 1.3580 2.0742 1488.9 -0.0066025 374.41 0.15925 0.16731 5.9769 432.59 466.67 2.6946 1.0217 1.2140 200.77 0.88445 4.9611 0.0075518
-90.625 0.89218 1.1137e-05 -4.2008 -4.1907 0.10065 633.98 0.0015773 -4.2056 -4.1959 0.10062 1.3591 2.0767 1482.2 -0.0065811 368.66 0.15864 0.17958 5.5685 433.59 467.84 2.6868 1.0251 1.2177 201.24 0.87236 4.9883 0.0076263
-89.625 0.96172 1.1440e-05 -2.1229 -2.1120 0.11200 632.93 0.0015800 -2.1279 -2.1174 0.11197 1.3602 2.0793 1475.5 -0.0065595 363.05 0.15802 0.19258 5.1928 434.59 469.02 2.6791 1.0285 1.2213 201.70 0.86045 5.0154 0.0077011
-88.625 1.0357 1.1715e-05 -0.042413 -0.030706 0.12331 631.88 0.0015826 -0.047516 -0.036215 0.12328 1.3613 2.0819 1468.8 -0.0065375 357.56 0.15740 0.20633 4.8466 435.59 470.20 2.6717 1.0320 1.2250 202.15 0.84873 5.0425 0.0077761
-87.625 1.1144 1.1958e-05 2.0406 2.0532 0.13457 630.83 0.0015852 2.0355 2.0476 0.13454 1.3625 2.0846 1462.1 -0.0065153 352.21 0.15679 0.22087 4.5276 436.60 471.39 2.6643 1.0354 1.2288 202.61 0.83718 5.0696 0.0078514
-86.625 1.1979 1.2164e-05 4.1263 4.1399 0.14578 629.77 0.0015879 4.1211 4.1342 0.14575 1.3637 2.0873 1455.4 -0.0064928 346.98 0.15617 0.23623 4.2331 437.61 472.57 2.6571 1.0389 1.2325 203.06 0.82580 5.0967 0.0079270
-85.625 1.2866 1.2326e-05 6.2147 6.2292 0.15694 628.72 0.0015905 6.2094 6.2235 0.15691 1.3649 2.0900 1448.8 -0.0064701 341.87 0.15555 0.25245 3.9612 438.61 473.75 2.6501 1.0424 1.2363 203.50 0.81460 5.1237 0.0080028
-84.625 1.3806 1.2440e-05 8.3057 8.3213 0.16807 627.66 0.0015932 8.3004 8.3155 0.16803 1.3661 2.0927 1442.1 -0.0064470 336.87 0.15494 0.26956 3.7097 439.63 474.94 2.6432 1.0460 1.2402 203.95 0.80356 5.1508 0.0080789
-83.625 1.4803 1.2499e-05 10.399 10.416 0.17914 626.60 0.0015959 10.394 10.410 0.17911 1.3674 2.0955 1435.4 -0.0064236 331.99 0.15432 0.28760 3.4771 440.64 476.13 2.6364 1.0495 1.2440 204.38 0.79269 5.1778 0.0081553
-82.625 1.5858 1.2496e-05 12.496 12.514 0.19018 625.54 0.0015986 12.491 12.508 0.19014 1.3687 2.0983 1428.7 -0.0063999 327.22 0.15370 0.30659 3.2616 441.65 477.31 2.6298 1.0531 1.2479 204.82 0.78199 5.2048 0.0082319
-81.625 1.6975 1.2424e-05 14.595 14.614 0.20116 624.48 0.0016013 14.590 14.609 0.20113 1.3700 2.1012 1422.0 -0.0063759 322.55 0.15309 0.32659 3.0619 442.67 478.50 2.6233 1.0567 1.2519 205.25 0.77144 5.2318 0.0083088
-80.625 1.8155 1.2275e-05 16.697 16.718 0.21211 623.42 0.0016041 16.692 16.712 0.21208 1.3714 2.1041 1415.4 -0.0063516 317.99 0.15247 0.34763 2.8766 443.69 479.70 2.6169 1.0603 1.2558 205.67 0.76106 5.2587 0.0083860
-79.625 1.9402 1.2041e-05 18.802 18.824 0.22302 622.36 0.0016068 18.797 18.819 0.22299 1.3728 2.1070 1408.7 -0.0063270 313.52 0.15186 0.36974 2.7046 444.71 480.89 2.6106 1.0639 1.2598 206.10 0.75083 5.2857 0.0084634
-78.625 2.0718 1.1714e-05 20.910 20.933 0.23388 621.29 0.0016096 20.905 20.928 0.23385 1.3742 2.1099 1402.0 -0.0063021 309.15 0.15124 0.39296 2.5448 445.73 482.08 2.6045 1.0676 1.2639 206.51 0.74076 5.3126 0.0085411
-77.625 2.2107 1.1284e-05 23.021 23.046 0.24470 620.22 0.0016123 23.016 23.040 0.24468 1.3757 2.1129 1395.3 -0.0062768 304.88 0.15062 0.41735 2.3961 446.75 483.27 2.5985 1.0712 1.2680 206.93 0.73084 5.3395 0.0086190
-76.625 2.3571 1.0741e-05 25.134 25.161 0.25548 619.15 0.0016151 25.130 25.156 0.25546 1.3772 2.1159 1388.7 -0.0062512 300.69 0.15001 0.44292 2.2577 447.78 484.47 2.5926 1.0749 1.2721 207.34 0.72107 5.3664 0.0086972
-75.625 2.5113 1.0075e-05 27.251 27.279 0.26623 618.08 0.0016179 27.247 27.275 0.26620 1.3787 2.1190 1382.0 -0.0062253 296.59 0.14939 0.46974 2.1288 448.81 485.67 2.5869 1.0787 1.2762 207.74 0.71146 5.3933 0.0087757
-74.625 2.6736 9.2761e-06 29.370 29.401 0.27693 617.01 0.0016207 29.366 29.396 0.27691 1.3802 2.1221 1375.4 -0.0061990 292.58 0.14878 0.49783 2.0087 449.83 486.86 2.5812 1.0824 1.2804 208.14 0.70200 5.4201 0.0088544
-73.625 2.8444 8.3317e-06 31.493 31.525 0.28760 615.93 0.0016236 31.489 31.521 0.28758 1.3818 2.1252 1368.7 -0.0061724 288.65 0.14816 0.52725 1.8966 450.86 488.06 2.5757 1.0862 1.2847 208.54 0.69268 5.4469 0.0089334
-72.625 3.0240 7.2298e-06 33.618 33.653 0.29822 614.85 0.0016264 33.615 33.649 0.29821 1.3834 2.1284 1362.0 -0.0061454 284.81 0.14755 0.55804 1.7920 451.90 489.26 2.5703 1.0900 1.2889 208.93 0.68351 5.4737 0.0090126
-71.625 3.2127 5.9579e-06 35.747 35.783 0.30881 613.78 0.0016293 35.745 35.781 0.30880 1.3851 2.1316 1355.4 -0.0061181 281.03 0.14694 0.59024 1.6942 452.93 490.46 2.5650 1.0938 1.2932 209.32 0.67448 5.5005 0.0090922
-70.625 3.4108 4.5025e-06 37.879 37.917 0.31936 612.69 0.0016321 37.877 37.915 0.31935 1.3867 2.1349 1348.7 -0.0060904 277.34 0.14632 0.62390 1.6028 453.96 491.66 2.5598 1.0976 1.2976 209.70 0.66560 5.5273 0.0091720
-69.625 3.6187 2.8495e-06 40.014 40.055 0.32988 611.61 0.0016350 40.013 40.053 0.32987 1.3884 2.1382 1342.1 -0.0060624 273.72 0.14571 0.65906 1.5173 455.00 492.86 2.5547 1.1015 1.3020 210.08 0.65687 5.5540 0.0092520
-68.625 3.8367 9.8411e-07 42.152 42.195 0.34036 610.53 0.0016379 42.152 42.195 0.34036 1.3902 2.1415 1335.5 -0.0060339 270.17 0.14510 0.69577 1.4372 456.04 494.06 2.5497 1.1054 1.3064 210.45 0.64827 5.5807 0.0093324
-67.625 97.724 undefined 43.906 45.011 0.34892 610.00 0.0016393 43.906 45.011 0.34892 1.3926 2.1427 1333.6 -0.0060273 268.26 0.14488 610.00 0.0016393 43.906 45.011 0.34892 1.3926 2.1427 1333.6 -0.0060273 268.26 0.14488
-66.625 279.28 undefined 45.300 48.457 0.35568 610.00 0.0016393 45.300 48.457 0.35568 1.3957 2.1420 1336.2 -0.0060410 267.85 0.14503 610.00 0.0016393 45.300 48.457 0.35568 1.3957 2.1420 1336.2 -0.0060410 267.85 0.14503
-65.625 460.51 undefined 46.698 51.903 0.36243 610.00 0.0016393 46.698 51.903 0.36243 1.3989 2.1414 1338.7 -0.0060542 267.44 0.14518 610.00 0.0016393 46.698 51.903 0.36243 1.3989 2.1414 1338.7 -0.0060542 267.44 0.14518
-64.625 641.43 undefined 48.098 55.348 0.36917 610.00 0.0016393 48.098 55.348 0.36917 1.4020 2.1408 1341.3 -0.0060671 267.04 0.14532 610.00 0.0016393 48.098 55.348 0.36917 1.4020 2.1408 1341.3 -0.0060671 267.04 0.14532
-63.625 822.03 undefined 49.502 58.793 0.37588 610.00 0.0016393 49.502 58.793 0.37588 1.4051 2.1403 1343.8 -0.0060795 266.64 0.14547 610.00 0.0016393 49.502 58.793 0.37588 1.4051 2.1403 1343.8 -0.0060795 266.64 0.14547
-62.625 1002.3 undefined 50.908 62.237 0.38258 610.00 0.0016393 50.908 62.237 0.38258 1.4083 2.1398 1346.3 -0.0060915 266.25 0.14562 610.00 0.0016393 50.908 62.237 0.38258 1.4083 2.1398 1346.3 -0.0060915 266.25 0.14562
-61.625 1182.3 undefined 52.318 65.682 0.38926 610.00 0.0016393 52.318 65.682 0.38926 1.4114 2.1395 1348.8 -0.0061032 265.86 0.14577 610.00 0.0016393 52.318 65.682 0.38926 1.4114 2.1395 1348.8 -0.0061032 265.86 0.14577
-60.625 1362.0 undefined 53.731 69.125 0.39592 610.00 0.0016393 53.731 69.125 0.39592 1.4146 2.1392 1351.3 -0.0061144 265.47 0.14592 610.00 0.0016393 53.731 69.125 0.39592 1.4146 2.1392 1351.3 -0.0061144 265.47 0.14592
-59.625 1541.3 undefined 55.147 72.569 0.40257 610.00 0.0016393 55.147 72.569 0.40257 1.4178 2.1390 1353.8 -0.0061253 265.10 0.14607 610.00 0.0016393 55.147 72.569 0.40257 1.4178 2.1390 1353.8 -0.0061253 265.10 0.14607
-58.625 1720.4 undefined 56.567 76.012 0.40920 610.00 0.0016393 56.567 76.012 0.40920 1.4210 2.1388 1356.3 -0.0061359 264.72 0.14622 610.00 0.0016393 56.567 76.012 0.40920 1.4210 2.1388 1356.3 -0.0061359 264.72 0.14622
-57.625 1899.1 undefined 57.989 79.455 0.41582 610.00 0.0016393 57.989 79.455 0.41582 1.4242 2.1387 1358.7 -0.0061460 264.35 0.14637 610.00 0.0016393 57.989 79.455 0.41582 1.4242 2.1387 1358.7 -0.0061460 264.35 0.14637
-56.625 2077.6 undefined 59.415 82.898 0.42242 610.00 0.0016393 59.415 82.898 0.42242 1.4274 2.1387 1361.1 -0.0061558 263.99 0.14653 610.00 0.0016393 59.415 82.898 0.42242 1.4274 2.1387 1361.1 -0.0061558 263.99 0.14653
-55.625 2255.7 undefined 60.844 86.341 0.42900 610.00 0.0016393 60.844 86.341 0.42900 1.4306 2.1387 1363.5 -0.0061653 263.62 0.14668 610.00 0.0016393 60.844 86.341 0.42900 1.4306 2.1387 1363.5 -0.0061653 263.62 0.14668
-54.625 2433.6 undefined 62.277 89.783 0.43557 610.00 0.0016393 62.277 89.783 0.43557 1.4339 2.1388 1365.9 -0.0061744 263.27 0.14683 610.00 0.0016393 62.277 89.783 0.43557 1.4339 2.1388 1365.9 -0.0061744 263.27 0.14683
-53.625 2611.2 undefined 63.712 93.226 0.44213 610.00 0.0016393 63.712 93.226 0.44213 1.4372 2.1389 1368.3 -0.0061832 262.91 0.14698 610.00 0.0016393 63.712 93.226 0.44213 1.4372 2.1389 1368.3 -0.0061832 262.91 0.14698
-52.625 2788.4 undefined 65.151 96.668 0.44867 610.00 0.0016393 65.151 96.668 0.44867 1.4404 2.1391 1370.7 -0.0061917 262.57 0.14713 610.00 0.0016393 65.151 96.668 0.44867 1.4404 2.1391 1370.7 -0.0061917 262.57 0.14713
-51.625 2965.4 undefined 66.593 100.11 0.45519 610.00 0.0016393 66.593 100.11 0.45519 1.4437 2.1394 1373.0 -0.0061999 262.22 0.14729 610.00 0.0016393 66.593 100.11 0.45519 1.4437 2.1394 1373.0 -0.0061999 262.22 0.14729
-50.625 3142.1 undefined 68.038 103.55 0.46170 610.00 0.0016393 68.038 103.55 0.46170 1.4470 2.1397 1375.3 -0.0062077 261.88 0.14744 610.00 0.0016393 68.038 103.55 0.46170 1.4470 2.1397 1375.3 -0.0062077 261.88 0.14744
-49.625 3318.5 undefined 69.487 107.00 0.46820 610.00 0.0016393 69.487 107.00 0.46820 1.4503 2.1401 1377.7 -0.0062153 261.55 0.14759 610.00 0.0016393 69.487 107.00 0.46820 1.4503 2.1401 1377.7 -0.0062153 261.55 0.14759
-48.625 3494.6 undefined 70.939 110.44 0.47468 610.00 0.0016393 70.939 110.44 0.47468 1.4536 2.1405 1380.0 -0.0062225 261.21 0.14774 610.00 0.0016393 70.939 110.44 0.47468 1.4536 2.1405 1380.0 -0.0062225 261.21 0.14774
-47.625 3670.5 undefined 72.394 113.88 0.48115 610.00 0.0016393 72.394 113.88 0.48115 1.4570 2.1410 1382.2 -0.0062295 260.88 0.14790 610.00 0.0016393 72.394 113.88 0.48115 1.4570 2.1410 1382.2 -0.0062295 260.88 0.14790
-46.625 3846.0 undefined 73.853 117.32 0.48760 610.00 0.0016393 73.853 117.32 0.48760 1.4603 2.1415 1384.5 -0.0062362 260.56 0.14805 610.00 0.0016393 73.853 117.32 0.48760 1.4603 2.1415 1384.5 -0.0062362 260.56 0.14805
-45.625 4021.3 undefined 75.315 120.77 0.49404 610.00 0.0016393 75.315 120.77 0.49404 1.4637 2.1421 1386.8 -0.0062426 260.24 0.14821 610.00 0.0016393 75.315 120.77 0.49404 1.4637 2.1421 1386.8 -0.0062426 260.24 0.14821
-44.625 4196.3 undefined 76.780 124.21 0.50047 610.00 0.0016393 76.780 124.21 0.50047 1.4671 2.1428 1389.0 -0.0062487 259.92 0.14836 610.00 0.0016393 76.780 124.21 0.50047 1.4671 2.1428 1389.0 -0.0062487 259.92 0.14836
-43.625 4371.0 undefined 78.249 127.65 0.50688 610.00 0.0016393 78.249 127.65 0.50688 1.4705 2.1434 1391.2 -0.0062545 259.61 0.14852 610.00 0.0016393 78.249 127.65 0.50688 1.4705 2.1434 1391.2 -0.0062545 259.61 0.14852
-42.625 4545.4 undefined 79.721 131.10 0.51328 610.00 0.0016393 79.721 131.10 0.51328 1.4739 2.1442 1393.4 -0.0062601 259.30 0.14867 610.00 0.0016393 79.721 131.10 0.51328 1.4739 2.1442 1393.4 -0.0062601 259.30 0.14867
-41.625 4719.5 undefined 81.197 134.54 0.51967 610.00 0.0016393 81.197 134.54 0.51967 1.4773 2.1450 1395.6 -0.0062654 259.00 0.14883 610.00 0.0016393 81.197 134.54 0.51967 1.4773 2.1450 1395.6 -0.0062654 259.00 0.14883
-40.625 4893.4 undefined 82.676 137.99 0.52604 610.00 0.0016393 82.676 137.99 0.52604 1.4808 2.1458 1397.8 -0.0062705 258.69 0.14898 610.00 0.0016393 82.676 137.99 0.52604 1.4808 2.1458 1397.8 -0.0062705 258.69 0.14898
-39.625 5067.0 undefined 84.159 141.43 0.53240 610.00 0.0016393 84.159 141.43 0.53240 1.4843 2.1467 1400.0 -0.0062753 258.39 0.14914 610.00 0.0016393 84.159 141.43 0.53240 1.4843 2.1467 1400.0 -0.0062753 258.39 0.14914
-38.625 5240.3 undefined 85.645 144.88 0.53875 610.00 0.0016393 85.645 144.88 0.53875 1.4877 2.1476 1402.1 -0.0062798 258.10 0.14930 610.00 0.0016393 85.645 144.88 0.53875 1.4877 2.1476 1402.1 -0.0062798 258.10 0.14930
-37.625 5413.4 undefined 87.134 148.32 0.54509 610.00 0.0016393 87.134 148.32 0.54509 1.4912 2.1486 1404.2 -0.0062842 257.81 0.14945 610.00 0.0016393 87.134 148.32 0.54509 1.4912 2.1486 1404.2 -0.0062842 257.81 0.14945
-36.625 5586.2 undefined 88.627 151.77 0.55142 610.00 0.0016393 88.627 151.77 0.55142 1.4947 2.1496 1406.4 -0.0062883 257.52 0.14961 610.00 0.0016393 88.627 151.77 0.55142 1.4947 2.1496 1406.4 -0.0062883 257.52 0.14961
-35.625 5758.7 undefined 90.124 155.21 0.55773 610.00 0.0016393 90.124 155.21 0.55773 1.4983 2.1507 1408.5 -0.0062921 257.23 0.14977 610.00 0.0016393 90.124 155.21 0.55773 1.4983 2.1507 1408.5 -0.0062921 257.23 0.14977
-34.625 5930.9 undefined 91.624 158.66 0.56403 610.00 0.0016393 91.624 158.66 0.56403 1.5018 2.1518 1410.6 -0.0062957 256.95 0.14992 610.00 0.0016393 91.624 158.66 0.56403 1.5018 2.1518 1410.6 -0.0062957 256.95 0.14992
-33.625 6102.9 undefined 93.127 162.11 0.57032 610.00 0.0016393 93.127 162.11 0.57032 1.5054 2.1530 1412.6 -0.0062991 256.67 0.15008 610.00 0.0016393 93.127 162.11 0.57032 1.5054 2.1530 1412.6 -0.0062991 256.67 0.15008
-32.625 6274.6 undefined 94.634 165.56 0.57660 610.00 0.0016393 94.634 165.56 0.57660 1.5089 2.1541 1414.7 -0.0063023 256.40 0.15024 610.00 0.0016393 94.634 165.56 0.57660 1.5089 2.1541 1414.7 -0.0063023 256.40 0.15024
-31.625 6446.0 undefined 96.145 169.00 0.58287 610.00 0.0016393 96.145 169.00 0.58287 1.5125 2.1554 1416.8 -0.0063052 256.13 0.15040 610.00 0.0016393 96.145 169.00 0.58287 1.5125 2.1554 1416.8 -0.0063052 256.13 0.15040
-30.625 6617.2 undefined 97.659 172.45 0.58913 610.00 0.0016393 97.659 172.45 0.58913 1.5161 2.1567 1418.8 -0.0063080 255.86 0.15056 610.00 0.0016393 97.659 172.45 0.58913 1.5161 2.1567 1418.8 -0.0063080 255.86 0.15056
-29.625 6788.1 undefined 99.177 175.90 0.59537 610.00 0.0016393 99.177 175.90 0.59537 1.5197 2.1580 1420.8 -0.0063105 255.59 0.15072 610.00 0.0016393 99.177 175.90 0.59537 1.5197 2.1580 1420.8 -0.0063105 255.59 0.15072
-28.625 6958.8 undefined 100.70 179.35 0.60161 610.00 0.0016393 100.70 179.35 0.60161 1.5234 2.1594 1422.8 -0.0063129 255.33 0.15087 610.00 0.0016393 100.70 179.35 0.60161 1.5234 2.1594 1422.8 -0.0063129 255.33 0.15087
-27.625 7129.2 undefined 102.22 182.80 0.60783 610.00 0.0016393 102.22 182.80 0.60783 1.5270 2.1608 1424.8 -0.0063150 255.07 0.15103 610.00 0.0016393 102.22 182.80 0.60783 1.5270 2.1608 1424.8 -0.0063150 255.07 0.15103
-26.625 7299.3 undefined 103.75 186.26 0.61405 610.00 0.0016393 103.75 186.26 0.61405 1.5307 2.1622 1426.8 -0.0063169 254.81 0.15119 610.00 0.0016393 103.75 186.26 0.61405 1.5307 2.1622 1426.8 -0.0063169 254.81 0.15119
-25.625 7469.1 undefined 105.29 189.71 0.62025 610.00 0.0016393 105.29 189.71 0.62025 1.5344 2.1637 1428.8 -0.0063186 254.56 0.15135 610.00 0.0016393 105.29 189.71 0.62025 1.5344 2.1637 1428.8 -0.0063186 254.56 0.15135
-24.625 7638.8 undefined 106.82 193.16 0.62644 610.00 0.0016393 106.82 193.16 0.62644 1.5381 2.1652 1430.8 -0.0063202 254.31 0.15152 610.00 0.0016393 106.82 193.16 0.62644 1.5381 2.1652 1430.8 -0.0063202 254.31 0.15152
-23.625 7808.1 undefined 108.36 196.62 0.63263 610.00 0.0016393 108.36 196.62 0.63263 1.5418 2.1668 1432.7 -0.0063215 254.06 0.15168 610.00 0.0016393 108.36 196.62 0.63263 1.5418 2.1668 1432.7 -0.0063215 254.06 0.15168
-22.625 7977.2 undefined 109.91 200.07 0.63880 610.00 0.0016393 109.91 200.07 0.63880 1.5455 2.1684 1434.7 -0.0063227 253.82 0.15184 610.00 0.0016393 109.91 200.07 0.63880 1.5455 2.1684 1434.7 -0.0063227 253.82 0.15184
-21.625 8146.0 undefined 111.45 203.53 0.64497 610.00 0.0016393 111.45 203.53 0.64497 1.5492 2.1700 1436.6 -0.0063237 253.57 0.15200 610.00 0.0016393 111.45 203.53 0.64497 1.5492 2.1700 1436.6 -0.0063237 253.57 0.15200
-20.625 8314.6 undefined 113.00 206.98 0.65112 610.00 0.0016393 113.00 206.98 0.65112 1.5530 2.1716 1438.5 -0.0063245 253.33 0.15216 610.00 0.0016393 113.00 206.98 0.65112 1.5530 2.1716 1438.5 -0.0063245 253.33 0.15216
-19.625 8482.9 undefined 114.56 210.44 0.65727 610.00 0.0016393 114.56 210.44 0.65727 1.5568 2.1734 1440.4 -0.0063251 253.10 0.15232 610.00 0.0016393 114.56 210.44 0.65727 1.5568 2.1734 1440.4 -0.0063251 253.10 0.15232
-18.625 8651.0 undefined 116.12 213.90 0.66340 610.00 0.0016393 116.12 213.90 0.66340 1.5605 2.1751 1442.3 -0.0063256 252.86 0.15248 610.00 0.0016393 116.12 213.90 0.66340 1.5605 2.1751 1442.3 -0.0063256 252.86 0.15248
-17.625 8818.8 undefined 117.68 217.36 0.66953 610.00 0.0016393 117.68 217.36 0.66953 1.5643 2.1769 1444.2 -0.0063259 252.63 0.15265 610.00 0.0016393 117.68 217.36 0.66953 1.5643 2.1769 1444.2 -0.0063259 252.63 0.15265
-16.625 8986.4 undefined 119.25 220.82 0.67565 610.00 0.0016393 119.25 220.82 0.67565 1.5681 2.1787 1446.1 -0.0063260 252.40 0.15281 610.00 0.0016393 119.25 220.82 0.67565 1.5681 2.1787 1446.1 -0.0063260 252.40 0.15281
-15.625 9153.7 undefined 120.82 224.28 0.68175 610.00 0.0016393 120.82 224.28 0.68175 1.5720 2.1805 1447.9 -0.0063259 252.18 0.15297 610.00 0.0016393 120.82 224.28 0.68175 1.5720 2.1805 1447.9 -0.0063259 252.18 0.15297
-14.625 9320.8 undefined 122.39 227.74 0.68785 610.00 0.0016393 122.39 227.74 0.68785 1.5758 2.1824 1449.8 -0.0063257 251.95 0.15314 610.00 0.0016393 122.39 227.74 0.68785 1.5758 2.1824 1449.8 -0.0063257 251.95 0.15314
-13.625 9487.6 undefined 123.97 231.21 0.69394 610.00 0.0016393 123.97 231.21 0.69394 1.5796 2.1843 1451.6 -0.0063254 251.73 0.15330 610.00 0.0016393 123.97 231.21 0.69394 1.5796 2.1843 1451.6 -0.0063254 251.73 0.15330
-12.625 9654.2 undefined 125.55 234.67 0.70003 610.00 0.0016393 125.55 234.67 0.70003 1.5835 2.1862 1453.4 -0.0063249 251.51 0.15346 610.00 0.0016393 125.55 234.67 0.70003 1.5835 2.1862 1453.4 -0.0063249 251.51 0.15346
-11.625 9820.6 undefined 127.13 238.14 0.70610 610.00 0.0016393 127.13 238.14 0.70610 1.5874 2.1882 1455.3 -0.0063242 251.29 0.15363 610.00 0.0016393 127.13 238.14 0.70610 1.5874 2.1882 1455.3 -0.0063242 251.29 0.15363
-10.625 9986.7 undefined 128.72 241.60 0.71217 610.00 0.0016393 128.72 241.60 0.71217 1.5913 2.1902 1457.1 -0.0063234 251.08 0.15379 610.00 0.0016393 128.72 241.60 0.71217 1.5913 2.1902 1457.1 -0.0063234 251.08 0.15379
-9.6250 10152. undefined 130.32 245.07 0.71822 610.00 0.0016393 130.32 245.07 0.71822 1.5952 2.1922 1458.9 -0.0063224 250.87 0.15396 610.00 0.0016393 130.32 245.07 0.71822 1.5952 2.1922 1458.9 -0.0063224 250.87 0.15396
-8.6250 10318. undefined 131.91 248.54 0.72427 610.00 0.0016393 131.91 248.54 0.72427 1.5991 2.1943 1460.7 -0.0063213 250.66 0.15412 610.00 0.0016393 131.91 248.54 0.72427 1.5991 2.1943 1460.7 -0.0063213 250.66 0.15412
-7.6250 10483. undefined 133.52 252.01 0.73031 610.00 0.0016393 133.52 252.01 0.73031 1.6030 2.1964 1462.5 -0.0063201 250.45 0.15429 610.00 0.0016393 133.52 252.01 0.73031 1.6030 2.1964 1462.5 -0.0063201 250.45 0.15429
-6.6250 10649. undefined 135.12 255.48 0.73635 610.00 0.0016393 135.12 255.48 0.73635 1.6070 2.1985 1464.2 -0.0063187 250.25 0.15445 610.00 0.0016393 135.12 255.48 0.73635 1.6070 2.1985 1464.2 -0.0063187 250.25 0.15445
-5.6250 10813. undefined 136.73 258.95 0.74237 610.00 0.0016393 136.73 258.95 0.74237 1.6109 2.2007 1466.0 -0.0063172 250.04 0.15462 610.00 0.0016393 136.73 258.95 0.74237 1.6109 2.2007 1466.0 -0.0063172 250.04 0.15462
-4.6250 10978. undefined 138.34 262.43 0.74839 610.00 0.0016393 138.34 262.43 0.74839 1.6149 2.2029 1467.8 -0.0063156 249.84 0.15479 610.00 0.0016393 138.34 262.43 0.74839 1.6149 2.2029 1467.8 -0.0063156 249.84 0.15479
-3.6250 11143. undefined 139.96 265.90 0.75440 610.00 0.0016393 139.96 265.90 0.75440 1.6188 2.2051 1469.5 -0.0063138 249.65 0.15495 610.00 0.0016393 139.96 265.90 0.75440 1.6188 2.2051 1469.5 -0.0063138 249.65 0.15495
-2.6250 11307. undefined 141.58 269.38 0.76040 610.00 0.0016393 141.58 269.38 0.76040 1.6228 2.2073 1471.2 -0.0063119 249.45 0.15512 610.00 0.0016393 141.58 269.38 0.76040 1.6228 2.2073 1471.2 -0.0063119 249.45 0.15512
-1.6250 11471. undefined 143.20 272.86 0.76640 610.00 0.0016393 143.20 272.86 0.76640 1.6268 2.2096 1473.0 -0.0063099 249.26 0.15529 610.00 0.0016393 143.20 272.86 0.76640 1.6268 2.2096 1473.0 -0.0063099 249.26 0.15529
-0.62500 11634. undefined 144.83 276.33 0.77239 610.00 0.0016393 144.83 276.33 0.77239 1.6308 2.2119 1474.7 -0.0063077 249.06 0.15545 610.00 0.0016393 144.83 276.33 0.77239 1.6308 2.2119 1474.7 -0.0063077 249.06 0.15545
0.37500 11798. undefined 146.47 279.82 0.77837 610.00 0.0016393 146.47 279.82 0.77837 1.6348 2.2142 1476.4 -0.0063055 248.88 0.15562 610.00 0.0016393 146.47 279.82 0.77837 1.6348 2.2142 1476.4 -0.0063055 248.88 0.15562
1.3750 11961. undefined 148.10 283.30 0.78434 610.00 0.0016393 148.10 283.30 0.78434 1.6389 2.2165 1478.1 -0.0063031 248.69 0.15579 610.00 0.0016393 148.10 283.30 0.78434 1.6389 2.2165 1478.1 -0.0063031 248.69 0.15579
2.3750 12124. undefined 149.74 286.78 0.79031 610.00 0.0016393 149.74 286.78 0.79031 1.6429 2.2189 1479.8 -0.0063006 248.50 0.15596 610.00 0.0016393 149.74 286.78 0.79031 1.6429 2.2189 1479.8 -0.0063006 248.50 0.15596
3.3750 12287. undefined 151.39 290.26 0.79627 610.00 0.0016393 151.39 290.26 0.79627 1.6470 2.2213 1481.5 -0.0062979 248.32 0.15613 610.00 0.0016393 151.39 290.26 0.79627 1.6470 2.2213 1481.5 -0.0062979 248.32 0.15613
4.3750 12449. undefined 153.04 293.75 0.80222 610.00 0.0016393 153.04 293.75 0.80222 1.6510 2.2237 1483.2 -0.0062952 248.14 0.15630 610.00 0.0016393 153.04 293.75 0.80222 1.6510 2.2237 1483.2 -0.0062952 248.14 0.15630
5.3750 12612. undefined 154.69 297.24 0.80816 610.00 0.0016393 154.69 297.24 0.80816 1.6551 2.2261 1484.9 -0.0062924 247.96 0.15646 610.00 0.0016393 154.69 297.24 0.80816 1.6551 2.2261 1484.9 -0.0062924 247.96 0.15646
6.3750 12774. undefined 156.35 300.73 0.81410 610.00 0.0016393 156.35 300.73 0.81410 1.6592 2.2286 1486.5 -0.0062894 247.78 0.15663 610.00 0.0016393 156.35 300.73 0.81410 1.6592 2.2286 1486.5 -0.0062894 247.78 0.15663
7.3750 12936. undefined 158.01 304.22 0.82003 610.00 0.0016393 158.01 304.22 0.82003 1.6633 2.2311 1488.2 -0.0062864 247.60 0.15680 610.00 0.0016393 158.01 304.22 0.82003 1.6633 2.2311 1488.2 -0.0062864 247.60 0.15680
8.3750 13097. undefined 159.67 307.71 0.82596 610.00 0.0016393 159.67 307.71 0.82596 1.6674 2.2336 1489.8 -0.0062833 247.43 0.15697 610.00 0.0016393 159.67 307.71 0.82596 1.6674 2.2336 1489.8 -0.0062833 247.43 0.15697
9.3750 13259. undefined 161.34 311.20 0.83188 610.00 0.0016393 161.34 311.20 0.83188 1.6715 2.2362 1491.5 -0.0062800 247.26 0.15714 610.00 0.0016393 161.34 311.20 0.83188 1.6715 2.2362 1491.5 -0.0062800 247.26 0.15714
10.375 13420. undefined 163.02 314.70 0.83779 610.00 0.0016393 163.02 314.70 0.83779 1.6756 2.2387 1493.1 -0.0062767 247.09 0.15732 610.00 0.0016393 163.02 314.70 0.83779 1.6756 2.2387 1493.1 -0.0062767 247.09 0.15732
11.375 13581. undefined 164.70 318.20 0.84370 610.00 0.0016393 164.70 318.20 0.84370 1.6797 2.2413 1494.8 -0.0062732 246.92 0.15749 610.00 0.0016393 164.70 318.20 0.84370 1.6797 2.2413 1494.8 -0.0062732 246.92 0.15749
12.375 13741. undefined 166.38 321.70 0.84960 610.00 0.0016393 166.38 321.70 0.84960 1.6838 2.2439 1496.4 -0.0062697 246.75 0.15766 610.00 0.0016393 166.38 321.70 0.84960 1.6838 2.2439 1496.4 -0.0062697 246.75 0.15766
13.375 13902. undefined 168.06 325.20 0.85549 610.00 0.0016393 168.06 325.20 0.85549 1.6880 2.2466 1498.0 -0.0062661 246.59 0.15783 610.00 0.0016393 168.06 325.20 0.85549 1.6880 2.2466 1498.0 -0.0062661 246.59 0.15783
14.375 14062. undefined 169.75 328.70 0.86138 610.00 0.0016393 169.75 328.70 0.86138 1.6921 2.2492 1499.6 -0.0062623 246.43 0.15800 610.00 0.0016393 169.75 328.70 0.86138 1.6921 2.2492 1499.6 -0.0062623 246.43 0.15800
15.375 14222. undefined 171.45 332.20 0.86727 610.00 0.0016393 171.45 332.20 0.86727 1.6963 2.2519 1501.2 -0.0062585 246.26 0.15817 610.00 0.0016393 171.45 332.20 0.86727 1.6963 2.2519 1501.2 -0.0062585 246.26 0.15817
16.375 14382. undefined 173.15 335.71 0.87314 610.00 0.0016393 173.15 335.71 0.87314 1.7005 2.2546 1502.8 -0.0062546 246.11 0.15835 610.00 0.0016393 173.15 335.71 0.87314 1.7005 2.2546 1502.8 -0.0062546 246.11 0.15835
17.375 14542. undefined 174.85 339.21 0.87901 610.00 0.0016393 174.85 339.21 0.87901 1.7046 2.2573 1504.4 -0.0062507 245.95 0.15852 610.00 0.0016393 174.85 339.21 0.87901 1.7046 2.2573 1504.4 -0.0062507 245.95 0.15852
18.375 14701. undefined 176.55 342.72 0.88488 610.00 0.0016393 176.55 342.72 0.88488 1.7088 2.2600 1506.0 -0.0062466 245.79 0.15869 610.00 0.0016393 176.55 342.72 0.88488 1.7088 2.2600 1506.0 -0.0062466 245.79 0.15869
19.375 14860. undefined 178.27 346.23 0.89074 610.00 0.0016393 178.27 346.23 0.89074 1.7130 2.2628 1507.6 -0.0062425 245.64 0.15887 610.00 0.0016393 178.27 346.23 0.89074 1.7130 2.2628 1507.6 -0.0062425 245.64 0.15887
20.375 15019. undefined 179.98 349.74 0.89659 610.00 0.0016393 179.98 349.74 0.89659 1.7172 2.2655 1509.2 -0.0062383 245.48 0.15904 610.00 0.0016393 179.98 349.74 0.89659 1.7172 2.2655 1509.2 -0.0062383 245.48 0.15904
21.375 15178. undefined 181.70 353.26 0.90244 610.00 0.0016393 181.70 353.26 0.90244 1.7214 2.2683 1510.7 -0.0062340 245.33 0.15921 610.00 0.0016393 181.70 353.26 0.90244 1.7214 2.2683 1510.7 -0.0062340 245.33 0.15921
22.375 15337. undefined 183.42 356.77 0.90828 610.00 0.0016393 183.42 356.77 0.90828 1.7256 2.2711 1512.3 -0.0062296 245.18 0.15939 610.00 0.0016393 183.42 356.77 0.90828 1.7256 2.2711 1512.3 -0.0062296 245.18 0.15939
23.375 15495. undefined 185.15 360.29 0.91411 610.00 0.0016393 185.15 360.29 0.91411 1.7298 2.2740 1513.9 -0.0062251 245.04 0.15956 610.00 0.0016393 185.15 360.29 0.91411 1.7298 2.2740 1513.9 -0.0062251 245.04 0.15956
24.375 15653. undefined 186.88 363.81 0.91995 610.00 0.0016393 186.88 363.81 0.91995 1.7341 2.2768 1515.4 -0.0062206 244.89 0.15974 610.00 0.0016393 186.88 363.81 0.91995 1.7341 2.2768 1515.4 -0.0062206 244.89 0.15974
25.375 15811. undefined 188.62 367.33 0.92577 610.00 0.0016393 188.62 367.33 0.92577 1.7383 2.2797 1517.0 -0.0062160 244.74 0.15991 610.00 0.0016393 188.62 367.33 0.92577 1.7383 2.2797 1517.0 -0.0062160 244.74 0.15991
26.375 15969. undefined 190.36 370.85 0.93159 610.00 0.0016393 190.36 370.85 0.93159 1.7425 2.2826 1518.5 -0.0062114 244.60 0.16009 610.00 0.0016393 190.36 370.85 0.93159 1.7425 2.2826 1518.5 -0.0062114 244.60 0.16009
27.375 16126. undefined 192.10 374.38 0.93741 610.00 0.0016393 192.10 374.38 0.93741 1.7468 2.2855 1520.0 -0.0062067 244.46 0.16026 610.00 0.0016393 192.10 374.38 0.93741 1.7468 2.2855 1520.0 -0.0062067 244.46 0.16026
28.375 16284. undefined 193.85 377.91 0.94322 610.00 0.0016393 193.85 377.91 0.94322 1.7510 2.2884 1521.6 -0.0062019 244.32 0.16044 610.00 0.0016393 193.85 377.91 0.94322 1.7510 2.2884 1521.6 -0.0062019 244.32 0.16044
29.375 16441. undefined 195.61 381.44 0.94902 610.00 0.0016393 195.61 381.44 0.94902 1.7553 2.2913 1523.1 -0.0061970 244.18 0.16061 610.00 0.0016393 195.61 381.44 0.94902 1.7553 2.2913 1523.1 -0.0061970 244.18 0.16061
30.375 16598. undefined 197.36 384.97 0.95482 610.00 0.0016393 197.36 384.97 0.95482 1.7595 2.2943 1524.6 -0.0061921 244.04 0.16079 610.00 0.0016393 197.36 384.97 0.95482 1.7595 2.2943 1524.6 -0.0061921 244.04 0.16079
31.375 16754. undefined 199.13 388.50 0.96061 610.00 0.0016393 199.13 388.50 0.96061 1.7638 2.2972 1526.1 -0.0061872 243.90 0.16097 610.00 0.0016393 199.13 388.50 0.96061 1.7638 2.2972 1526.1 -0.0061872 243.90 0.16097
32.375 16911. undefined 200.89 392.03 0.96640 610.00 0.0016393 200.89 392.03 0.96640 1.7681 2.3002 1527.6 -0.0061821 243.77 0.16115 610.00 0.0016393 200.89 392.03 0.96640 1.7681 2.3002 1527.6 -0.0061821 243.77 0.16115
33.375 17067. undefined 202.66 395.57 0.97219 610.00 0.0016393 202.66 395.57 0.97219 1.7723 2.3032 1529.1 -0.0061770 243.64 0.16132 610.00 0.0016393 202.66 395.57 0.97219 1.7723 2.3032 1529.1 -0.0061770 243.64 0.16132
34.375 17223. undefined 204.44 399.11 0.97797 610.00 0.0016393 204.44 399.11 0.97797 1.7766 2.3062 1530.6 -0.0061719 243.50 0.16150 610.00 0.0016393 204.44 399.11 0.97797 1.7766 2.3062 1530.6 -0.0061719 243.50 0.16150
35.375 17379. undefined 206.22 402.65 0.98374 610.00 0.0016393 206.22 402.65 0.98374 1.7809 2.3092 1532.1 -0.0061667 243.37 0.16168 610.00 0.0016393 206.22 402.65 0.98374 1.7809 2.3092 1532.1 -0.0061667 243.37 0.16168
36.375 17535. undefined 208.00 406.19 0.98951 610.00 0.0016393 208.00 406.19 0.98951 1.7852 2.3123 1533.6 -0.0061615 243.24 0.16186 610.00 0.0016393 208.00 406.19 0.98951 1.7852 2.3123 1533.6 -0.0061615 243.24 0.16186
37.375 17690. undefined 209.79 409.74 0.99528 610.00 0.0016393 209.79 409.74 0.99528 1.7895 2.3153 1535.1 -0.0061561 243.12 0.16204 610.00 0.0016393 209.79 409.74 0.99528 1.7895 2.3153 1535.1 -0.0061561 243.12 0.16204
38.375 17846. undefined 211.58 413.28 1.0010 610.00 0.0016393 211.58 413.28 1.0010 1.7938 2.3184 1536.6 -0.0061508 242.99 0.16221 610.00 0.0016393 211.58 413.28 1.0010 1.7938 2.3184 1536.6 -0.0061508 242.99 0.16221
39.375 18001. undefined 213.37 416.83 1.0068 610.00 0.0016393 213.37 416.83 1.0068 1.7981 2.3215 1538.1 -0.0061454 242.86 0.16239 610.00 0.0016393 213.37 416.83 1.0068 1.7981 2.3215 1538.1 -0.0061454 242.86 0.16239
40.375 18156. undefined 215.17 420.38 1.0125 610.00 0.0016393 215.17 420.38 1.0125 1.8024 2.3246 1539.5 -0.0061399 242.74 0.16257 610.00 0.0016393 215.17 420.38 1.0125 1.8024 2.3246 1539.5 -0.0061399 242.74 0.16257
41.375 18310. undefined 216.98 423.94 1.0183 610.00 0.0016393 216.98 423.94 1.0183 1.8067 2.3277 1541.0 -0.0061344 242.62 0.16275 610.00 0.0016393 216.98 423.94 1.0183 1.8067 2.3277 1541.0 -0.0061344 242.62 0.16275
42.375 18465. undefined 218.79 427.49 1.0240 610.00 0.0016393 218.79 427.49 1.0240 1.8110 2.3308 1542.5 -0.0061289 242.50 0.16293 610.00 0.0016393 218.79 427.49 1.0240 1.8110 2.3308 1542.5 -0.0061289 242.50 0.16293
43.375 18619. undefined 220.60 431.05 1.0298 610.00 0.0016393 220.60 431.05 1.0298 1.8153 2.3339 1543.9 -0.0061233 242.38 0.16311 610.00 0.0016393 220.60 431.05 1.0298 1.8153 2.3339 1543.9 -0.0061233 242.38 0.16311
44.375 18773. undefined 222.42 434.61 1.0355 610.00 0.0016393 222.42 434.61 1.0355 1.8196 2.3371 1545.4 -0.0061177 242.26 0.16329 610.00 0.0016393 222.42 434.61 1.0355 1.8196 2.3371 1545.4 -0.0061177 242.26 0.16329
45.375 18927. undefined 224.24 438.17 1.0412 610.00 0.0016393 224.24 438.17 1.0412 1.8240 2.3402 1546.8 -0.0061120 242.14 0.16347 610.00 0.0016393 224.24 438.17 1.0412 1.8240 2.3402 1546.8 -0.0061120 242.14 0.16347
46.375 19081. undefined 226.07 441.73 1.0470 610.00 0.0016393 226.07 441.73 1.0470 1.8283 2.3434 1548.3 -0.0061063 242.02 0.16366 610.00 0.0016393 226.07 441.73 1.0470 1.8283 2.3434 1548.3 -0.0061063 242.02 0.16366
47.375 19234. undefined 227.90 445.30 1.0527 610.00 0.0016393 227.90 445.30 1.0527 1.8326 2.3466 1549.7 -0.0061005 241.91 0.16384 610.00 0.0016393 227.90 445.30 1.0527 1.8326 2.3466 1549.7 -0.0061005 241.91 0.16384
48.375 19388. undefined 229.73 448.87 1.0584 610.00 0.0016393 229.73 448.87 1.0584 1.8370 2.3498 1551.2 -0.0060948 241.79 0.16402 610.00 0.0016393 229.73 448.87 1.0584 1.8370 2.3498 1551.2 -0.0060948 241.79 0.16402
49.375 19541. undefined 231.57 452.44 1.0641 610.00 0.0016393 231.57 452.44 1.0641 1.8413 2.3530 1552.6 -0.0060889 241.68 0.16420 610.00 0.0016393 231.57 452.44 1.0641 1.8413 2.3530 1552.6 -0.0060889 241.68 0.16420
50.375 19694. undefined 233.41 456.01 1.0698 610.00 0.0016393 233.41 456.01 1.0698 1.8456 2.3562 1554.0 -0.0060831 241.57 0.16438 610.00 0.0016393 233.41 456.01 1.0698 1.8456 2.3562 1554.0 -0.0060831 241.57 0.16438
51.375 19846. undefined 235.26 459.58 1.0755 610.00 0.0016393 235.26 459.58 1.0755 1.8500 2.3594 1555.4 -0.0060772 241.46 0.16457 610.00 0.0016393 235.26 459.58 1.0755 1.8500 2.3594 1555.4 -0.0060772 241.46 0.16457
52.375 19999. undefined 237.11 463.16 1.0812 610.00 0.0016393 237.11 463.16 1.0812 1.8543 2.3627 1556.9 -0.0060712 241.35 0.16475 610.00 0.0016393 237.11 463.16 1.0812 1.8543 2.3627 1556.9 -0.0060712 241.35 0.16475
53.375 20151. undefined 238.97 466.74 1.0869 610.00 0.0016393 238.97 466.74 1.0869 1.8587 2.3659 1558.3 -0.0060653 241.24 0.16493 610.00 0.0016393 238.97 466.74 1.0869 1.8587 2.3659 1558.3 -0.0060653 241.24 0.16493
54.375 20304. undefined 240.83 470.32 1.0926 610.00 0.0016393 240.83 470.32 1.0926 1.8630 2.3692 1559.7 -0.0060593 241.13 0.16512 610.00 0.0016393 240.83 470.32 1.0926 1.8630 2.3692 1559.7 -0.0060593 241.13 0.16512
55.375 20456. undefined 242.70 473.90 1.0983 610.00 0.0016393 242.70 473.90 1.0983 1.8674 2.3725 1561.1 -0.0060533 241.02 0.16530 610.00 0.0016393 242.70 473.90 1.0983 1.8674 2.3725 1561.1 -0.0060533 241.02 0.16530
56.375 20608. undefined 244.57 477.49 1.1040 610.00 0.0016393 244.57 477.49 1.1040 1.8717 2.3757 1562.5 -0.0060472 240.92 0.16548 610.00 0.0016393 244.57 477.49 1.1040 1.8717 2.3757 1562.5 -0.0060472 240.92 0.16548
57.375 20759. undefined 246.44 481.08 1.1096 610.00 0.0016393 246.44 481.08 1.1096 1.8761 2.3790 1563.9 -0.0060411 240.82 0.16567 610.00 0.0016393 246.44 481.08 1.1096 1.8761 2.3790 1563.9 -0.0060411 240.82 0.16567
58.375 20911. undefined 248.32 484.67 1.1153 610.00 0.0016393 248.32 484.67 1.1153 1.8804 2.3823 1565.3 -0.0060350 240.71 0.16585 610.00 0.0016393 248.32 484.67 1.1153 1.8804 2.3823 1565.3 -0.0060350 240.71 0.16585
59.375 21062. undefined 250.20 488.26 1.1210 610.00 0.0016393 250.20 488.26 1.1210 1.8848 2.3856 1566.7 -0.0060289 240.61 0.16604 610.00 0.0016393 250.20 488.26 1.1210 1.8848 2.3856 1566.7 -0.0060289 240.61 0.16604
60.375 21213. undefined 252.09 491.86 1.1267 610.00 0.0016393 252.09 491.86 1.1267 1.8891 2.3890 1568.1 -0.0060227 240.51 0.16622 610.00 0.0016393 252.09 491.86 1.1267 1.8891 2.3890 1568.1 -0.0060227 240.51 0.16622
61.375 21364. undefined 253.98 495.45 1.1323 610.00 0.0016393 253.98 495.45 1.1323 1.8935 2.3923 1569.5 -0.0060165 240.41 0.16641 610.00 0.0016393 253.98 495.45 1.1323 1.8935 2.3923 1569.5 -0.0060165 240.41 0.16641
62.375 21515. undefined 255.87 499.05 1.1380 610.00 0.0016393 255.87 499.05 1.1380 1.8979 2.3956 1570.9 -0.0060103 240.31 0.16660 610.00 0.0016393 255.87 499.05 1.1380 1.8979 2.3956 1570.9 -0.0060103 240.31 0.16660
63.375 21665. undefined 257.77 502.65 1.1436 610.00 0.0016393 257.77 502.65 1.1436 1.9022 2.3990 1572.2 -0.0060041 240.21 0.16678 610.00 0.0016393 257.77 502.65 1.1436 1.9022 2.3990 1572.2 -0.0060041 240.21 0.16678
64.375 21816. undefined 259.68 506.26 1.1493 610.00 0.0016393 259.68 506.26 1.1493 1.9066 2.4023 1573.6 -0.0059978 240.11 0.16697 610.00 0.0016393 259.68 506.26 1.1493 1.9066 2.4023 1573.6 -0.0059978 240.11 0.16697
65.375 21966. undefined 261.59 509.87 1.1549 610.00 0.0016393 261.59 509.87 1.1549 1.9109 2.4057 1575.0 -0.0059915 240.02 0.16715 610.00 0.0016393 261.59 509.87 1.1549 1.9109 2.4057 1575.0 -0.0059915 240.02 0.16715
66.375 22116. undefined 263.50 513.47 1.1606 610.00 0.0016393 263.50 513.47 1.1606 1.9153 2.4090 1576.3 -0.0059852 239.92 0.16734 610.00 0.0016393 263.50 513.47 1.1606 1.9153 2.4090 1576.3 -0.0059852 239.92 0.16734
67.375 22266. undefined 265.42 517.09 1.1662 610.00 0.0016393 265.42 517.09 1.1662 1.9197 2.4124 1577.7 -0.0059789 239.83 0.16753 610.00 0.0016393 265.42 517.09 1.1662 1.9197 2.4124 1577.7 -0.0059789 239.83 0.16753
68.375 22416. undefined 267.34 520.70 1.1718 610.00 0.0016393 267.34 520.70 1.1718 1.9240 2.4158 1579.1 -0.0059726 239.73 0.16772 610.00 0.0016393 267.34 520.70 1.1718 1.9240 2.4158 1579.1 -0.0059726 239.73 0.16772
69.375 22565. undefined 269.27 524.32 1.1775 610.00 0.0016393 269.27 524.32 1.1775 1.9284 2.4192 1580.4 -0.0059662 239.64 0.16791 610.00 0.0016393 269.27 524.32 1.1775 1.9284 2.4192 1580.4 -0.0059662 239.64 0.16791
70.375 22714. undefined 271.20 527.94 1.1831 610.00 0.0016393 271.20 527.94 1.1831 1.9328 2.4226 1581.8 -0.0059598 239.55 0.16809 610.00 0.0016393 271.20 527.94 1.1831 1.9328 2.4226 1581.8 -0.0059598 239.55 0.16809
71.375 22864. undefined 273.13 531.56 1.1887 610.00 0.0016393 273.13 531.56 1.1887 1.9371 2.4260 1583.1 -0.0059534 239.46 0.16828 610.00 0.0016393 273.13 531.56 1.1887 1.9371 2.4260 1583.1 -0.0059534 239.46 0.16828
72.375 23013. undefined 275.07 535.18 1.1943 610.00 0.0016393 275.07 535.18 1.1943 1.9415 2.4294 1584.5 -0.0059470 239.37 0.16847 610.00 0.0016393 275.07 535.18 1.1943 1.9415 2.4294 1584.5 -0.0059470 239.37 0.16847
73.375 23161. undefined 277.01 538.81 1.2000 610.00 0.0016393 277.01 538.81 1.2000 1.9459 2.4328 1585.8 -0.0059406 239.28 0.16866 610.00 0.0016393 277.01 538.81 1.2000 1.9459 2.4328 1585.8 -0.0059406 239.28 0.16866
74.375 23310. undefined 278.96 542.43 1.2056 610.00 0.0016393 278.96 542.43 1.2056 1.9503 2.4363 1587.2 -0.0059342 239.19 0.16885 610.00 0.0016393 278.96 542.43 1.2056 1.9503 2.4363 1587.2 -0.0059342 239.19 0.16885
75.375 23459. undefined 280.91 546.06 1.2112 610.00 0.0016393 280.91 546.06 1.2112 1.9546 2.4397 1588.5 -0.0059277 239.11 0.16904 610.00 0.0016393 280.91 546.06 1.2112 1.9546 2.4397 1588.5 -0.0059277 239.11 0.16904
76.375 23607. undefined 282.87 549.70 1.2168 610.00 0.0016393 282.87 549.70 1.2168 1.9590 2.4431 1589.8 -0.0059213 239.02 0.16923 610.00 0.0016393 282.87 549.70 1.2168 1.9590 2.4431 1589.8 -0.0059213 239.02 0.16923
77.375 23755. undefined 284.83 553.33 1.2224 610.00 0.0016393 284.83 553.33 1.2224 1.9634 2.4466 1591.2 -0.0059148 238.94 0.16942 610.00 0.0016393 284.83 553.33 1.2224 1.9634 2.4466 1591.2 -0.0059148 238.94 0.16942
78.375 23903. undefined 286.80 556.97 1.2280 610.00 0.0016393 286.80 556.97 1.2280 1.9677 2.4500 1592.5 -0.0059083 238.85 0.16961 610.00 0.0016393 286.80 556.97 1.2280 1.9677 2.4500 1592.5 -0.0059083 238.85 0.16961
79.375 24051. undefined 288.77 560.61 1.2336 610.00 0.0016393 288.77 560.61 1.2336 1.9721 2.4535 1593.8 -0.0059018 238.77 0.16980 610.00 0.0016393 288.77 560.61 1.2336 1.9721 2.4535 1593.8 -0.0059018 238.77 0.16980
80.375 24199. undefined 290.74 564.26 1.2392 610.00 0.0016393 290.74 564.26 1.2392 1.9765 2.4569 1595.1 -0.0058953 238.68 0.16999 610.00 0.0016393 290.74 564.26 1.2392 1.9765 2.4569 1595.1 -0.0058953 238.68 0.16999
81.375 24346. undefined 292.72 567.90 1.2448 610.00 0.0016393 292.72 567.90 1.2448 1.9808 2.4604 1596.5 -0.0058888 238.60 0.17018 610.00 0.0016393 292.72 567.90 1.2448 1.9808 2.4604 1596.5 -0.0058888 238.60 0.17018
82.375 24493. undefined 294.70 571.55 1.2504 610.00 0.0016393 294.70 571.55 1.2504 1.9852 2.4639 1597.8 -0.0058822 238.52 0.17038 610.00 0.0016393 294.70 571.55 1.2504 1.9852 2.4639 1597.8 -0.0058822 238.52 0.17038
83.375 24641. undefined 296.69 575.20 1.2559 610.00 0.0016393 296.69 575.20 1.2559 1.9896 2.4674 1599.1 -0.0058757 238.44 0.17057 610.00 0.0016393 296.69 575.20 1.2559 1.9896 2.4674 1599.1 -0.0058757 238.44 0.17057
84.375 24787. undefined 298.68 578.85 1.2615 610.00 0.0016393 298.68 578.85 1.2615 1.9939 2.4708 1600.4 -0.0058692 238.36 0.17076 610.00 0.0016393 298.68 578.85 1.2615 1.9939 2.4708 1600.4 -0.0058692 238.36 0.17076
85.375 24934. undefined 300.68 582.51 1.2671 610.00 0.0016393 300.68 582.51 1.2671 1.9983 2.4743 1601.7 -0.0058626 238.28 0.17095 610.00 0.0016393 300.68 582.51 1.2671 1.9983 2.4743 1601.7 -0.0058626 238.28 0.17095
86.375 25081. undefined 302.68 586.17 1.2727 610.00 0.0016393 302.68 586.17 1.2727 2.0027 2.4778 1603.0 -0.0058560 238.20 0.17115 610.00 0.0016393 302.68 586.17 1.2727 2.0027 2.4778 1603.0 -0.0058560 238.20 0.17115
87.375 25227. undefined 304.68 589.83 1.2782 610.00 0.0016393 304.68 589.83 1.2782 2.0070 2.4813 1604.3 -0.0058495 238.13 0.17134 610.00 0.0016393 304.68 589.83 1.2782 2.0070 2.4813 1604.3 -0.0058495 238.13 0.17134
88.375 25374. undefined 306.69 593.49 1.2838 610.00 0.0016393 306.69 593.49 1.2838 2.0114 2.4848 1605.6 -0.0058429 238.05 0.17153 610.00 0.0016393 306.69 593.49 1.2838 2.0114 2.4848 1605.6 -0.0058429 238.05 0.17153
89.375 25520. undefined 308.71 597.16 1.2894 610.00 0.0016393 308.71 597.16 1.2894 2.0157 2.4883 1606.9 -0.0058363 237.97 0.17173 610.00 0.0016393 308.71 597.16 1.2894 2.0157 2.4883 1606.9 -0.0058363 237.97 0.17173
90.375 25666. undefined 310.73 600.83 1.2949 610.00 0.0016393 310.73 600.83 1.2949 2.0201 2.4918 1608.2 -0.0058298 237.90 0.17192 610.00 0.0016393 310.73 600.83 1.2949 2.0201 2.4918 1608.2 -0.0058298 237.90 0.17192
91.375 25812. undefined 312.75 604.50 1.3005 610.00 0.0016393 312.75 604.50 1.3005 2.0245 2.4953 1609.5 -0.0058232 237.82 0.17211 610.00 0.0016393 312.75 604.50 1.3005 2.0245 2.4953 1609.5 -0.0058232 237.82 0.17211
92.375 25958. undefined 314.77 608.17 1.3060 610.00 0.0016393 314.77 608.17 1.3060 2.0288 2.4989 1610.8 -0.0058166 237.75 0.17231 610.00 0.0016393 314.77 608.17 1.3060 2.0288 2.4989 1610.8 -0.0058166 237.75 0.17231
93.375 26103. undefined 316.81 611.85 1.3116 610.00 0.0016393 316.81 611.85 1.3116 2.0332 2.5024 1612.1 -0.0058100 237.68 0.17250 610.00 0.0016393 316.81 611.85 1.3116 2.0332 2.5024 1612.1 -0.0058100 237.68 0.17250
94.375 26248. undefined 318.84 615.52 1.3171 610.00 0.0016393 318.84 615.52 1.3171 2.0375 2.5059 1613.3 -0.0058034 237.61 0.17270 610.00 0.0016393 318.84 615.52 1.3171 2.0375 2.5059 1613.3 -0.0058034 237.61 0.17270
95.375 26394. undefined 320.88 619.20 1.3227 610.00 0.0016393 320.88 619.20 1.3227 2.0419 2.5094 1614.6 -0.0057968 237.53 0.17289 610.00 0.0016393 320.88 619.20 1.3227 2.0419 2.5094 1614.6 -0.0057968 237.53 0.17289
96.375 26539. undefined 322.92 622.89 1.3282 610.00 0.0016393 322.92 622.89 1.3282 2.0462 2.5130 1615.9 -0.0057902 237.46 0.17309 610.00 0.0016393 322.92 622.89 1.3282 2.0462 2.5130 1615.9 -0.0057902 237.46 0.17309
97.375 26684. undefined 324.97 626.57 1.3337 610.00 0.0016393 324.97 626.57 1.3337 2.0506 2.5165 1617.2 -0.0057836 237.39 0.17329 610.00 0.0016393 324.97 626.57 1.3337 2.0506 2.5165 1617.2 -0.0057836 237.39 0.17329
98.375 26828. undefined 327.03 630.26 1.3393 610.00 0.0016393 327.03 630.26 1.3393 2.0549 2.5200 1618.4 -0.0057770 237.32 0.17348 610.00 0.0016393 327.03 630.26 1.3393 2.0549 2.5200 1618.4 -0.0057770 237.32 0.17348
99.375 26973. undefined 329.08 633.96 1.3448 610.00 0.0016393 329.08 633.96 1.3448 2.0593 2.5236 1619.7 -0.0057704 237.26 0.17368 610.00 0.0016393 329.08 633.96 1.3448 2.0593 2.5236 1619.7 -0.0057704 237.26 0.17368
100.38 27117. undefined 331.14 637.65 1.3503 610.00 0.0016393 331.14 637.65 1.3503 2.0636 2.5271 1621.0 -0.0057638 237.19 0.17388 610.00 0.0016393 331.14 637.65 1.3503 2.0636 2.5271 1621.0 -0.0057638 237.19 0.17388
101.38 27262. undefined 333.21 641.35 1.3559 610.00 0.0016393 333.21 641.35 1.3559 2.0679 2.5307 1622.2 -0.0057572 237.12 0.17407 610.00 0.0016393 333.21 641.35 1.3559 2.0679 2.5307 1622.2 -0.0057572 237.12 0.17407
102.38 27406. undefined 335.28 645.05 1.3614 610.00 0.0016393 335.28 645.05 1.3614 2.0723 2.5342 1623.5 -0.0057506 237.05 0.17427 610.00 0.0016393 335.28 645.05 1.3614 2.0723 2.5342 1623.5 -0.0057506 237.05 0.17427
103.38 27550. undefined 337.35 648.75 1.3669 610.00 0.0016393 337.35 648.75 1.3669 2.0766 2.5378 1624.8 -0.0057440 236.99 0.17447 610.00 0.0016393 337.35 648.75 1.3669 2.0766 2.5378 1624.8 -0.0057440 236.99 0.17447
104.38 27694. undefined 339.43 652.45 1.3724 610.00 0.0016393 339.43 652.45 1.3724 2.0809 2.5413 1626.0 -0.0057374 236.92 0.17467 610.00 0.0016393 339.43 652.45 1.3724 2.0809 2.5413 1626.0 -0.0057374 236.92 0.17467
105.38 27837. undefined 341.52 656.16 1.3779 610.00 0.0016393 341.52 656.16 1.3779 2.0853 2.5449 1627.3 -0.0057308 236.86 0.17487 610.00 0.0016393 341.52 656.16 1.3779 2.0853 2.5449 1627.3 -0.0057308 236.86 0.17487
106.38 27981. undefined 343.60 659.87 1.3834 610.00 0.0016393 343.60 659.87 1.3834 2.0896 2.5484 1628.5 -0.0057242 236.79 0.17507 610.00 0.0016393 343.60 659.87 1.3834 2.0896 2.5484 1628.5 -0.0057242 236.79 0.17507
107.38 28124. undefined 345.70 663.58 1.3889 610.00 0.0016393 345.70 663.58 1.3889 2.0939 2.5520 1629.8 -0.0057177 236.73 0.17526 610.00 0.0016393 345.70 663.58 1.3889 2.0939 2.5520 1629.8 -0.0057177 236.73 0.17526
108.38 28267. undefined 347.79 667.30 1.3944 610.00 0.0016393 347.79 667.30 1.3944 2.0983 2.5556 1631.0 -0.0057111 236.67 0.17546 610.00 0.0016393 347.79 667.30 1.3944 2.0983 2.5556 1631.0 -0.0057111 236.67 0.17546
109.38 28411. undefined 349.89 671.01 1.3999 610.00 0.0016393 349.89 671.01 1.3999 2.1026 2.5591 1632.2 -0.0057045 236.60 0.17566 610.00 0.0016393 349.89 671.01 1.3999 2.1026 2.5591 1632.2 -0.0057045 236.60 0.17566
110.38 28553. undefined 352.00 674.73 1.4054 610.00 0.0016393 352.00 674.73 1.4054 2.1069 2.5627 1633.5 -0.0056979 236.54 0.17586 610.00 0.0016393 352.00 674.73 1.4054 2.1069 2.5627 1633.5 -0.0056979 236.54 0.17586
111.38 28696. undefined 354.11 678.46 1.4109 610.00 0.0016393 354.11 678.46 1.4109 2.1112 2.5663 1634.7 -0.0056913 236.48 0.17606 610.00 0.0016393 354.11 678.46 1.4109 2.1112 2.5663 1634.7 -0.0056913 236.48 0.17606
112.38 28839. undefined 356.22 682.18 1.4164 610.00 0.0016393 356.22 682.18 1.4164 2.1155 2.5698 1636.0 -0.0056848 236.42 0.17626 610.00 0.0016393 356.22 682.18 1.4164 2.1155 2.5698 1636.0 -0.0056848 236.42 0.17626
113.38 28981. undefined 358.34 685.91 1.4219 610.00 0.0016393 358.34 685.91 1.4219 2.1198 2.5734 1637.2 -0.0056782 236.36 0.17646 610.00 0.0016393 358.34 685.91 1.4219 2.1198 2.5734 1637.2 -0.0056782 236.36 0.17646
114.38 29124. undefined 360.46 689.64 1.4274 610.00 0.0016393 360.46 689.64 1.4274 2.1242 2.5770 1638.4 -0.0056717 236.30 0.17667 610.00 0.0016393 360.46 689.64 1.4274 2.1242 2.5770 1638.4 -0.0056717 236.30 0.17667
115.38 29266. undefined 362.58 693.37 1.4328 610.00 0.0016393 362.58 693.37 1.4328 2.1285 2.5806 1639.6 -0.0056651 236.24 0.17687 610.00 0.0016393 362.58 693.37 1.4328 2.1285 2.5806 1639.6 -0.0056651 236.24 0.17687
116.38 29408. undefined 364.72 697.11 1.4383 610.00 0.0016393 364.72 697.11 1.4383 2.1328 2.5841 1640.9 -0.0056586 236.18 0.17707 610.00 0.0016393 364.72 697.11 1.4383 2.1328 2.5841 1640.9 -0.0056586 236.18 0.17707
117.38 29550. undefined 366.85 700.85 1.4438 610.00 0.0016393 366.85 700.85 1.4438 2.1371 2.5877 1642.1 -0.0056520 236.13 0.17727 610.00 0.0016393 366.85 700.85 1.4438 2.1371 2.5877 1642.1 -0.0056520 236.13 0.17727
118.38 29692. undefined 368.99 704.59 1.4493 610.00 0.0016393 368.99 704.59 1.4493 2.1414 2.5913 1643.3 -0.0056455 236.07 0.17747 610.00 0.0016393 368.99 704.59 1.4493 2.1414 2.5913 1643.3 -0.0056455 236.07 0.17747
119.38 29833. undefined 371.13 708.33 1.4547 610.00 0.0016393 371.13 708.33 1.4547 2.1457 2.5949 1644.5 -0.0056389 236.01 0.17768 610.00 0.0016393 371.13 708.33 1.4547 2.1457 2.5949 1644.5 -0.0056389 236.01 0.17768
120.38 29975. undefined 373.28 712.08 1.4602 610.00 0.0016393 373.28 712.08 1.4602 2.1499 2.5984 1645.7 -0.0056324 235.96 0.17788 610.00 0.0016393 373.28 712.08 1.4602 2.1499 2.5984 1645.7 -0.0056324 235.96 0.17788
121.38 30116. undefined 375.43 715.83 1.4657 610.00 0.0016393 375.43 715.83 1.4657 2.1542 2.6020 1647.0 -0.0056259 235.90 0.17808 610.00 0.0016393 375.43 715.83 1.4657 2.1542 2.6020 1647.0 -0.0056259 235.90 0.17808
122.38 30257. undefined 377.59 719.58 1.4711 610.00 0.0016393 377.59 719.58 1.4711 2.1585 2.6056 1648.2 -0.0056194 235.85 0.17829 610.00 0.0016393 377.59 719.58 1.4711 2.1585 2.6056 1648.2 -0.0056194 235.85 0.17829
123.38 30398. undefined 379.75 723.34 1.4766 610.00 0.0016393 379.75 723.34 1.4766 2.1628 2.6092 1649.4 -0.0056129 235.79 0.17849 610.00 0.0016393 379.75 723.34 1.4766 2.1628 2.6092 1649.4 -0.0056129 235.79 0.17849
124.38 30539. undefined 381.92 727.09 1.4820 610.00 0.0016393 381.92 727.09 1.4820 2.1671 2.6128 1650.6 -0.0056064 235.74 0.17869 610.00 0.0016393 381.92 727.09 1.4820 2.1671 2.6128 1650.6 -0.0056064 235.74 0.17869
125.38 30680. undefined 384.08 730.85 1.4875 610.00 0.0016393 384.08 730.85 1.4875 2.1714 2.6164 1651.8 -0.0055999 235.69 0.17890 610.00 0.0016393 384.08 730.85 1.4875 2.1714 2.6164 1651.8 -0.0055999 235.69 0.17890
126.38 30820. undefined 386.26 734.62 1.4929 610.00 0.0016393 386.26 734.62 1.4929 2.1756 2.6199 1653.0 -0.0055935 235.63 0.17910 610.00 0.0016393 386.26 734.62 1.4929 2.1756 2.6199 1653.0 -0.0055935 235.63 0.17910
127.38 30961. undefined 388.44 738.38 1.4984 610.00 0.0016393 388.44 738.38 1.4984 2.1799 2.6235 1654.2 -0.0055870 235.58 0.17931 610.00 0.0016393 388.44 738.38 1.4984 2.1799 2.6235 1654.2 -0.0055870 235.58 0.17931
128.38 31101. undefined 390.62 742.15 1.5038 610.00 0.0016393 390.62 742.15 1.5038 2.1842 2.6271 1655.4 -0.0055805 235.53 0.17951 610.00 0.0016393 390.62 742.15 1.5038 2.1842 2.6271 1655.4 -0.0055805 235.53 0.17951
129.38 31241. undefined 392.80 745.92 1.5093 610.00 0.0016393 392.80 745.92 1.5093 2.1884 2.6307 1656.6 -0.0055741 235.48 0.17972 610.00 0.0016393 392.80 745.92 1.5093 2.1884 2.6307 1656.6 -0.0055741 235.48 0.17972
130.38 31381. undefined 394.99 749.70 1.5147 610.00 0.0016393 394.99 749.70 1.5147 2.1927 2.6343 1657.8 -0.0055676 235.43 0.17992 610.00 0.0016393 394.99 749.70 1.5147 2.1927 2.6343 1657.8 -0.0055676 235.43 0.17992
131.38 31521. undefined 397.19 753.47 1.5201 610.00 0.0016393 397.19 753.47 1.5201 2.1969 2.6379 1658.9 -0.0055612 235.38 0.18013 610.00 0.0016393 397.19 753.47 1.5201 2.1969 2.6379 1658.9 -0.0055612 235.38 0.18013
132.38 31661. undefined 399.39 757.25 1.5255 610.00 0.0016393 399.39 757.25 1.5255 2.2012 2.6414 1660.1 -0.0055548 235.33 0.18034 610.00 0.0016393 399.39 757.25 1.5255 2.2012 2.6414 1660.1 -0.0055548 235.33 0.18034
133.38 31801. undefined 401.59 761.03 1.5310 610.00 0.0016393 401.59 761.03 1.5310 2.2054 2.6450 1661.3 -0.0055484 235.28 0.18054 610.00 0.0016393 401.59 761.03 1.5310 2.2054 2.6450 1661.3 -0.0055484 235.28 0.18054
134.38 31940. undefined 403.80 764.82 1.5364 610.00 0.0016393 403.80 764.82 1.5364 2.2097 2.6486 1662.5 -0.0055420 235.23 0.18075 610.00 0.0016393 403.80 764.82 1.5364 2.2097 2.6486 1662.5 -0.0055420 235.23 0.18075
135.38 32080. undefined 406.01 768.60 1.5418 610.00 0.0016393 406.01 768.60 1.5418 2.2139 2.6522 1663.7 -0.0055356 235.18 0.18096 610.00 0.0016393 406.01 768.60 1.5418 2.2139 2.6522 1663.7 -0.0055356 235.18 0.18096
136.38 32219. undefined 408.23 772.39 1.5472 610.00 0.0016393 408.23 772.39 1.5472 2.2182 2.6558 1664.9 -0.0055292 235.13 0.18116 610.00 0.0016393 408.23 772.39 1.5472 2.2182 2.6558 1664.9 -0.0055292 235.13 0.18116
137.38 32358. undefined 410.45 776.19 1.5527 610.00 0.0016393 410.45 776.19 1.5527 2.2224 2.6594 1666.0 -0.0055228 235.09 0.18137 610.00 0.0016393 410.45 776.19 1.5527 2.2224 2.6594 1666.0 -0.0055228 235.09 0.18137
138.38 32497. undefined 412.67 779.98 1.5581 610.00 0.0016393 412.67 779.98 1.5581 2.2266 2.6629 1667.2 -0.0055165 235.04 0.18158 610.00 0.0016393 412.67 779.98 1.5581 2.2266 2.6629 1667.2 -0.0055165 235.04 0.18158
139.38 32636. undefined 414.90 783.78 1.5635 610.00 0.0016393 414.90 783.78 1.5635 2.2308 2.6665 1668.4 -0.0055101 234.99 0.18179 610.00 0.0016393 414.90 783.78 1.5635 2.2308 2.6665 1668.4 -0.0055101 234.99 0.18179
140.38 32774. undefined 417.13 787.58 1.5689 610.00 0.0016393 417.13 787.58 1.5689 2.2351 2.6701 1669.6 -0.0055038 234.95 0.18200 610.00 0.0016393 417.13 787.58 1.5689 2.2351 2.6701 1669.6 -0.0055038 234.95 0.18200
141.38 32913. undefined 419.37 791.38 1.5743 610.00 0.0016393 419.37 791.38 1.5743 2.2393 2.6737 1670.7 -0.0054975 234.90 0.18221 610.00 0.0016393 419.37 791.38 1.5743 2.2393 2.6737 1670.7 -0.0054975 234.90 0.18221
142.38 33051. undefined 421.61 795.19 1.5797 610.00 0.0016393 421.61 795.19 1.5797 2.2435 2.6773 1671.9 -0.0054912 234.86 0.18242 610.00 0.0016393 421.61 795.19 1.5797 2.2435 2.6773 1671.9 -0.0054912 234.86 0.18242
143.38 33190. undefined 423.86 799.00 1.5851 610.00 0.0016393 423.86 799.00 1.5851 2.2477 2.6809 1673.1 -0.0054849 234.81 0.18263 610.00 0.0016393 423.86 799.00 1.5851 2.2477 2.6809 1673.1 -0.0054849 234.81 0.18263
144.38 33328. undefined 426.11 802.81 1.5905 610.00 0.0016393 426.11 802.81 1.5905 2.2519 2.6844 1674.2 -0.0054786 234.77 0.18284 610.00 0.0016393 426.11 802.81 1.5905 2.2519 2.6844 1674.2 -0.0054786 234.77 0.18284
145.38 33466. undefined 428.36 806.62 1.5959 610.00 0.0016393 428.36 806.62 1.5959 2.2561 2.6880 1675.4 -0.0054723 234.72 0.18305 610.00 0.0016393 428.36 806.62 1.5959 2.2561 2.6880 1675.4 -0.0054723 234.72 0.18305
146.38 33604. undefined 430.62 810.44 1.6013 610.00 0.0016393 430.62 810.44 1.6013 2.2603 2.6916 1676.5 -0.0054660 234.68 0.18326 610.00 0.0016393 430.62 810.44 1.6013 2.2603 2.6916 1676.5 -0.0054660 234.68 0.18326
147.38 33741. undefined 432.88 814.26 1.6066 610.00 0.0016393 432.88 814.26 1.6066 2.2645 2.6952 1677.7 -0.0054598 234.64 0.18347 610.00 0.0016393 432.88 814.26 1.6066 2.2645 2.6952 1677.7 -0.0054598 234.64 0.18347
148.38 33879. undefined 435.15 818.08 1.6120 610.00 0.0016393 435.15 818.08 1.6120 2.2687 2.6987 1678.8 -0.0054535 234.60 0.18368 610.00 0.0016393 435.15 818.08 1.6120 2.2687 2.6987 1678.8 -0.0054535 234.60 0.18368
149.38 34017. undefined 437.42 821.90 1.6174 610.00 0.0016393 437.42 821.90 1.6174 2.2729 2.7023 1680.0 -0.0054473 234.55 0.18389 610.00 0.0016393 437.42 821.90 1.6174 2.2729 2.7023 1680.0 -0.0054473 234.55 0.18389
150.38 34154. undefined 439.69 825.73 1.6228 610.00 0.0016393 439.69 825.73 1.6228 2.2770 2.7059 1681.1 -0.0054411 234.51 0.18410 610.00 0.0016393 439.69 825.73 1.6228 2.2770 2.7059 1681.1 -0.0054411 234.51 0.18410
151.38 34291. undefined 441.97 829.56 1.6282 610.00 0.0016393 441.97 829.56 1.6282 2.2812 2.7095 1682.3 -0.0054349 234.47 0.18431 610.00 0.0016393 441.97 829.56 1.6282 2.2812 2.7095 1682.3 -0.0054349 234.47 0.18431
152.38 34428. undefined 444.26 833.40 1.6335 610.00 0.0016393 444.26 833.40 1.6335 2.2854 2.7130 1683.4 -0.0054287 234.43 0.18453 610.00 0.0016393 444.26 833.40 1.6335 2.2854 2.7130 1683.4 -0.0054287 234.43 0.18453
153.38 34565. undefined 446.54 837.23 1.6389 610.00 0.0016393 446.54 837.23 1.6389 2.2896 2.7166 1684.6 -0.0054225 234.39 0.18474 610.00 0.0016393 446.54 837.23 1.6389 2.2896 2.7166 1684.6 -0.0054225 234.39 0.18474
154.38 34702. undefined 448.84 841.07 1.6443 610.00 0.0016393 448.84 841.07 1.6443 2.2937 2.7202 1685.7 -0.0054163 234.35 0.18495 610.00 0.0016393 448.84 841.07 1.6443 2.2937 2.7202 1685.7 -0.0054163 234.35 0.18495
155.38 34839. undefined 451.13 844.91 1.6496 610.00 0.0016393 451.13 844.91 1.6496 2.2979 2.7237 1686.9 -0.0054102 234.31 0.18516 610.00 0.0016393 451.13 844.91 1.6496 2.2979 2.7237 1686.9 -0.0054102 234.31 0.18516
156.38 34975. undefined 453.43 848.75 1.6550 610.00 0.0016393 453.43 848.75 1.6550 2.3020 2.7273 1688.0 -0.0054040 234.27 0.18538 610.00 0.0016393 453.43 848.75 1.6550 2.3020 2.7273 1688.0 -0.0054040 234.27 0.18538
157.38 35112. undefined 455.74 852.60 1.6604 610.00 0.0016393 455.74 852.60 1.6604 2.3062 2.7308 1689.1 -0.0053979 234.23 0.18559 610.00 0.0016393 455.74 852.60 1.6604 2.3062 2.7308 1689.1 -0.0053979 234.23 0.18559
158.38 35248. undefined 458.04 856.45 1.6657 610.00 0.0016393 458.04 856.45 1.6657 2.3103 2.7344 1690.3 -0.0053918 234.19 0.18580 610.00 0.0016393 458.04 856.45 1.6657 2.3103 2.7344 1690.3 -0.0053918 234.19 0.18580
159.38 35384. undefined 460.36 860.30 1.6711 610.00 0.0016393 460.36 860.30 1.6711 2.3145 2.7380 1691.4 -0.0053857 234.16 0.18602 610.00 0.0016393 460.36 860.30 1.6711 2.3145 2.7380 1691.4 -0.0053857 234.16 0.18602
160.38 35520. undefined 462.67 864.16 1.6764 610.00 0.0016393 462.67 864.16 1.6764 2.3186 2.7415 1692.5 -0.0053796 234.12 0.18623 610.00 0.0016393 462.67 864.16 1.6764 2.3186 2.7415 1692.5 -0.0053796 234.12 0.18623
161.38 35656. undefined 464.99 868.01 1.6818 610.00 0.0016393 464.99 868.01 1.6818 2.3227 2.7451 1693.7 -0.0053735 234.08 0.18645 610.00 0.0016393 464.99 868.01 1.6818 2.3227 2.7451 1693.7 -0.0053735 234.08 0.18645
162.38 35792. undefined 467.32 871.87 1.6871 610.00 0.0016393 467.32 871.87 1.6871 2.3268 2.7486 1694.8 -0.0053674 234.04 0.18666 610.00 0.0016393 467.32 871.87 1.6871 2.3268 2.7486 1694.8 -0.0053674 234.04 0.18666
163.38 35928. undefined 469.65 875.74 1.6924 610.00 0.0016393 469.65 875.74 1.6924 2.3310 2.7522 1695.9 -0.0053614 234.01 0.18688 610.00 0.0016393 469.65 875.74 1.6924 2.3310 2.7522 1695.9 -0.0053614 234.01 0.18688
164.38 36064. undefined 471.98 879.60 1.6978 610.00 0.0016393 471.98 879.60 1.6978 2.3351 2.7557 1697.0 -0.0053554 233.97 0.18709 610.00 0.0016393 471.98 879.60 1.6978 2.3351 2.7557 1697.0 -0.0053554 233.97 0.18709
165.38 36199. undefined 474.32 883.47 1.7031 610.00 0.0016393 474.32 883.47 1.7031 2.3392 2.7593 1698.2 -0.0053493 233.93 0.18731 610.00 0.0016393 474.32 883.47 1.7031 2.3392 2.7593 1698.2 -0.0053493 233.93 0.18731
166.38 36334. undefined 476.66 887.34 1.7084 610.00 0.0016393 476.66 887.34 1.7084 2.3433 2.7628 1699.3 -0.0053433 233.90 0.18753 610.00 0.0016393 476.66 887.34 1.7084 2.3433 2.7628 1699.3 -0.0053433 233.90 0.18753
167.38 36470. undefined 479.00 891.21 1.7138 610.00 0.0016393 479.00 891.21 1.7138 2.3474 2.7664 1700.4 -0.0053373 233.86 0.18774 610.00 0.0016393 479.00 891.21 1.7138 2.3474 2.7664 1700.4 -0.0053373 233.86 0.18774
168.38 36605. undefined 481.35 895.09 1.7191 610.00 0.0016393 481.35 895.09 1.7191 2.3515 2.7699 1701.5 -0.0053314 233.83 0.18796 610.00 0.0016393 481.35 895.09 1.7191 2.3515 2.7699 1701.5 -0.0053314 233.83 0.18796
169.38 36740. undefined 483.71 898.97 1.7244 610.00 0.0016393 483.71 898.97 1.7244 2.3556 2.7734 1702.6 -0.0053254 233.79 0.18818 610.00 0.0016393 483.71 898.97 1.7244 2.3556 2.7734 1702.6 -0.0053254 233.79 0.18818
170.38 36874. undefined 486.06 902.85 1.7298 610.00 0.0016393 486.06 902.85 1.7298 2.3597 2.7770 1703.7 -0.0053194 233.76 0.18839 610.00 0.0016393 486.06 902.85 1.7298 2.3597 2.7770 1703.7 -0.0053194 233.76 0.18839
171.38 37009. undefined 488.43 906.74 1.7351 610.00 0.0016393 488.43 906.74 1.7351 2.3638 2.7805 1704.8 -0.0053135 233.73 0.18861 610.00 0.0016393 488.43 906.74 1.7351 2.3638 2.7805 1704.8 -0.0053135 233.73 0.18861
172.38 37144. undefined 490.79 910.62 1.7404 610.00 0.0016393 490.79 910.62 1.7404 2.3678 2.7841 1705.9 -0.0053076 233.69 0.18883 610.00 0.0016393 490.79 910.62 1.7404 2.3678 2.7841 1705.9 -0.0053076 233.69 0.18883
173.38 37278. undefined 493.16 914.51 1.7457 610.00 0.0016393 493.16 914.51 1.7457 2.3719 2.7876 1707.1 -0.0053017 233.66 0.18905 610.00 0.0016393 493.16 914.51 1.7457 2.3719 2.7876 1707.1 -0.0053017 233.66 0.18905
174.38 37413. undefined 495.54 918.41 1.7510 610.00 0.0016393 495.54 918.41 1.7510 2.3760 2.7911 1708.2 -0.0052958 233.63 0.18927 610.00 0.0016393 495.54 918.41 1.7510 2.3760 2.7911 1708.2 -0.0052958 233.63 0.18927
175.38 37547. undefined 497.91 922.30 1.7563 610.00 0.0016393 497.91 922.30 1.7563 2.3801 2.7946 1709.3 -0.0052899 233.60 0.18949 610.00 0.0016393 497.91 922.30 1.7563 2.3801 2.7946 1709.3 -0.0052899 233.60 0.18949
176.38 37681. undefined 500.30 926.20 1.7616 610.00 0.0016393 500.30 926.20 1.7616 2.3841 2.7982 1710.4 -0.0052840 233.56 0.18971 610.00 0.0016393 500.30 926.20 1.7616 2.3841 2.7982 1710.4 -0.0052840 233.56 0.18971
177.38 37815. undefined 502.68 930.10 1.7669 610.00 0.0016393 502.68 930.10 1.7669 2.3882 2.8017 1711.5 -0.0052782 233.53 0.18993 610.00 0.0016393 502.68 930.10 1.7669 2.3882 2.8017 1711.5 -0.0052782 233.53 0.18993
178.38 37949. undefined 505.07 934.00 1.7722 610.00 0.0016393 505.07 934.00 1.7722 2.3922 2.8052 1712.6 -0.0052723 233.50 0.19015 610.00 0.0016393 505.07 934.00 1.7722 2.3922 2.8052 1712.6 -0.0052723 233.50 0.19015
179.38 38083. undefined 507.47 937.91 1.7775 610.00 0.0016393 507.47 937.91 1.7775 2.3963 2.8087 1713.7 -0.0052665 233.47 0.19037 610.00 0.0016393 507.47 937.91 1.7775 2.3963 2.8087 1713.7 -0.0052665 233.47 0.19037
180.38 38216. undefined 509.86 941.82 1.7828 610.00 0.0016393 509.86 941.82 1.7828 2.4003 2.8122 1714.7 -0.0052607 233.44 0.19059 610.00 0.0016393 509.86 941.82 1.7828 2.4003 2.8122 1714.7 -0.0052607 233.44 0.19059
181.38 38350. undefined 512.27 945.73 1.7881 610.00 0.0016393 512.27 945.73 1.7881 2.4043 2.8157 1715.8 -0.0052549 233.41 0.19081 610.00 0.0016393 512.27 945.73 1.7881 2.4043 2.8157 1715.8 -0.0052549 233.41 0.19081
182.38 38483. undefined 514.67 949.64 1.7934 610.00 0.0016393 514.67 949.64 1.7934 2.4084 2.8192 1716.9 -0.0052491 233.38 0.19103 610.00 0.0016393 514.67 949.64 1.7934 2.4084 2.8192 1716.9 -0.0052491 233.38 0.19103
183.38 38616. undefined 517.08 953.56 1.7987 610.00 0.0016393 517.08 953.56 1.7987 2.4124 2.8227 1718.0 -0.0052434 233.35 0.19125 610.00 0.0016393 517.08 953.56 1.7987 2.4124 2.8227 1718.0 -0.0052434 233.35 0.19125
184.38 38749. undefined 519.50 957.48 1.8040 610.00 0.0016393 519.50 957.48 1.8040 2.4164 2.8263 1719.1 -0.0052376 233.32 0.19147 610.00 0.0016393 519.50 957.48 1.8040 2.4164 2.8263 1719.1 -0.0052376 233.32 0.19147
185.38 38883. undefined 521.92 961.40 1.8092 610.00 0.0016393 521.92 961.40 1.8092 2.4204 2.8298 1720.2 -0.0052319 233.29 0.19169 610.00 0.0016393 521.92 961.40 1.8092 2.4204 2.8298 1720.2 -0.0052319 233.29 0.19169
186.38 39015. undefined 524.34 965.33 1.8145 610.00 0.0016393 524.34 965.33 1.8145 2.4244 2.8332 1721.3 -0.0052262 233.26 0.19191 610.00 0.0016393 524.34 965.33 1.8145 2.4244 2.8332 1721.3 -0.0052262 233.26 0.19191
187.38 39148. undefined 526.77 969.25 1.8198 610.00 0.0016393 526.77 969.25 1.8198 2.4284 2.8367 1722.4 -0.0052205 233.23 0.19214 610.00 0.0016393 526.77 969.25 1.8198 2.4284 2.8367 1722.4 -0.0052205 233.23 0.19214
188.38 39281. undefined 529.20 973.18 1.8251 610.00 0.0016393 529.20 973.18 1.8251 2.4324 2.8402 1723.4 -0.0052148 233.20 0.19236 610.00 0.0016393 529.20 973.18 1.8251 2.4324 2.8402 1723.4 -0.0052148 233.20 0.19236
189.38 39414. undefined 531.63 977.12 1.8303 610.00 0.0016393 531.63 977.12 1.8303 2.4364 2.8437 1724.5 -0.0052091 233.18 0.19258 610.00 0.0016393 531.63 977.12 1.8303 2.4364 2.8437 1724.5 -0.0052091 233.18 0.19258
190.38 39546. undefined 534.07 981.05 1.8356 610.00 0.0016393 534.07 981.05 1.8356 2.4404 2.8472 1725.6 -0.0052034 233.15 0.19281 610.00 0.0016393 534.07 981.05 1.8356 2.4404 2.8472 1725.6 -0.0052034 233.15 0.19281
191.38 39678. undefined 536.51 984.99 1.8409 610.00 0.0016393 536.51 984.99 1.8409 2.4444 2.8507 1726.7 -0.0051978 233.12 0.19303 610.00 0.0016393 536.51 984.99 1.8409 2.4444 2.8507 1726.7 -0.0051978 233.12 0.19303
192.38 39811. undefined 538.96 988.93 1.8461 610.00 0.0016393 538.96 988.93 1.8461 2.4484 2.8542 1727.7 -0.0051922 233.09 0.19325 610.00 0.0016393 538.96 988.93 1.8461 2.4484 2.8542 1727.7 -0.0051922 233.09 0.19325
193.38 39943. undefined 541.41 992.88 1.8514 610.00 0.0016393 541.41 992.88 1.8514 2.4524 2.8576 1728.8 -0.0051865 233.07 0.19348 610.00 0.0016393 541.41 992.88 1.8514 2.4524 2.8576 1728.8 -0.0051865 233.07 0.19348
194.38 40075. undefined 543.86 996.82 1.8566 610.00 0.0016393 543.86 996.82 1.8566 2.4563 2.8611 1729.9 -0.0051809 233.04 0.19370 610.00 0.0016393 543.86 996.82 1.8566 2.4563 2.8611 1729.9 -0.0051809 233.04 0.19370
195.38 40207. undefined 546.32 1000.8 1.8619 610.00 0.0016393 546.32 1000.8 1.8619 2.4603 2.8646 1730.9 -0.0051754 233.01 0.19393 610.00 0.0016393 546.32 1000.8 1.8619 2.4603 2.8646 1730.9 -0.0051754 233.01 0.19393
196.38 40338. undefined 548.78 1004.7 1.8671 610.00 0.0016393 548.78 1004.7 1.8671 2.4643 2.8681 1732.0 -0.0051698 232.99 0.19415 610.00 0.0016393 548.78 1004.7 1.8671 2.4643 2.8681 1732.0 -0.0051698 232.99 0.19415
197.38 40470. undefined 551.25 1008.7 1.8724 610.00 0.0016393 551.25 1008.7 1.8724 2.4682 2.8715 1733.1 -0.0051642 232.96 0.19438 610.00 0.0016393 551.25 1008.7 1.8724 2.4682 2.8715 1733.1 -0.0051642 232.96 0.19438
198.38 40602. undefined 553.72 1012.6 1.8776 610.00 0.0016393 553.72 1012.6 1.8776 2.4722 2.8750 1734.1 -0.0051587 232.94 0.19460 610.00 0.0016393 553.72 1012.6 1.8776 2.4722 2.8750 1734.1 -0.0051587 232.94 0.19460
199.38 40733. undefined 556.19 1016.6 1.8829 610.00 0.0016393 556.19 1016.6 1.8829 2.4761 2.8784 1735.2 -0.0051532 232.91 0.19483 610.00 0.0016393 556.19 1016.6 1.8829 2.4761 2.8784 1735.2 -0.0051532 232.91 0.19483
200.38 40864. undefined 558.67 1020.6 1.8881 610.00 0.0016393 558.67 1020.6 1.8881 2.4800 2.8819 1736.3 -0.0051476 232.89 0.19506 610.00 0.0016393 558.67 1020.6 1.8881 2.4800 2.8819 1736.3 -0.0051476 232.89 0.19506
201.38 40996. undefined 561.15 1024.5 1.8934 610.00 0.0016393 561.15 1024.5 1.8934 2.4840 2.8854 1737.3 -0.0051421 232.86 0.19528 610.00 0.0016393 561.15 1024.5 1.8934 2.4840 2.8854 1737.3 -0.0051421 232.86 0.19528
202.38 41127. undefined 563.64 1028.5 1.8986 610.00 0.0016393 563.64 1028.5 1.8986 2.4879 2.8888 1738.4 -0.0051367 232.84 0.19551 610.00 0.0016393 563.64 1028.5 1.8986 2.4879 2.8888 1738.4 -0.0051367 232.84 0.19551
203.38 41258. undefined 566.13 1032.5 1.9038 610.00 0.0016393 566.13 1032.5 1.9038 2.4918 2.8922 1739.4 -0.0051312 232.81 0.19574 610.00 0.0016393 566.13 1032.5 1.9038 2.4918 2.8922 1739.4 -0.0051312 232.81 0.19574
204.38 41389. undefined 568.62 1036.4 1.9090 610.00 0.0016393 568.62 1036.4 1.9090 2.4957 2.8957 1740.5 -0.0051257 232.79 0.19596 610.00 0.0016393 568.62 1036.4 1.9090 2.4957 2.8957 1740.5 -0.0051257 232.79 0.19596
205.38 41519. undefined 571.12 1040.4 1.9143 610.00 0.0016393 571.12 1040.4 1.9143 2.4997 2.8991 1741.5 -0.0051203 232.76 0.19619 610.00 0.0016393 571.12 1040.4 1.9143 2.4997 2.8991 1741.5 -0.0051203 232.76 0.19619
206.38 41650. undefined 573.62 1044.4 1.9195 610.00 0.0016393 573.62 1044.4 1.9195 2.5036 2.9026 1742.6 -0.0051149 232.74 0.19642 610.00 0.0016393 573.62 1044.4 1.9195 2.5036 2.9026 1742.6 -0.0051149 232.74 0.19642
207.38 41781. undefined 576.13 1048.4 1.9247 610.00 0.0016393 576.13 1048.4 1.9247 2.5075 2.9060 1743.6 -0.0051095 232.72 0.19665 610.00 0.0016393 576.13 1048.4 1.9247 2.5075 2.9060 1743.6 -0.0051095 232.72 0.19665
208.38 41911. undefined 578.64 1052.4 1.9299 610.00 0.0016393 578.64 1052.4 1.9299 2.5114 2.9094 1744.7 -0.0051041 232.69 0.19688 610.00 0.0016393 578.64 1052.4 1.9299 2.5114 2.9094 1744.7 -0.0051041 232.69 0.19688
209.38 42041. undefined 581.15 1056.3 1.9351 610.00 0.0016393 581.15 1056.3 1.9351 2.5152 2.9129 1745.7 -0.0050987 232.67 0.19710 610.00 0.0016393 581.15 1056.3 1.9351 2.5152 2.9129 1745.7 -0.0050987 232.67 0.19710
210.38 42172. undefined 583.67 1060.3 1.9404 610.00 0.0016393 583.67 1060.3 1.9404 2.5191 2.9163 1746.8 -0.0050933 232.65 0.19733 610.00 0.0016393 583.67 1060.3 1.9404 2.5191 2.9163 1746.8 -0.0050933 232.65 0.19733
211.38 42302. undefined 586.19 1064.3 1.9456 610.00 0.0016393 586.19 1064.3 1.9456 2.5230 2.9197 1747.8 -0.0050880 232.63 0.19756 610.00 0.0016393 586.19 1064.3 1.9456 2.5230 2.9197 1747.8 -0.0050880 232.63 0.19756
212.38 42432. undefined 588.71 1068.3 1.9508 610.00 0.0016393 588.71 1068.3 1.9508 2.5269 2.9231 1748.9 -0.0050827 232.61 0.19779 610.00 0.0016393 588.71 1068.3 1.9508 2.5269 2.9231 1748.9 -0.0050827 232.61 0.19779
213.38 42562. undefined 591.24 1072.3 1.9560 610.00 0.0016393 591.24 1072.3 1.9560 2.5308 2.9265 1749.9 -0.0050773 232.58 0.19802 610.00 0.0016393 591.24 1072.3 1.9560 2.5308 2.9265 1749.9 -0.0050773 232.58 0.19802
214.38 42691. undefined 593.78 1076.3 1.9612 610.00 0.0016393 593.78 1076.3 1.9612 2.5346 2.9299 1750.9 -0.0050720 232.56 0.19825 610.00 0.0016393 593.78 1076.3 1.9612 2.5346 2.9299 1750.9 -0.0050720 232.56 0.19825
215.38 42821. undefined 596.31 1080.3 1.9664 610.00 0.0016393 596.31 1080.3 1.9664 2.5385 2.9333 1752.0 -0.0050667 232.54 0.19848 610.00 0.0016393 596.31 1080.3 1.9664 2.5385 2.9333 1752.0 -0.0050667 232.54 0.19848
216.38 42951. undefined 598.85 1084.3 1.9716 610.00 0.0016393 598.85 1084.3 1.9716 2.5423 2.9367 1753.0 -0.0050615 232.52 0.19871 610.00 0.0016393 598.85 1084.3 1.9716 2.5423 2.9367 1753.0 -0.0050615 232.52 0.19871
217.38 43080. undefined 601.40 1088.3 1.9768 610.00 0.0016393 601.40 1088.3 1.9768 2.5462 2.9401 1754.0 -0.0050562 232.50 0.19895 610.00 0.0016393 601.40 1088.3 1.9768 2.5462 2.9401 1754.0 -0.0050562 232.50 0.19895
218.38 43210. undefined 603.94 1092.3 1.9819 610.00 0.0016393 603.94 1092.3 1.9819 2.5500 2.9435 1755.1 -0.0050510 232.48 0.19918 610.00 0.0016393 603.94 1092.3 1.9819 2.5500 2.9435 1755.1 -0.0050510 232.48 0.19918
219.38 43339. undefined 606.50 1096.4 1.9871 610.00 0.0016393 606.50 1096.4 1.9871 2.5539 2.9469 1756.1 -0.0050457 232.46 0.19941 610.00 0.0016393 606.50 1096.4 1.9871 2.5539 2.9469 1756.1 -0.0050457 232.46 0.19941
220.38 43468. undefined 609.05 1100.4 1.9923 610.00 0.0016393 609.05 1100.4 1.9923 2.5577 2.9503 1757.1 -0.0050405 232.44 0.19964 610.00 0.0016393 609.05 1100.4 1.9923 2.5577 2.9503 1757.1 -0.0050405 232.44 0.19964
221.38 43597. undefined 611.61 1104.4 1.9975 610.00 0.0016393 611.61 1104.4 1.9975 2.5615 2.9537 1758.2 -0.0050353 232.42 0.19987 610.00 0.0016393 611.61 1104.4 1.9975 2.5615 2.9537 1758.2 -0.0050353 232.42 0.19987
222.38 43726. undefined 614.18 1108.4 2.0027 610.00 0.0016393 614.18 1108.4 2.0027 2.5654 2.9571 1759.2 -0.0050301 232.40 0.20011 610.00 0.0016393 614.18 1108.4 2.0027 2.5654 2.9571 1759.2 -0.0050301 232.40 0.20011
223.38 43855. undefined 616.74 1112.4 2.0078 610.00 0.0016393 616.74 1112.4 2.0078 2.5692 2.9605 1760.2 -0.0050250 232.38 0.20034 610.00 0.0016393 616.74 1112.4 2.0078 2.5692 2.9605 1760.2 -0.0050250 232.38 0.20034
224.38 43984. undefined 619.31 1116.5 2.0130 610.00 0.0016393 619.31 1116.5 2.0130 2.5730 2.9638 1761.2 -0.0050198 232.36 0.20057 610.00 0.0016393 619.31 1116.5 2.0130 2.5730 2.9638 1761.2 -0.0050198 232.36 0.20057
225.38 44112. undefined 621.89 1120.5 2.0182 610.00 0.0016393 621.89 1120.5 2.0182 2.5768 2.9672 1762.3 -0.0050146 232.34 0.20081 610.00 0.0016393 621.89 1120.5 2.0182 2.5768 2.9672 1762.3 -0.0050146 232.34 0.20081
226.38 44241. undefined 624.47 1124.5 2.0234 610.00 0.0016393 624.47 1124.5 2.0234 2.5806 2.9706 1763.3 -0.0050095 232.32 0.20104 610.00 0.0016393 624.47 1124.5 2.0234 2.5806 2.9706 1763.3 -0.0050095 232.32 0.20104
227.38 44369. undefined 627.05 1128.5 2.0285 610.00 0.0016393 627.05 1128.5 2.0285 2.5844 2.9739 1764.3 -0.0050044 232.30 0.20127 610.00 0.0016393 627.05 1128.5 2.0285 2.5844 2.9739 1764.3 -0.0050044 232.30 0.20127
228.38 44497. undefined 629.64 1132.6 2.0337 610.00 0.0016393 629.64 1132.6 2.0337 2.5882 2.9773 1765.3 -0.0049993 232.29 0.20151 610.00 0.0016393 629.64 1132.6 2.0337 2.5882 2.9773 1765.3 -0.0049993 232.29 0.20151
229.38 44626. undefined 632.23 1136.6 2.0388 610.00 0.0016393 632.23 1136.6 2.0388 2.5920 2.9807 1766.3 -0.0049942 232.27 0.20174 610.00 0.0016393 632.23 1136.6 2.0388 2.5920 2.9807 1766.3 -0.0049942 232.27 0.20174
230.38 44754. undefined 634.82 1140.7 2.0440 610.00 0.0016393 634.82 1140.7 2.0440 2.5957 2.9840 1767.3 -0.0049892 232.25 0.20198 610.00 0.0016393 634.82 1140.7 2.0440 2.5957 2.9840 1767.3 -0.0049892 232.25 0.20198
231.38 44882. undefined 637.42 1144.7 2.0492 610.00 0.0016393 637.42 1144.7 2.0492 2.5995 2.9874 1768.4 -0.0049841 232.23 0.20221 610.00 0.0016393 637.42 1144.7 2.0492 2.5995 2.9874 1768.4 -0.0049841 232.23 0.20221
232.38 45010. undefined 640.02 1148.8 2.0543 610.00 0.0016393 640.02 1148.8 2.0543 2.6033 2.9907 1769.4 -0.0049791 232.21 0.20245 610.00 0.0016393 640.02 1148.8 2.0543 2.6033 2.9907 1769.4 -0.0049791 232.21 0.20245
233.38 45138. undefined 642.62 1152.8 2.0595 610.00 0.0016393 642.62 1152.8 2.0595 2.6070 2.9941 1770.4 -0.0049740 232.20 0.20268 610.00 0.0016393 642.62 1152.8 2.0595 2.6070 2.9941 1770.4 -0.0049740 232.20 0.20268
234.38 45265. undefined 645.23 1156.9 2.0646 610.00 0.0016393 645.23 1156.9 2.0646 2.6108 2.9974 1771.4 -0.0049690 232.18 0.20292 610.00 0.0016393 645.23 1156.9 2.0646 2.6108 2.9974 1771.4 -0.0049690 232.18 0.20292
235.38 45393. undefined 647.85 1160.9 2.0697 610.00 0.0016393 647.85 1160.9 2.0697 2.6146 3.0007 1772.4 -0.0049640 232.16 0.20316 610.00 0.0016393 647.85 1160.9 2.0697 2.6146 3.0007 1772.4 -0.0049640 232.16 0.20316
236.38 45520. undefined 650.46 1165.0 2.0749 610.00 0.0016393 650.46 1165.0 2.0749 2.6183 3.0041 1773.4 -0.0049590 232.15 0.20339 610.00 0.0016393 650.46 1165.0 2.0749 2.6183 3.0041 1773.4 -0.0049590 232.15 0.20339
237.38 45648. undefined 653.08 1169.0 2.0800 610.00 0.0016393 653.08 1169.0 2.0800 2.6221 3.0074 1774.4 -0.0049541 232.13 0.20363 610.00 0.0016393 653.08 1169.0 2.0800 2.6221 3.0074 1774.4 -0.0049541 232.13 0.20363
238.38 45775. undefined 655.71 1173.1 2.0852 610.00 0.0016393 655.71 1173.1 2.0852 2.6258 3.0107 1775.4 -0.0049491 232.11 0.20387 610.00 0.0016393 655.71 1173.1 2.0852 2.6258 3.0107 1775.4 -0.0049491 232.11 0.20387
239.38 45902. undefined 658.33 1177.2 2.0903 610.00 0.0016393 658.33 1177.2 2.0903 2.6295 3.0140 1776.4 -0.0049442 232.10 0.20411 610.00 0.0016393 658.33 1177.2 2.0903 2.6295 3.0140 1776.4 -0.0049442 232.10 0.20411
240.38 46029. undefined 660.97 1181.2 2.0954 610.00 0.0016393 660.97 1181.2 2.0954 2.6333 3.0173 1777.4 -0.0049392 232.08 0.20434 610.00 0.0016393 660.97 1181.2 2.0954 2.6333 3.0173 1777.4 -0.0049392 232.08 0.20434
241.38 46156. undefined 663.60 1185.3 2.1005 610.00 0.0016393 663.60 1185.3 2.1005 2.6370 3.0207 1778.4 -0.0049343 232.07 0.20458 610.00 0.0016393 663.60 1185.3 2.1005 2.6370 3.0207 1778.4 -0.0049343 232.07 0.20458
242.38 46283. undefined 666.24 1189.4 2.1057 610.00 0.0016393 666.24 1189.4 2.1057 2.6407 3.0240 1779.4 -0.0049294 232.05 0.20482 610.00 0.0016393 666.24 1189.4 2.1057 2.6407 3.0240 1779.4 -0.0049294 232.05 0.20482
243.38 46410. undefined 668.88 1193.4 2.1108 610.00 0.0016393 668.88 1193.4 2.1108 2.6444 3.0273 1780.4 -0.0049245 232.03 0.20506 610.00 0.0016393 668.88 1193.4 2.1108 2.6444 3.0273 1780.4 -0.0049245 232.03 0.20506
244.38 46537. undefined 671.53 1197.5 2.1159 610.00 0.0016393 671.53 1197.5 2.1159 2.6481 3.0306 1781.4 -0.0049197 232.02 0.20530 610.00 0.0016393 671.53 1197.5 2.1159 2.6481 3.0306 1781.4 -0.0049197 232.02 0.20530
245.38 46663. undefined 674.18 1201.6 2.1210 610.00 0.0016393 674.18 1201.6 2.1210 2.6518 3.0339 1782.4 -0.0049148 232.00 0.20554 610.00 0.0016393 674.18 1201.6 2.1210 2.6518 3.0339 1782.4 -0.0049148 232.00 0.20554
246.38 46790. undefined 676.83 1205.7 2.1261 610.00 0.0016393 676.83 1205.7 2.1261 2.6555 3.0372 1783.4 -0.0049100 231.99 0.20578 610.00 0.0016393 676.83 1205.7 2.1261 2.6555 3.0372 1783.4 -0.0049100 231.99 0.20578
247.38 46916. undefined 679.49 1209.8 2.1312 610.00 0.0016393 679.49 1209.8 2.1312 2.6592 3.0405 1784.4 -0.0049051 231.98 0.20602 610.00 0.0016393 679.49 1209.8 2.1312 2.6592 3.0405 1784.4 -0.0049051 231.98 0.20602
248.38 47043. undefined 682.15 1213.9 2.1364 610.00 0.0016393 682.15 1213.9 2.1364 2.6629 3.0437 1785.4 -0.0049003 231.96 0.20626 610.00 0.0016393 682.15 1213.9 2.1364 2.6629 3.0437 1785.4 -0.0049003 231.96 0.20626
249.38 47169. undefined 684.82 1218.0 2.1415 610.00 0.0016393 684.82 1218.0 2.1415 2.6666 3.0470 1786.4 -0.0048955 231.95 0.20650 610.00 0.0016393 684.82 1218.0 2.1415 2.6666 3.0470 1786.4 -0.0048955 231.95 0.20650
250.38 47295. undefined 687.48 1222.1 2.1466 610.00 0.0016393 687.48 1222.1 2.1466 2.6702 3.0503 1787.3 -0.0048907 231.93 0.20674 610.00 0.0016393 687.48 1222.1 2.1466 2.6702 3.0503 1787.3 -0.0048907 231.93 0.20674
251.38 47421. undefined 690.16 1226.1 2.1517 610.00 0.0016393 690.16 1226.1 2.1517 2.6739 3.0536 1788.3 -0.0048859 231.92 0.20698 610.00 0.0016393 690.16 1226.1 2.1517 2.6739 3.0536 1788.3 -0.0048859 231.92 0.20698
252.38 47547. undefined 692.83 1230.2 2.1568 610.00 0.0016393 692.83 1230.2 2.1568 2.6776 3.0569 1789.3 -0.0048812 231.90 0.20722 610.00 0.0016393 692.83 1230.2 2.1568 2.6776 3.0569 1789.3 -0.0048812 231.90 0.20722
253.38 47673. undefined 695.51 1234.3 2.1618 610.00 0.0016393 695.51 1234.3 2.1618 2.6812 3.0601 1790.3 -0.0048764 231.89 0.20746 610.00 0.0016393 695.51 1234.3 2.1618 2.6812 3.0601 1790.3 -0.0048764 231.89 0.20746
254.38 47798. undefined 698.19 1238.5 2.1669 610.00 0.0016393 698.19 1238.5 2.1669 2.6849 3.0634 1791.3 -0.0048717 231.88 0.20771 610.00 0.0016393 698.19 1238.5 2.1669 2.6849 3.0634 1791.3 -0.0048717 231.88 0.20771
255.38 47924. undefined 700.88 1242.6 2.1720 610.00 0.0016393 700.88 1242.6 2.1720 2.6885 3.0666 1792.3 -0.0048670 231.86 0.20795 610.00 0.0016393 700.88 1242.6 2.1720 2.6885 3.0666 1792.3 -0.0048670 231.86 0.20795
256.38 48050. undefined 703.57 1246.7 2.1771 610.00 0.0016393 703.57 1246.7 2.1771 2.6922 3.0699 1793.2 -0.0048623 231.85 0.20819 610.00 0.0016393 703.57 1246.7 2.1771 2.6922 3.0699 1793.2 -0.0048623 231.85 0.20819
257.38 48175. undefined 706.26 1250.8 2.1822 610.00 0.0016393 706.26 1250.8 2.1822 2.6958 3.0732 1794.2 -0.0048576 231.84 0.20843 610.00 0.0016393 706.26 1250.8 2.1822 2.6958 3.0732 1794.2 -0.0048576 231.84 0.20843
258.38 48300. undefined 708.96 1254.9 2.1873 610.00 0.0016393 708.96 1254.9 2.1873 2.6994 3.0764 1795.2 -0.0048529 231.83 0.20868 610.00 0.0016393 708.96 1254.9 2.1873 2.6994 3.0764 1795.2 -0.0048529 231.83 0.20868
259.38 48426. undefined 711.66 1259.0 2.1924 610.00 0.0016393 711.66 1259.0 2.1924 2.7031 3.0796 1796.2 -0.0048482 231.81 0.20892 610.00 0.0016393 711.66 1259.0 2.1924 2.7031 3.0796 1796.2 -0.0048482 231.81 0.20892
260.38 48551. undefined 714.37 1263.1 2.1974 610.00 0.0016393 714.37 1263.1 2.1974 2.7067 3.0829 1797.1 -0.0048436 231.80 0.20916 610.00 0.0016393 714.37 1263.1 2.1974 2.7067 3.0829 1797.1 -0.0048436 231.80 0.20916
261.38 48676. undefined 717.08 1267.3 2.2025 610.00 0.0016393 717.08 1267.3 2.2025 2.7103 3.0861 1798.1 -0.0048389 231.79 0.20941 610.00 0.0016393 717.08 1267.3 2.2025 2.7103 3.0861 1798.1 -0.0048389 231.79 0.20941
262.38 48801. undefined 719.79 1271.4 2.2076 610.00 0.0016393 719.79 1271.4 2.2076 2.7139 3.0894 1799.1 -0.0048343 231.78 0.20965 610.00 0.0016393 719.79 1271.4 2.2076 2.7139 3.0894 1799.1 -0.0048343 231.78 0.20965
263.38 48926. undefined 722.50 1275.5 2.2126 610.00 0.0016393 722.50 1275.5 2.2126 2.7175 3.0926 1800.1 -0.0048297 231.76 0.20990 610.00 0.0016393 722.50 1275.5 2.2126 2.7175 3.0926 1800.1 -0.0048297 231.76 0.20990
264.38 49050. undefined 725.22 1279.6 2.2177 610.00 0.0016393 725.22 1279.6 2.2177 2.7211 3.0958 1801.0 -0.0048251 231.75 0.21014 610.00 0.0016393 725.22 1279.6 2.2177 2.7211 3.0958 1801.0 -0.0048251 231.75 0.21014
265.38 49175. undefined 727.95 1283.8 2.2228 610.00 0.0016393 727.95 1283.8 2.2228 2.7247 3.0990 1802.0 -0.0048205 231.74 0.21039 610.00 0.0016393 727.95 1283.8 2.2228 2.7247 3.0990 1802.0 -0.0048205 231.74 0.21039
266.38 49300. undefined 730.67 1287.9 2.2278 610.00 0.0016393 730.67 1287.9 2.2278 2.7283 3.1023 1803.0 -0.0048160 231.73 0.21063 610.00 0.0016393 730.67 1287.9 2.2278 2.7283 3.1023 1803.0 -0.0048160 231.73 0.21063
267.38 49424. undefined 733.40 1292.0 2.2329 610.00 0.0016393 733.40 1292.0 2.2329 2.7319 3.1055 1803.9 -0.0048114 231.72 0.21088 610.00 0.0016393 733.40 1292.0 2.2329 2.7319 3.1055 1803.9 -0.0048114 231.72 0.21088
268.38 49549. undefined 736.14 1296.2 2.2379 610.00 0.0016393 736.14 1296.2 2.2379 2.7355 3.1087 1804.9 -0.0048068 231.71 0.21112 610.00 0.0016393 736.14 1296.2 2.2379 2.7355 3.1087 1804.9 -0.0048068 231.71 0.21112
269.38 49673. undefined 738.87 1300.3 2.2430 610.00 0.0016393 738.87 1300.3 2.2430 2.7390 3.1119 1805.8 -0.0048023 231.70 0.21137 610.00 0.0016393 738.87 1300.3 2.2430 2.7390 3.1119 1805.8 -0.0048023 231.70 0.21137
270.38 49797. undefined 741.62 1304.5 2.2480 610.00 0.0016393 741.62 1304.5 2.2480 2.7426 3.1151 1806.8 -0.0047978 231.69 0.21162 610.00 0.0016393 741.62 1304.5 2.2480 2.7426 3.1151 1806.8 -0.0047978 231.69 0.21162
271.38 49921. undefined 744.36 1308.6 2.2531 610.00 0.0016393 744.36 1308.6 2.2531 2.7462 3.1183 1807.8 -0.0047933 231.67 0.21186 610.00 0.0016393 744.36 1308.6 2.2531 2.7462 3.1183 1807.8 -0.0047933 231.67 0.21186
272.38 50045. undefined 747.11 1312.8 2.2581 610.00 0.0016393 747.11 1312.8 2.2581 2.7497 3.1215 1808.7 -0.0047888 231.66 0.21211 610.00 0.0016393 747.11 1312.8 2.2581 2.7497 3.1215 1808.7 -0.0047888 231.66 0.21211
273.38 50169. undefined 749.86 1316.9 2.2631 610.00 0.0016393 749.86 1316.9 2.2631 2.7533 3.1247 1809.7 -0.0047843 231.65 0.21236 610.00 0.0016393 749.86 1316.9 2.2631 2.7533 3.1247 1809.7 -0.0047843 231.65 0.21236
274.38 50293. undefined 752.61 1321.1 2.2682 610.00 0.0016393 752.61 1321.1 2.2682 2.7568 3.1279 1810.6 -0.0047798 231.64 0.21261 610.00 0.0016393 752.61 1321.1 2.2682 2.7568 3.1279 1810.6 -0.0047798 231.64 0.21261
275.38 50417. undefined 755.37 1325.2 2.2732 610.00 0.0016393 755.37 1325.2 2.2732 2.7604 3.1310 1811.6 -0.0047754 231.63 0.21286 610.00 0.0016393 755.37 1325.2 2.2732 2.7604 3.1310 1811.6 -0.0047754 231.63 0.21286
276.38 50540. undefined 758.14 1329.4 2.2782 610.00 0.0016393 758.14 1329.4 2.2782 2.7639 3.1342 1812.5 -0.0047709 231.62 0.21310 610.00 0.0016393 758.14 1329.4 2.2782 2.7639 3.1342 1812.5 -0.0047709 231.62 0.21310
277.38 50664. undefined 760.90 1333.5 2.2833 610.00 0.0016393 760.90 1333.5 2.2833 2.7674 3.1374 1813.5 -0.0047665 231.61 0.21335 610.00 0.0016393 760.90 1333.5 2.2833 2.7674 3.1374 1813.5 -0.0047665 231.61 0.21335
278.38 50787. undefined 763.67 1337.7 2.2883 610.00 0.0016393 763.67 1337.7 2.2883 2.7710 3.1406 1814.4 -0.0047621 231.60 0.21360 610.00 0.0016393 763.67 1337.7 2.2883 2.7710 3.1406 1814.4 -0.0047621 231.60 0.21360
279.38 50911. undefined 766.44 1341.9 2.2933 610.00 0.0016393 766.44 1341.9 2.2933 2.7745 3.1437 1815.4 -0.0047577 231.59 0.21385 610.00 0.0016393 766.44 1341.9 2.2933 2.7745 3.1437 1815.4 -0.0047577 231.59 0.21385
280.38 51034. undefined 769.22 1346.1 2.2983 610.00 0.0016393 769.22 1346.1 2.2983 2.7780 3.1469 1816.3 -0.0047533 231.59 0.21410 610.00 0.0016393 769.22 1346.1 2.2983 2.7780 3.1469 1816.3 -0.0047533 231.59 0.21410
281.38 51157. undefined 772.00 1350.2 2.3034 610.00 0.0016393 772.00 1350.2 2.3034 2.7815 3.1501 1817.3 -0.0047489 231.58 0.21435 610.00 0.0016393 772.00 1350.2 2.3034 2.7815 3.1501 1817.3 -0.0047489 231.58 0.21435
282.38 51280. undefined 774.78 1354.4 2.3084 610.00 0.0016393 774.78 1354.4 2.3084 2.7850 3.1532 1818.2 -0.0047446 231.57 0.21442 610.00 0.0016393 774.78 1354.4 2.3084 2.7850 3.1532 1818.2 -0.0047446 231.57 0.21442
283.38 51404. undefined 777.57 1358.6 2.3134 610.00 0.0016393 777.57 1358.6 2.3134 2.7885 3.1564 1819.2 -0.0047402 231.56 0.21467 610.00 0.0016393 777.57 1358.6 2.3134 2.7885 3.1564 1819.2 -0.0047402 231.56 0.21467
284.38 51526. undefined 780.36 1362.8 2.3184 610.00 0.0016393 780.36 1362.8 2.3184 2.7920 3.1595 1820.1 -0.0047359 231.55 0.21492 610.00 0.0016393 780.36 1362.8 2.3184 2.7920 3.1595 1820.1 -0.0047359 231.55 0.21492
285.38 51649. undefined 783.15 1366.9 2.3234 610.00 0.0016393 783.15 1366.9 2.3234 2.7955 3.1627 1821.1 -0.0047315 231.54 0.21517 610.00 0.0016393 783.15 1366.9 2.3234 2.7955 3.1627 1821.1 -0.0047315 231.54 0.21517
286.38 51772. undefined 785.95 1371.1 2.3284 610.00 0.0016393 785.95 1371.1 2.3284 2.7990 3.1658 1822.0 -0.0047272 231.53 0.21543 610.00 0.0016393 785.95 1371.1 2.3284 2.7990 3.1658 1822.0 -0.0047272 231.53 0.21543
287.38 51895. undefined 788.75 1375.3 2.3334 610.00 0.0016393 788.75 1375.3 2.3334 2.8025 3.1689 1823.0 -0.0047229 231.52 0.21568 610.00 0.0016393 788.75 1375.3 2.3334 2.8025 3.1689 1823.0 -0.0047229 231.52 0.21568
288.38 52017. undefined 791.56 1379.5 2.3384 610.00 0.0016393 791.56 1379.5 2.3384 2.8060 3.1721 1823.9 -0.0047186 231.52 0.21593 610.00 0.0016393 791.56 1379.5 2.3384 2.8060 3.1721 1823.9 -0.0047186 231.52 0.21593
289.38 52140. undefined 794.36 1383.7 2.3434 610.00 0.0016393 794.36 1383.7 2.3434 2.8094 3.1752 1824.8 -0.0047143 231.51 0.21618 610.00 0.0016393 794.36 1383.7 2.3434 2.8094 3.1752 1824.8 -0.0047143 231.51 0.21618
290.38 52262. undefined 797.17 1387.9 2.3484 610.00 0.0016393 797.17 1387.9 2.3484 2.8129 3.1783 1825.8 -0.0047101 231.50 0.21643 610.00 0.0016393 797.17 1387.9 2.3484 2.8129 3.1783 1825.8 -0.0047101 231.50 0.21643
291.38 52385. undefined 799.99 1392.1 2.3534 610.00 0.0016393 799.99 1392.1 2.3534 2.8164 3.1814 1826.7 -0.0047058 231.49 0.21668 610.00 0.0016393 799.99 1392.1 2.3534 2.8164 3.1814 1826.7 -0.0047058 231.49 0.21668
292.38 52507. undefined 802.81 1396.3 2.3584 610.00 0.0016393 802.81 1396.3 2.3584 2.8198 3.1846 1827.6 -0.0047016 231.48 0.21694 610.00 0.0016393 802.81 1396.3 2.3584 2.8198 3.1846 1827.6 -0.0047016 231.48 0.21694
293.38 52629. undefined 805.63 1400.5 2.3634 610.00 0.0016393 805.63 1400.5 2.3634 2.8233 3.1877 1828.6 -0.0046973 231.48 0.21719 610.00 0.0016393 805.63 1400.5 2.3634 2.8233 3.1877 1828.6 -0.0046973 231.48 0.21719
294.38 52751. undefined 808.45 1404.7 2.3683 610.00 0.0016393 808.45 1404.7 2.3683 2.8267 3.1908 1829.5 -0.0046931 231.47 0.21744 610.00 0.0016393 808.45 1404.7 2.3683 2.8267 3.1908 1829.5 -0.0046931 231.47 0.21744
295.38 52873. undefined 811.28 1408.9 2.3733 610.00 0.0016393 811.28 1408.9 2.3733 2.8302 3.1939 1830.4 -0.0046889 231.46 0.21770 610.00 0.0016393 811.28 1408.9 2.3733 2.8302 3.1939 1830.4 -0.0046889 231.46 0.21770
296.38 52995. undefined 814.11 1413.1 2.3783 610.00 0.0016393 814.11 1413.1 2.3783 2.8336 3.1970 1831.4 -0.0046847 231.45 0.21795 610.00 0.0016393 814.11 1413.1 2.3783 2.8336 3.1970 1831.4 -0.0046847 231.45 0.21795
297.38 53117. undefined 816.95 1417.3 2.3833 610.00 0.0016393 816.95 1417.3 2.3833 2.8370 3.2001 1832.3 -0.0046805 231.45 0.21820 610.00 0.0016393 816.95 1417.3 2.3833 2.8370 3.2001 1832.3 -0.0046805 231.45 0.21820
298.38 53238. undefined 819.79 1421.5 2.3882 610.00 0.0016393 819.79 1421.5 2.3882 2.8405 3.2032 1833.2 -0.0046764 231.44 0.21846 610.00 0.0016393 819.79 1421.5 2.3882 2.8405 3.2032 1833.2 -0.0046764 231.44 0.21846
299.38 53360. undefined 822.63 1425.8 2.3932 610.00 0.0016393 822.63 1425.8 2.3932 2.8439 3.2063 1834.1 -0.0046722 231.43 0.21871 610.00 0.0016393 822.63 1425.8 2.3932 2.8439 3.2063 1834.1 -0.0046722 231.43 0.21871
300.38 53482. undefined 825.48 1430.0 2.3982 610.00 0.0016393 825.48 1430.0 2.3982 2.8473 3.2094 1835.1 -0.0046681 231.43 0.21897 610.00 0.0016393 825.48 1430.0 2.3982 2.8473 3.2094 1835.1 -0.0046681 231.43 0.21897