Temperature (C) Pressure (psia) Quality (l+v) Internal Energy (l+v, kJ/kg) Enthalpy (l+v, kJ/kg) Entropy (l+v, J/g*K) Density (l, kg/m3) Volume (l, m3/kg) Internal Energy (l, kJ/kg) Enthalpy (l, kJ/kg) Entropy (l, J/g*K) Cv (l, J/g*K) Cp (l, J/g*K) Sound Spd. (l, m/s) Joule-Thomson (l, F/psia) Viscosity (l, uPa*s) Therm. Cond. (l, W/m*K) Density (v, kg/m3) Volume (v, m3/kg) Internal Energy (v, kJ/kg) Enthalpy (v, kJ/kg) Entropy (v, J/g*K) Cv (v, J/g*K) Cp (v, J/g*K) Sound Spd. (v, m/s) Joule-Thomson (v, F/psia) Viscosity (v, uPa*s) Therm. Cond. (v, W/m*K)
-187.62 2.4953e-08 2.6552e-12 -196.64 -196.64 -1.3959 733.13 0.0013640 -196.64 -196.64 -1.3959 1.3553 1.9158 2136.4 -0.0077592 10960. 0.20792 1.0669e-08 9.3732e+07 350.13 366.26 5.1858 0.69067 0.87923 143.28 6.1051 2.3259 0.0017061
-186.62 3.7339e-08 3.8966e-12 -194.73 -194.73 -1.3736 732.08 0.0013660 -194.73 -194.73 -1.3736 1.3539 1.9166 2129.6 -0.0077546 10073. 0.20765 1.5780e-08 6.3371e+07 350.82 367.14 5.1200 0.69462 0.88317 144.03 5.9178 2.3534 0.0017533
-185.62 5.5322e-08 5.6622e-12 -192.81 -192.81 -1.3516 731.04 0.0013679 -192.81 -192.81 -1.3516 1.3525 1.9174 2122.9 -0.0077498 9276.1 0.20737 2.3112e-08 4.3267e+07 351.52 368.02 5.0561 0.69857 0.88713 144.77 5.7383 2.3808 0.0018007
-184.62 8.1182e-08 8.1498e-12 -190.89 -190.89 -1.3298 730.00 0.0013699 -190.89 -190.89 -1.3298 1.3513 1.9182 2116.1 -0.0077448 8557.8 0.20708 3.3533e-08 2.9821e+07 352.22 368.91 4.9939 0.70253 0.89108 145.51 5.5662 2.4083 0.0018485
-183.62 1.1803e-07 1.1623e-11 -188.97 -188.97 -1.3083 728.96 0.0013718 -188.97 -188.97 -1.3083 1.3501 1.9191 2109.3 -0.0077395 7909.8 0.20678 4.8211e-08 2.0742e+07 352.92 369.81 4.9333 0.70648 0.89504 146.24 5.4011 2.4357 0.0018965
-182.62 1.7009e-07 1.6429e-11 -187.05 -187.05 -1.2869 727.92 0.0013738 -187.05 -187.05 -1.2869 1.3490 1.9201 2102.5 -0.0077340 7324.3 0.20647 6.8704e-08 1.4555e+07 353.63 370.70 4.8744 0.71043 0.89899 146.97 5.2426 2.4632 0.0019448
-181.62 2.4299e-07 2.3024e-11 -185.13 -185.13 -1.2658 726.88 0.0013757 -185.13 -185.13 -1.2658 1.3480 1.9210 2095.7 -0.0077283 6794.5 0.20616 9.7079e-08 1.0301e+07 354.35 371.60 4.8170 0.71438 0.90294 147.69 5.0904 2.4906 0.0019934
-180.62 3.4425e-07 3.1999e-11 -183.21 -183.21 -1.2450 725.85 0.0013777 -183.21 -183.21 -1.2450 1.3470 1.9220 2088.9 -0.0077225 6314.4 0.20584 1.3605e-07 7.3504e+06 355.06 372.51 4.7612 0.71833 0.90688 148.41 4.9442 2.5181 0.0020423
-179.62 4.8378e-07 4.4117e-11 -181.29 -181.29 -1.2243 724.81 0.0013797 -181.29 -181.29 -1.2243 1.3461 1.9231 2082.0 -0.0077164 5878.8 0.20551 1.8915e-07 5.2868e+06 355.78 373.42 4.7068 0.72227 0.91082 149.13 4.8038 2.5456 0.0020915
-178.62 6.7459e-07 6.0353e-11 -179.37 -179.37 -1.2038 723.78 0.0013816 -179.37 -179.37 -1.2038 1.3453 1.9241 2075.2 -0.0077102 5482.9 0.20517 2.6096e-07 3.8320e+06 356.51 374.33 4.6538 0.72620 0.91475 149.84 4.6688 2.5731 0.0021410
-177.62 9.3358e-07 8.1944e-11 -177.44 -177.44 -1.1836 722.75 0.0013836 -177.44 -177.44 -1.1836 1.3445 1.9252 2068.4 -0.0077039 5122.6 0.20483 3.5737e-07 2.7982e+06 357.23 375.25 4.6022 0.73012 0.91867 150.54 4.5390 2.6005 0.0021907
-176.62 1.2826e-06 1.1045e-10 -175.52 -175.52 -1.1635 721.72 0.0013856 -175.52 -175.52 -1.1635 1.3437 1.9263 2061.5 -0.0076973 4794.1 0.20447 4.8588e-07 2.0581e+06 357.97 376.17 4.5519 0.73403 0.92258 151.25 4.4142 2.6280 0.0022408
-175.62 1.7496e-06 1.4783e-10 -173.59 -173.59 -1.1437 720.69 0.0013876 -173.59 -173.59 -1.1437 1.3430 1.9274 2054.7 -0.0076907 4494.3 0.20411 6.5601e-07 1.5244e+06 358.70 377.09 4.5029 0.73792 0.92648 151.95 4.2941 2.6555 0.0022912
-174.62 2.3705e-06 1.9651e-10 -171.66 -171.66 -1.1240 719.66 0.0013895 -171.66 -171.66 -1.1240 1.3423 1.9286 2047.9 -0.0076838 4220.2 0.20375 8.7976e-07 1.1367e+06 359.44 378.02 4.4551 0.74181 0.93036 152.64 4.1784 2.6830 0.0023418
-173.62 3.1903e-06 2.5948e-10 -169.73 -169.73 -1.1045 718.64 0.0013915 -169.73 -169.73 -1.1045 1.3417 1.9298 2041.0 -0.0076769 3969.3 0.20338 1.1721e-06 8.5314e+05 360.19 378.95 4.4085 0.74568 0.93423 153.33 4.0671 2.7105 0.0023928
-172.62 4.2661e-06 3.4045e-10 -167.80 -167.80 -1.0852 717.61 0.0013935 -167.80 -167.80 -1.0852 1.3411 1.9310 2034.2 -0.0076698 3739.3 0.20300 1.5518e-06 6.4441e+05 360.93 379.89 4.3631 0.74953 0.93809 154.02 3.9599 2.7379 0.0024440
-171.62 5.6692e-06 4.4390e-10 -165.87 -165.87 -1.0661 716.58 0.0013955 -165.87 -165.87 -1.0661 1.3405 1.9322 2027.3 -0.0076625 3528.0 0.20261 2.0419e-06 4.8974e+05 361.69 380.83 4.3188 0.75337 0.94193 154.71 3.8566 2.7654 0.0024955
-170.62 7.4884e-06 5.7528e-10 -163.94 -163.94 -1.0472 715.56 0.0013975 -163.94 -163.94 -1.0472 1.3400 1.9334 2020.5 -0.0076552 3333.8 0.20222 2.6708e-06 3.7442e+05 362.44 381.77 4.2755 0.75720 0.94575 155.39 3.7570 2.7929 0.0025473
-169.62 9.8334e-06 7.4119e-10 -162.00 -162.00 -1.0284 714.54 0.0013995 -162.00 -162.00 -1.0284 1.3395 1.9347 2013.6 -0.0076477 3154.9 0.20182 3.4733e-06 2.8791e+05 363.20 382.72 4.2334 0.76100 0.94956 156.07 3.6609 2.8204 0.0025994
-168.62 1.2839e-05 9.4950e-10 -160.07 -160.07 -1.0098 713.52 0.0014015 -160.07 -160.07 -1.0098 1.3390 1.9359 2006.8 -0.0076401 2989.9 0.20141 4.4917e-06 2.2263e+05 363.96 383.67 4.1922 0.76479 0.95335 156.74 3.5683 2.8479 0.0026518
-167.62 1.6672e-05 1.2096e-09 -158.13 -158.13 -0.99134 712.49 0.0014035 -158.13 -158.13 -0.99134 1.3386 1.9372 2000.0 -0.0076323 2837.5 0.20100 5.7771e-06 1.7310e+05 364.73 384.63 4.1521 0.76856 0.95712 157.41 3.4790 2.8754 0.0027045
-166.62 2.1533e-05 1.5328e-09 -156.19 -156.19 -0.97306 711.47 0.0014055 -156.19 -156.19 -0.97306 1.3382 1.9385 1993.1 -0.0076245 2696.5 0.20058 7.3914e-06 1.3529e+05 365.50 385.59 4.1129 0.77232 0.96087 158.08 3.3927 2.9029 0.0027575
-165.62 2.7666e-05 1.9321e-09 -154.25 -154.25 -0.95494 710.45 0.0014075 -154.25 -154.25 -0.95494 1.3378 1.9398 1986.3 -0.0076165 2566.0 0.20016 9.4084e-06 1.0629e+05 366.27 386.55 4.0746 0.77605 0.96460 158.75 3.3095 2.9304 0.0028108
-164.62 3.5367e-05 2.4230e-09 -152.31 -152.31 -0.93698 709.44 0.0014096 -152.31 -152.31 -0.93698 1.3375 1.9411 1979.4 -0.0076084 2444.9 0.19973 1.1916e-05 83918. 367.05 387.52 4.0372 0.77976 0.96832 159.41 3.2291 2.9579 0.0028643
-163.62 4.4989e-05 3.0237e-09 -150.37 -150.37 -0.91917 708.42 0.0014116 -150.37 -150.37 -0.91917 1.3371 1.9424 1972.6 -0.0076002 2332.3 0.19930 1.5020e-05 66577. 367.83 388.49 4.0008 0.78346 0.97201 160.07 3.1514 2.9854 0.0029182
-162.62 5.6956e-05 3.7551e-09 -148.43 -148.43 -0.90151 707.40 0.0014136 -148.43 -148.43 -0.90151 1.3368 1.9437 1965.8 -0.0075919 2227.7 0.19886 1.8844e-05 53068. 368.62 389.46 3.9651 0.78713 0.97569 160.72 3.0764 3.0129 0.0029723
-161.62 7.1773e-05 4.6417e-09 -146.48 -146.48 -0.88400 706.38 0.0014157 -146.48 -146.48 -0.88400 1.3365 1.9451 1959.0 -0.0075834 2130.2 0.19841 2.3533e-05 42494. 369.41 390.44 3.9304 0.79079 0.97935 161.38 3.0038 3.0404 0.0030268
-160.62 9.0036e-05 5.7114e-09 -144.54 -144.54 -0.86663 705.37 0.0014177 -144.54 -144.54 -0.86663 1.3363 1.9465 1952.1 -0.0075748 2039.2 0.19796 2.9258e-05 34178. 370.20 391.42 3.8964 0.79443 0.98298 162.03 2.9337 3.0679 0.0030815
-159.62 0.00011245 6.9964e-09 -142.59 -142.59 -0.84940 704.35 0.0014197 -142.59 -142.59 -0.84940 1.3360 1.9478 1945.3 -0.0075661 1954.2 0.19751 3.6221e-05 27609. 371.00 392.40 3.8632 0.79805 0.98660 162.68 2.8658 3.0955 0.0031365
-158.62 0.00013985 8.5336e-09 -140.64 -140.64 -0.83231 703.34 0.0014218 -140.64 -140.64 -0.83231 1.3358 1.9492 1938.5 -0.0075573 1874.8 0.19705 4.4652e-05 22395. 371.80 393.39 3.8307 0.80164 0.99020 163.32 2.8002 3.1230 0.0031918
-157.62 0.00017320 1.0365e-08 -138.69 -138.69 -0.81536 702.32 0.0014238 -138.69 -138.69 -0.81536 1.3356 1.9506 1931.7 -0.0075484 1800.3 0.19658 5.4822e-05 18241. 372.60 394.38 3.7990 0.80522 0.99378 163.96 2.7367 3.1505 0.0032474
-156.62 0.00021364 1.2537e-08 -136.74 -136.74 -0.79854 701.31 0.0014259 -136.74 -136.74 -0.79854 1.3354 1.9520 1924.9 -0.0075393 1730.5 0.19611 6.7040e-05 14916. 373.41 395.38 3.7680 0.80878 0.99734 164.60 2.6752 3.1780 0.0033033
-155.62 0.00026248 1.5103e-08 -134.79 -134.79 -0.78185 700.30 0.0014280 -134.79 -134.79 -0.78185 1.3352 1.9534 1918.1 -0.0075302 1664.9 0.19564 8.1666e-05 12245. 374.22 396.38 3.7377 0.81232 1.0009 165.24 2.6157 3.2055 0.0033595
-154.62 0.00032125 1.8124e-08 -132.83 -132.83 -0.76530 699.29 0.0014300 -132.83 -132.83 -0.76530 1.3350 1.9548 1911.3 -0.0075209 1603.3 0.19516 9.9109e-05 10090. 375.03 397.38 3.7081 0.81585 1.0044 165.87 2.5580 3.2330 0.0034160
-153.62 0.00039171 2.1667e-08 -130.88 -130.88 -0.74887 698.27 0.0014321 -130.88 -130.88 -0.74887 1.3349 1.9563 1904.5 -0.0075114 1545.3 0.19468 0.00011984 8344.6 375.85 398.39 3.6792 0.81935 1.0079 166.50 2.5022 3.2606 0.0034727
-152.62 0.00047590 2.5805e-08 -128.92 -128.92 -0.73256 697.26 0.0014342 -128.92 -128.92 -0.73256 1.3348 1.9577 1897.8 -0.0075019 1490.6 0.19419 0.00014439 6925.9 376.67 399.40 3.6509 0.82284 1.0114 167.13 2.4481 3.2881 0.0035298
-151.62 0.00057613 3.0621e-08 -126.96 -126.96 -0.71638 696.25 0.0014363 -126.96 -126.96 -0.71638 1.3346 1.9592 1891.0 -0.0074922 1438.9 0.19370 0.00017336 5768.4 377.49 400.41 3.6232 0.82631 1.0149 167.76 2.3957 3.3156 0.0035872
-150.62 0.00069507 3.6208e-08 -125.00 -125.00 -0.70032 695.24 0.0014384 -125.00 -125.00 -0.70032 1.3345 1.9606 1884.2 -0.0074824 1390.2 0.19320 0.00020744 4820.7 378.32 401.42 3.5962 0.82976 1.0183 168.38 2.3448 3.3431 0.0036448
-149.62 0.00083574 4.2666e-08 -123.04 -123.04 -0.68438 694.23 0.0014404 -123.04 -123.04 -0.68438 1.3345 1.9621 1877.4 -0.0074724 1344.0 0.19270 0.00024740 4042.0 379.15 402.44 3.5697 0.83319 1.0218 169.00 2.2956 3.3706 0.0037027
-148.62 0.0010016 5.0104e-08 -121.08 -121.08 -0.66855 693.22 0.0014425 -121.08 -121.08 -0.66855 1.3344 1.9636 1870.7 -0.0074623 1300.3 0.19220 0.00029412 3400.0 379.99 403.47 3.5438 0.83661 1.0252 169.62 2.2478 3.3982 0.0037610
-147.62 0.0011965 5.8644e-08 -119.11 -119.11 -0.65284 692.21 0.0014447 -119.11 -119.11 -0.65284 1.3343 1.9651 1863.9 -0.0074521 1258.9 0.19169 0.00034856 2869.0 380.83 404.49 3.5185 0.84001 1.0286 170.24 2.2014 3.4257 0.0038195
-146.62 0.0014249 6.8417e-08 -117.15 -117.15 -0.63724 691.20 0.0014468 -117.15 -117.15 -0.63724 1.3343 1.9666 1857.2 -0.0074417 1219.6 0.19117 0.00041181 2428.3 381.67 405.52 3.4938 0.84340 1.0320 170.85 2.1565 3.4532 0.0038783
-145.62 0.0016917 7.9566e-08 -115.18 -115.18 -0.62175 690.19 0.0014489 -115.18 -115.18 -0.62175 1.3343 1.9682 1850.4 -0.0074312 1182.3 0.19066 0.00048510 2061.4 382.51 406.56 3.4695 0.84677 1.0353 171.46 2.1128 3.4807 0.0039374
-144.62 0.0020026 9.2243e-08 -113.21 -113.21 -0.60637 689.18 0.0014510 -113.21 -113.21 -0.60637 1.3343 1.9697 1843.7 -0.0074206 1146.8 0.19014 0.00056976 1755.1 383.36 407.59 3.4458 0.85012 1.0387 172.07 2.0705 3.5082 0.0039967
-143.62 0.0023637 1.0661e-07 -111.24 -111.24 -0.59110 688.17 0.0014531 -111.24 -111.24 -0.59110 1.3343 1.9713 1836.9 -0.0074098 1113.0 0.18962 0.00066731 1498.6 384.21 408.63 3.4226 0.85346 1.0420 172.68 2.0294 3.5358 0.0040564
-142.62 0.0027820 1.2286e-07 -109.27 -109.27 -0.57593 687.16 0.0014553 -109.27 -109.27 -0.57593 1.3343 1.9728 1830.2 -0.0073988 1080.8 0.18909 0.00077939 1283.1 385.07 409.68 3.3999 0.85679 1.0454 173.28 1.9896 3.5633 0.0041164
-141.62 0.0032653 1.4116e-07 -107.30 -107.30 -0.56087 686.15 0.0014574 -107.30 -107.30 -0.56087 1.3343 1.9744 1823.5 -0.0073878 1050.1 0.18856 0.00090784 1101.5 385.93 410.72 3.3777 0.86011 1.0487 173.88 1.9508 3.5908 0.0041766
-140.62 0.0038222 1.6173e-07 -105.32 -105.32 -0.54591 685.14 0.0014596 -105.32 -105.32 -0.54591 1.3344 1.9760 1816.7 -0.0073765 1020.7 0.18803 0.0010547 948.16 386.79 411.77 3.3560 0.86341 1.0520 174.48 1.9133 3.6183 0.0042372
-139.62 0.0044623 1.8477e-07 -103.34 -103.34 -0.53105 684.13 0.0014617 -103.34 -103.34 -0.53105 1.3344 1.9776 1810.0 -0.0073651 992.74 0.18749 0.0012221 818.26 387.65 412.83 3.3347 0.86670 1.0553 175.08 1.8768 3.6459 0.0042980
-138.62 0.0051963 2.1051e-07 -101.37 -101.37 -0.51629 683.12 0.0014639 -101.37 -101.37 -0.51629 1.3345 1.9792 1803.3 -0.0073536 965.97 0.18695 0.0014125 707.94 388.52 413.88 3.3139 0.86998 1.0586 175.67 1.8413 3.6734 0.0043592
-137.62 0.0060358 2.3919e-07 -99.386 -99.386 -0.50162 682.11 0.0014660 -99.386 -99.386 -0.50162 1.3346 1.9808 1796.6 -0.0073419 940.35 0.18641 0.0016287 614.00 389.39 414.94 3.2935 0.87325 1.0619 176.26 1.8069 3.7009 0.0044206
-136.62 0.0069938 2.7105e-07 -97.404 -97.404 -0.48705 681.10 0.0014682 -97.404 -97.404 -0.48705 1.3347 1.9825 1789.9 -0.0073301 915.81 0.18586 0.0018733 533.80 390.26 416.00 3.2735 0.87650 1.0651 176.85 1.7734 3.7284 0.0044823
-135.62 0.0080843 3.0635e-07 -95.421 -95.421 -0.47258 680.09 0.0014704 -95.421 -95.421 -0.47258 1.3348 1.9841 1783.2 -0.0073180 892.30 0.18531 0.0021497 465.17 391.14 417.07 3.2540 0.87975 1.0684 177.44 1.7409 3.7559 0.0045443
-134.62 0.0093230 3.4536e-07 -93.436 -93.436 -0.45820 679.08 0.0014726 -93.436 -93.436 -0.45820 1.3350 1.9858 1776.5 -0.0073059 869.75 0.18476 0.0024613 406.30 392.02 418.14 3.2348 0.88299 1.0716 178.02 1.7093 3.7834 0.0046066
-133.62 0.010727 3.8835e-07 -91.449 -91.449 -0.44391 678.07 0.0014748 -91.450 -91.449 -0.44391 1.3351 1.9875 1769.8 -0.0072935 848.11 0.18421 0.0028116 355.67 392.91 419.21 3.2161 0.88622 1.0749 178.61 1.6786 3.8109 0.0046691
-132.62 0.012315 4.3560e-07 -89.461 -89.461 -0.42971 677.06 0.0014770 -89.461 -89.461 -0.42971 1.3353 1.9892 1763.1 -0.0072810 827.32 0.18365 0.0032049 312.03 393.79 420.29 3.1977 0.88944 1.0781 179.19 1.6488 3.8385 0.0047320
-131.62 0.014106 4.8741e-07 -87.471 -87.471 -0.41560 676.04 0.0014792 -87.471 -87.471 -0.41560 1.3354 1.9909 1756.4 -0.0072684 807.34 0.18309 0.0036453 274.33 394.68 421.36 3.1798 0.89266 1.0813 179.76 1.6197 3.8660 0.0047951
-130.62 0.016124 5.4406e-07 -85.479 -85.479 -0.40157 675.03 0.0014814 -85.479 -85.479 -0.40157 1.3356 1.9926 1749.7 -0.0072555 788.12 0.18253 0.0041375 241.69 395.58 422.44 3.1622 0.89586 1.0846 180.34 1.5915 3.8935 0.0048586
-129.62 0.018392 6.0585e-07 -83.486 -83.485 -0.38763 674.02 0.0014836 -83.486 -83.486 -0.38763 1.3358 1.9944 1743.0 -0.0072425 769.63 0.18196 0.0046867 213.37 396.47 423.53 3.1450 0.89906 1.0878 180.91 1.5641 3.9210 0.0049223
-128.62 0.020935 6.7306e-07 -81.490 -81.490 -0.37378 673.01 0.0014859 -81.491 -81.490 -0.37378 1.3360 1.9961 1736.3 -0.0072294 751.83 0.18140 0.0052981 188.75 397.37 424.62 3.1281 0.90226 1.0910 181.48 1.5374 3.9485 0.0049863
-127.62 0.023783 7.4600e-07 -79.493 -79.493 -0.36001 672.00 0.0014881 -79.494 -79.493 -0.36001 1.3363 1.9979 1729.6 -0.0072160 734.67 0.18083 0.0059776 167.29 398.27 425.71 3.1116 0.90545 1.0942 182.05 1.5114 3.9760 0.0050506
-126.62 0.026966 8.2494e-07 -77.494 -77.494 -0.34632 670.98 0.0014904 -77.495 -77.495 -0.34632 1.3365 1.9997 1722.9 -0.0072025 718.14 0.18025 0.0067313 148.56 399.18 426.80 3.0954 0.90863 1.0974 182.62 1.4861 4.0035 0.0051152
-125.62 0.030515 9.1016e-07 -75.494 -75.493 -0.33271 669.97 0.0014926 -75.494 -75.494 -0.33272 1.3368 2.0015 1716.2 -0.0071888 702.18 0.17968 0.0075660 132.17 400.09 427.89 3.0795 0.91181 1.1006 183.18 1.4615 4.0310 0.0051800
-124.62 0.034467 1.0019e-06 -73.491 -73.491 -0.31919 668.95 0.0014949 -73.492 -73.492 -0.31919 1.3371 2.0033 1709.5 -0.0071749 686.79 0.17910 0.0084885 117.81 401.00 428.99 3.0640 0.91499 1.1038 183.74 1.4375 4.0584 0.0052452
-123.62 0.038859 1.1005e-06 -71.487 -71.487 -0.30574 667.94 0.0014971 -71.488 -71.487 -0.30574 1.3374 2.0051 1702.8 -0.0071609 671.93 0.17852 0.0095065 105.19 401.91 430.10 3.0488 0.91816 1.1070 184.30 1.4141 4.0859 0.0053106
-122.62 0.043731 1.2061e-06 -69.481 -69.481 -0.29236 666.92 0.0014994 -69.482 -69.481 -0.29237 1.3377 2.0070 1696.2 -0.0071466 657.57 0.17794 0.010628 94.092 402.83 431.20 3.0339 0.92134 1.1102 184.86 1.3913 4.1134 0.0053764
-121.62 0.049128 1.3189e-06 -67.473 -67.473 -0.27907 665.91 0.0015017 -67.474 -67.473 -0.27907 1.3380 2.0089 1689.5 -0.0071322 643.70 0.17736 0.011861 84.309 403.75 432.31 3.0193 0.92451 1.1134 185.41 1.3691 4.1409 0.0054424
-120.62 0.055096 1.4392e-06 -65.463 -65.463 -0.26585 664.89 0.0015040 -65.464 -65.463 -0.26585 1.3384 2.0107 1682.8 -0.0071176 630.28 0.17678 0.013215 75.669 404.67 433.42 3.0050 0.92767 1.1166 185.96 1.3475 4.1683 0.0055087
-119.62 0.061684 1.5670e-06 -63.451 -63.451 -0.25270 663.87 0.0015063 -63.452 -63.452 -0.25271 1.3387 2.0126 1676.1 -0.0071028 617.30 0.17619 0.014700 68.027 405.60 434.53 2.9909 0.93084 1.1198 186.51 1.3264 4.1958 0.0055752
-118.62 0.068946 1.7025e-06 -61.438 -61.437 -0.23963 662.86 0.0015086 -61.439 -61.438 -0.23963 1.3391 2.0146 1669.4 -0.0070878 604.74 0.17560 0.016325 61.255 406.53 435.64 2.9772 0.93401 1.1231 187.06 1.3058 4.2233 0.0056421
-117.62 0.076937 1.8457e-06 -59.422 -59.421 -0.22663 661.84 0.0015109 -59.423 -59.422 -0.22663 1.3395 2.0165 1662.8 -0.0070726 592.58 0.17501 0.018101 55.245 407.46 436.76 2.9638 0.93718 1.1263 187.60 1.2857 4.2507 0.0057092
-116.62 0.085718 1.9966e-06 -57.405 -57.404 -0.21370 660.82 0.0015133 -57.406 -57.405 -0.21370 1.3400 2.0184 1656.1 -0.0070573 580.80 0.17442 0.020040 49.901 408.39 437.88 2.9506 0.94035 1.1295 188.14 1.2660 4.2782 0.0057767
-115.62 0.095353 2.1553e-06 -55.385 -55.384 -0.20083 659.80 0.0015156 -55.386 -55.385 -0.20084 1.3404 2.0204 1649.4 -0.0070417 569.38 0.17383 0.022152 45.142 409.33 439.01 2.9377 0.94352 1.1327 188.68 1.2468 4.3056 0.0058444
-114.62 0.10591 2.3215e-06 -53.364 -53.363 -0.18804 658.78 0.0015180 -53.365 -53.364 -0.18805 1.3409 2.0224 1642.7 -0.0070260 558.32 0.17323 0.024451 40.898 410.27 440.13 2.9250 0.94669 1.1360 189.22 1.2281 4.3330 0.0059123
-113.62 0.11746 2.4952e-06 -51.340 -51.339 -0.17532 657.76 0.0015203 -51.342 -51.340 -0.17533 1.3413 2.0244 1636.0 -0.0070100 547.59 0.17264 0.026949 37.107 411.21 441.26 2.9126 0.94987 1.1392 189.75 1.2097 4.3604 0.0059806
-112.62 0.13008 2.6761e-06 -49.315 -49.313 -0.16266 656.73 0.0015227 -49.316 -49.315 -0.16267 1.3418 2.0264 1629.3 -0.0069938 537.18 0.17204 0.029661 33.715 412.16 442.39 2.9005 0.95305 1.1424 190.28 1.1918 4.3879 0.0060491
-111.62 0.14384 2.8638e-06 -47.287 -47.286 -0.15007 655.71 0.0015251 -47.289 -47.287 -0.15008 1.3424 2.0285 1622.7 -0.0069774 527.08 0.17144 0.032600 30.675 413.10 443.53 2.8885 0.95623 1.1457 190.81 1.1742 4.4153 0.0061180
-110.62 0.15884 3.0578e-06 -45.258 -45.256 -0.13754 654.69 0.0015274 -45.259 -45.258 -0.13755 1.3429 2.0305 1616.0 -0.0069609 517.28 0.17084 0.035781 27.948 414.06 444.66 2.8769 0.95942 1.1490 191.34 1.1570 4.4427 0.0061871
-109.62 0.17516 3.2578e-06 -43.226 -43.224 -0.12508 653.66 0.0015298 -43.228 -43.226 -0.12509 1.3435 2.0326 1609.3 -0.0069441 507.76 0.17024 0.039220 25.497 415.01 445.80 2.8654 0.96261 1.1522 191.86 1.1402 4.4701 0.0062564
-108.62 0.19290 3.4630e-06 -41.193 -41.190 -0.11268 652.64 0.0015322 -41.194 -41.192 -0.11269 1.3441 2.0347 1602.6 -0.0069271 498.51 0.16964 0.042933 23.292 415.96 446.94 2.8542 0.96581 1.1555 192.38 1.1236 4.4974 0.0063261
-107.62 0.21215 3.6727e-06 -39.157 -39.154 -0.10035 651.61 0.0015347 -39.158 -39.156 -0.10036 1.3447 2.0369 1595.9 -0.0069098 489.52 0.16903 0.046937 21.305 416.92 448.09 2.8433 0.96901 1.1588 192.90 1.1075 4.5248 0.0063960
-106.62 0.23301 3.8859e-06 -37.119 -37.116 -0.088071 650.58 0.0015371 -37.120 -37.118 -0.088082 1.3453 2.0390 1589.2 -0.0068924 480.79 0.16843 0.051250 19.512 417.88 449.23 2.8325 0.97222 1.1621 193.41 1.0916 4.5522 0.0064662
-105.62 0.25561 4.1017e-06 -35.079 -35.076 -0.075857 649.55 0.0015395 -35.080 -35.078 -0.075868 1.3460 2.0412 1582.6 -0.0068747 472.30 0.16782 0.055891 17.892 418.85 450.38 2.8220 0.97544 1.1655 193.93 1.0760 4.5795 0.0065367
-104.62 0.28004 4.3188e-06 -33.036 -33.033 -0.063702 648.52 0.0015420 -33.038 -33.035 -0.063714 1.3467 2.0434 1575.9 -0.0068569 464.04 0.16721 0.060878 16.426 419.81 451.53 2.8116 0.97867 1.1688 194.44 1.0608 4.6069 0.0066074
-103.62 0.30643 4.5360e-06 -30.992 -30.988 -0.051606 647.49 0.0015444 -30.994 -30.991 -0.051619 1.3474 2.0456 1569.2 -0.0068387 456.00 0.16660 0.066231 15.099 420.78 452.68 2.8015 0.98191 1.1722 194.94 1.0458 4.6342 0.0066785
-102.62 0.33490 4.7516e-06 -28.945 -28.941 -0.039568 646.46 0.0015469 -28.947 -28.944 -0.039582 1.3481 2.0478 1562.5 -0.0068204 448.18 0.16600 0.071971 13.894 421.75 453.84 2.7916 0.98516 1.1755 195.44 1.0310 4.6615 0.0067498
-101.62 0.36558 4.9641e-06 -26.896 -26.892 -0.027588 645.43 0.0015494 -26.898 -26.894 -0.027602 1.3489 2.0501 1555.8 -0.0068018 440.57 0.16539 0.078120 12.801 422.73 454.99 2.7818 0.98841 1.1789 195.95 1.0166 4.6888 0.0068213
-100.62 0.39862 5.1715e-06 -24.845 -24.840 -0.015664 644.39 0.0015519 -24.847 -24.843 -0.015678 1.3497 2.0524 1549.1 -0.0067830 433.16 0.16478 0.084699 11.807 423.70 456.15 2.7723 0.99168 1.1823 196.44 1.0024 4.7161 0.0068932
-99.625 0.43414 5.3718e-06 -22.791 -22.787 -0.0037954 643.36 0.0015544 -22.794 -22.789 -0.0038103 1.3505 2.0547 1542.4 -0.0067639 425.95 0.16416 0.091731 10.901 424.68 457.31 2.7630 0.99496 1.1858 196.94 0.98838 4.7434 0.0069653
-98.625 0.47230 5.5625e-06 -20.736 -20.730 0.0080180 642.32 0.0015569 -20.738 -20.733 0.0080027 1.3514 2.0570 1535.7 -0.0067447 418.92 0.16355 0.099240 10.077 425.66 458.48 2.7538 0.99825 1.1892 197.43 0.97464 4.7707 0.0070377
-97.625 0.51325 5.7413e-06 -18.677 -18.672 0.019777 641.28 0.0015594 -18.680 -18.674 0.019762 1.3522 2.0594 1529.0 -0.0067251 412.07 0.16294 0.10725 9.3239 426.65 459.64 2.7448 1.0016 1.1927 197.92 0.96112 4.7979 0.0071103
-96.625 0.55714 5.9052e-06 -16.617 -16.611 0.031483 640.24 0.0015619 -16.620 -16.614 0.031467 1.3531 2.0618 1522.3 -0.0067053 405.39 0.16233 0.11579 8.6365 427.63 460.81 2.7360 1.0049 1.1962 198.40 0.94783 4.8251 0.0071832
-95.625 0.60416 6.0513e-06 -14.554 -14.547 0.043136 639.20 0.0015645 -14.557 -14.550 0.043120 1.3540 2.0642 1515.7 -0.0066853 398.88 0.16171 0.12488 8.0078 428.62 461.98 2.7274 1.0082 1.1997 198.88 0.93475 4.8524 0.0072564
-94.625 0.65446 6.1762e-06 -12.489 -12.481 0.054738 638.16 0.0015670 -12.491 -12.484 0.054721 1.3550 2.0667 1509.0 -0.0066650 392.53 0.16110 0.13455 7.4323 429.61 463.15 2.7189 1.0116 1.2032 199.36 0.92188 4.8796 0.0073299
-93.625 0.70822 6.2763e-06 -10.421 -10.413 0.066288 637.12 0.0015696 -10.424 -10.416 0.066271 1.3560 2.0691 1502.3 -0.0066444 386.34 0.16048 0.14482 6.9050 430.60 464.32 2.7107 1.0149 1.2068 199.83 0.90921 4.9068 0.0074036
-92.625 0.76564 6.3478e-06 -8.3507 -8.3422 0.077787 636.07 0.0015722 -8.3535 -8.3452 0.077771 1.3570 2.0716 1495.6 -0.0066236 380.31 0.15987 0.15573 6.4212 431.60 465.49 2.7025 1.0183 1.2104 200.30 0.89673 4.9340 0.0074776
-91.625 0.82689 6.3864e-06 -6.2780 -6.2688 0.089237 635.02 0.0015747 -6.2808 -6.2719 0.089220 1.3580 2.0742 1488.9 -0.0066025 374.41 0.15925 0.16731 5.9769 432.59 466.67 2.6946 1.0217 1.2140 200.77 0.88445 4.9611 0.0075518
-90.625 0.89218 6.3876e-06 -4.2028 -4.1929 0.10064 633.98 0.0015773 -4.2056 -4.1959 0.10062 1.3591 2.0767 1482.2 -0.0065811 368.66 0.15864 0.17958 5.5685 433.59 467.84 2.6868 1.0251 1.2177 201.24 0.87236 4.9883 0.0076263
-89.625 0.96172 6.3465e-06 -2.1251 -2.1144 0.11199 632.93 0.0015800 -2.1279 -2.1174 0.11197 1.3602 2.0793 1475.5 -0.0065595 363.05 0.15802 0.19258 5.1928 434.59 469.02 2.6791 1.0285 1.2213 201.70 0.86045 5.0154 0.0077011
-88.625 1.0357 6.2579e-06 -0.044790 -0.033273 0.12329 631.88 0.0015826 -0.047516 -0.036215 0.12328 1.3613 2.0819 1468.8 -0.0065375 357.56 0.15740 0.20633 4.8466 435.59 470.20 2.6717 1.0320 1.2250 202.15 0.84873 5.0425 0.0077761
-87.625 1.1144 6.1161e-06 2.0381 2.0505 0.13455 630.83 0.0015852 2.0355 2.0476 0.13454 1.3625 2.0846 1462.1 -0.0065153 352.21 0.15679 0.22087 4.5276 436.60 471.39 2.6643 1.0354 1.2288 202.61 0.83718 5.0696 0.0078514
-86.625 1.1979 5.9152e-06 4.1236 4.1370 0.14576 629.77 0.0015879 4.1211 4.1342 0.14575 1.3637 2.0873 1455.4 -0.0064928 346.98 0.15617 0.23623 4.2331 437.61 472.57 2.6571 1.0389 1.2325 203.06 0.82580 5.0967 0.0079270
-85.625 1.2866 5.6487e-06 6.2118 6.2261 0.15693 628.72 0.0015905 6.2094 6.2235 0.15691 1.3649 2.0900 1448.8 -0.0064701 341.87 0.15555 0.25245 3.9612 438.61 473.75 2.6501 1.0424 1.2363 203.50 0.81460 5.1237 0.0080028
-84.625 1.3806 5.3098e-06 8.3026 8.3180 0.16805 627.66 0.0015932 8.3004 8.3155 0.16803 1.3661 2.0927 1442.1 -0.0064470 336.87 0.15494 0.26956 3.7097 439.63 474.94 2.6432 1.0460 1.2402 203.95 0.80356 5.1508 0.0080789
-83.625 1.4803 4.8913e-06 10.396 10.413 0.17912 626.60 0.0015959 10.394 10.410 0.17911 1.3674 2.0955 1435.4 -0.0064236 331.99 0.15432 0.28760 3.4771 440.64 476.13 2.6364 1.0495 1.2440 204.38 0.79269 5.1778 0.0081553
-82.625 1.5858 4.3855e-06 12.492 12.510 0.19016 625.54 0.0015986 12.491 12.508 0.19014 1.3687 2.0983 1428.7 -0.0063999 327.22 0.15370 0.30659 3.2616 441.65 477.31 2.6298 1.0531 1.2479 204.82 0.78199 5.2048 0.0082319
-81.625 1.6975 3.7840e-06 14.592 14.610 0.20114 624.48 0.0016013 14.590 14.609 0.20113 1.3700 2.1012 1422.0 -0.0063759 322.55 0.15309 0.32659 3.0619 442.67 478.50 2.6233 1.0567 1.2519 205.25 0.77144 5.2318 0.0083088
-80.625 1.8155 3.0784e-06 16.693 16.714 0.21209 623.42 0.0016041 16.692 16.712 0.21208 1.3714 2.1041 1415.4 -0.0063516 317.99 0.15247 0.34763 2.8766 443.69 479.70 2.6169 1.0603 1.2558 205.67 0.76106 5.2587 0.0083860
-79.625 1.9402 2.2592e-06 18.798 18.820 0.22299 622.36 0.0016068 18.797 18.819 0.22299 1.3728 2.1070 1408.7 -0.0063270 313.52 0.15186 0.36974 2.7046 444.71 480.89 2.6106 1.0639 1.2598 206.10 0.75083 5.2857 0.0084634
-78.625 2.0718 1.3170e-06 20.906 20.929 0.23386 621.29 0.0016096 20.905 20.928 0.23385 1.3742 2.1099 1402.0 -0.0063021 309.15 0.15124 0.39296 2.5448 445.73 482.08 2.6045 1.0676 1.2639 206.51 0.74076 5.3126 0.0085411
-77.625 2.2107 2.4125e-07 23.016 23.041 0.24468 620.22 0.0016123 23.016 23.040 0.24468 1.3757 2.1129 1395.3 -0.0062768 304.88 0.15062 0.41735 2.3961 446.75 483.27 2.5985 1.0712 1.2680 206.93 0.73084 5.3395 0.0086190
-76.625 157.65 undefined 24.546 26.299 0.25248 620.00 0.0016129 24.546 26.299 0.25248 1.3783 2.1129 1396.0 -0.0062811 303.53 0.15062 620.00 0.0016129 24.546 26.299 0.25248 1.3783 2.1129 1396.0 -0.0062811 303.53 0.15062
-75.625 353.48 undefined 25.926 29.857 0.25949 620.00 0.0016129 25.926 29.857 0.25949 1.3813 2.1122 1398.5 -0.0062929 302.93 0.15078 620.00 0.0016129 25.926 29.857 0.25949 1.3813 2.1122 1398.5 -0.0062929 302.93 0.15078
-74.625 548.91 undefined 27.308 33.413 0.26647 620.00 0.0016129 27.308 33.413 0.26647 1.3843 2.1116 1401.0 -0.0063043 302.35 0.15094 620.00 0.0016129 27.308 33.413 0.26647 1.3843 2.1116 1401.0 -0.0063043 302.35 0.15094
-73.625 743.96 undefined 28.694 36.968 0.27343 620.00 0.0016129 28.694 36.968 0.27343 1.3873 2.1110 1403.5 -0.0063153 301.77 0.15110 620.00 0.0016129 28.694 36.968 0.27343 1.3873 2.1110 1403.5 -0.0063153 301.77 0.15110
-72.625 938.64 undefined 30.083 40.521 0.28037 620.00 0.0016129 30.083 40.521 0.28037 1.3903 2.1105 1406.0 -0.0063259 301.20 0.15126 620.00 0.0016129 30.083 40.521 0.28037 1.3903 2.1105 1406.0 -0.0063259 301.20 0.15126
-71.625 1132.9 undefined 31.475 44.074 0.28730 620.00 0.0016129 31.475 44.074 0.28730 1.3933 2.1101 1408.5 -0.0063362 300.63 0.15142 620.00 0.0016129 31.475 44.074 0.28730 1.3933 2.1101 1408.5 -0.0063362 300.63 0.15142
-70.625 1326.8 undefined 32.870 47.625 0.29420 620.00 0.0016129 32.870 47.625 0.29420 1.3963 2.1097 1411.0 -0.0063461 300.07 0.15158 620.00 0.0016129 32.870 47.625 0.29420 1.3963 2.1097 1411.0 -0.0063461 300.07 0.15158
-69.625 1520.4 undefined 34.268 51.175 0.30109 620.00 0.0016129 34.268 51.175 0.30109 1.3994 2.1095 1413.4 -0.0063556 299.52 0.15174 620.00 0.0016129 34.268 51.175 0.30109 1.3994 2.1095 1413.4 -0.0063556 299.52 0.15174
-68.625 1713.6 undefined 35.668 54.724 0.30795 620.00 0.0016129 35.668 54.724 0.30795 1.4024 2.1092 1415.9 -0.0063649 298.98 0.15190 620.00 0.0016129 35.668 54.724 0.30795 1.4024 2.1092 1415.9 -0.0063649 298.98 0.15190
-67.625 1906.4 undefined 37.072 58.273 0.31480 620.00 0.0016129 37.072 58.273 0.31480 1.4055 2.1091 1418.3 -0.0063737 298.44 0.15206 620.00 0.0016129 37.072 58.273 0.31480 1.4055 2.1091 1418.3 -0.0063737 298.44 0.15206
-66.625 2098.9 undefined 38.479 61.820 0.32163 620.00 0.0016129 38.479 61.820 0.32163 1.4085 2.1090 1420.7 -0.0063823 297.91 0.15222 620.00 0.0016129 38.479 61.820 0.32163 1.4085 2.1090 1420.7 -0.0063823 297.91 0.15222
-65.625 2290.9 undefined 39.889 65.366 0.32844 620.00 0.0016129 39.889 65.366 0.32844 1.4116 2.1089 1423.1 -0.0063905 297.39 0.15238 620.00 0.0016129 39.889 65.366 0.32844 1.4116 2.1089 1423.1 -0.0063905 297.39 0.15238
-64.625 2482.7 undefined 41.303 68.912 0.33524 620.00 0.0016129 41.303 68.912 0.33524 1.4147 2.1089 1425.5 -0.0063985 296.87 0.15255 620.00 0.0016129 41.303 68.912 0.33524 1.4147 2.1089 1425.5 -0.0063985 296.87 0.15255
-63.625 2674.1 undefined 42.719 72.456 0.34201 620.00 0.0016129 42.719 72.456 0.34201 1.4178 2.1090 1427.9 -0.0064061 296.36 0.15271 620.00 0.0016129 42.719 72.456 0.34201 1.4178 2.1090 1427.9 -0.0064061 296.36 0.15271
-62.625 2865.1 undefined 44.138 76.000 0.34877 620.00 0.0016129 44.138 76.000 0.34877 1.4209 2.1091 1430.2 -0.0064134 295.86 0.15287 620.00 0.0016129 44.138 76.000 0.34877 1.4209 2.1091 1430.2 -0.0064134 295.86 0.15287
-61.625 3055.8 undefined 45.561 79.543 0.35551 620.00 0.0016129 45.561 79.543 0.35551 1.4241 2.1093 1432.6 -0.0064204 295.36 0.15303 620.00 0.0016129 45.561 79.543 0.35551 1.4241 2.1093 1432.6 -0.0064204 295.36 0.15303
-60.625 3246.1 undefined 46.986 83.085 0.36223 620.00 0.0016129 46.986 83.085 0.36223 1.4272 2.1096 1434.9 -0.0064271 294.86 0.15320 620.00 0.0016129 46.986 83.085 0.36223 1.4272 2.1096 1434.9 -0.0064271 294.86 0.15320
-59.625 3436.1 undefined 48.415 86.627 0.36894 620.00 0.0016129 48.415 86.627 0.36894 1.4304 2.1099 1437.2 -0.0064335 294.38 0.15336 620.00 0.0016129 48.415 86.627 0.36894 1.4304 2.1099 1437.2 -0.0064335 294.38 0.15336
-58.625 3625.8 undefined 49.847 90.168 0.37563 620.00 0.0016129 49.847 90.168 0.37563 1.4335 2.1102 1439.5 -0.0064397 293.90 0.15352 620.00 0.0016129 49.847 90.168 0.37563 1.4335 2.1102 1439.5 -0.0064397 293.90 0.15352
-57.625 3815.1 undefined 51.282 93.708 0.38231 620.00 0.0016129 51.282 93.708 0.38231 1.4367 2.1106 1441.8 -0.0064456 293.42 0.15369 620.00 0.0016129 51.282 93.708 0.38231 1.4367 2.1106 1441.8 -0.0064456 293.42 0.15369
-56.625 4004.1 undefined 52.721 97.248 0.38896 620.00 0.0016129 52.721 97.248 0.38896 1.4399 2.1111 1444.0 -0.0064512 292.95 0.15385 620.00 0.0016129 52.721 97.248 0.38896 1.4399 2.1111 1444.0 -0.0064512 292.95 0.15385
-55.625 4192.7 undefined 54.162 100.79 0.39561 620.00 0.0016129 54.162 100.79 0.39561 1.4431 2.1116 1446.3 -0.0064565 292.49 0.15402 620.00 0.0016129 54.162 100.79 0.39561 1.4431 2.1116 1446.3 -0.0064565 292.49 0.15402
-54.625 4381.0 undefined 55.607 104.33 0.40223 620.00 0.0016129 55.607 104.33 0.40223 1.4464 2.1121 1448.5 -0.0064616 292.03 0.15418 620.00 0.0016129 55.607 104.33 0.40223 1.4464 2.1121 1448.5 -0.0064616 292.03 0.15418
-53.625 4569.0 undefined 57.055 107.86 0.40884 620.00 0.0016129 57.055 107.86 0.40884 1.4496 2.1127 1450.8 -0.0064664 291.58 0.15435 620.00 0.0016129 57.055 107.86 0.40884 1.4496 2.1127 1450.8 -0.0064664 291.58 0.15435
-52.625 4756.7 undefined 58.506 111.40 0.41544 620.00 0.0016129 58.506 111.40 0.41544 1.4529 2.1134 1453.0 -0.0064710 291.13 0.15451 620.00 0.0016129 58.506 111.40 0.41544 1.4529 2.1134 1453.0 -0.0064710 291.13 0.15451
-51.625 4944.0 undefined 59.961 114.94 0.42202 620.00 0.0016129 59.961 114.94 0.42202 1.4561 2.1141 1455.2 -0.0064753 290.69 0.15468 620.00 0.0016129 59.961 114.94 0.42202 1.4561 2.1141 1455.2 -0.0064753 290.69 0.15468
-50.625 5131.0 undefined 61.418 118.48 0.42859 620.00 0.0016129 61.418 118.48 0.42859 1.4594 2.1148 1457.3 -0.0064794 290.26 0.15485 620.00 0.0016129 61.418 118.48 0.42859 1.4594 2.1148 1457.3 -0.0064794 290.26 0.15485
-49.625 5317.6 undefined 62.879 122.01 0.43514 620.00 0.0016129 62.879 122.01 0.43514 1.4627 2.1156 1459.5 -0.0064832 289.83 0.15501 620.00 0.0016129 62.879 122.01 0.43514 1.4627 2.1156 1459.5 -0.0064832 289.83 0.15501
-48.625 5504.0 undefined 64.344 125.55 0.44167 620.00 0.0016129 64.344 125.55 0.44167 1.4660 2.1165 1461.7 -0.0064868 289.40 0.15518 620.00 0.0016129 64.344 125.55 0.44167 1.4660 2.1165 1461.7 -0.0064868 289.40 0.15518
-47.625 5690.0 undefined 65.812 129.09 0.44820 620.00 0.0016129 65.812 129.09 0.44820 1.4694 2.1173 1463.8 -0.0064902 288.98 0.15535 620.00 0.0016129 65.812 129.09 0.44820 1.4694 2.1173 1463.8 -0.0064902 288.98 0.15535
-46.625 5875.7 undefined 67.283 132.62 0.45470 620.00 0.0016129 67.283 132.62 0.45470 1.4727 2.1183 1465.9 -0.0064933 288.57 0.15551 620.00 0.0016129 67.283 132.62 0.45470 1.4727 2.1183 1465.9 -0.0064933 288.57 0.15551
-45.625 6061.1 undefined 68.757 136.16 0.46120 620.00 0.0016129 68.757 136.16 0.46120 1.4761 2.1192 1468.0 -0.0064963 288.16 0.15568 620.00 0.0016129 68.757 136.16 0.46120 1.4761 2.1192 1468.0 -0.0064963 288.16 0.15568
-44.625 6246.2 undefined 70.235 139.70 0.46768 620.00 0.0016129 70.235 139.70 0.46768 1.4795 2.1203 1470.1 -0.0064990 287.75 0.15585 620.00 0.0016129 70.235 139.70 0.46768 1.4795 2.1203 1470.1 -0.0064990 287.75 0.15585
-43.625 6430.9 undefined 71.716 143.23 0.47415 620.00 0.0016129 71.716 143.23 0.47415 1.4829 2.1213 1472.2 -0.0065015 287.35 0.15602 620.00 0.0016129 71.716 143.23 0.47415 1.4829 2.1213 1472.2 -0.0065015 287.35 0.15602
-42.625 6615.4 undefined 73.201 146.77 0.48060 620.00 0.0016129 73.201 146.77 0.48060 1.4863 2.1224 1474.3 -0.0065038 286.95 0.15618 620.00 0.0016129 73.201 146.77 0.48060 1.4863 2.1224 1474.3 -0.0065038 286.95 0.15618
-41.625 6799.5 undefined 74.689 150.30 0.48704 620.00 0.0016129 74.689 150.30 0.48704 1.4897 2.1236 1476.3 -0.0065058 286.56 0.15635 620.00 0.0016129 74.689 150.30 0.48704 1.4897 2.1236 1476.3 -0.0065058 286.56 0.15635
-40.625 6983.3 undefined 76.180 153.84 0.49347 620.00 0.0016129 76.180 153.84 0.49347 1.4932 2.1248 1478.4 -0.0065077 286.17 0.15652 620.00 0.0016129 76.180 153.84 0.49347 1.4932 2.1248 1478.4 -0.0065077 286.17 0.15652
-39.625 7166.9 undefined 77.675 157.37 0.49989 620.00 0.0016129 77.675 157.37 0.49989 1.4966 2.1260 1480.4 -0.0065094 285.79 0.15669 620.00 0.0016129 77.675 157.37 0.49989 1.4966 2.1260 1480.4 -0.0065094 285.79 0.15669
-38.625 7350.1 undefined 79.173 160.91 0.50629 620.00 0.0016129 79.173 160.91 0.50629 1.5001 2.1273 1482.4 -0.0065108 285.42 0.15686 620.00 0.0016129 79.173 160.91 0.50629 1.5001 2.1273 1482.4 -0.0065108 285.42 0.15686
-37.625 7533.0 undefined 80.675 164.45 0.51268 620.00 0.0016129 80.675 164.45 0.51268 1.5036 2.1286 1484.4 -0.0065121 285.04 0.15703 620.00 0.0016129 80.675 164.45 0.51268 1.5036 2.1286 1484.4 -0.0065121 285.04 0.15703
-36.625 7715.6 undefined 82.180 167.98 0.51906 620.00 0.0016129 82.180 167.98 0.51906 1.5071 2.1299 1486.4 -0.0065132 284.67 0.15720 620.00 0.0016129 82.180 167.98 0.51906 1.5071 2.1299 1486.4 -0.0065132 284.67 0.15720
-35.625 7897.9 undefined 83.689 171.52 0.52542 620.00 0.0016129 83.689 171.52 0.52542 1.5106 2.1313 1488.4 -0.0065141 284.31 0.15737 620.00 0.0016129 83.689 171.52 0.52542 1.5106 2.1313 1488.4 -0.0065141 284.31 0.15737
-34.625 8079.9 undefined 85.202 175.05 0.53178 620.00 0.0016129 85.202 175.05 0.53178 1.5142 2.1327 1490.4 -0.0065148 283.95 0.15754 620.00 0.0016129 85.202 175.05 0.53178 1.5142 2.1327 1490.4 -0.0065148 283.95 0.15754
-33.625 8261.6 undefined 86.718 178.59 0.53812 620.00 0.0016129 86.718 178.59 0.53812 1.5177 2.1342 1492.3 -0.0065154 283.59 0.15771 620.00 0.0016129 86.718 178.59 0.53812 1.5177 2.1342 1492.3 -0.0065154 283.59 0.15771
-32.625 8443.0 undefined 88.237 182.13 0.54445 620.00 0.0016129 88.237 182.13 0.54445 1.5213 2.1357 1494.3 -0.0065157 283.24 0.15789 620.00 0.0016129 88.237 182.13 0.54445 1.5213 2.1357 1494.3 -0.0065157 283.24 0.15789
-31.625 8624.1 undefined 89.760 185.66 0.55077 620.00 0.0016129 89.760 185.66 0.55077 1.5249 2.1372 1496.2 -0.0065159 282.89 0.15806 620.00 0.0016129 89.760 185.66 0.55077 1.5249 2.1372 1496.2 -0.0065159 282.89 0.15806
-30.625 8804.9 undefined 91.287 189.20 0.55707 620.00 0.0016129 91.287 189.20 0.55707 1.5285 2.1388 1498.1 -0.0065159 282.55 0.15823 620.00 0.0016129 91.287 189.20 0.55707 1.5285 2.1388 1498.1 -0.0065159 282.55 0.15823
-29.625 8985.4 undefined 92.817 192.74 0.56337 620.00 0.0016129 92.817 192.74 0.56337 1.5321 2.1404 1500.0 -0.0065157 282.21 0.15840 620.00 0.0016129 92.817 192.74 0.56337 1.5321 2.1404 1500.0 -0.0065157 282.21 0.15840
-28.625 9165.6 undefined 94.351 196.28 0.56966 620.00 0.0016129 94.351 196.28 0.56966 1.5357 2.1420 1501.9 -0.0065154 281.87 0.15857 620.00 0.0016129 94.351 196.28 0.56966 1.5357 2.1420 1501.9 -0.0065154 281.87 0.15857
-27.625 9345.5 undefined 95.888 199.82 0.57593 620.00 0.0016129 95.888 199.82 0.57593 1.5394 2.1437 1503.8 -0.0065149 281.54 0.15875 620.00 0.0016129 95.888 199.82 0.57593 1.5394 2.1437 1503.8 -0.0065149 281.54 0.15875
-26.625 9525.2 undefined 97.430 203.35 0.58220 620.00 0.0016129 97.430 203.35 0.58220 1.5430 2.1454 1505.7 -0.0065143 281.21 0.15892 620.00 0.0016129 97.430 203.35 0.58220 1.5430 2.1454 1505.7 -0.0065143 281.21 0.15892
-25.625 9704.5 undefined 98.974 206.89 0.58845 620.00 0.0016129 98.974 206.89 0.58845 1.5467 2.1472 1507.5 -0.0065135 280.89 0.15909 620.00 0.0016129 98.974 206.89 0.58845 1.5467 2.1472 1507.5 -0.0065135 280.89 0.15909
-24.625 9883.6 undefined 100.52 210.43 0.59469 620.00 0.0016129 100.52 210.43 0.59469 1.5504 2.1490 1509.4 -0.0065125 280.57 0.15927 620.00 0.0016129 100.52 210.43 0.59469 1.5504 2.1490 1509.4 -0.0065125 280.57 0.15927
-23.625 10062. undefined 102.08 213.97 0.60093 620.00 0.0016129 102.08 213.97 0.60093 1.5541 2.1508 1511.2 -0.0065114 280.25 0.15944 620.00 0.0016129 102.08 213.97 0.60093 1.5541 2.1508 1511.2 -0.0065114 280.25 0.15944
-22.625 10241. undefined 103.63 217.52 0.60715 620.00 0.0016129 103.63 217.52 0.60715 1.5578 2.1526 1513.0 -0.0065101 279.94 0.15962 620.00 0.0016129 103.63 217.52 0.60715 1.5578 2.1526 1513.0 -0.0065101 279.94 0.15962
-21.625 10419. undefined 105.19 221.06 0.61336 620.00 0.0016129 105.19 221.06 0.61336 1.5616 2.1545 1514.9 -0.0065087 279.63 0.15979 620.00 0.0016129 105.19 221.06 0.61336 1.5616 2.1545 1514.9 -0.0065087 279.63 0.15979
-20.625 10597. undefined 106.75 224.60 0.61957 620.00 0.0016129 106.75 224.60 0.61957 1.5653 2.1564 1516.7 -0.0065072 279.32 0.15996 620.00 0.0016129 106.75 224.60 0.61957 1.5653 2.1564 1516.7 -0.0065072 279.32 0.15996
-19.625 10775. undefined 108.32 228.14 0.62576 620.00 0.0016129 108.32 228.14 0.62576 1.5691 2.1584 1518.5 -0.0065055 279.02 0.16014 620.00 0.0016129 108.32 228.14 0.62576 1.5691 2.1584 1518.5 -0.0065055 279.02 0.16014
-18.625 10952. undefined 109.89 231.68 0.63195 620.00 0.0016129 109.89 231.68 0.63195 1.5728 2.1603 1520.3 -0.0065036 278.72 0.16032 620.00 0.0016129 109.89 231.68 0.63195 1.5728 2.1603 1520.3 -0.0065036 278.72 0.16032
-17.625 11129. undefined 111.47 235.23 0.63812 620.00 0.0016129 111.47 235.23 0.63812 1.5766 2.1623 1522.0 -0.0065017 278.42 0.16049 620.00 0.0016129 111.47 235.23 0.63812 1.5766 2.1623 1522.0 -0.0065017 278.42 0.16049
-16.625 11306. undefined 113.05 238.77 0.64429 620.00 0.0016129 113.05 238.77 0.64429 1.5804 2.1644 1523.8 -0.0064996 278.13 0.16067 620.00 0.0016129 113.05 238.77 0.64429 1.5804 2.1644 1523.8 -0.0064996 278.13 0.16067
-15.625 11482. undefined 114.63 242.32 0.65044 620.00 0.0016129 114.63 242.32 0.65044 1.5843 2.1664 1525.6 -0.0064973 277.84 0.16084 620.00 0.0016129 114.63 242.32 0.65044 1.5843 2.1664 1525.6 -0.0064973 277.84 0.16084
-14.625 11659. undefined 116.21 245.86 0.65659 620.00 0.0016129 116.21 245.86 0.65659 1.5881 2.1685 1527.3 -0.0064950 277.55 0.16102 620.00 0.0016129 116.21 245.86 0.65659 1.5881 2.1685 1527.3 -0.0064950 277.55 0.16102
-13.625 11835. undefined 117.80 249.41 0.66273 620.00 0.0016129 117.80 249.41 0.66273 1.5919 2.1707 1529.1 -0.0064925 277.27 0.16120 620.00 0.0016129 117.80 249.41 0.66273 1.5919 2.1707 1529.1 -0.0064925 277.27 0.16120
-12.625 12010. undefined 119.40 252.96 0.66886 620.00 0.0016129 119.40 252.96 0.66886 1.5958 2.1728 1530.8 -0.0064899 276.99 0.16137 620.00 0.0016129 119.40 252.96 0.66886 1.5958 2.1728 1530.8 -0.0064899 276.99 0.16137
-11.625 12186. undefined 121.00 256.51 0.67498 620.00 0.0016129 121.00 256.51 0.67498 1.5997 2.1750 1532.5 -0.0064871 276.71 0.16155 620.00 0.0016129 121.00 256.51 0.67498 1.5997 2.1750 1532.5 -0.0064871 276.71 0.16155
-10.625 12361. undefined 122.60 260.06 0.68109 620.00 0.0016129 122.60 260.06 0.68109 1.6035 2.1772 1534.3 -0.0064843 276.44 0.16173 620.00 0.0016129 122.60 260.06 0.68109 1.6035 2.1772 1534.3 -0.0064843 276.44 0.16173
-9.6250 12536. undefined 124.20 263.61 0.68720 620.00 0.0016129 124.20 263.61 0.68720 1.6074 2.1794 1536.0 -0.0064813 276.17 0.16191 620.00 0.0016129 124.20 263.61 0.68720 1.6074 2.1794 1536.0 -0.0064813 276.17 0.16191
-8.6250 12710. undefined 125.81 267.16 0.69329 620.00 0.0016129 125.81 267.16 0.69329 1.6113 2.1817 1537.7 -0.0064782 275.90 0.16209 620.00 0.0016129 125.81 267.16 0.69329 1.6113 2.1817 1537.7 -0.0064782 275.90 0.16209
-7.6250 12885. undefined 127.43 270.71 0.69938 620.00 0.0016129 127.43 270.71 0.69938 1.6153 2.1840 1539.4 -0.0064750 275.63 0.16227 620.00 0.0016129 127.43 270.71 0.69938 1.6153 2.1840 1539.4 -0.0064750 275.63 0.16227
-6.6250 13059. undefined 129.04 274.26 0.70546 620.00 0.0016129 129.04 274.26 0.70546 1.6192 2.1863 1541.0 -0.0064717 275.37 0.16244 620.00 0.0016129 129.04 274.26 0.70546 1.6192 2.1863 1541.0 -0.0064717 275.37 0.16244
-5.6250 13233. undefined 130.66 277.82 0.71153 620.00 0.0016129 130.66 277.82 0.71153 1.6231 2.1886 1542.7 -0.0064682 275.11 0.16262 620.00 0.0016129 130.66 277.82 0.71153 1.6231 2.1886 1542.7 -0.0064682 275.11 0.16262
-4.6250 13406. undefined 132.29 281.37 0.71759 620.00 0.0016129 132.29 281.37 0.71759 1.6271 2.1910 1544.4 -0.0064647 274.85 0.16280 620.00 0.0016129 132.29 281.37 0.71759 1.6271 2.1910 1544.4 -0.0064647 274.85 0.16280
-3.6250 13580. undefined 133.92 284.93 0.72365 620.00 0.0016129 133.92 284.93 0.72365 1.6311 2.1934 1546.0 -0.0064611 274.60 0.16298 620.00 0.0016129 133.92 284.93 0.72365 1.6311 2.1934 1546.0 -0.0064611 274.60 0.16298
-2.6250 13753. undefined 135.55 288.49 0.72970 620.00 0.0016129 135.55 288.49 0.72970 1.6350 2.1958 1547.7 -0.0064573 274.35 0.16316 620.00 0.0016129 135.55 288.49 0.72970 1.6350 2.1958 1547.7 -0.0064573 274.35 0.16316
-1.6250 13925. undefined 137.19 292.05 0.73574 620.00 0.0016129 137.19 292.05 0.73574 1.6390 2.1983 1549.3 -0.0064535 274.10 0.16334 620.00 0.0016129 137.19 292.05 0.73574 1.6390 2.1983 1549.3 -0.0064535 274.10 0.16334
-0.62500 14098. undefined 138.83 295.61 0.74177 620.00 0.0016129 138.83 295.61 0.74177 1.6430 2.2007 1551.0 -0.0064495 273.86 0.16352 620.00 0.0016129 138.83 295.61 0.74177 1.6430 2.2007 1551.0 -0.0064495 273.86 0.16352
0.37500 14270. undefined 140.47 299.17 0.74779 620.00 0.0016129 140.47 299.17 0.74779 1.6470 2.2032 1552.6 -0.0064455 273.61 0.16371 620.00 0.0016129 140.47 299.17 0.74779 1.6470 2.2032 1552.6 -0.0064455 273.61 0.16371
1.3750 14442. undefined 142.12 302.73 0.75381 620.00 0.0016129 142.12 302.73 0.75381 1.6511 2.2057 1554.2 -0.0064414 273.37 0.16389 620.00 0.0016129 142.12 302.73 0.75381 1.6511 2.2057 1554.2 -0.0064414 273.37 0.16389
2.3750 14614. undefined 143.78 306.29 0.75982 620.00 0.0016129 143.78 306.29 0.75982 1.6551 2.2083 1555.8 -0.0064372 273.14 0.16407 620.00 0.0016129 143.78 306.29 0.75982 1.6551 2.2083 1555.8 -0.0064372 273.14 0.16407
3.3750 14785. undefined 145.43 309.86 0.76583 620.00 0.0016129 145.43 309.86 0.76583 1.6591 2.2108 1557.4 -0.0064329 272.90 0.16425 620.00 0.0016129 145.43 309.86 0.76583 1.6591 2.2108 1557.4 -0.0064329 272.90 0.16425
4.3750 14957. undefined 147.09 313.42 0.77182 620.00 0.0016129 147.09 313.42 0.77182 1.6632 2.2134 1559.1 -0.0064285 272.67 0.16443 620.00 0.0016129 147.09 313.42 0.77182 1.6632 2.2134 1559.1 -0.0064285 272.67 0.16443
5.3750 15128. undefined 148.76 316.99 0.77781 620.00 0.0016129 148.76 316.99 0.77781 1.6672 2.2160 1560.6 -0.0064240 272.44 0.16462 620.00 0.0016129 148.76 316.99 0.77781 1.6672 2.2160 1560.6 -0.0064240 272.44 0.16462
6.3750 15298. undefined 150.43 320.56 0.78379 620.00 0.0016129 150.43 320.56 0.78379 1.6713 2.2187 1562.2 -0.0064194 272.21 0.16480 620.00 0.0016129 150.43 320.56 0.78379 1.6713 2.2187 1562.2 -0.0064194 272.21 0.16480
7.3750 15469. undefined 152.10 324.13 0.78977 620.00 0.0016129 152.10 324.13 0.78977 1.6754 2.2213 1563.8 -0.0064147 271.99 0.16498 620.00 0.0016129 152.10 324.13 0.78977 1.6754 2.2213 1563.8 -0.0064147 271.99 0.16498
8.3750 15639. undefined 153.78 327.70 0.79574 620.00 0.0016129 153.78 327.70 0.79574 1.6795 2.2240 1565.4 -0.0064100 271.76 0.16516 620.00 0.0016129 153.78 327.70 0.79574 1.6795 2.2240 1565.4 -0.0064100 271.76 0.16516
9.3750 15809. undefined 155.46 331.27 0.80170 620.00 0.0016129 155.46 331.27 0.80170 1.6836 2.2267 1567.0 -0.0064052 271.54 0.16535 620.00 0.0016129 155.46 331.27 0.80170 1.6836 2.2267 1567.0 -0.0064052 271.54 0.16535
10.375 15979. undefined 157.15 334.84 0.80766 620.00 0.0016129 157.15 334.84 0.80766 1.6877 2.2294 1568.5 -0.0064003 271.32 0.16553 620.00 0.0016129 157.15 334.84 0.80766 1.6877 2.2294 1568.5 -0.0064003 271.32 0.16553
11.375 16148. undefined 158.84 338.42 0.81361 620.00 0.0016129 158.84 338.42 0.81361 1.6918 2.2321 1570.1 -0.0063953 271.11 0.16572 620.00 0.0016129 158.84 338.42 0.81361 1.6918 2.2321 1570.1 -0.0063953 271.11 0.16572
12.375 16318. undefined 160.53 341.99 0.81955 620.00 0.0016129 160.53 341.99 0.81955 1.6959 2.2349 1571.6 -0.0063903 270.90 0.16590 620.00 0.0016129 160.53 341.99 0.81955 1.6959 2.2349 1571.6 -0.0063903 270.90 0.16590
13.375 16487. undefined 162.23 345.57 0.82548 620.00 0.0016129 162.23 345.57 0.82548 1.7000 2.2376 1573.2 -0.0063852 270.68 0.16609 620.00 0.0016129 162.23 345.57 0.82548 1.7000 2.2376 1573.2 -0.0063852 270.68 0.16609
14.375 16655. undefined 163.93 349.15 0.83142 620.00 0.0016129 163.93 349.15 0.83142 1.7042 2.2404 1574.7 -0.0063800 270.48 0.16627 620.00 0.0016129 163.93 349.15 0.83142 1.7042 2.2404 1574.7 -0.0063800 270.48 0.16627
15.375 16824. undefined 165.64 352.73 0.83734 620.00 0.0016129 165.64 352.73 0.83734 1.7083 2.2433 1576.3 -0.0063747 270.27 0.16646 620.00 0.0016129 165.64 352.73 0.83734 1.7083 2.2433 1576.3 -0.0063747 270.27 0.16646
16.375 16992. undefined 167.35 356.31 0.84326 620.00 0.0016129 167.35 356.31 0.84326 1.7125 2.2461 1577.8 -0.0063694 270.06 0.16664 620.00 0.0016129 167.35 356.31 0.84326 1.7125 2.2461 1577.8 -0.0063694 270.06 0.16664
17.375 17160. undefined 169.06 359.89 0.84917 620.00 0.0016129 169.06 359.89 0.84917 1.7166 2.2489 1579.3 -0.0063640 269.86 0.16683 620.00 0.0016129 169.06 359.89 0.84917 1.7166 2.2489 1579.3 -0.0063640 269.86 0.16683
18.375 17328. undefined 170.78 363.48 0.85507 620.00 0.0016129 170.78 363.48 0.85507 1.7208 2.2518 1580.8 -0.0063586 269.66 0.16701 620.00 0.0016129 170.78 363.48 0.85507 1.7208 2.2518 1580.8 -0.0063586 269.66 0.16701
19.375 17496. undefined 172.50 367.07 0.86097 620.00 0.0016129 172.50 367.07 0.86097 1.7250 2.2547 1582.3 -0.0063531 269.46 0.16720 620.00 0.0016129 172.50 367.07 0.86097 1.7250 2.2547 1582.3 -0.0063531 269.46 0.16720
20.375 17663. undefined 174.23 370.65 0.86687 620.00 0.0016129 174.23 370.65 0.86687 1.7292 2.2576 1583.8 -0.0063475 269.27 0.16739 620.00 0.0016129 174.23 370.65 0.86687 1.7292 2.2576 1583.8 -0.0063475 269.27 0.16739
21.375 17830. undefined 175.96 374.24 0.87276 620.00 0.0016129 175.96 374.24 0.87276 1.7334 2.2605 1585.3 -0.0063418 269.07 0.16757 620.00 0.0016129 175.96 374.24 0.87276 1.7334 2.2605 1585.3 -0.0063418 269.07 0.16757
22.375 17997. undefined 177.70 377.84 0.87864 620.00 0.0016129 177.70 377.84 0.87864 1.7376 2.2634 1586.8 -0.0063361 268.88 0.16776 620.00 0.0016129 177.70 377.84 0.87864 1.7376 2.2634 1586.8 -0.0063361 268.88 0.16776
23.375 18164. undefined 179.44 381.43 0.88452 620.00 0.0016129 179.44 381.43 0.88452 1.7418 2.2664 1588.3 -0.0063304 268.69 0.16795 620.00 0.0016129 179.44 381.43 0.88452 1.7418 2.2664 1588.3 -0.0063304 268.69 0.16795
24.375 18330. undefined 181.18 385.02 0.89039 620.00 0.0016129 181.18 385.02 0.89039 1.7460 2.2693 1589.8 -0.0063246 268.50 0.16814 620.00 0.0016129 181.18 385.02 0.89039 1.7460 2.2693 1589.8 -0.0063246 268.50 0.16814
25.375 18496. undefined 182.93 388.62 0.89625 620.00 0.0016129 182.93 388.62 0.89625 1.7502 2.2723 1591.3 -0.0063187 268.32 0.16833 620.00 0.0016129 182.93 388.62 0.89625 1.7502 2.2723 1591.3 -0.0063187 268.32 0.16833
26.375 18662. undefined 184.68 392.22 0.90211 620.00 0.0016129 184.68 392.22 0.90211 1.7544 2.2753 1592.8 -0.0063128 268.13 0.16852 620.00 0.0016129 184.68 392.22 0.90211 1.7544 2.2753 1592.8 -0.0063128 268.13 0.16852
27.375 18828. undefined 186.44 395.82 0.90797 620.00 0.0016129 186.44 395.82 0.90797 1.7586 2.2783 1594.2 -0.0063069 267.95 0.16870 620.00 0.0016129 186.44 395.82 0.90797 1.7586 2.2783 1594.2 -0.0063069 267.95 0.16870
28.375 18994. undefined 188.20 399.42 0.91382 620.00 0.0016129 188.20 399.42 0.91382 1.7629 2.2814 1595.7 -0.0063008 267.77 0.16889 620.00 0.0016129 188.20 399.42 0.91382 1.7629 2.2814 1595.7 -0.0063008 267.77 0.16889
29.375 19159. undefined 189.96 403.02 0.91966 620.00 0.0016129 189.96 403.02 0.91966 1.7671 2.2844 1597.2 -0.0062948 267.59 0.16908 620.00 0.0016129 189.96 403.02 0.91966 1.7671 2.2844 1597.2 -0.0062948 267.59 0.16908
30.375 19324. undefined 191.73 406.63 0.92550 620.00 0.0016129 191.73 406.63 0.92550 1.7714 2.2875 1598.6 -0.0062887 267.41 0.16927 620.00 0.0016129 191.73 406.63 0.92550 1.7714 2.2875 1598.6 -0.0062887 267.41 0.16927
31.375 19489. undefined 193.51 410.23 0.93133 620.00 0.0016129 193.51 410.23 0.93133 1.7756 2.2906 1600.1 -0.0062825 267.24 0.16946 620.00 0.0016129 193.51 410.23 0.93133 1.7756 2.2906 1600.1 -0.0062825 267.24 0.16946
32.375 19653. undefined 195.28 413.84 0.93716 620.00 0.0016129 195.28 413.84 0.93716 1.7799 2.2936 1601.5 -0.0062763 267.06 0.16965 620.00 0.0016129 195.28 413.84 0.93716 1.7799 2.2936 1601.5 -0.0062763 267.06 0.16965
33.375 19818. undefined 197.07 417.45 0.94298 620.00 0.0016129 197.07 417.45 0.94298 1.7841 2.2967 1603.0 -0.0062701 266.89 0.16984 620.00 0.0016129 197.07 417.45 0.94298 1.7841 2.2967 1603.0 -0.0062701 266.89 0.16984
34.375 19982. undefined 198.85 421.06 0.94880 620.00 0.0016129 198.85 421.06 0.94880 1.7884 2.2999 1604.4 -0.0062638 266.72 0.17003 620.00 0.0016129 198.85 421.06 0.94880 1.7884 2.2999 1604.4 -0.0062638 266.72 0.17003
35.375 20146. undefined 200.64 424.68 0.95461 620.00 0.0016129 200.64 424.68 0.95461 1.7927 2.3030 1605.8 -0.0062575 266.55 0.17023 620.00 0.0016129 200.64 424.68 0.95461 1.7927 2.3030 1605.8 -0.0062575 266.55 0.17023
36.375 20310. undefined 202.44 428.29 0.96042 620.00 0.0016129 202.44 428.29 0.96042 1.7969 2.3061 1607.3 -0.0062511 266.39 0.17042 620.00 0.0016129 202.44 428.29 0.96042 1.7969 2.3061 1607.3 -0.0062511 266.39 0.17042
37.375 20473. undefined 204.24 431.91 0.96623 620.00 0.0016129 204.24 431.91 0.96623 1.8012 2.3093 1608.7 -0.0062447 266.22 0.17061 620.00 0.0016129 204.24 431.91 0.96623 1.8012 2.3093 1608.7 -0.0062447 266.22 0.17061
38.375 20637. undefined 206.04 435.53 0.97202 620.00 0.0016129 206.04 435.53 0.97202 1.8055 2.3125 1610.1 -0.0062383 266.06 0.17080 620.00 0.0016129 206.04 435.53 0.97202 1.8055 2.3125 1610.1 -0.0062383 266.06 0.17080
39.375 20800. undefined 207.85 439.15 0.97782 620.00 0.0016129 207.85 439.15 0.97782 1.8098 2.3156 1611.5 -0.0062318 265.90 0.17099 620.00 0.0016129 207.85 439.15 0.97782 1.8098 2.3156 1611.5 -0.0062318 265.90 0.17099
40.375 20963. undefined 209.66 442.78 0.98361 620.00 0.0016129 209.66 442.78 0.98361 1.8141 2.3188 1612.9 -0.0062253 265.74 0.17119 620.00 0.0016129 209.66 442.78 0.98361 1.8141 2.3188 1612.9 -0.0062253 265.74 0.17119
41.375 21125. undefined 211.48 446.40 0.98939 620.00 0.0016129 211.48 446.40 0.98939 1.8184 2.3220 1614.3 -0.0062187 265.58 0.17138 620.00 0.0016129 211.48 446.40 0.98939 1.8184 2.3220 1614.3 -0.0062187 265.58 0.17138
42.375 21288. undefined 213.30 450.03 0.99517 620.00 0.0016129 213.30 450.03 0.99517 1.8227 2.3253 1615.7 -0.0062122 265.42 0.17157 620.00 0.0016129 213.30 450.03 0.99517 1.8227 2.3253 1615.7 -0.0062122 265.42 0.17157
43.375 21450. undefined 215.12 453.66 1.0009 620.00 0.0016129 215.12 453.66 1.0009 1.8270 2.3285 1617.1 -0.0062055 265.27 0.17177 620.00 0.0016129 215.12 453.66 1.0009 1.8270 2.3285 1617.1 -0.0062055 265.27 0.17177
44.375 21612. undefined 216.95 457.29 1.0067 620.00 0.0016129 216.95 457.29 1.0067 1.8313 2.3317 1618.5 -0.0061989 265.12 0.17196 620.00 0.0016129 216.95 457.29 1.0067 1.8313 2.3317 1618.5 -0.0061989 265.12 0.17196
45.375 21774. undefined 218.78 460.92 1.0125 620.00 0.0016129 218.78 460.92 1.0125 1.8356 2.3350 1619.9 -0.0061922 264.96 0.17216 620.00 0.0016129 218.78 460.92 1.0125 1.8356 2.3350 1619.9 -0.0061922 264.96 0.17216
46.375 21935. undefined 220.62 464.56 1.0182 620.00 0.0016129 220.62 464.56 1.0182 1.8399 2.3382 1621.3 -0.0061855 264.81 0.17235 620.00 0.0016129 220.62 464.56 1.0182 1.8399 2.3382 1621.3 -0.0061855 264.81 0.17235
47.375 22097. undefined 222.46 468.19 1.0240 620.00 0.0016129 222.46 468.19 1.0240 1.8442 2.3415 1622.7 -0.0061788 264.66 0.17254 620.00 0.0016129 222.46 468.19 1.0240 1.8442 2.3415 1622.7 -0.0061788 264.66 0.17254
48.375 22258. undefined 224.31 471.83 1.0297 620.00 0.0016129 224.31 471.83 1.0297 1.8485 2.3448 1624.1 -0.0061721 264.52 0.17274 620.00 0.0016129 224.31 471.83 1.0297 1.8485 2.3448 1624.1 -0.0061721 264.52 0.17274
49.375 22419. undefined 226.16 475.47 1.0355 620.00 0.0016129 226.16 475.47 1.0355 1.8529 2.3481 1625.5 -0.0061653 264.37 0.17293 620.00 0.0016129 226.16 475.47 1.0355 1.8529 2.3481 1625.5 -0.0061653 264.37 0.17293
50.375 22580. undefined 228.02 479.12 1.0412 620.00 0.0016129 228.02 479.12 1.0412 1.8572 2.3514 1626.8 -0.0061585 264.23 0.17313 620.00 0.0016129 228.02 479.12 1.0412 1.8572 2.3514 1626.8 -0.0061585 264.23 0.17313
51.375 22740. undefined 229.88 482.76 1.0470 620.00 0.0016129 229.88 482.76 1.0470 1.8615 2.3547 1628.2 -0.0061517 264.08 0.17333 620.00 0.0016129 229.88 482.76 1.0470 1.8615 2.3547 1628.2 -0.0061517 264.08 0.17333
52.375 22901. undefined 231.74 486.41 1.0527 620.00 0.0016129 231.74 486.41 1.0527 1.8658 2.3580 1629.6 -0.0061448 263.94 0.17352 620.00 0.0016129 231.74 486.41 1.0527 1.8658 2.3580 1629.6 -0.0061448 263.94 0.17352
53.375 23061. undefined 233.61 490.06 1.0584 620.00 0.0016129 233.61 490.06 1.0584 1.8702 2.3614 1630.9 -0.0061379 263.80 0.17372 620.00 0.0016129 233.61 490.06 1.0584 1.8702 2.3614 1630.9 -0.0061379 263.80 0.17372
54.375 23221. undefined 235.48 493.71 1.0642 620.00 0.0016129 235.48 493.71 1.0642 1.8745 2.3647 1632.3 -0.0061310 263.66 0.17392 620.00 0.0016129 235.48 493.71 1.0642 1.8745 2.3647 1632.3 -0.0061310 263.66 0.17392
55.375 23381. undefined 237.36 497.36 1.0699 620.00 0.0016129 237.36 497.36 1.0699 1.8788 2.3681 1633.6 -0.0061241 263.52 0.17411 620.00 0.0016129 237.36 497.36 1.0699 1.8788 2.3681 1633.6 -0.0061241 263.52 0.17411
56.375 23540. undefined 239.24 501.02 1.0756 620.00 0.0016129 239.24 501.02 1.0756 1.8832 2.3714 1635.0 -0.0061172 263.39 0.17431 620.00 0.0016129 239.24 501.02 1.0756 1.8832 2.3714 1635.0 -0.0061172 263.39 0.17431
57.375 23700. undefined 241.12 504.68 1.0813 620.00 0.0016129 241.12 504.68 1.0813 1.8875 2.3748 1636.3 -0.0061102 263.25 0.17451 620.00 0.0016129 241.12 504.68 1.0813 1.8875 2.3748 1636.3 -0.0061102 263.25 0.17451
58.375 23859. undefined 243.01 508.34 1.0870 620.00 0.0016129 243.01 508.34 1.0870 1.8919 2.3782 1637.7 -0.0061033 263.12 0.17471 620.00 0.0016129 243.01 508.34 1.0870 1.8919 2.3782 1637.7 -0.0061033 263.12 0.17471
59.375 24018. undefined 244.91 512.00 1.0927 620.00 0.0016129 244.91 512.00 1.0927 1.8962 2.3815 1639.0 -0.0060963 262.99 0.17490 620.00 0.0016129 244.91 512.00 1.0927 1.8962 2.3815 1639.0 -0.0060963 262.99 0.17490
60.375 24177. undefined 246.80 515.66 1.0984 620.00 0.0016129 246.80 515.66 1.0984 1.9005 2.3849 1640.4 -0.0060893 262.86 0.17510 620.00 0.0016129 246.80 515.66 1.0984 1.9005 2.3849 1640.4 -0.0060893 262.86 0.17510
61.375 24335. undefined 248.71 519.33 1.1041 620.00 0.0016129 248.71 519.33 1.1041 1.9049 2.3883 1641.7 -0.0060823 262.73 0.17530 620.00 0.0016129 248.71 519.33 1.1041 1.9049 2.3883 1641.7 -0.0060823 262.73 0.17530
62.375 24494. undefined 250.61 523.00 1.1098 620.00 0.0016129 250.61 523.00 1.1098 1.9092 2.3918 1643.0 -0.0060753 262.60 0.17550 620.00 0.0016129 250.61 523.00 1.1098 1.9092 2.3918 1643.0 -0.0060753 262.60 0.17550
63.375 24652. undefined 252.53 526.67 1.1155 620.00 0.0016129 252.53 526.67 1.1155 1.9136 2.3952 1644.3 -0.0060682 262.47 0.17570 620.00 0.0016129 252.53 526.67 1.1155 1.9136 2.3952 1644.3 -0.0060682 262.47 0.17570
64.375 24810. undefined 254.44 530.34 1.1212 620.00 0.0016129 254.44 530.34 1.1212 1.9179 2.3986 1645.7 -0.0060612 262.34 0.17590 620.00 0.0016129 254.44 530.34 1.1212 1.9179 2.3986 1645.7 -0.0060612 262.34 0.17590
65.375 24968. undefined 256.36 534.02 1.1269 620.00 0.0016129 256.36 534.02 1.1269 1.9223 2.4020 1647.0 -0.0060541 262.22 0.17610 620.00 0.0016129 256.36 534.02 1.1269 1.9223 2.4020 1647.0 -0.0060541 262.22 0.17610
66.375 25125. undefined 258.29 537.69 1.1325 620.00 0.0016129 258.29 537.69 1.1325 1.9266 2.4055 1648.3 -0.0060470 262.10 0.17630 620.00 0.0016129 258.29 537.69 1.1325 1.9266 2.4055 1648.3 -0.0060470 262.10 0.17630
67.375 25283. undefined 260.21 541.37 1.1382 620.00 0.0016129 260.21 541.37 1.1382 1.9310 2.4089 1649.6 -0.0060399 261.97 0.17650 620.00 0.0016129 260.21 541.37 1.1382 1.9310 2.4089 1649.6 -0.0060399 261.97 0.17650
68.375 25440. undefined 262.15 545.05 1.1439 620.00 0.0016129 262.15 545.05 1.1439 1.9353 2.4124 1650.9 -0.0060328 261.85 0.17670 620.00 0.0016129 262.15 545.05 1.1439 1.9353 2.4124 1650.9 -0.0060328 261.85 0.17670
69.375 25597. undefined 264.09 548.74 1.1496 620.00 0.0016129 264.09 548.74 1.1496 1.9397 2.4158 1652.2 -0.0060257 261.73 0.17690 620.00 0.0016129 264.09 548.74 1.1496 1.9397 2.4158 1652.2 -0.0060257 261.73 0.17690
70.375 25754. undefined 266.03 552.42 1.1552 620.00 0.0016129 266.03 552.42 1.1552 1.9441 2.4193 1653.6 -0.0060186 261.61 0.17711 620.00 0.0016129 266.03 552.42 1.1552 1.9441 2.4193 1653.6 -0.0060186 261.61 0.17711
71.375 25910. undefined 267.97 556.11 1.1609 620.00 0.0016129 267.97 556.11 1.1609 1.9484 2.4228 1654.9 -0.0060114 261.50 0.17731 620.00 0.0016129 267.97 556.11 1.1609 1.9484 2.4228 1654.9 -0.0060114 261.50 0.17731
72.375 26067. undefined 269.92 559.80 1.1665 620.00 0.0016129 269.92 559.80 1.1665 1.9528 2.4262 1656.2 -0.0060043 261.38 0.17751 620.00 0.0016129 269.92 559.80 1.1665 1.9528 2.4262 1656.2 -0.0060043 261.38 0.17751
73.375 26223. undefined 271.88 563.50 1.1722 620.00 0.0016129 271.88 563.50 1.1722 1.9571 2.4297 1657.5 -0.0059972 261.26 0.17771 620.00 0.0016129 271.88 563.50 1.1722 1.9571 2.4297 1657.5 -0.0059972 261.26 0.17771
74.375 26379. undefined 273.84 567.19 1.1778 620.00 0.0016129 273.84 567.19 1.1778 1.9615 2.4332 1658.7 -0.0059900 261.15 0.17791 620.00 0.0016129 273.84 567.19 1.1778 1.9615 2.4332 1658.7 -0.0059900 261.15 0.17791
75.375 26535. undefined 275.80 570.89 1.1835 620.00 0.0016129 275.80 570.89 1.1835 1.9658 2.4367 1660.0 -0.0059829 261.04 0.17812 620.00 0.0016129 275.80 570.89 1.1835 1.9658 2.4367 1660.0 -0.0059829 261.04 0.17812
76.375 26691. undefined 277.77 574.59 1.1891 620.00 0.0016129 277.77 574.59 1.1891 1.9702 2.4402 1661.3 -0.0059757 260.92 0.17832 620.00 0.0016129 277.77 574.59 1.1891 1.9702 2.4402 1661.3 -0.0059757 260.92 0.17832
77.375 26847. undefined 279.74 578.29 1.1947 620.00 0.0016129 279.74 578.29 1.1947 1.9745 2.4437 1662.6 -0.0059685 260.81 0.17852 620.00 0.0016129 279.74 578.29 1.1947 1.9745 2.4437 1662.6 -0.0059685 260.81 0.17852
78.375 27002. undefined 281.72 582.00 1.2004 620.00 0.0016129 281.72 582.00 1.2004 1.9789 2.4472 1663.9 -0.0059614 260.70 0.17873 620.00 0.0016129 281.72 582.00 1.2004 1.9789 2.4472 1663.9 -0.0059614 260.70 0.17873
79.375 27157. undefined 283.70 585.70 1.2060 620.00 0.0016129 283.70 585.70 1.2060 1.9833 2.4507 1665.2 -0.0059542 260.59 0.17893 620.00 0.0016129 283.70 585.70 1.2060 1.9833 2.4507 1665.2 -0.0059542 260.59 0.17893
80.375 27312. undefined 285.69 589.41 1.2116 620.00 0.0016129 285.69 589.41 1.2116 1.9876 2.4543 1666.4 -0.0059470 260.49 0.17914 620.00 0.0016129 285.69 589.41 1.2116 1.9876 2.4543 1666.4 -0.0059470 260.49 0.17914
81.375 27467. undefined 287.68 593.13 1.2172 620.00 0.0016129 287.68 593.13 1.2172 1.9920 2.4578 1667.7 -0.0059398 260.38 0.17934 620.00 0.0016129 287.68 593.13 1.2172 1.9920 2.4578 1667.7 -0.0059398 260.38 0.17934
82.375 27622. undefined 289.67 596.84 1.2229 620.00 0.0016129 289.67 596.84 1.2229 1.9963 2.4613 1669.0 -0.0059327 260.27 0.17955 620.00 0.0016129 289.67 596.84 1.2229 1.9963 2.4613 1669.0 -0.0059327 260.27 0.17955
83.375 27776. undefined 291.67 600.56 1.2285 620.00 0.0016129 291.67 600.56 1.2285 2.0007 2.4649 1670.3 -0.0059255 260.17 0.17975 620.00 0.0016129 291.67 600.56 1.2285 2.0007 2.4649 1670.3 -0.0059255 260.17 0.17975
84.375 27931. undefined 293.67 604.28 1.2341 620.00 0.0016129 293.67 604.28 1.2341 2.0050 2.4684 1671.5 -0.0059183 260.06 0.17996 620.00 0.0016129 293.67 604.28 1.2341 2.0050 2.4684 1671.5 -0.0059183 260.06 0.17996
85.375 28085. undefined 295.68 608.00 1.2397 620.00 0.0016129 295.68 608.00 1.2397 2.0094 2.4719 1672.8 -0.0059111 259.96 0.18016 620.00 0.0016129 295.68 608.00 1.2397 2.0094 2.4719 1672.8 -0.0059111 259.96 0.18016
86.375 28239. undefined 297.69 611.72 1.2453 620.00 0.0016129 297.69 611.72 1.2453 2.0137 2.4755 1674.0 -0.0059039 259.86 0.18037 620.00 0.0016129 297.69 611.72 1.2453 2.0137 2.4755 1674.0 -0.0059039 259.86 0.18037
87.375 28393. undefined 299.71 615.45 1.2509 620.00 0.0016129 299.71 615.45 1.2509 2.0181 2.4791 1675.3 -0.0058968 259.76 0.18058 620.00 0.0016129 299.71 615.45 1.2509 2.0181 2.4791 1675.3 -0.0058968 259.76 0.18058
88.375 28546. undefined 301.73 619.18 1.2565 620.00 0.0016129 301.73 619.18 1.2565 2.0224 2.4826 1676.6 -0.0058896 259.66 0.18078 620.00 0.0016129 301.73 619.18 1.2565 2.0224 2.4826 1676.6 -0.0058896 259.66 0.18078
89.375 28700. undefined 303.75 622.91 1.2621 620.00 0.0016129 303.75 622.91 1.2621 2.0268 2.4862 1677.8 -0.0058824 259.56 0.18099 620.00 0.0016129 303.75 622.91 1.2621 2.0268 2.4862 1677.8 -0.0058824 259.56 0.18099
90.375 28853. undefined 305.78 626.64 1.2677 620.00 0.0016129 305.78 626.64 1.2677 2.0311 2.4897 1679.1 -0.0058752 259.46 0.18120 620.00 0.0016129 305.78 626.64 1.2677 2.0311 2.4897 1679.1 -0.0058752 259.46 0.18120
91.375 29006. undefined 307.81 630.38 1.2732 620.00 0.0016129 307.81 630.38 1.2732 2.0355 2.4933 1680.3 -0.0058680 259.36 0.18140 620.00 0.0016129 307.81 630.38 1.2732 2.0355 2.4933 1680.3 -0.0058680 259.36 0.18140
92.375 29159. undefined 309.85 634.11 1.2788 620.00 0.0016129 309.85 634.11 1.2788 2.0398 2.4969 1681.5 -0.0058609 259.27 0.18161 620.00 0.0016129 309.85 634.11 1.2788 2.0398 2.4969 1681.5 -0.0058609 259.27 0.18161
93.375 29312. undefined 311.89 637.85 1.2844 620.00 0.0016129 311.89 637.85 1.2844 2.0442 2.5004 1682.8 -0.0058537 259.17 0.18182 620.00 0.0016129 311.89 637.85 1.2844 2.0442 2.5004 1682.8 -0.0058537 259.17 0.18182
94.375 29464. undefined 313.94 641.60 1.2900 620.00 0.0016129 313.94 641.60 1.2900 2.0485 2.5040 1684.0 -0.0058465 259.08 0.18203 620.00 0.0016129 313.94 641.60 1.2900 2.0485 2.5040 1684.0 -0.0058465 259.08 0.18203
95.375 29617. undefined 315.99 645.34 1.2956 620.00 0.0016129 315.99 645.34 1.2956 2.0528 2.5076 1685.3 -0.0058394 258.98 0.18224 620.00 0.0016129 315.99 645.34 1.2956 2.0528 2.5076 1685.3 -0.0058394 258.98 0.18224
96.375 29769. undefined 318.04 649.09 1.3011 620.00 0.0016129 318.04 649.09 1.3011 2.0572 2.5112 1686.5 -0.0058322 258.89 0.18245 620.00 0.0016129 318.04 649.09 1.3011 2.0572 2.5112 1686.5 -0.0058322 258.89 0.18245
97.375 29921. undefined 320.10 652.84 1.3067 620.00 0.0016129 320.10 652.84 1.3067 2.0615 2.5148 1687.7 -0.0058251 258.80 0.18266 620.00 0.0016129 320.10 652.84 1.3067 2.0615 2.5148 1687.7 -0.0058251 258.80 0.18266
98.375 30073. undefined 322.17 656.59 1.3123 620.00 0.0016129 322.17 656.59 1.3123 2.0658 2.5184 1688.9 -0.0058179 258.71 0.18287 620.00 0.0016129 322.17 656.59 1.3123 2.0658 2.5184 1688.9 -0.0058179 258.71 0.18287
99.375 30224. undefined 324.24 660.35 1.3178 620.00 0.0016129 324.24 660.35 1.3178 2.0702 2.5220 1690.2 -0.0058108 258.61 0.18308 620.00 0.0016129 324.24 660.35 1.3178 2.0702 2.5220 1690.2 -0.0058108 258.61 0.18308
100.38 30376. undefined 326.31 664.11 1.3234 620.00 0.0016129 326.31 664.11 1.3234 2.0745 2.5255 1691.4 -0.0058036 258.53 0.18329 620.00 0.0016129 326.31 664.11 1.3234 2.0745 2.5255 1691.4 -0.0058036 258.53 0.18329
101.38 30527. undefined 328.38 667.87 1.3289 620.00 0.0016129 328.38 667.87 1.3289 2.0788 2.5291 1692.6 -0.0057965 258.44 0.18350 620.00 0.0016129 328.38 667.87 1.3289 2.0788 2.5291 1692.6 -0.0057965 258.44 0.18350
102.38 30679. undefined 330.47 671.63 1.3345 620.00 0.0016129 330.47 671.63 1.3345 2.0832 2.5327 1693.8 -0.0057894 258.35 0.18371 620.00 0.0016129 330.47 671.63 1.3345 2.0832 2.5327 1693.8 -0.0057894 258.35 0.18371
103.38 30830. undefined 332.55 675.39 1.3400 620.00 0.0016129 332.55 675.39 1.3400 2.0875 2.5363 1695.1 -0.0057823 258.26 0.18392 620.00 0.0016129 332.55 675.39 1.3400 2.0875 2.5363 1695.1 -0.0057823 258.26 0.18392
104.38 30981. undefined 334.64 679.16 1.3456 620.00 0.0016129 334.64 679.16 1.3456 2.0918 2.5399 1696.3 -0.0057751 258.18 0.18413 620.00 0.0016129 334.64 679.16 1.3456 2.0918 2.5399 1696.3 -0.0057751 258.18 0.18413
105.38 31131. undefined 336.73 682.93 1.3511 620.00 0.0016129 336.73 682.93 1.3511 2.0961 2.5435 1697.5 -0.0057680 258.09 0.18434 620.00 0.0016129 336.73 682.93 1.3511 2.0961 2.5435 1697.5 -0.0057680 258.09 0.18434
106.38 31282. undefined 338.83 686.71 1.3566 620.00 0.0016129 338.83 686.71 1.3566 2.1005 2.5472 1698.7 -0.0057609 258.01 0.18455 620.00 0.0016129 338.83 686.71 1.3566 2.1005 2.5472 1698.7 -0.0057609 258.01 0.18455
107.38 31432. undefined 340.94 690.48 1.3622 620.00 0.0016129 340.94 690.48 1.3622 2.1048 2.5508 1699.9 -0.0057539 257.92 0.18477 620.00 0.0016129 340.94 690.48 1.3622 2.1048 2.5508 1699.9 -0.0057539 257.92 0.18477
108.38 31583. undefined 343.04 694.26 1.3677 620.00 0.0016129 343.04 694.26 1.3677 2.1091 2.5544 1701.1 -0.0057468 257.84 0.18498 620.00 0.0016129 343.04 694.26 1.3677 2.1091 2.5544 1701.1 -0.0057468 257.84 0.18498
109.38 31733. undefined 345.15 698.04 1.3732 620.00 0.0016129 345.15 698.04 1.3732 2.1134 2.5580 1702.3 -0.0057397 257.76 0.18519 620.00 0.0016129 345.15 698.04 1.3732 2.1134 2.5580 1702.3 -0.0057397 257.76 0.18519
110.38 31883. undefined 347.27 701.82 1.3787 620.00 0.0016129 347.27 701.82 1.3787 2.1177 2.5616 1703.5 -0.0057326 257.68 0.18541 620.00 0.0016129 347.27 701.82 1.3787 2.1177 2.5616 1703.5 -0.0057326 257.68 0.18541
111.38 32032. undefined 349.39 705.61 1.3843 620.00 0.0016129 349.39 705.61 1.3843 2.1220 2.5652 1704.7 -0.0057256 257.59 0.18562 620.00 0.0016129 349.39 705.61 1.3843 2.1220 2.5652 1704.7 -0.0057256 257.59 0.18562
112.38 32182. undefined 351.51 709.39 1.3898 620.00 0.0016129 351.51 709.39 1.3898 2.1263 2.5688 1705.9 -0.0057186 257.51 0.18583 620.00 0.0016129 351.51 709.39 1.3898 2.1263 2.5688 1705.9 -0.0057186 257.51 0.18583
113.38 32331. undefined 353.64 713.18 1.3953 620.00 0.0016129 353.64 713.18 1.3953 2.1306 2.5724 1707.1 -0.0057115 257.44 0.18605 620.00 0.0016129 353.64 713.18 1.3953 2.1306 2.5724 1707.1 -0.0057115 257.44 0.18605
114.38 32481. undefined 355.77 716.98 1.4008 620.00 0.0016129 355.77 716.98 1.4008 2.1349 2.5761 1708.3 -0.0057045 257.36 0.18626 620.00 0.0016129 355.77 716.98 1.4008 2.1349 2.5761 1708.3 -0.0057045 257.36 0.18626
115.38 32630. undefined 357.91 720.77 1.4063 620.00 0.0016129 357.91 720.77 1.4063 2.1392 2.5797 1709.5 -0.0056975 257.28 0.18648 620.00 0.0016129 357.91 720.77 1.4063 2.1392 2.5797 1709.5 -0.0056975 257.28 0.18648
116.38 32779. undefined 360.05 724.57 1.4118 620.00 0.0016129 360.05 724.57 1.4118 2.1435 2.5833 1710.6 -0.0056905 257.20 0.18669 620.00 0.0016129 360.05 724.57 1.4118 2.1435 2.5833 1710.6 -0.0056905 257.20 0.18669
117.38 32928. undefined 362.20 728.37 1.4173 620.00 0.0016129 362.20 728.37 1.4173 2.1478 2.5869 1711.8 -0.0056835 257.13 0.18691 620.00 0.0016129 362.20 728.37 1.4173 2.1478 2.5869 1711.8 -0.0056835 257.13 0.18691
118.38 33076. undefined 364.35 732.17 1.4228 620.00 0.0016129 364.35 732.17 1.4228 2.1521 2.5905 1713.0 -0.0056765 257.05 0.18712 620.00 0.0016129 364.35 732.17 1.4228 2.1521 2.5905 1713.0 -0.0056765 257.05 0.18712
119.38 33225. undefined 366.50 735.98 1.4283 620.00 0.0016129 366.50 735.98 1.4283 2.1564 2.5942 1714.2 -0.0056695 256.97 0.18734 620.00 0.0016129 366.50 735.98 1.4283 2.1564 2.5942 1714.2 -0.0056695 256.97 0.18734
120.38 33373. undefined 368.66 739.79 1.4338 620.00 0.0016129 368.66 739.79 1.4338 2.1606 2.5978 1715.4 -0.0056626 256.90 0.18755 620.00 0.0016129 368.66 739.79 1.4338 2.1606 2.5978 1715.4 -0.0056626 256.90 0.18755
121.38 33521. undefined 370.82 743.60 1.4393 620.00 0.0016129 370.82 743.60 1.4393 2.1649 2.6014 1716.5 -0.0056556 256.83 0.18777 620.00 0.0016129 370.82 743.60 1.4393 2.1649 2.6014 1716.5 -0.0056556 256.83 0.18777
122.38 33669. undefined 372.99 747.41 1.4448 620.00 0.0016129 372.99 747.41 1.4448 2.1692 2.6050 1717.7 -0.0056487 256.75 0.18799 620.00 0.0016129 372.99 747.41 1.4448 2.1692 2.6050 1717.7 -0.0056487 256.75 0.18799
123.38 33817. undefined 375.16 751.23 1.4503 620.00 0.0016129 375.16 751.23 1.4503 2.1735 2.6086 1718.9 -0.0056418 256.68 0.18820 620.00 0.0016129 375.16 751.23 1.4503 2.1735 2.6086 1718.9 -0.0056418 256.68 0.18820
124.38 33965. undefined 377.34 755.05 1.4557 620.00 0.0016129 377.34 755.05 1.4557 2.1777 2.6123 1720.1 -0.0056348 256.61 0.18842 620.00 0.0016129 377.34 755.05 1.4557 2.1777 2.6123 1720.1 -0.0056348 256.61 0.18842
125.38 34112. undefined 379.52 758.87 1.4612 620.00 0.0016129 379.52 758.87 1.4612 2.1820 2.6159 1721.2 -0.0056279 256.54 0.18864 620.00 0.0016129 379.52 758.87 1.4612 2.1820 2.6159 1721.2 -0.0056279 256.54 0.18864
126.38 34260. undefined 381.70 762.69 1.4667 620.00 0.0016129 381.70 762.69 1.4667 2.1863 2.6195 1722.4 -0.0056211 256.47 0.18886 620.00 0.0016129 381.70 762.69 1.4667 2.1863 2.6195 1722.4 -0.0056211 256.47 0.18886
127.38 34407. undefined 383.89 766.52 1.4722 620.00 0.0016129 383.89 766.52 1.4722 2.1905 2.6231 1723.5 -0.0056142 256.40 0.18907 620.00 0.0016129 383.89 766.52 1.4722 2.1905 2.6231 1723.5 -0.0056142 256.40 0.18907
128.38 34554. undefined 386.08 770.35 1.4776 620.00 0.0016129 386.08 770.35 1.4776 2.1948 2.6268 1724.7 -0.0056073 256.33 0.18929 620.00 0.0016129 386.08 770.35 1.4776 2.1948 2.6268 1724.7 -0.0056073 256.33 0.18929
129.38 34701. undefined 388.28 774.18 1.4831 620.00 0.0016129 388.28 774.18 1.4831 2.1990 2.6304 1725.9 -0.0056005 256.26 0.18951 620.00 0.0016129 388.28 774.18 1.4831 2.1990 2.6304 1725.9 -0.0056005 256.26 0.18951
130.38 34848. undefined 390.48 778.01 1.4886 620.00 0.0016129 390.48 778.01 1.4886 2.2033 2.6340 1727.0 -0.0055936 256.19 0.18973 620.00 0.0016129 390.48 778.01 1.4886 2.2033 2.6340 1727.0 -0.0055936 256.19 0.18973
131.38 34995. undefined 392.69 781.85 1.4940 620.00 0.0016129 392.69 781.85 1.4940 2.2075 2.6376 1728.2 -0.0055868 256.13 0.18995 620.00 0.0016129 392.69 781.85 1.4940 2.2075 2.6376 1728.2 -0.0055868 256.13 0.18995
132.38 35141. undefined 394.90 785.69 1.4995 620.00 0.0016129 394.90 785.69 1.4995 2.2118 2.6413 1729.3 -0.0055800 256.06 0.19017 620.00 0.0016129 394.90 785.69 1.4995 2.2118 2.6413 1729.3 -0.0055800 256.06 0.19017
133.38 35288. undefined 397.11 789.53 1.5049 620.00 0.0016129 397.11 789.53 1.5049 2.2160 2.6449 1730.5 -0.0055732 255.99 0.19039 620.00 0.0016129 397.11 789.53 1.5049 2.2160 2.6449 1730.5 -0.0055732 255.99 0.19039
134.38 35434. undefined 399.33 793.37 1.5104 620.00 0.0016129 399.33 793.37 1.5104 2.2202 2.6485 1731.6 -0.0055664 255.93 0.19061 620.00 0.0016129 399.33 793.37 1.5104 2.2202 2.6485 1731.6 -0.0055664 255.93 0.19061
135.38 35580. undefined 401.55 797.22 1.5158 620.00 0.0016129 401.55 797.22 1.5158 2.2245 2.6521 1732.8 -0.0055596 255.86 0.19083 620.00 0.0016129 401.55 797.22 1.5158 2.2245 2.6521 1732.8 -0.0055596 255.86 0.19083
136.38 35726. undefined 403.78 801.07 1.5213 620.00 0.0016129 403.78 801.07 1.5213 2.2287 2.6557 1733.9 -0.0055529 255.80 0.19105 620.00 0.0016129 403.78 801.07 1.5213 2.2287 2.6557 1733.9 -0.0055529 255.80 0.19105
137.38 35872. undefined 406.01 804.92 1.5267 620.00 0.0016129 406.01 804.92 1.5267 2.2329 2.6594 1735.1 -0.0055461 255.74 0.19127 620.00 0.0016129 406.01 804.92 1.5267 2.2329 2.6594 1735.1 -0.0055461 255.74 0.19127
138.38 36017. undefined 408.24 808.78 1.5321 620.00 0.0016129 408.24 808.78 1.5321 2.2371 2.6630 1736.2 -0.0055394 255.67 0.19149 620.00 0.0016129 408.24 808.78 1.5321 2.2371 2.6630 1736.2 -0.0055394 255.67 0.19149
139.38 36163. undefined 410.48 812.63 1.5376 620.00 0.0016129 410.48 812.63 1.5376 2.2413 2.6666 1737.3 -0.0055327 255.61 0.19172 620.00 0.0016129 410.48 812.63 1.5376 2.2413 2.6666 1737.3 -0.0055327 255.61 0.19172
140.38 36308. undefined 412.73 816.49 1.5430 620.00 0.0016129 412.73 816.49 1.5430 2.2456 2.6702 1738.5 -0.0055260 255.55 0.19194 620.00 0.0016129 412.73 816.49 1.5430 2.2456 2.6702 1738.5 -0.0055260 255.55 0.19194
141.38 36453. undefined 414.97 820.35 1.5484 620.00 0.0016129 414.97 820.35 1.5484 2.2498 2.6738 1739.6 -0.0055193 255.49 0.19216 620.00 0.0016129 414.97 820.35 1.5484 2.2498 2.6738 1739.6 -0.0055193 255.49 0.19216
142.38 36598. undefined 417.22 824.22 1.5539 620.00 0.0016129 417.22 824.22 1.5539 2.2540 2.6774 1740.7 -0.0055127 255.43 0.19238 620.00 0.0016129 417.22 824.22 1.5539 2.2540 2.6774 1740.7 -0.0055127 255.43 0.19238
143.38 36743. undefined 419.48 828.09 1.5593 620.00 0.0016129 419.48 828.09 1.5593 2.2582 2.6810 1741.9 -0.0055060 255.37 0.19261 620.00 0.0016129 419.48 828.09 1.5593 2.2582 2.6810 1741.9 -0.0055060 255.37 0.19261
144.38 36888. undefined 421.74 831.96 1.5647 620.00 0.0016129 421.74 831.96 1.5647 2.2624 2.6847 1743.0 -0.0054994 255.31 0.19283 620.00 0.0016129 421.74 831.96 1.5647 2.2624 2.6847 1743.0 -0.0054994 255.31 0.19283
145.38 37033. undefined 424.01 835.83 1.5701 620.00 0.0016129 424.01 835.83 1.5701 2.2666 2.6883 1744.1 -0.0054927 255.25 0.19305 620.00 0.0016129 424.01 835.83 1.5701 2.2666 2.6883 1744.1 -0.0054927 255.25 0.19305
146.38 37177. undefined 426.27 839.71 1.5755 620.00 0.0016129 426.27 839.71 1.5755 2.2707 2.6919 1745.3 -0.0054861 255.19 0.19328 620.00 0.0016129 426.27 839.71 1.5755 2.2707 2.6919 1745.3 -0.0054861 255.19 0.19328
147.38 37322. undefined 428.55 843.58 1.5809 620.00 0.0016129 428.55 843.58 1.5809 2.2749 2.6955 1746.4 -0.0054795 255.13 0.19350 620.00 0.0016129 428.55 843.58 1.5809 2.2749 2.6955 1746.4 -0.0054795 255.13 0.19350
148.38 37466. undefined 430.82 847.46 1.5864 620.00 0.0016129 430.82 847.46 1.5864 2.2791 2.6991 1747.5 -0.0054730 255.07 0.19372 620.00 0.0016129 430.82 847.46 1.5864 2.2791 2.6991 1747.5 -0.0054730 255.07 0.19372
149.38 37610. undefined 433.11 851.35 1.5918 620.00 0.0016129 433.11 851.35 1.5918 2.2833 2.7027 1748.6 -0.0054664 255.02 0.19395 620.00 0.0016129 433.11 851.35 1.5918 2.2833 2.7027 1748.6 -0.0054664 255.02 0.19395
150.38 37754. undefined 435.39 855.23 1.5972 620.00 0.0016129 435.39 855.23 1.5972 2.2874 2.7063 1749.7 -0.0054598 254.96 0.19417 620.00 0.0016129 435.39 855.23 1.5972 2.2874 2.7063 1749.7 -0.0054598 254.96 0.19417
151.38 37898. undefined 437.68 859.12 1.6026 620.00 0.0016129 437.68 859.12 1.6026 2.2916 2.7099 1750.8 -0.0054533 254.90 0.19440 620.00 0.0016129 437.68 859.12 1.6026 2.2916 2.7099 1750.8 -0.0054533 254.90 0.19440
152.38 38041. undefined 439.97 863.01 1.6080 620.00 0.0016129 439.97 863.01 1.6080 2.2958 2.7135 1752.0 -0.0054468 254.85 0.19462 620.00 0.0016129 439.97 863.01 1.6080 2.2958 2.7135 1752.0 -0.0054468 254.85 0.19462
153.38 38185. undefined 442.27 866.91 1.6134 620.00 0.0016129 442.27 866.91 1.6134 2.2999 2.7171 1753.1 -0.0054403 254.79 0.19485 620.00 0.0016129 442.27 866.91 1.6134 2.2999 2.7171 1753.1 -0.0054403 254.79 0.19485
154.38 38328. undefined 444.57 870.80 1.6187 620.00 0.0016129 444.57 870.80 1.6187 2.3041 2.7207 1754.2 -0.0054338 254.74 0.19508 620.00 0.0016129 444.57 870.80 1.6187 2.3041 2.7207 1754.2 -0.0054338 254.74 0.19508
155.38 38471. undefined 446.88 874.70 1.6241 620.00 0.0016129 446.88 874.70 1.6241 2.3082 2.7243 1755.3 -0.0054273 254.69 0.19530 620.00 0.0016129 446.88 874.70 1.6241 2.3082 2.7243 1755.3 -0.0054273 254.69 0.19530
156.38 38614. undefined 449.19 878.60 1.6295 620.00 0.0016129 449.19 878.60 1.6295 2.3124 2.7279 1756.4 -0.0054209 254.63 0.19553 620.00 0.0016129 449.19 878.60 1.6295 2.3124 2.7279 1756.4 -0.0054209 254.63 0.19553
157.38 38757. undefined 451.50 882.51 1.6349 620.00 0.0016129 451.50 882.51 1.6349 2.3165 2.7315 1757.5 -0.0054144 254.58 0.19576 620.00 0.0016129 451.50 882.51 1.6349 2.3165 2.7315 1757.5 -0.0054144 254.58 0.19576
158.38 38900. undefined 453.82 886.42 1.6403 620.00 0.0016129 453.82 886.42 1.6403 2.3206 2.7351 1758.6 -0.0054080 254.53 0.19598 620.00 0.0016129 453.82 886.42 1.6403 2.3206 2.7351 1758.6 -0.0054080 254.53 0.19598
159.38 39043. undefined 456.15 890.32 1.6457 620.00 0.0016129 456.15 890.32 1.6457 2.3248 2.7387 1759.7 -0.0054016 254.47 0.19621 620.00 0.0016129 456.15 890.32 1.6457 2.3248 2.7387 1759.7 -0.0054016 254.47 0.19621
160.38 39185. undefined 458.47 894.24 1.6510 620.00 0.0016129 458.47 894.24 1.6510 2.3289 2.7423 1760.8 -0.0053952 254.42 0.19644 620.00 0.0016129 458.47 894.24 1.6510 2.3289 2.7423 1760.8 -0.0053952 254.42 0.19644
161.38 39328. undefined 460.80 898.15 1.6564 620.00 0.0016129 460.80 898.15 1.6564 2.3330 2.7458 1761.9 -0.0053889 254.37 0.19667 620.00 0.0016129 460.80 898.15 1.6564 2.3330 2.7458 1761.9 -0.0053889 254.37 0.19667
162.38 39470. undefined 463.14 902.07 1.6618 620.00 0.0016129 463.14 902.07 1.6618 2.3371 2.7494 1763.0 -0.0053825 254.32 0.19689 620.00 0.0016129 463.14 902.07 1.6618 2.3371 2.7494 1763.0 -0.0053825 254.32 0.19689
163.38 39612. undefined 465.48 905.99 1.6671 620.00 0.0016129 465.48 905.99 1.6671 2.3413 2.7530 1764.1 -0.0053762 254.27 0.19712 620.00 0.0016129 465.48 905.99 1.6671 2.3413 2.7530 1764.1 -0.0053762 254.27 0.19712
164.38 39754. undefined 467.82 909.91 1.6725 620.00 0.0016129 467.82 909.91 1.6725 2.3454 2.7566 1765.2 -0.0053698 254.22 0.19735 620.00 0.0016129 467.82 909.91 1.6725 2.3454 2.7566 1765.2 -0.0053698 254.22 0.19735
165.38 39896. undefined 470.17 913.84 1.6779 620.00 0.0016129 470.17 913.84 1.6779 2.3495 2.7602 1766.3 -0.0053635 254.17 0.19758 620.00 0.0016129 470.17 913.84 1.6779 2.3495 2.7602 1766.3 -0.0053635 254.17 0.19758
166.38 40038. undefined 472.52 917.76 1.6832 620.00 0.0016129 472.52 917.76 1.6832 2.3536 2.7637 1767.4 -0.0053572 254.12 0.19781 620.00 0.0016129 472.52 917.76 1.6832 2.3536 2.7637 1767.4 -0.0053572 254.12 0.19781
167.38 40179. undefined 474.88 921.69 1.6886 620.00 0.0016129 474.88 921.69 1.6886 2.3577 2.7673 1768.4 -0.0053510 254.08 0.19804 620.00 0.0016129 474.88 921.69 1.6886 2.3577 2.7673 1768.4 -0.0053510 254.08 0.19804
168.38 40321. undefined 477.24 925.63 1.6939 620.00 0.0016129 477.24 925.63 1.6939 2.3618 2.7709 1769.5 -0.0053447 254.03 0.19827 620.00 0.0016129 477.24 925.63 1.6939 2.3618 2.7709 1769.5 -0.0053447 254.03 0.19827
169.38 40462. undefined 479.60 929.56 1.6993 620.00 0.0016129 479.60 929.56 1.6993 2.3658 2.7744 1770.6 -0.0053385 253.98 0.19850 620.00 0.0016129 479.60 929.56 1.6993 2.3658 2.7744 1770.6 -0.0053385 253.98 0.19850
170.38 40603. undefined 481.97 933.50 1.7046 620.00 0.0016129 481.97 933.50 1.7046 2.3699 2.7780 1771.7 -0.0053322 253.93 0.19873 620.00 0.0016129 481.97 933.50 1.7046 2.3699 2.7780 1771.7 -0.0053322 253.93 0.19873
171.38 40745. undefined 484.34 937.44 1.7099 620.00 0.0016129 484.34 937.44 1.7099 2.3740 2.7816 1772.8 -0.0053260 253.89 0.19896 620.00 0.0016129 484.34 937.44 1.7099 2.3740 2.7816 1772.8 -0.0053260 253.89 0.19896
172.38 40886. undefined 486.72 941.39 1.7153 620.00 0.0016129 486.72 941.39 1.7153 2.3781 2.7851 1773.9 -0.0053198 253.84 0.19919 620.00 0.0016129 486.72 941.39 1.7153 2.3781 2.7851 1773.9 -0.0053198 253.84 0.19919
173.38 41026. undefined 489.10 945.33 1.7206 620.00 0.0016129 489.10 945.33 1.7206 2.3821 2.7887 1774.9 -0.0053137 253.79 0.19943 620.00 0.0016129 489.10 945.33 1.7206 2.3821 2.7887 1774.9 -0.0053137 253.79 0.19943
174.38 41167. undefined 491.48 949.28 1.7260 620.00 0.0016129 491.48 949.28 1.7260 2.3862 2.7922 1776.0 -0.0053075 253.75 0.19966 620.00 0.0016129 491.48 949.28 1.7260 2.3862 2.7922 1776.0 -0.0053075 253.75 0.19966
175.38 41308. undefined 493.87 953.23 1.7313 620.00 0.0016129 493.87 953.23 1.7313 2.3902 2.7958 1777.1 -0.0053014 253.70 0.19989 620.00 0.0016129 493.87 953.23 1.7313 2.3902 2.7958 1777.1 -0.0053014 253.70 0.19989
176.38 41448. undefined 496.26 957.19 1.7366 620.00 0.0016129 496.26 957.19 1.7366 2.3943 2.7993 1778.2 -0.0052952 253.66 0.20012 620.00 0.0016129 496.26 957.19 1.7366 2.3943 2.7993 1778.2 -0.0052952 253.66 0.20012
177.38 41588. undefined 498.66 961.14 1.7419 620.00 0.0016129 498.66 961.14 1.7419 2.3983 2.8029 1779.2 -0.0052891 253.62 0.20036 620.00 0.0016129 498.66 961.14 1.7419 2.3983 2.8029 1779.2 -0.0052891 253.62 0.20036
178.38 41729. undefined 501.06 965.10 1.7473 620.00 0.0016129 501.06 965.10 1.7473 2.4024 2.8064 1780.3 -0.0052830 253.57 0.20059 620.00 0.0016129 501.06 965.10 1.7473 2.4024 2.8064 1780.3 -0.0052830 253.57 0.20059
179.38 41869. undefined 503.46 969.06 1.7526 620.00 0.0016129 503.46 969.06 1.7526 2.4064 2.8100 1781.4 -0.0052770 253.53 0.20082 620.00 0.0016129 503.46 969.06 1.7526 2.4064 2.8100 1781.4 -0.0052770 253.53 0.20082
180.38 42008. undefined 505.87 973.03 1.7579 620.00 0.0016129 505.87 973.03 1.7579 2.4104 2.8135 1782.4 -0.0052709 253.49 0.20106 620.00 0.0016129 505.87 973.03 1.7579 2.4104 2.8135 1782.4 -0.0052709 253.49 0.20106
181.38 42148. undefined 508.28 977.00 1.7632 620.00 0.0016129 508.28 977.00 1.7632 2.4145 2.8170 1783.5 -0.0052649 253.44 0.20129 620.00 0.0016129 508.28 977.00 1.7632 2.4145 2.8170 1783.5 -0.0052649 253.44 0.20129
182.38 42288. undefined 510.70 980.97 1.7685 620.00 0.0016129 510.70 980.97 1.7685 2.4185 2.8206 1784.6 -0.0052588 253.40 0.20152 620.00 0.0016129 510.70 980.97 1.7685 2.4185 2.8206 1784.6 -0.0052588 253.40 0.20152
183.38 42428. undefined 513.12 984.94 1.7738 620.00 0.0016129 513.12 984.94 1.7738 2.4225 2.8241 1785.6 -0.0052528 253.36 0.20176 620.00 0.0016129 513.12 984.94 1.7738 2.4225 2.8241 1785.6 -0.0052528 253.36 0.20176
184.38 42567. undefined 515.54 988.91 1.7791 620.00 0.0016129 515.54 988.91 1.7791 2.4265 2.8276 1786.7 -0.0052468 253.32 0.20199 620.00 0.0016129 515.54 988.91 1.7791 2.4265 2.8276 1786.7 -0.0052468 253.32 0.20199
185.38 42706. undefined 517.97 992.89 1.7844 620.00 0.0016129 517.97 992.89 1.7844 2.4305 2.8312 1787.7 -0.0052409 253.28 0.20223 620.00 0.0016129 517.97 992.89 1.7844 2.4305 2.8312 1787.7 -0.0052409 253.28 0.20223
186.38 42845. undefined 520.40 996.87 1.7897 620.00 0.0016129 520.40 996.87 1.7897 2.4345 2.8347 1788.8 -0.0052349 253.24 0.20246 620.00 0.0016129 520.40 996.87 1.7897 2.4345 2.8347 1788.8 -0.0052349 253.24 0.20246
187.38 42984. undefined 522.84 1000.9 1.7950 620.00 0.0016129 522.84 1000.9 1.7950 2.4385 2.8382 1789.8 -0.0052290 253.20 0.20270 620.00 0.0016129 522.84 1000.9 1.7950 2.4385 2.8382 1789.8 -0.0052290 253.20 0.20270
188.38 43123. undefined 525.28 1004.8 1.8003 620.00 0.0016129 525.28 1004.8 1.8003 2.4425 2.8417 1790.9 -0.0052230 253.16 0.20294 620.00 0.0016129 525.28 1004.8 1.8003 2.4425 2.8417 1790.9 -0.0052230 253.16 0.20294
189.38 43262. undefined 527.73 1008.8 1.8056 620.00 0.0016129 527.73 1008.8 1.8056 2.4465 2.8452 1791.9 -0.0052171 253.12 0.20317 620.00 0.0016129 527.73 1008.8 1.8056 2.4465 2.8452 1791.9 -0.0052171 253.12 0.20317
190.38 43401. undefined 530.17 1012.8 1.8109 620.00 0.0016129 530.17 1012.8 1.8109 2.4505 2.8487 1793.0 -0.0052112 253.08 0.20341 620.00 0.0016129 530.17 1012.8 1.8109 2.4505 2.8487 1793.0 -0.0052112 253.08 0.20341
191.38 43539. undefined 532.63 1016.8 1.8162 620.00 0.0016129 532.63 1016.8 1.8162 2.4545 2.8522 1794.0 -0.0052054 253.04 0.20365 620.00 0.0016129 532.63 1016.8 1.8162 2.4545 2.8522 1794.0 -0.0052054 253.04 0.20365
192.38 43678. undefined 535.08 1020.8 1.8215 620.00 0.0016129 535.08 1020.8 1.8215 2.4584 2.8557 1795.1 -0.0051995 253.00 0.20388 620.00 0.0016129 535.08 1020.8 1.8215 2.4584 2.8557 1795.1 -0.0051995 253.00 0.20388
193.38 43816. undefined 537.54 1024.8 1.8268 620.00 0.0016129 537.54 1024.8 1.8268 2.4624 2.8592 1796.1 -0.0051937 252.96 0.20412 620.00 0.0016129 537.54 1024.8 1.8268 2.4624 2.8592 1796.1 -0.0051937 252.96 0.20412
194.38 43954. undefined 540.01 1028.8 1.8320 620.00 0.0016129 540.01 1028.8 1.8320 2.4664 2.8627 1797.2 -0.0051878 252.92 0.20436 620.00 0.0016129 540.01 1028.8 1.8320 2.4664 2.8627 1797.2 -0.0051878 252.92 0.20436
195.38 44092. undefined 542.48 1032.8 1.8373 620.00 0.0016129 542.48 1032.8 1.8373 2.4703 2.8662 1798.2 -0.0051820 252.89 0.20460 620.00 0.0016129 542.48 1032.8 1.8373 2.4703 2.8662 1798.2 -0.0051820 252.89 0.20460
196.38 44230. undefined 544.95 1036.8 1.8426 620.00 0.0016129 544.95 1036.8 1.8426 2.4743 2.8697 1799.3 -0.0051762 252.85 0.20483 620.00 0.0016129 544.95 1036.8 1.8426 2.4743 2.8697 1799.3 -0.0051762 252.85 0.20483
197.38 44368. undefined 547.43 1040.8 1.8478 620.00 0.0016129 547.43 1040.8 1.8478 2.4782 2.8732 1800.3 -0.0051705 252.81 0.20507 620.00 0.0016129 547.43 1040.8 1.8478 2.4782 2.8732 1800.3 -0.0051705 252.81 0.20507
198.38 44506. undefined 549.91 1044.8 1.8531 620.00 0.0016129 549.91 1044.8 1.8531 2.4822 2.8767 1801.3 -0.0051647 252.78 0.20531 620.00 0.0016129 549.91 1044.8 1.8531 2.4822 2.8767 1801.3 -0.0051647 252.78 0.20531
199.38 44643. undefined 552.39 1048.8 1.8584 620.00 0.0016129 552.39 1048.8 1.8584 2.4861 2.8802 1802.4 -0.0051590 252.74 0.20555 620.00 0.0016129 552.39 1048.8 1.8584 2.4861 2.8802 1802.4 -0.0051590 252.74 0.20555
200.38 44781. undefined 554.88 1052.9 1.8636 620.00 0.0016129 554.88 1052.9 1.8636 2.4900 2.8836 1803.4 -0.0051532 252.71 0.20579 620.00 0.0016129 554.88 1052.9 1.8636 2.4900 2.8836 1803.4 -0.0051532 252.71 0.20579
201.38 44918. undefined 557.37 1056.9 1.8689 620.00 0.0016129 557.37 1056.9 1.8689 2.4939 2.8871 1804.4 -0.0051475 252.67 0.20603 620.00 0.0016129 557.37 1056.9 1.8689 2.4939 2.8871 1804.4 -0.0051475 252.67 0.20603
202.38 45055. undefined 559.87 1060.9 1.8741 620.00 0.0016129 559.87 1060.9 1.8741 2.4979 2.8906 1805.5 -0.0051418 252.64 0.20627 620.00 0.0016129 559.87 1060.9 1.8741 2.4979 2.8906 1805.5 -0.0051418 252.64 0.20627
203.38 45192. undefined 562.37 1064.9 1.8794 620.00 0.0016129 562.37 1064.9 1.8794 2.5018 2.8941 1806.5 -0.0051362 252.60 0.20651 620.00 0.0016129 562.37 1064.9 1.8794 2.5018 2.8941 1806.5 -0.0051362 252.60 0.20651
204.38 45329. undefined 564.87 1069.0 1.8846 620.00 0.0016129 564.87 1069.0 1.8846 2.5057 2.8975 1807.5 -0.0051305 252.57 0.20675 620.00 0.0016129 564.87 1069.0 1.8846 2.5057 2.8975 1807.5 -0.0051305 252.57 0.20675
205.38 45466. undefined 567.38 1073.0 1.8899 620.00 0.0016129 567.38 1073.0 1.8899 2.5096 2.9010 1808.6 -0.0051249 252.53 0.20699 620.00 0.0016129 567.38 1073.0 1.8899 2.5096 2.9010 1808.6 -0.0051249 252.53 0.20699
206.38 45603. undefined 569.89 1077.0 1.8951 620.00 0.0016129 569.89 1077.0 1.8951 2.5135 2.9044 1809.6 -0.0051192 252.50 0.20723 620.00 0.0016129 569.89 1077.0 1.8951 2.5135 2.9044 1809.6 -0.0051192 252.50 0.20723
207.38 45740. undefined 572.40 1081.1 1.9004 620.00 0.0016129 572.40 1081.1 1.9004 2.5174 2.9079 1810.6 -0.0051136 252.47 0.20747 620.00 0.0016129 572.40 1081.1 1.9004 2.5174 2.9079 1810.6 -0.0051136 252.47 0.20747
208.38 45876. undefined 574.92 1085.1 1.9056 620.00 0.0016129 574.92 1085.1 1.9056 2.5213 2.9113 1811.6 -0.0051080 252.43 0.20772 620.00 0.0016129 574.92 1085.1 1.9056 2.5213 2.9113 1811.6 -0.0051080 252.43 0.20772
209.38 46013. undefined 577.45 1089.1 1.9108 620.00 0.0016129 577.45 1089.1 1.9108 2.5252 2.9148 1812.6 -0.0051025 252.40 0.20796 620.00 0.0016129 577.45 1089.1 1.9108 2.5252 2.9148 1812.6 -0.0051025 252.40 0.20796
210.38 46149. undefined 579.97 1093.2 1.9161 620.00 0.0016129 579.97 1093.2 1.9161 2.5290 2.9182 1813.7 -0.0050969 252.37 0.20820 620.00 0.0016129 579.97 1093.2 1.9161 2.5290 2.9182 1813.7 -0.0050969 252.37 0.20820
211.38 46285. undefined 582.50 1097.2 1.9213 620.00 0.0016129 582.50 1097.2 1.9213 2.5329 2.9217 1814.7 -0.0050914 252.33 0.20844 620.00 0.0016129 582.50 1097.2 1.9213 2.5329 2.9217 1814.7 -0.0050914 252.33 0.20844
212.38 46421. undefined 585.04 1101.3 1.9265 620.00 0.0016129 585.04 1101.3 1.9265 2.5368 2.9251 1815.7 -0.0050858 252.30 0.20869 620.00 0.0016129 585.04 1101.3 1.9265 2.5368 2.9251 1815.7 -0.0050858 252.30 0.20869
213.38 46557. undefined 587.58 1105.3 1.9318 620.00 0.0016129 587.58 1105.3 1.9318 2.5406 2.9285 1816.7 -0.0050803 252.27 0.20893 620.00 0.0016129 587.58 1105.3 1.9318 2.5406 2.9285 1816.7 -0.0050803 252.27 0.20893
214.38 46693. undefined 590.12 1109.4 1.9370 620.00 0.0016129 590.12 1109.4 1.9370 2.5445 2.9320 1817.7 -0.0050748 252.24 0.20917 620.00 0.0016129 590.12 1109.4 1.9370 2.5445 2.9320 1817.7 -0.0050748 252.24 0.20917
215.38 46828. undefined 592.67 1113.4 1.9422 620.00 0.0016129 592.67 1113.4 1.9422 2.5483 2.9354 1818.7 -0.0050694 252.21 0.20942 620.00 0.0016129 592.67 1113.4 1.9422 2.5483 2.9354 1818.7 -0.0050694 252.21 0.20942
216.38 46964. undefined 595.22 1117.5 1.9474 620.00 0.0016129 595.22 1117.5 1.9474 2.5522 2.9388 1819.8 -0.0050639 252.18 0.20966 620.00 0.0016129 595.22 1117.5 1.9474 2.5522 2.9388 1819.8 -0.0050639 252.18 0.20966
217.38 47099. undefined 597.77 1121.5 1.9526 620.00 0.0016129 597.77 1121.5 1.9526 2.5560 2.9422 1820.8 -0.0050585 252.15 0.20991 620.00 0.0016129 597.77 1121.5 1.9526 2.5560 2.9422 1820.8 -0.0050585 252.15 0.20991
218.38 47235. undefined 600.33 1125.6 1.9578 620.00 0.0016129 600.33 1125.6 1.9578 2.5599 2.9457 1821.8 -0.0050530 252.12 0.21015 620.00 0.0016129 600.33 1125.6 1.9578 2.5599 2.9457 1821.8 -0.0050530 252.12 0.21015
219.38 47370. undefined 602.89 1129.7 1.9630 620.00 0.0016129 602.89 1129.7 1.9630 2.5637 2.9491 1822.8 -0.0050476 252.09 0.21040 620.00 0.0016129 602.89 1129.7 1.9630 2.5637 2.9491 1822.8 -0.0050476 252.09 0.21040
220.38 47505. undefined 605.46 1133.7 1.9682 620.00 0.0016129 605.46 1133.7 1.9682 2.5675 2.9525 1823.8 -0.0050422 252.06 0.21064 620.00 0.0016129 605.46 1133.7 1.9682 2.5675 2.9525 1823.8 -0.0050422 252.06 0.21064
221.38 47640. undefined 608.03 1137.8 1.9734 620.00 0.0016129 608.03 1137.8 1.9734 2.5713 2.9559 1824.8 -0.0050368 252.03 0.21089 620.00 0.0016129 608.03 1137.8 1.9734 2.5713 2.9559 1824.8 -0.0050368 252.03 0.21089
222.38 47775. undefined 610.60 1141.9 1.9786 620.00 0.0016129 610.60 1141.9 1.9786 2.5752 2.9593 1825.8 -0.0050315 252.00 0.21113 620.00 0.0016129 610.60 1141.9 1.9786 2.5752 2.9593 1825.8 -0.0050315 252.00 0.21113
223.38 47910. undefined 613.18 1146.0 1.9838 620.00 0.0016129 613.18 1146.0 1.9838 2.5790 2.9627 1826.8 -0.0050261 251.97 0.21138 620.00 0.0016129 613.18 1146.0 1.9838 2.5790 2.9627 1826.8 -0.0050261 251.97 0.21138
224.38 48045. undefined 615.76 1150.0 1.9890 620.00 0.0016129 615.76 1150.0 1.9890 2.5828 2.9661 1827.8 -0.0050208 251.94 0.21163 620.00 0.0016129 615.76 1150.0 1.9890 2.5828 2.9661 1827.8 -0.0050208 251.94 0.21163
225.38 48179. undefined 618.34 1154.1 1.9942 620.00 0.0016129 618.34 1154.1 1.9942 2.5866 2.9695 1828.8 -0.0050155 251.91 0.21187 620.00 0.0016129 618.34 1154.1 1.9942 2.5866 2.9695 1828.8 -0.0050155 251.91 0.21187
226.38 48314. undefined 620.93 1158.2 1.9994 620.00 0.0016129 620.93 1158.2 1.9994 2.5904 2.9728 1829.8 -0.0050102 251.89 0.21212 620.00 0.0016129 620.93 1158.2 1.9994 2.5904 2.9728 1829.8 -0.0050102 251.89 0.21212
227.38 48448. undefined 623.52 1162.3 2.0046 620.00 0.0016129 623.52 1162.3 2.0046 2.5942 2.9762 1830.8 -0.0050049 251.86 0.21237 620.00 0.0016129 623.52 1162.3 2.0046 2.5942 2.9762 1830.8 -0.0050049 251.86 0.21237
228.38 48582. undefined 626.12 1166.4 2.0098 620.00 0.0016129 626.12 1166.4 2.0098 2.5979 2.9796 1831.8 -0.0049996 251.83 0.21261 620.00 0.0016129 626.12 1166.4 2.0098 2.5979 2.9796 1831.8 -0.0049996 251.83 0.21261
229.38 48716. undefined 628.72 1170.5 2.0149 620.00 0.0016129 628.72 1170.5 2.0149 2.6017 2.9830 1832.8 -0.0049944 251.80 0.21286 620.00 0.0016129 628.72 1170.5 2.0149 2.6017 2.9830 1832.8 -0.0049944 251.80 0.21286
230.38 48850. undefined 631.32 1174.6 2.0201 620.00 0.0016129 631.32 1174.6 2.0201 2.6055 2.9863 1833.8 -0.0049891 251.78 0.21311 620.00 0.0016129 631.32 1174.6 2.0201 2.6055 2.9863 1833.8 -0.0049891 251.78 0.21311
231.38 48984. undefined 633.93 1178.7 2.0253 620.00 0.0016129 633.93 1178.7 2.0253 2.6093 2.9897 1834.8 -0.0049839 251.75 0.21336 620.00 0.0016129 633.93 1178.7 2.0253 2.6093 2.9897 1834.8 -0.0049839 251.75 0.21336
232.38 49118. undefined 636.54 1182.8 2.0305 620.00 0.0016129 636.54 1182.8 2.0305 2.6130 2.9931 1835.7 -0.0049787 251.73 0.21361 620.00 0.0016129 636.54 1182.8 2.0305 2.6130 2.9931 1835.7 -0.0049787 251.73 0.21361
233.38 49252. undefined 639.16 1186.9 2.0356 620.00 0.0016129 639.16 1186.9 2.0356 2.6168 2.9964 1836.7 -0.0049735 251.70 0.21386 620.00 0.0016129 639.16 1186.9 2.0356 2.6168 2.9964 1836.7 -0.0049735 251.70 0.21386
234.38 49385. undefined 641.77 1191.0 2.0408 620.00 0.0016129 641.77 1191.0 2.0408 2.6205 2.9998 1837.7 -0.0049683 251.67 0.21411 620.00 0.0016129 641.77 1191.0 2.0408 2.6205 2.9998 1837.7 -0.0049683 251.67 0.21411
235.38 49519. undefined 644.40 1195.1 2.0460 620.00 0.0016129 644.40 1195.1 2.0460 2.6243 3.0031 1838.7 -0.0049632 251.65 0.21436 620.00 0.0016129 644.40 1195.1 2.0460 2.6243 3.0031 1838.7 -0.0049632 251.65 0.21436
236.38 49652. undefined 647.02 1199.2 2.0511 620.00 0.0016129 647.02 1199.2 2.0511 2.6280 3.0065 1839.7 -0.0049580 251.62 0.21461 620.00 0.0016129 647.02 1199.2 2.0511 2.6280 3.0065 1839.7 -0.0049580 251.62 0.21461
237.38 49785. undefined 649.65 1203.3 2.0563 620.00 0.0016129 649.65 1203.3 2.0563 2.6317 3.0098 1840.7 -0.0049529 251.60 0.21486 620.00 0.0016129 649.65 1203.3 2.0563 2.6317 3.0098 1840.7 -0.0049529 251.60 0.21486
238.38 49918. undefined 652.29 1207.4 2.0614 620.00 0.0016129 652.29 1207.4 2.0614 2.6355 3.0132 1841.6 -0.0049478 251.57 0.21511 620.00 0.0016129 652.29 1207.4 2.0614 2.6355 3.0132 1841.6 -0.0049478 251.57 0.21511
239.38 50051. undefined 654.92 1211.5 2.0666 620.00 0.0016129 654.92 1211.5 2.0666 2.6392 3.0165 1842.6 -0.0049427 251.55 0.21536 620.00 0.0016129 654.92 1211.5 2.0666 2.6392 3.0165 1842.6 -0.0049427 251.55 0.21536
240.38 50184. undefined 657.56 1215.6 2.0717 620.00 0.0016129 657.56 1215.6 2.0717 2.6429 3.0199 1843.6 -0.0049376 251.52 0.21561 620.00 0.0016129 657.56 1215.6 2.0717 2.6429 3.0199 1843.6 -0.0049376 251.52 0.21561
241.38 50317. undefined 660.21 1219.8 2.0769 620.00 0.0016129 660.21 1219.8 2.0769 2.6466 3.0232 1844.6 -0.0049326 251.50 0.21586 620.00 0.0016129 660.21 1219.8 2.0769 2.6466 3.0232 1844.6 -0.0049326 251.50 0.21586
242.38 50450. undefined 662.86 1223.9 2.0820 620.00 0.0016129 662.86 1223.9 2.0820 2.6503 3.0265 1845.6 -0.0049275 251.48 0.21611 620.00 0.0016129 662.86 1223.9 2.0820 2.6503 3.0265 1845.6 -0.0049275 251.48 0.21611
243.38 50583. undefined 665.51 1228.0 2.0872 620.00 0.0016129 665.51 1228.0 2.0872 2.6540 3.0298 1846.5 -0.0049225 251.45 0.21636 620.00 0.0016129 665.51 1228.0 2.0872 2.6540 3.0298 1846.5 -0.0049225 251.45 0.21636
244.38 50715. undefined 668.17 1232.1 2.0923 620.00 0.0016129 668.17 1232.1 2.0923 2.6577 3.0331 1847.5 -0.0049175 251.43 0.21662 620.00 0.0016129 668.17 1232.1 2.0923 2.6577 3.0331 1847.5 -0.0049175 251.43 0.21662
245.38 50847. undefined 670.83 1236.3 2.0974 620.00 0.0016129 670.83 1236.3 2.0974 2.6614 3.0365 1848.5 -0.0049124 251.41 0.21687 620.00 0.0016129 670.83 1236.3 2.0974 2.6614 3.0365 1848.5 -0.0049124 251.41 0.21687
246.38 50980. undefined 673.49 1240.4 2.1026 620.00 0.0016129 673.49 1240.4 2.1026 2.6651 3.0398 1849.5 -0.0049075 251.38 0.21712 620.00 0.0016129 673.49 1240.4 2.1026 2.6651 3.0398 1849.5 -0.0049075 251.38 0.21712
247.38 51112. undefined 676.16 1244.5 2.1077 620.00 0.0016129 676.16 1244.5 2.1077 2.6688 3.0431 1850.4 -0.0049025 251.36 0.21738 620.00 0.0016129 676.16 1244.5 2.1077 2.6688 3.0431 1850.4 -0.0049025 251.36 0.21738
248.38 51244. undefined 678.83 1248.7 2.1128 620.00 0.0016129 678.83 1248.7 2.1128 2.6725 3.0464 1851.4 -0.0048975 251.34 0.21763 620.00 0.0016129 678.83 1248.7 2.1128 2.6725 3.0464 1851.4 -0.0048975 251.34 0.21763
249.38 51376. undefined 681.50 1252.8 2.1179 620.00 0.0016129 681.50 1252.8 2.1179 2.6762 3.0497 1852.4 -0.0048926 251.31 0.21788 620.00 0.0016129 681.50 1252.8 2.1179 2.6762 3.0497 1852.4 -0.0048926 251.31 0.21788
250.38 51508. undefined 684.18 1257.0 2.1231 620.00 0.0016129 684.18 1257.0 2.1231 2.6798 3.0530 1853.3 -0.0048876 251.29 0.21814 620.00 0.0016129 684.18 1257.0 2.1231 2.6798 3.0530 1853.3 -0.0048876 251.29 0.21814
251.38 51640. undefined 686.86 1261.1 2.1282 620.00 0.0016129 686.86 1261.1 2.1282 2.6835 3.0563 1854.3 -0.0048827 251.27 0.21839 620.00 0.0016129 686.86 1261.1 2.1282 2.6835 3.0563 1854.3 -0.0048827 251.27 0.21839
252.38 51771. undefined 689.55 1265.3 2.1333 620.00 0.0016129 689.55 1265.3 2.1333 2.6871 3.0595 1855.3 -0.0048778 251.25 0.21865 620.00 0.0016129 689.55 1265.3 2.1333 2.6871 3.0595 1855.3 -0.0048778 251.25 0.21865
253.38 51903. undefined 692.23 1269.4 2.1384 620.00 0.0016129 692.23 1269.4 2.1384 2.6908 3.0628 1856.2 -0.0048729 251.23 0.21890 620.00 0.0016129 692.23 1269.4 2.1384 2.6908 3.0628 1856.2 -0.0048729 251.23 0.21890
254.38 52034. undefined 694.93 1273.6 2.1435 620.00 0.0016129 694.93 1273.6 2.1435 2.6944 3.0661 1857.2 -0.0048681 251.21 0.21916 620.00 0.0016129 694.93 1273.6 2.1435 2.6944 3.0661 1857.2 -0.0048681 251.21 0.21916
255.38 52166. undefined 697.62 1277.7 2.1486 620.00 0.0016129 697.62 1277.7 2.1486 2.6981 3.0694 1858.1 -0.0048632 251.19 0.21941 620.00 0.0016129 697.62 1277.7 2.1486 2.6981 3.0694 1858.1 -0.0048632 251.19 0.21941
256.38 52297. undefined 700.32 1281.9 2.1537 620.00 0.0016129 700.32 1281.9 2.1537 2.7017 3.0727 1859.1 -0.0048584 251.17 0.21967 620.00 0.0016129 700.32 1281.9 2.1537 2.7017 3.0727 1859.1 -0.0048584 251.17 0.21967
257.38 52428. undefined 703.03 1286.1 2.1588 620.00 0.0016129 703.03 1286.1 2.1588 2.7053 3.0759 1860.0 -0.0048535 251.14 0.21992 620.00 0.0016129 703.03 1286.1 2.1588 2.7053 3.0759 1860.0 -0.0048535 251.14 0.21992
258.38 52559. undefined 705.73 1290.2 2.1639 620.00 0.0016129 705.73 1290.2 2.1639 2.7090 3.0792 1861.0 -0.0048487 251.12 0.22018 620.00 0.0016129 705.73 1290.2 2.1639 2.7090 3.0792 1861.0 -0.0048487 251.12 0.22018
259.38 52690. undefined 708.44 1294.4 2.1690 620.00 0.0016129 708.44 1294.4 2.1690 2.7126 3.0824 1862.0 -0.0048439 251.10 0.22044 620.00 0.0016129 708.44 1294.4 2.1690 2.7126 3.0824 1862.0 -0.0048439 251.10 0.22044
260.38 52821. undefined 711.16 1298.6 2.1741 620.00 0.0016129 711.16 1298.6 2.1741 2.7162 3.0857 1862.9 -0.0048391 251.08 0.22069 620.00 0.0016129 711.16 1298.6 2.1741 2.7162 3.0857 1862.9 -0.0048391 251.08 0.22069
261.38 52952. undefined 713.88 1302.7 2.1792 620.00 0.0016129 713.88 1302.7 2.1792 2.7198 3.0889 1863.9 -0.0048344 251.06 0.22095 620.00 0.0016129 713.88 1302.7 2.1792 2.7198 3.0889 1863.9 -0.0048344 251.06 0.22095
262.38 53082. undefined 716.60 1306.9 2.1843 620.00 0.0016129 716.60 1306.9 2.1843 2.7234 3.0922 1864.8 -0.0048296 251.04 0.22121 620.00 0.0016129 716.60 1306.9 2.1843 2.7234 3.0922 1864.8 -0.0048296 251.04 0.22121
263.38 53213. undefined 719.32 1311.1 2.1894 620.00 0.0016129 719.32 1311.1 2.1894 2.7270 3.0954 1865.8 -0.0048249 251.03 0.22147 620.00 0.0016129 719.32 1311.1 2.1894 2.7270 3.0954 1865.8 -0.0048249 251.03 0.22147
264.38 53343. undefined 722.05 1315.3 2.1944 620.00 0.0016129 722.05 1315.3 2.1944 2.7306 3.0987 1866.7 -0.0048202 251.01 0.22173 620.00 0.0016129 722.05 1315.3 2.1944 2.7306 3.0987 1866.7 -0.0048202 251.01 0.22173
265.38 53474. undefined 724.79 1319.4 2.1995 620.00 0.0016129 724.79 1319.4 2.1995 2.7342 3.1019 1867.7 -0.0048154 250.99 0.22198 620.00 0.0016129 724.79 1319.4 2.1995 2.7342 3.1019 1867.7 -0.0048154 250.99 0.22198
266.38 53604. undefined 727.52 1323.6 2.2046 620.00 0.0016129 727.52 1323.6 2.2046 2.7378 3.1051 1868.6 -0.0048107 250.97 0.22224 620.00 0.0016129 727.52 1323.6 2.2046 2.7378 3.1051 1868.6 -0.0048107 250.97 0.22224
267.38 53734. undefined 730.26 1327.8 2.2097 620.00 0.0016129 730.26 1327.8 2.2097 2.7414 3.1084 1869.6 -0.0048061 250.95 0.22250 620.00 0.0016129 730.26 1327.8 2.2097 2.7414 3.1084 1869.6 -0.0048061 250.95 0.22250
268.38 53864. undefined 733.00 1332.0 2.2147 620.00 0.0016129 733.00 1332.0 2.2147 2.7449 3.1116 1870.5 -0.0048014 250.93 0.22276 620.00 0.0016129 733.00 1332.0 2.2147 2.7449 3.1116 1870.5 -0.0048014 250.93 0.22276
269.38 53994. undefined 735.75 1336.2 2.2198 620.00 0.0016129 735.75 1336.2 2.2198 2.7485 3.1148 1871.4 -0.0047967 250.91 0.22302 620.00 0.0016129 735.75 1336.2 2.2198 2.7485 3.1148 1871.4 -0.0047967 250.91 0.22302
270.38 54124. undefined 738.50 1340.4 2.2249 620.00 0.0016129 738.50 1340.4 2.2249 2.7521 3.1180 1872.4 -0.0047921 250.90 0.22328 620.00 0.0016129 738.50 1340.4 2.2249 2.7521 3.1180 1872.4 -0.0047921 250.90 0.22328
271.38 54254. undefined 741.25 1344.6 2.2299 620.00 0.0016129 741.25 1344.6 2.2299 2.7556 3.1212 1873.3 -0.0047875 250.88 0.22354 620.00 0.0016129 741.25 1344.6 2.2299 2.7556 3.1212 1873.3 -0.0047875 250.88 0.22354
272.38 54383. undefined 744.01 1348.8 2.2350 620.00 0.0016129 744.01 1348.8 2.2350 2.7592 3.1244 1874.3 -0.0047828 250.86 0.22380 620.00 0.0016129 744.01 1348.8 2.2350 2.7592 3.1244 1874.3 -0.0047828 250.86 0.22380
273.38 54513. undefined 746.77 1353.0 2.2401 620.00 0.0016129 746.77 1353.0 2.2401 2.7627 3.1277 1875.2 -0.0047782 250.84 0.22406 620.00 0.0016129 746.77 1353.0 2.2401 2.7627 3.1277 1875.2 -0.0047782 250.84 0.22406
274.38 54642. undefined 749.54 1357.2 2.2451 620.00 0.0016129 749.54 1357.2 2.2451 2.7663 3.1309 1876.1 -0.0047737 250.83 0.22432 620.00 0.0016129 749.54 1357.2 2.2451 2.7663 3.1309 1876.1 -0.0047737 250.83 0.22432
275.38 54772. undefined 752.31 1361.4 2.2502 620.00 0.0016129 752.31 1361.4 2.2502 2.7698 3.1340 1877.1 -0.0047691 250.81 0.22458 620.00 0.0016129 752.31 1361.4 2.2502 2.7698 3.1340 1877.1 -0.0047691 250.81 0.22458
276.38 54901. undefined 755.08 1365.6 2.2552 620.00 0.0016129 755.08 1365.6 2.2552 2.7733 3.1372 1878.0 -0.0047645 250.79 0.22485 620.00 0.0016129 755.08 1365.6 2.2552 2.7733 3.1372 1878.0 -0.0047645 250.79 0.22485
277.38 55030. undefined 757.85 1369.8 2.2603 620.00 0.0016129 757.85 1369.8 2.2603 2.7768 3.1404 1878.9 -0.0047600 250.78 0.22511 620.00 0.0016129 757.85 1369.8 2.2603 2.7768 3.1404 1878.9 -0.0047600 250.78 0.22511
278.38 55159. undefined 760.63 1374.0 2.2653 620.00 0.0016129 760.63 1374.0 2.2653 2.7804 3.1436 1879.9 -0.0047554 250.76 0.22537 620.00 0.0016129 760.63 1374.0 2.2653 2.7804 3.1436 1879.9 -0.0047554 250.76 0.22537
279.38 55288. undefined 763.41 1378.2 2.2703 620.00 0.0016129 763.41 1378.2 2.2703 2.7839 3.1468 1880.8 -0.0047509 250.74 0.22563 620.00 0.0016129 763.41 1378.2 2.2703 2.7839 3.1468 1880.8 -0.0047509 250.74 0.22563
280.38 55417. undefined 766.20 1382.5 2.2754 620.00 0.0016129 766.20 1382.5 2.2754 2.7874 3.1500 1881.7 -0.0047464 250.73 0.22590 620.00 0.0016129 766.20 1382.5 2.2754 2.7874 3.1500 1881.7 -0.0047464 250.73 0.22590
281.38 55546. undefined 768.99 1386.7 2.2804 620.00 0.0016129 768.99 1386.7 2.2804 2.7909 3.1531 1882.7 -0.0047419 250.71 0.22616 620.00 0.0016129 768.99 1386.7 2.2804 2.7909 3.1531 1882.7 -0.0047419 250.71 0.22616
282.38 55674. undefined 771.78 1390.9 2.2854 620.00 0.0016129 771.78 1390.9 2.2854 2.7944 3.1563 1883.6 -0.0047374 250.69 0.22626 620.00 0.0016129 771.78 1390.9 2.2854 2.7944 3.1563 1883.6 -0.0047374 250.69 0.22626
283.38 55803. undefined 774.58 1395.1 2.2905 620.00 0.0016129 774.58 1395.1 2.2905 2.7979 3.1595 1884.5 -0.0047330 250.68 0.22652 620.00 0.0016129 774.58 1395.1 2.2905 2.7979 3.1595 1884.5 -0.0047330 250.68 0.22652
284.38 55932. undefined 777.38 1399.4 2.2955 620.00 0.0016129 777.38 1399.4 2.2955 2.8014 3.1626 1885.4 -0.0047285 250.66 0.22678 620.00 0.0016129 777.38 1399.4 2.2955 2.8014 3.1626 1885.4 -0.0047285 250.66 0.22678
285.38 56060. undefined 780.18 1403.6 2.3005 620.00 0.0016129 780.18 1403.6 2.3005 2.8049 3.1658 1886.4 -0.0047241 250.65 0.22705 620.00 0.0016129 780.18 1403.6 2.3005 2.8049 3.1658 1886.4 -0.0047241 250.65 0.22705
286.38 56188. undefined 782.99 1407.8 2.3055 620.00 0.0016129 782.99 1407.8 2.3055 2.8084 3.1689 1887.3 -0.0047197 250.63 0.22731 620.00 0.0016129 782.99 1407.8 2.3055 2.8084 3.1689 1887.3 -0.0047197 250.63 0.22731
287.38 56316. undefined 785.80 1412.1 2.3106 620.00 0.0016129 785.80 1412.1 2.3106 2.8118 3.1721 1888.2 -0.0047153 250.62 0.22758 620.00 0.0016129 785.80 1412.1 2.3106 2.8118 3.1721 1888.2 -0.0047153 250.62 0.22758
288.38 56445. undefined 788.61 1416.3 2.3156 620.00 0.0016129 788.61 1416.3 2.3156 2.8153 3.1752 1889.1 -0.0047109 250.60 0.22784 620.00 0.0016129 788.61 1416.3 2.3156 2.8153 3.1752 1889.1 -0.0047109 250.60 0.22784
289.38 56573. undefined 791.43 1420.5 2.3206 620.00 0.0016129 791.43 1420.5 2.3206 2.8188 3.1784 1890.0 -0.0047065 250.59 0.22811 620.00 0.0016129 791.43 1420.5 2.3206 2.8188 3.1784 1890.0 -0.0047065 250.59 0.22811
290.38 56700. undefined 794.25 1424.8 2.3256 620.00 0.0016129 794.25 1424.8 2.3256 2.8222 3.1815 1891.0 -0.0047021 250.57 0.22837 620.00 0.0016129 794.25 1424.8 2.3256 2.8222 3.1815 1891.0 -0.0047021 250.57 0.22837
291.38 56828. undefined 797.07 1429.0 2.3306 620.00 0.0016129 797.07 1429.0 2.3306 2.8257 3.1846 1891.9 -0.0046977 250.56 0.22864 620.00 0.0016129 797.07 1429.0 2.3306 2.8257 3.1846 1891.9 -0.0046977 250.56 0.22864
292.38 56956. undefined 799.90 1433.3 2.3356 620.00 0.0016129 799.90 1433.3 2.3356 2.8291 3.1878 1892.8 -0.0046934 250.55 0.22890 620.00 0.0016129 799.90 1433.3 2.3356 2.8291 3.1878 1892.8 -0.0046934 250.55 0.22890
293.38 57084. undefined 802.73 1437.5 2.3406 620.00 0.0016129 802.73 1437.5 2.3406 2.8326 3.1909 1893.7 -0.0046890 250.53 0.22917 620.00 0.0016129 802.73 1437.5 2.3406 2.8326 3.1909 1893.7 -0.0046890 250.53 0.22917
294.38 57211. undefined 805.56 1441.8 2.3456 620.00 0.0016129 805.56 1441.8 2.3456 2.8360 3.1940 1894.6 -0.0046847 250.52 0.22943 620.00 0.0016129 805.56 1441.8 2.3456 2.8360 3.1940 1894.6 -0.0046847 250.52 0.22943
295.38 57339. undefined 808.40 1446.0 2.3506 620.00 0.0016129 808.40 1446.0 2.3506 2.8394 3.1971 1895.5 -0.0046804 250.50 0.22970 620.00 0.0016129 808.40 1446.0 2.3506 2.8394 3.1971 1895.5 -0.0046804 250.50 0.22970
296.38 57466. undefined 811.24 1450.3 2.3556 620.00 0.0016129 811.24 1450.3 2.3556 2.8429 3.2002 1896.5 -0.0046761 250.49 0.22997 620.00 0.0016129 811.24 1450.3 2.3556 2.8429 3.2002 1896.5 -0.0046761 250.49 0.22997
297.38 57593. undefined 814.09 1454.6 2.3606 620.00 0.0016129 814.09 1454.6 2.3606 2.8463 3.2034 1897.4 -0.0046718 250.48 0.23024 620.00 0.0016129 814.09 1454.6 2.3606 2.8463 3.2034 1897.4 -0.0046718 250.48 0.23024
298.38 57721. undefined 816.94 1458.8 2.3656 620.00 0.0016129 816.94 1458.8 2.3656 2.8497 3.2065 1898.3 -0.0046676 250.46 0.23050 620.00 0.0016129 816.94 1458.8 2.3656 2.8497 3.2065 1898.3 -0.0046676 250.46 0.23050
299.38 57848. undefined 819.79 1463.1 2.3706 620.00 0.0016129 819.79 1463.1 2.3706 2.8531 3.2096 1899.2 -0.0046633 250.45 0.23077 620.00 0.0016129 819.79 1463.1 2.3706 2.8531 3.2096 1899.2 -0.0046633 250.45 0.23077
300.38 57975. undefined 822.64 1467.4 2.3755 620.00 0.0016129 822.64 1467.4 2.3755 2.8565 3.2127 1900.1 -0.0046591 250.44 0.23104 620.00 0.0016129 822.64 1467.4 2.3755 2.8565 3.2127 1900.1 -0.0046591 250.44 0.23104