Temperature (C) Pressure (psia) Quality (l+v) Internal Energy (l+v, kJ/kg) Enthalpy (l+v, kJ/kg) Entropy (l+v, J/g*K) Density (l, kg/m3) Volume (l, m3/kg) Internal Energy (l, kJ/kg) Enthalpy (l, kJ/kg) Entropy (l, J/g*K) Cv (l, J/g*K) Cp (l, J/g*K) Sound Spd. (l, m/s) Joule-Thomson (l, F/psia) Viscosity (l, uPa*s) Therm. Cond. (l, W/m*K) Density (v, kg/m3) Volume (v, m3/kg) Internal Energy (v, kJ/kg) Enthalpy (v, kJ/kg) Entropy (v, J/g*K) Cv (v, J/g*K) Cp (v, J/g*K) Sound Spd. (v, m/s) Joule-Thomson (v, F/psia) Viscosity (v, uPa*s) Therm. Cond. (v, W/m*K)
-187.62 2.4953e-08 1.1096e-10 -196.64 -196.64 -1.3959 733.13 0.0013640 -196.64 -196.64 -1.3959 1.3553 1.9158 2136.4 -0.0077592 10960. 0.20792 1.0669e-08 9.3732e+07 350.13 366.26 5.1858 0.69067 0.87923 143.28 6.1051 2.3259 0.0017061
-186.62 3.7339e-08 1.6409e-10 -194.73 -194.73 -1.3736 732.08 0.0013660 -194.73 -194.73 -1.3736 1.3539 1.9166 2129.6 -0.0077546 10073. 0.20765 1.5780e-08 6.3371e+07 350.82 367.14 5.1200 0.69462 0.88317 144.03 5.9178 2.3534 0.0017533
-185.62 5.5322e-08 2.4029e-10 -192.81 -192.81 -1.3516 731.04 0.0013679 -192.81 -192.81 -1.3516 1.3525 1.9174 2122.9 -0.0077498 9276.1 0.20737 2.3112e-08 4.3267e+07 351.52 368.02 5.0561 0.69857 0.88713 144.77 5.7383 2.3808 0.0018007
-184.62 8.1182e-08 3.4857e-10 -190.89 -190.89 -1.3298 730.00 0.0013699 -190.89 -190.89 -1.3298 1.3513 1.9182 2116.1 -0.0077448 8557.8 0.20708 3.3533e-08 2.9821e+07 352.22 368.91 4.9939 0.70253 0.89108 145.51 5.5662 2.4083 0.0018485
-183.62 1.1803e-07 5.0105e-10 -188.97 -188.97 -1.3083 728.96 0.0013718 -188.97 -188.97 -1.3083 1.3501 1.9191 2109.3 -0.0077395 7909.8 0.20678 4.8211e-08 2.0742e+07 352.92 369.81 4.9333 0.70648 0.89504 146.24 5.4011 2.4357 0.0018965
-182.62 1.7009e-07 7.1390e-10 -187.05 -187.05 -1.2869 727.92 0.0013738 -187.05 -187.05 -1.2869 1.3490 1.9201 2102.5 -0.0077340 7324.3 0.20647 6.8704e-08 1.4555e+07 353.63 370.70 4.8744 0.71043 0.89899 146.97 5.2426 2.4632 0.0019448
-181.62 2.4299e-07 1.0085e-09 -185.13 -185.13 -1.2658 726.88 0.0013757 -185.13 -185.13 -1.2658 1.3480 1.9210 2095.7 -0.0077283 6794.5 0.20616 9.7079e-08 1.0301e+07 354.35 371.60 4.8170 0.71438 0.90294 147.69 5.0904 2.4906 0.0019934
-180.62 3.4425e-07 1.4131e-09 -183.21 -183.21 -1.2450 725.85 0.0013777 -183.21 -183.21 -1.2450 1.3470 1.9220 2088.9 -0.0077225 6314.4 0.20584 1.3605e-07 7.3504e+06 355.06 372.51 4.7612 0.71833 0.90688 148.41 4.9442 2.5181 0.0020423
-179.62 4.8378e-07 1.9643e-09 -181.29 -181.29 -1.2243 724.81 0.0013797 -181.29 -181.29 -1.2243 1.3461 1.9231 2082.0 -0.0077164 5878.8 0.20551 1.8915e-07 5.2868e+06 355.78 373.42 4.7068 0.72227 0.91082 149.13 4.8038 2.5456 0.0020915
-178.62 6.7459e-07 2.7096e-09 -179.37 -179.37 -1.2038 723.78 0.0013816 -179.37 -179.37 -1.2038 1.3453 1.9241 2075.2 -0.0077102 5482.9 0.20517 2.6096e-07 3.8320e+06 356.51 374.33 4.6538 0.72620 0.91475 149.84 4.6688 2.5731 0.0021410
-177.62 9.3358e-07 3.7099e-09 -177.44 -177.44 -1.1836 722.75 0.0013836 -177.44 -177.44 -1.1836 1.3445 1.9252 2068.4 -0.0077039 5122.6 0.20483 3.5737e-07 2.7982e+06 357.23 375.25 4.6022 0.73012 0.91867 150.54 4.5390 2.6005 0.0021907
-176.62 1.2826e-06 5.0430e-09 -175.52 -175.52 -1.1635 721.72 0.0013856 -175.52 -175.52 -1.1635 1.3437 1.9263 2061.5 -0.0076973 4794.1 0.20447 4.8588e-07 2.0581e+06 357.97 376.17 4.5519 0.73403 0.92258 151.25 4.4142 2.6280 0.0022408
-175.62 1.7496e-06 6.8076e-09 -173.59 -173.59 -1.1437 720.69 0.0013876 -173.59 -173.59 -1.1437 1.3430 1.9274 2054.7 -0.0076907 4494.3 0.20411 6.5601e-07 1.5244e+06 358.70 377.09 4.5029 0.73792 0.92648 151.95 4.2941 2.6555 0.0022912
-174.62 2.3705e-06 9.1277e-09 -171.66 -171.66 -1.1240 719.66 0.0013895 -171.66 -171.66 -1.1240 1.3423 1.9286 2047.9 -0.0076838 4220.2 0.20375 8.7976e-07 1.1367e+06 359.44 378.02 4.4551 0.74181 0.93036 152.64 4.1784 2.6830 0.0023418
-173.62 3.1903e-06 1.2159e-08 -169.73 -169.73 -1.1045 718.64 0.0013915 -169.73 -169.73 -1.1045 1.3417 1.9298 2041.0 -0.0076769 3969.3 0.20338 1.1721e-06 8.5314e+05 360.19 378.95 4.4085 0.74568 0.93423 153.33 4.0671 2.7105 0.0023928
-172.62 4.2661e-06 1.6094e-08 -167.80 -167.80 -1.0852 717.61 0.0013935 -167.80 -167.80 -1.0852 1.3411 1.9310 2034.2 -0.0076698 3739.3 0.20300 1.5518e-06 6.4441e+05 360.93 379.89 4.3631 0.74953 0.93809 154.02 3.9599 2.7379 0.0024440
-171.62 5.6692e-06 2.1173e-08 -165.87 -165.87 -1.0661 716.58 0.0013955 -165.87 -165.87 -1.0661 1.3405 1.9322 2027.3 -0.0076625 3528.0 0.20261 2.0419e-06 4.8974e+05 361.69 380.83 4.3188 0.75337 0.94193 154.71 3.8566 2.7654 0.0024955
-170.62 7.4884e-06 2.7689e-08 -163.94 -163.94 -1.0472 715.56 0.0013975 -163.94 -163.94 -1.0472 1.3400 1.9334 2020.5 -0.0076552 3333.8 0.20222 2.6708e-06 3.7442e+05 362.44 381.77 4.2755 0.75720 0.94575 155.39 3.7570 2.7929 0.0025473
-169.62 9.8334e-06 3.6001e-08 -162.00 -162.00 -1.0284 714.54 0.0013995 -162.00 -162.00 -1.0284 1.3395 1.9347 2013.6 -0.0076477 3154.9 0.20182 3.4733e-06 2.8791e+05 363.20 382.72 4.2334 0.76100 0.94956 156.07 3.6609 2.8204 0.0025994
-168.62 1.2839e-05 4.6548e-08 -160.07 -160.07 -1.0098 713.52 0.0014015 -160.07 -160.07 -1.0098 1.3390 1.9359 2006.8 -0.0076401 2989.9 0.20141 4.4917e-06 2.2263e+05 363.96 383.67 4.1922 0.76479 0.95335 156.74 3.5683 2.8479 0.0026518
-167.62 1.6672e-05 5.9858e-08 -158.13 -158.13 -0.99134 712.49 0.0014035 -158.13 -158.13 -0.99134 1.3386 1.9372 2000.0 -0.0076323 2837.5 0.20100 5.7771e-06 1.7310e+05 364.73 384.63 4.1521 0.76856 0.95712 157.41 3.4790 2.8754 0.0027045
-166.62 2.1533e-05 7.6569e-08 -156.19 -156.19 -0.97306 711.47 0.0014055 -156.19 -156.19 -0.97306 1.3382 1.9385 1993.1 -0.0076245 2696.5 0.20058 7.3914e-06 1.3529e+05 365.50 385.59 4.1129 0.77232 0.96087 158.08 3.3927 2.9029 0.0027575
-165.62 2.7666e-05 9.7444e-08 -154.25 -154.25 -0.95494 710.45 0.0014075 -154.25 -154.25 -0.95494 1.3378 1.9398 1986.3 -0.0076165 2566.0 0.20016 9.4084e-06 1.0629e+05 366.27 386.55 4.0746 0.77605 0.96460 158.75 3.3095 2.9304 0.0028108
-164.62 3.5367e-05 1.2340e-07 -152.31 -152.31 -0.93698 709.44 0.0014096 -152.31 -152.31 -0.93698 1.3375 1.9411 1979.4 -0.0076084 2444.9 0.19973 1.1916e-05 83918. 367.05 387.52 4.0372 0.77976 0.96832 159.41 3.2291 2.9579 0.0028643
-163.62 4.4989e-05 1.5551e-07 -150.37 -150.37 -0.91917 708.42 0.0014116 -150.37 -150.37 -0.91917 1.3371 1.9424 1972.6 -0.0076002 2332.3 0.19930 1.5020e-05 66577. 367.83 388.49 4.0008 0.78346 0.97201 160.07 3.1514 2.9854 0.0029182
-162.62 5.6956e-05 1.9505e-07 -148.43 -148.43 -0.90151 707.40 0.0014136 -148.43 -148.43 -0.90151 1.3368 1.9437 1965.8 -0.0075919 2227.7 0.19886 1.8844e-05 53068. 368.62 389.46 3.9651 0.78713 0.97569 160.72 3.0764 3.0129 0.0029723
-161.62 7.1773e-05 2.4354e-07 -146.48 -146.48 -0.88400 706.38 0.0014157 -146.48 -146.48 -0.88400 1.3365 1.9451 1959.0 -0.0075834 2130.2 0.19841 2.3533e-05 42494. 369.41 390.44 3.9304 0.79079 0.97935 161.38 3.0038 3.0404 0.0030268
-160.62 9.0036e-05 3.0274e-07 -144.54 -144.54 -0.86663 705.37 0.0014177 -144.54 -144.54 -0.86663 1.3363 1.9465 1952.1 -0.0075748 2039.2 0.19796 2.9258e-05 34178. 370.20 391.42 3.8964 0.79443 0.98298 162.03 2.9337 3.0679 0.0030815
-159.62 0.00011245 3.7470e-07 -142.59 -142.59 -0.84940 704.35 0.0014197 -142.59 -142.59 -0.84940 1.3360 1.9478 1945.3 -0.0075661 1954.2 0.19751 3.6221e-05 27609. 371.00 392.40 3.8632 0.79805 0.98660 162.68 2.8658 3.0955 0.0031365
-158.62 0.00013985 4.6183e-07 -140.64 -140.64 -0.83231 703.34 0.0014218 -140.64 -140.64 -0.83231 1.3358 1.9492 1938.5 -0.0075573 1874.8 0.19705 4.4652e-05 22395. 371.80 393.39 3.8307 0.80164 0.99020 163.32 2.8002 3.1230 0.0031918
-157.62 0.00017320 5.6690e-07 -138.69 -138.69 -0.81536 702.32 0.0014238 -138.69 -138.69 -0.81536 1.3356 1.9506 1931.7 -0.0075484 1800.3 0.19658 5.4822e-05 18241. 372.60 394.38 3.7990 0.80522 0.99378 163.96 2.7367 3.1505 0.0032474
-156.62 0.00021364 6.9312e-07 -136.74 -136.74 -0.79854 701.31 0.0014259 -136.74 -136.74 -0.79854 1.3354 1.9520 1924.9 -0.0075393 1730.5 0.19611 6.7040e-05 14916. 373.41 395.38 3.7680 0.80878 0.99734 164.60 2.6752 3.1780 0.0033033
-155.62 0.00026248 8.4416e-07 -134.79 -134.79 -0.78185 700.30 0.0014280 -134.79 -134.79 -0.78185 1.3352 1.9534 1918.1 -0.0075302 1664.9 0.19564 8.1666e-05 12245. 374.22 396.38 3.7377 0.81232 1.0009 165.24 2.6157 3.2055 0.0033595
-154.62 0.00032125 1.0243e-06 -132.83 -132.83 -0.76529 699.29 0.0014300 -132.83 -132.83 -0.76530 1.3350 1.9548 1911.3 -0.0075209 1603.3 0.19516 9.9109e-05 10090. 375.03 397.38 3.7081 0.81585 1.0044 165.87 2.5580 3.2330 0.0034160
-153.62 0.00039171 1.2382e-06 -130.88 -130.88 -0.74886 698.27 0.0014321 -130.88 -130.88 -0.74887 1.3349 1.9563 1904.5 -0.0075114 1545.3 0.19468 0.00011984 8344.6 375.85 398.39 3.6792 0.81935 1.0079 166.50 2.5022 3.2606 0.0034727
-152.62 0.00047590 1.4916e-06 -128.92 -128.92 -0.73256 697.26 0.0014342 -128.92 -128.92 -0.73256 1.3348 1.9577 1897.8 -0.0075019 1490.6 0.19419 0.00014439 6925.9 376.67 399.40 3.6509 0.82284 1.0114 167.13 2.4481 3.2881 0.0035298
-151.62 0.00057613 1.7905e-06 -126.96 -126.96 -0.71637 696.25 0.0014363 -126.96 -126.96 -0.71638 1.3346 1.9592 1891.0 -0.0074922 1438.9 0.19370 0.00017336 5768.4 377.49 400.41 3.6232 0.82631 1.0149 167.76 2.3957 3.3156 0.0035872
-150.62 0.00069507 2.1421e-06 -125.00 -125.00 -0.70031 695.24 0.0014384 -125.00 -125.00 -0.70032 1.3345 1.9606 1884.2 -0.0074824 1390.2 0.19320 0.00020744 4820.7 378.32 401.42 3.5962 0.82976 1.0183 168.38 2.3448 3.3431 0.0036448
-149.62 0.00083574 2.5542e-06 -123.04 -123.04 -0.68437 694.23 0.0014404 -123.04 -123.04 -0.68438 1.3345 1.9621 1877.4 -0.0074724 1344.0 0.19270 0.00024740 4042.0 379.15 402.44 3.5697 0.83319 1.0218 169.00 2.2956 3.3706 0.0037027
-148.62 0.0010016 3.0359e-06 -121.08 -121.08 -0.66854 693.22 0.0014425 -121.08 -121.08 -0.66855 1.3344 1.9636 1870.7 -0.0074623 1300.3 0.19220 0.00029412 3400.0 379.99 403.47 3.5438 0.83661 1.0252 169.62 2.2478 3.3982 0.0037610
-147.62 0.0011965 3.5971e-06 -119.11 -119.11 -0.65282 692.21 0.0014447 -119.11 -119.11 -0.65284 1.3343 1.9651 1863.9 -0.0074521 1258.9 0.19169 0.00034856 2869.0 380.83 404.49 3.5185 0.84001 1.0286 170.24 2.2014 3.4257 0.0038195
-146.62 0.0014249 4.2491e-06 -117.15 -117.15 -0.63722 691.20 0.0014468 -117.15 -117.15 -0.63724 1.3343 1.9666 1857.2 -0.0074417 1219.6 0.19117 0.00041181 2428.3 381.67 405.52 3.4938 0.84340 1.0320 170.85 2.1565 3.4532 0.0038783
-145.62 0.0016917 5.0042e-06 -115.18 -115.18 -0.62173 690.19 0.0014489 -115.18 -115.18 -0.62175 1.3343 1.9682 1850.4 -0.0074312 1182.3 0.19066 0.00048510 2061.4 382.51 406.56 3.4695 0.84677 1.0353 171.46 2.1128 3.4807 0.0039374
-144.62 0.0020026 5.8764e-06 -113.21 -113.21 -0.60635 689.18 0.0014510 -113.21 -113.21 -0.60637 1.3343 1.9697 1843.7 -0.0074206 1146.8 0.19014 0.00056976 1755.1 383.36 407.59 3.4458 0.85012 1.0387 172.07 2.0705 3.5082 0.0039967
-143.62 0.0023637 6.8810e-06 -111.24 -111.24 -0.59107 688.17 0.0014531 -111.24 -111.24 -0.59110 1.3343 1.9713 1836.9 -0.0074098 1113.0 0.18962 0.00066731 1498.6 384.21 408.63 3.4226 0.85346 1.0420 172.68 2.0294 3.5358 0.0040564
-142.62 0.0027820 8.0351e-06 -109.27 -109.27 -0.57590 687.16 0.0014553 -109.27 -109.27 -0.57593 1.3343 1.9728 1830.2 -0.0073988 1080.8 0.18909 0.00077939 1283.1 385.07 409.68 3.3999 0.85679 1.0454 173.28 1.9896 3.5633 0.0041164
-141.62 0.0032653 9.3574e-06 -107.29 -107.29 -0.56083 686.15 0.0014574 -107.30 -107.30 -0.56087 1.3343 1.9744 1823.5 -0.0073878 1050.1 0.18856 0.00090784 1101.5 385.93 410.72 3.3777 0.86011 1.0487 173.88 1.9508 3.5908 0.0041766
-140.62 0.0038222 1.0869e-05 -105.32 -105.32 -0.54587 685.14 0.0014596 -105.32 -105.32 -0.54591 1.3344 1.9760 1816.7 -0.0073765 1020.7 0.18803 0.0010547 948.16 386.79 411.77 3.3560 0.86341 1.0520 174.48 1.9133 3.6183 0.0042372
-139.62 0.0044623 1.2591e-05 -103.34 -103.34 -0.53100 684.13 0.0014617 -103.34 -103.34 -0.53105 1.3344 1.9776 1810.0 -0.0073651 992.74 0.18749 0.0012221 818.26 387.65 412.83 3.3347 0.86670 1.0553 175.08 1.8768 3.6459 0.0042980
-138.62 0.0051963 1.4550e-05 -101.36 -101.36 -0.51623 683.12 0.0014639 -101.37 -101.37 -0.51629 1.3345 1.9792 1803.3 -0.0073536 965.97 0.18695 0.0014125 707.94 388.52 413.88 3.3139 0.86998 1.0586 175.67 1.8413 3.6734 0.0043592
-137.62 0.0060358 1.6773e-05 -99.378 -99.377 -0.50156 682.11 0.0014660 -99.386 -99.386 -0.50162 1.3346 1.9808 1796.6 -0.0073419 940.35 0.18641 0.0016287 614.00 389.39 414.94 3.2935 0.87325 1.0619 176.26 1.8069 3.7009 0.0044206
-136.62 0.0069938 1.9289e-05 -97.395 -97.394 -0.48698 681.10 0.0014682 -97.404 -97.404 -0.48705 1.3347 1.9825 1789.9 -0.0073301 915.81 0.18586 0.0018733 533.80 390.26 416.00 3.2735 0.87650 1.0651 176.85 1.7734 3.7284 0.0044823
-135.62 0.0080843 2.2130e-05 -95.410 -95.410 -0.47250 680.09 0.0014704 -95.421 -95.421 -0.47258 1.3348 1.9841 1783.2 -0.0073180 892.30 0.18531 0.0021497 465.17 391.14 417.07 3.2540 0.87975 1.0684 177.44 1.7409 3.7559 0.0045443
-134.62 0.0093230 2.5332e-05 -93.424 -93.423 -0.45810 679.08 0.0014726 -93.436 -93.436 -0.45820 1.3350 1.9858 1776.5 -0.0073059 869.75 0.18476 0.0024613 406.30 392.02 418.14 3.2348 0.88299 1.0716 178.02 1.7093 3.7834 0.0046066
-133.62 0.010727 2.8932e-05 -91.436 -91.435 -0.44380 678.07 0.0014748 -91.450 -91.449 -0.44391 1.3351 1.9875 1769.8 -0.0072935 848.11 0.18421 0.0028116 355.67 392.91 419.21 3.2161 0.88622 1.0749 178.61 1.6786 3.8109 0.0046691
-132.62 0.012315 3.2971e-05 -89.445 -89.444 -0.42959 677.06 0.0014770 -89.461 -89.461 -0.42971 1.3353 1.9892 1763.1 -0.0072810 827.32 0.18365 0.0032049 312.03 393.79 420.29 3.1977 0.88944 1.0781 179.19 1.6488 3.8385 0.0047320
-131.62 0.014106 3.7494e-05 -87.453 -87.452 -0.41546 676.04 0.0014792 -87.471 -87.471 -0.41560 1.3354 1.9909 1756.4 -0.0072684 807.34 0.18309 0.0036453 274.33 394.68 421.36 3.1798 0.89266 1.0813 179.76 1.6197 3.8660 0.0047951
-130.62 0.016124 4.2548e-05 -85.459 -85.458 -0.40142 675.03 0.0014814 -85.479 -85.479 -0.40157 1.3356 1.9926 1749.7 -0.0072555 788.12 0.18253 0.0041375 241.69 395.58 422.44 3.1622 0.89586 1.0846 180.34 1.5915 3.8935 0.0048586
-129.62 0.018392 4.8184e-05 -83.463 -83.461 -0.38746 674.02 0.0014836 -83.486 -83.486 -0.38763 1.3358 1.9944 1743.0 -0.0072425 769.63 0.18196 0.0046867 213.37 396.47 423.53 3.1450 0.89906 1.0878 180.91 1.5641 3.9210 0.0049223
-128.62 0.020935 5.4459e-05 -81.465 -81.463 -0.37359 673.01 0.0014859 -81.491 -81.490 -0.37378 1.3360 1.9961 1736.3 -0.0072294 751.83 0.18140 0.0052981 188.75 397.37 424.62 3.1281 0.90226 1.0910 181.48 1.5374 3.9485 0.0049863
-127.62 0.023783 6.1430e-05 -79.464 -79.462 -0.35980 672.00 0.0014881 -79.494 -79.493 -0.36001 1.3363 1.9979 1729.6 -0.0072160 734.67 0.18083 0.0059776 167.29 398.27 425.71 3.1116 0.90545 1.0942 182.05 1.5114 3.9760 0.0050506
-126.62 0.026966 6.9161e-05 -77.462 -77.460 -0.34608 670.98 0.0014904 -77.495 -77.495 -0.34632 1.3365 1.9997 1722.9 -0.0072025 718.14 0.18025 0.0067313 148.56 399.18 426.80 3.0954 0.90863 1.0974 182.62 1.4861 4.0035 0.0051152
-125.62 0.030515 7.7719e-05 -75.457 -75.455 -0.33245 669.97 0.0014926 -75.494 -75.494 -0.33272 1.3368 2.0015 1716.2 -0.0071888 702.18 0.17968 0.0075660 132.17 400.09 427.89 3.0795 0.91181 1.1006 183.18 1.4615 4.0310 0.0051800
-124.62 0.034467 8.7177e-05 -73.451 -73.448 -0.31889 668.95 0.0014949 -73.492 -73.492 -0.31919 1.3371 2.0033 1709.5 -0.0071749 686.79 0.17910 0.0084885 117.81 401.00 428.99 3.0640 0.91499 1.1038 183.74 1.4375 4.0584 0.0052452
-123.62 0.038859 9.7610e-05 -71.441 -71.438 -0.30541 667.94 0.0014971 -71.488 -71.487 -0.30574 1.3374 2.0051 1702.8 -0.0071609 671.93 0.17852 0.0095065 105.19 401.91 430.10 3.0488 0.91816 1.1070 184.30 1.4141 4.0859 0.0053106
-122.62 0.043731 0.00010910 -69.430 -69.427 -0.29201 666.92 0.0014994 -69.482 -69.481 -0.29237 1.3377 2.0070 1696.2 -0.0071466 657.57 0.17794 0.010628 94.092 402.83 431.20 3.0339 0.92134 1.1102 184.86 1.3913 4.1134 0.0053764
-121.62 0.049128 0.00012173 -67.416 -67.412 -0.27867 665.91 0.0015017 -67.474 -67.473 -0.27907 1.3380 2.0089 1689.5 -0.0071322 643.70 0.17736 0.011861 84.309 403.75 432.31 3.0193 0.92451 1.1134 185.41 1.3691 4.1409 0.0054424
-120.62 0.055096 0.00013560 -65.400 -65.396 -0.26541 664.89 0.0015040 -65.464 -65.463 -0.26585 1.3384 2.0107 1682.8 -0.0071176 630.28 0.17678 0.013215 75.669 404.67 433.42 3.0050 0.92767 1.1166 185.96 1.3475 4.1683 0.0055087
-119.62 0.061684 0.00015080 -63.381 -63.376 -0.25222 663.87 0.0015063 -63.452 -63.452 -0.25271 1.3387 2.0126 1676.1 -0.0071028 617.30 0.17619 0.014700 68.027 405.60 434.53 2.9909 0.93084 1.1198 186.51 1.3264 4.1958 0.0055752
-118.62 0.068946 0.00016744 -61.360 -61.355 -0.23909 662.86 0.0015086 -61.439 -61.438 -0.23963 1.3391 2.0146 1669.4 -0.0070878 604.74 0.17560 0.016325 61.255 406.53 435.64 2.9772 0.93401 1.1231 187.06 1.3058 4.2233 0.0056421
-117.62 0.076937 0.00018561 -59.336 -59.330 -0.22604 661.84 0.0015109 -59.423 -59.422 -0.22663 1.3395 2.0165 1662.8 -0.0070726 592.58 0.17501 0.018101 55.245 407.46 436.76 2.9638 0.93718 1.1263 187.60 1.2857 4.2507 0.0057092
-116.62 0.085718 0.00020544 -57.310 -57.303 -0.21305 660.82 0.0015133 -57.406 -57.405 -0.21370 1.3400 2.0184 1656.1 -0.0070573 580.80 0.17442 0.020040 49.901 408.39 437.88 2.9506 0.94035 1.1295 188.14 1.2660 4.2782 0.0057767
-115.62 0.095353 0.00022705 -55.281 -55.273 -0.20013 659.80 0.0015156 -55.386 -55.385 -0.20084 1.3404 2.0204 1649.4 -0.0070417 569.38 0.17383 0.022152 45.142 409.33 439.01 2.9377 0.94352 1.1327 188.68 1.2468 4.3056 0.0058444
-114.62 0.10591 0.00025055 -53.249 -53.240 -0.18727 658.78 0.0015180 -53.365 -53.364 -0.18805 1.3409 2.0224 1642.7 -0.0070260 558.32 0.17323 0.024451 40.898 410.27 440.13 2.9250 0.94669 1.1360 189.22 1.2281 4.3330 0.0059123
-113.62 0.11746 0.00027609 -51.214 -51.204 -0.17447 657.76 0.0015203 -51.342 -51.340 -0.17533 1.3413 2.0244 1636.0 -0.0070100 547.59 0.17264 0.026949 37.107 411.21 441.26 2.9126 0.94987 1.1392 189.75 1.2097 4.3604 0.0059806
-112.62 0.13008 0.00030380 -49.176 -49.165 -0.16174 656.73 0.0015227 -49.316 -49.315 -0.16267 1.3418 2.0264 1629.3 -0.0069938 537.18 0.17204 0.029661 33.715 412.16 442.39 2.9005 0.95305 1.1424 190.28 1.1918 4.3879 0.0060491
-111.62 0.14384 0.00033382 -47.135 -47.123 -0.14906 655.71 0.0015251 -47.289 -47.287 -0.15008 1.3424 2.0285 1622.7 -0.0069774 527.08 0.17144 0.032600 30.675 413.10 443.53 2.8885 0.95623 1.1457 190.81 1.1742 4.4153 0.0061180
-110.62 0.15884 0.00036632 -45.091 -45.078 -0.13645 654.69 0.0015274 -45.259 -45.258 -0.13755 1.3429 2.0305 1616.0 -0.0069609 517.28 0.17084 0.035781 27.948 414.06 444.66 2.8769 0.95942 1.1490 191.34 1.1570 4.4427 0.0061871
-109.62 0.17516 0.00040143 -43.044 -43.030 -0.12389 653.66 0.0015298 -43.228 -43.226 -0.12509 1.3435 2.0326 1609.3 -0.0069441 507.76 0.17024 0.039220 25.497 415.01 445.80 2.8654 0.96261 1.1522 191.86 1.1402 4.4701 0.0062564
-108.62 0.19290 0.00043934 -40.993 -40.978 -0.11139 652.64 0.0015322 -41.194 -41.192 -0.11269 1.3441 2.0347 1602.6 -0.0069271 498.51 0.16964 0.042933 23.292 415.96 446.94 2.8542 0.96581 1.1555 192.38 1.1236 4.4974 0.0063261
-107.62 0.21215 0.00048020 -38.939 -38.922 -0.098944 651.61 0.0015347 -39.158 -39.156 -0.10036 1.3447 2.0369 1595.9 -0.0069098 489.52 0.16903 0.046937 21.305 416.92 448.09 2.8433 0.96901 1.1588 192.90 1.1075 4.5248 0.0063960
-106.62 0.23301 0.00052421 -36.882 -36.863 -0.086551 650.58 0.0015371 -37.120 -37.118 -0.088082 1.3453 2.0390 1589.2 -0.0068924 480.79 0.16843 0.051250 19.512 417.88 449.23 2.8325 0.97222 1.1621 193.41 1.0916 4.5522 0.0064662
-105.62 0.25561 0.00057154 -34.821 -34.800 -0.074212 649.55 0.0015395 -35.080 -35.078 -0.075868 1.3460 2.0412 1582.6 -0.0068747 472.30 0.16782 0.055891 17.892 418.85 450.38 2.8220 0.97544 1.1655 193.93 1.0760 4.5795 0.0065367
-104.62 0.28004 0.00062240 -32.756 -32.734 -0.061925 648.52 0.0015420 -33.038 -33.035 -0.063714 1.3467 2.0434 1575.9 -0.0068569 464.04 0.16721 0.060878 16.426 419.81 451.53 2.8116 0.97867 1.1688 194.44 1.0608 4.6069 0.0066074
-103.62 0.30643 0.00067697 -30.688 -30.663 -0.049687 647.49 0.0015444 -30.994 -30.991 -0.051619 1.3474 2.0456 1569.2 -0.0068387 456.00 0.16660 0.066231 15.099 420.78 452.68 2.8015 0.98191 1.1722 194.94 1.0458 4.6342 0.0066785
-102.62 0.33490 0.00073547 -28.616 -28.589 -0.037499 646.46 0.0015469 -28.947 -28.944 -0.039582 1.3481 2.0478 1562.5 -0.0068204 448.18 0.16600 0.071971 13.894 421.75 453.84 2.7916 0.98516 1.1755 195.44 1.0310 4.6615 0.0067498
-101.62 0.36558 0.00079812 -26.539 -26.510 -0.025359 645.43 0.0015494 -26.898 -26.894 -0.027602 1.3489 2.0501 1555.8 -0.0068018 440.57 0.16539 0.078120 12.801 422.73 454.99 2.7818 0.98841 1.1789 195.95 1.0166 4.6888 0.0068213
-100.62 0.39862 0.00086513 -24.459 -24.427 -0.013266 644.39 0.0015519 -24.847 -24.843 -0.015678 1.3497 2.0524 1549.1 -0.0067830 433.16 0.16478 0.084699 11.807 423.70 456.15 2.7723 0.99168 1.1823 196.44 1.0024 4.7161 0.0068932
-99.625 0.43414 0.00093674 -22.375 -22.339 -0.0012185 643.36 0.0015544 -22.794 -22.789 -0.0038103 1.3505 2.0547 1542.4 -0.0067639 425.95 0.16416 0.091731 10.901 424.68 457.31 2.7630 0.99496 1.1858 196.94 0.98838 4.7434 0.0069653
-98.625 0.47230 0.0010132 -20.286 -20.247 0.010785 642.32 0.0015569 -20.738 -20.733 0.0080027 1.3514 2.0570 1535.7 -0.0067447 418.92 0.16355 0.099240 10.077 425.66 458.48 2.7538 0.99825 1.1892 197.43 0.97464 4.7707 0.0070377
-97.625 0.51325 0.0010947 -18.192 -18.151 0.022745 641.28 0.0015594 -18.680 -18.674 0.019762 1.3522 2.0594 1529.0 -0.0067251 412.07 0.16294 0.10725 9.3239 426.65 459.64 2.7448 1.0016 1.1927 197.92 0.96112 4.7979 0.0071103
-96.625 0.55714 0.0011816 -16.095 -16.049 0.034663 640.24 0.0015619 -16.620 -16.614 0.031467 1.3531 2.0618 1522.3 -0.0067053 405.39 0.16233 0.11579 8.6365 427.63 460.81 2.7360 1.0049 1.1962 198.40 0.94783 4.8251 0.0071832
-95.625 0.60416 0.0012740 -13.992 -13.943 0.046540 639.20 0.0015645 -14.557 -14.550 0.043120 1.3540 2.0642 1515.7 -0.0066853 398.88 0.16171 0.12488 8.0078 428.62 461.98 2.7274 1.0082 1.1997 198.88 0.93475 4.8524 0.0072564
-94.625 0.65446 0.0013724 -11.885 -11.832 0.058377 638.16 0.0015670 -12.491 -12.484 0.054721 1.3550 2.0667 1509.0 -0.0066650 392.53 0.16110 0.13455 7.4323 429.61 463.15 2.7189 1.0116 1.2032 199.36 0.92188 4.8796 0.0073299
-93.625 0.70822 0.0014768 -9.7724 -9.7149 0.070176 637.12 0.0015696 -10.424 -10.416 0.066271 1.3560 2.0691 1502.3 -0.0066444 386.34 0.16048 0.14482 6.9050 430.60 464.32 2.7107 1.0149 1.2068 199.83 0.90921 4.9068 0.0074036
-92.625 0.76564 0.0015877 -7.6550 -7.5929 0.081938 636.07 0.0015722 -8.3535 -8.3452 0.077771 1.3570 2.0716 1495.6 -0.0066236 380.31 0.15987 0.15573 6.4212 431.60 465.49 2.7025 1.0183 1.2104 200.30 0.89673 4.9340 0.0074776
-91.625 0.82689 0.0017053 -5.5324 -5.4653 0.093663 635.02 0.0015747 -6.2808 -6.2719 0.089220 1.3580 2.0742 1488.9 -0.0066025 374.41 0.15925 0.16731 5.9769 432.59 466.67 2.6946 1.0217 1.2140 200.77 0.88445 4.9611 0.0075518
-90.625 0.89218 0.0018300 -3.4045 -3.3321 0.10535 633.98 0.0015773 -4.2056 -4.1959 0.10062 1.3591 2.0767 1482.2 -0.0065811 368.66 0.15864 0.17958 5.5685 433.59 467.84 2.6868 1.0251 1.2177 201.24 0.87236 4.9883 0.0076263
-89.625 0.96172 0.0019619 -1.2711 -1.1930 0.11701 632.93 0.0015800 -2.1279 -2.1174 0.11197 1.3602 2.0793 1475.5 -0.0065595 363.05 0.15802 0.19258 5.1928 434.59 469.02 2.6791 1.0285 1.2213 201.70 0.86045 5.0154 0.0077011
-88.625 1.0357 0.0021015 0.86800 0.95201 0.12863 631.88 0.0015826 -0.047516 -0.036215 0.12328 1.3613 2.0819 1468.8 -0.0065375 357.56 0.15740 0.20633 4.8466 435.59 470.20 2.6717 1.0320 1.2250 202.15 0.84873 5.0425 0.0077761
-87.625 1.1144 0.0022491 3.0128 3.1032 0.14023 630.83 0.0015852 2.0355 2.0476 0.13454 1.3625 2.0846 1462.1 -0.0065153 352.21 0.15679 0.22087 4.5276 436.60 471.39 2.6643 1.0354 1.2288 202.61 0.83718 5.0696 0.0078514
-86.625 1.1979 0.0024050 5.1636 5.2608 0.15179 629.77 0.0015879 4.1211 4.1342 0.14575 1.3637 2.0873 1455.4 -0.0064928 346.98 0.15617 0.23623 4.2331 437.61 472.57 2.6571 1.0389 1.2325 203.06 0.82580 5.0967 0.0079270
-85.625 1.2866 0.0025695 7.3204 7.4248 0.16332 628.72 0.0015905 6.2094 6.2235 0.15691 1.3649 2.0900 1448.8 -0.0064701 341.87 0.15555 0.25245 3.9612 438.61 473.75 2.6501 1.0424 1.2363 203.50 0.81460 5.1237 0.0080028
-84.625 1.3806 0.0027430 9.4835 9.5955 0.17482 627.66 0.0015932 8.3004 8.3155 0.16803 1.3661 2.0927 1442.1 -0.0064470 336.87 0.15494 0.26956 3.7097 439.63 474.94 2.6432 1.0460 1.2402 203.95 0.80356 5.1508 0.0080789
-83.625 1.4803 0.0029259 11.653 11.773 0.18630 626.60 0.0015959 10.394 10.410 0.17911 1.3674 2.0955 1435.4 -0.0064236 331.99 0.15432 0.28760 3.4771 440.64 476.13 2.6364 1.0495 1.2440 204.38 0.79269 5.1778 0.0081553
-82.625 1.5858 0.0031184 13.829 13.958 0.19775 625.54 0.0015986 12.491 12.508 0.19014 1.3687 2.0983 1428.7 -0.0063999 327.22 0.15370 0.30659 3.2616 441.65 477.31 2.6298 1.0531 1.2479 204.82 0.78199 5.2048 0.0082319
-81.625 1.6975 0.0033210 16.012 16.149 0.20918 624.48 0.0016013 14.590 14.609 0.20113 1.3700 2.1012 1422.0 -0.0063759 322.55 0.15309 0.32659 3.0619 442.67 478.50 2.6233 1.0567 1.2519 205.25 0.77144 5.2318 0.0083088
-80.625 1.8155 0.0035341 18.201 18.348 0.22058 623.42 0.0016041 16.692 16.712 0.21208 1.3714 2.1041 1415.4 -0.0063516 317.99 0.15247 0.34763 2.8766 443.69 479.70 2.6169 1.0603 1.2558 205.67 0.76106 5.2587 0.0083860
-79.625 1.9402 0.0037580 20.398 20.555 0.23196 622.36 0.0016068 18.797 18.819 0.22299 1.3728 2.1070 1408.7 -0.0063270 313.52 0.15186 0.36974 2.7046 444.71 480.89 2.6106 1.0639 1.2598 206.10 0.75083 5.2857 0.0084634
-78.625 2.0718 0.0039931 22.601 22.769 0.24332 621.29 0.0016096 20.905 20.928 0.23385 1.3742 2.1099 1402.0 -0.0063021 309.15 0.15124 0.39296 2.5448 445.73 482.08 2.6045 1.0676 1.2639 206.51 0.74076 5.3126 0.0085411
-77.625 2.2107 0.0042399 24.812 24.992 0.25466 620.22 0.0016123 23.016 23.040 0.24468 1.3757 2.1129 1395.3 -0.0062768 304.88 0.15062 0.41735 2.3961 446.75 483.27 2.5985 1.0712 1.2680 206.93 0.73084 5.3395 0.0086190
-76.625 2.3571 0.0044987 27.031 27.222 0.26597 619.15 0.0016151 25.130 25.156 0.25546 1.3772 2.1159 1388.7 -0.0062512 300.69 0.15001 0.44292 2.2577 447.78 484.47 2.5926 1.0749 1.2721 207.34 0.72107 5.3664 0.0086972
-75.625 2.5113 0.0047700 29.257 29.461 0.27727 618.08 0.0016179 27.247 27.275 0.26620 1.3787 2.1190 1382.0 -0.0062253 296.59 0.14939 0.46974 2.1288 448.81 485.67 2.5869 1.0787 1.2762 207.74 0.71146 5.3933 0.0087757
-74.625 2.6736 0.0050541 31.491 31.708 0.28856 617.01 0.0016207 29.366 29.396 0.27691 1.3802 2.1221 1375.4 -0.0061990 292.58 0.14878 0.49783 2.0087 449.83 486.86 2.5812 1.0824 1.2804 208.14 0.70200 5.4201 0.0088544
-73.625 2.8444 0.0053516 33.734 33.964 0.29982 615.93 0.0016236 31.489 31.521 0.28758 1.3818 2.1252 1368.7 -0.0061724 288.65 0.14816 0.52725 1.8966 450.86 488.06 2.5757 1.0862 1.2847 208.54 0.69268 5.4469 0.0089334
-72.625 3.0240 0.0056627 35.984 36.229 0.31107 614.85 0.0016264 33.615 33.649 0.29821 1.3834 2.1284 1362.0 -0.0061454 284.81 0.14755 0.55804 1.7920 451.90 489.26 2.5703 1.0900 1.2889 208.93 0.68351 5.4737 0.0090126
-71.625 3.2127 0.0059881 38.243 38.503 0.32231 613.78 0.0016293 35.745 35.781 0.30880 1.3851 2.1316 1355.4 -0.0061181 281.03 0.14694 0.59024 1.6942 452.93 490.46 2.5650 1.0938 1.2932 209.32 0.67448 5.5005 0.0090922
-70.625 3.4108 0.0063282 40.510 40.787 0.33353 612.69 0.0016321 37.877 37.915 0.31935 1.3867 2.1349 1348.7 -0.0060904 277.34 0.14632 0.62390 1.6028 453.96 491.66 2.5598 1.0976 1.2976 209.70 0.66560 5.5273 0.0091720
-69.625 3.6187 0.0066833 42.786 43.080 0.34474 611.61 0.0016350 40.013 40.053 0.32987 1.3884 2.1382 1342.1 -0.0060624 273.72 0.14571 0.65906 1.5173 455.00 492.86 2.5547 1.1015 1.3020 210.08 0.65687 5.5540 0.0092520
-68.625 3.8367 0.0070540 45.071 45.382 0.35594 610.53 0.0016379 42.152 42.195 0.34036 1.3902 2.1415 1335.5 -0.0060339 270.17 0.14510 0.69577 1.4372 456.04 494.06 2.5497 1.1054 1.3064 210.45 0.64827 5.5807 0.0093324
-67.625 4.0652 0.0074407 47.365 47.695 0.36713 609.44 0.0016409 44.294 44.340 0.35080 1.3919 2.1449 1328.8 -0.0060051 266.69 0.14449 0.73408 1.3622 457.08 495.26 2.5448 1.1093 1.3109 210.82 0.63981 5.6074 0.0094130
-66.625 4.3046 0.0078440 49.668 50.018 0.37831 608.35 0.0016438 46.439 46.488 0.36122 1.3937 2.1483 1322.2 -0.0059760 263.28 0.14388 0.77404 1.2919 458.12 496.46 2.5400 1.1133 1.3154 211.18 0.63150 5.6341 0.0094939
-65.625 4.5551 0.0082643 51.981 52.351 0.38948 607.26 0.0016467 48.588 48.640 0.37160 1.3955 2.1518 1315.6 -0.0059464 259.93 0.14327 0.81570 1.2259 459.16 497.67 2.5353 1.1172 1.3200 211.54 0.62332 5.6608 0.0095750
-64.625 4.8173 0.0087021 54.304 54.694 0.40065 606.16 0.0016497 50.740 50.795 0.38195 1.3974 2.1553 1308.9 -0.0059164 256.65 0.14266 0.85910 1.1640 460.21 498.87 2.5307 1.1212 1.3246 211.89 0.61527 5.6874 0.0096564
-63.625 5.0915 0.0091579 56.636 57.049 0.41180 605.07 0.0016527 52.896 52.954 0.39226 1.3993 2.1588 1302.3 -0.0058861 253.42 0.14205 0.90429 1.1058 461.25 500.07 2.5262 1.1252 1.3293 212.24 0.60736 5.7140 0.0097382
-62.625 5.3781 0.0096323 58.978 59.414 0.42295 603.97 0.0016557 55.055 55.117 0.40254 1.4012 2.1624 1295.7 -0.0058553 250.26 0.14144 0.95134 1.0511 462.30 501.28 2.5218 1.1293 1.3340 212.58 0.59958 5.7406 0.0098201
-61.625 5.6774 0.010126 61.330 61.791 0.43410 602.87 0.0016587 57.218 57.283 0.41279 1.4031 2.1660 1289.1 -0.0058241 247.16 0.14084 1.0003 0.99972 463.35 502.48 2.5175 1.1333 1.3387 212.92 0.59194 5.7672 0.0099024
-60.625 5.9899 0.010639 63.693 64.179 0.44525 601.77 0.0016618 59.385 59.453 0.42301 1.4051 2.1697 1282.5 -0.0057925 244.12 0.14023 1.0512 0.95131 464.40 503.68 2.5133 1.1374 1.3435 213.26 0.58442 5.7938 0.0099850
-59.625 6.3160 0.011172 66.067 66.579 0.45639 600.66 0.0016648 61.554 61.627 0.43320 1.4071 2.1734 1275.9 -0.0057605 241.13 0.13962 1.1041 0.90573 465.45 504.89 2.5091 1.1415 1.3483 213.58 0.57704 5.8203 0.010068
-58.625 6.6561 0.011725 68.451 68.991 0.46753 599.55 0.0016679 63.728 63.805 0.44335 1.4091 2.1772 1269.3 -0.0057280 238.19 0.13902 1.1591 0.86277 466.50 506.09 2.5051 1.1457 1.3532 213.90 0.56978 5.8468 0.010151
-57.625 7.0107 0.012300 70.846 71.414 0.47867 598.44 0.0016710 65.905 65.986 0.45348 1.4111 2.1810 1262.7 -0.0056951 235.31 0.13842 1.2161 0.82228 467.55 507.30 2.5011 1.1498 1.3581 214.22 0.56265 5.8733 0.010234
-56.625 7.3801 0.012897 73.252 73.851 0.48980 597.33 0.0016741 68.086 68.172 0.46358 1.4132 2.1848 1256.1 -0.0056617 232.48 0.13781 1.2754 0.78408 468.60 508.50 2.4972 1.1540 1.3631 214.53 0.55564 5.8998 0.010318
-55.625 7.7648 0.013516 75.669 76.299 0.50094 596.22 0.0016772 70.271 70.361 0.47364 1.4153 2.1887 1249.5 -0.0056279 229.69 0.13721 1.3369 0.74802 469.66 509.71 2.4934 1.1582 1.3681 214.84 0.54875 5.9263 0.010402
-54.625 8.1652 0.014158 78.098 78.761 0.51208 595.10 0.0016804 72.460 72.554 0.48368 1.4174 2.1927 1242.9 -0.0055937 226.96 0.13661 1.4006 0.71396 470.72 510.91 2.4897 1.1624 1.3731 215.14 0.54199 5.9527 0.010486
-53.625 8.5819 0.014823 80.539 81.235 0.52323 593.98 0.0016836 74.652 74.752 0.49369 1.4196 2.1967 1236.3 -0.0055589 224.27 0.13601 1.4667 0.68178 471.77 512.11 2.4860 1.1667 1.3782 215.43 0.53535 5.9792 0.010571
-52.625 9.0151 0.015512 82.991 83.723 0.53437 592.86 0.0016867 76.849 76.954 0.50368 1.4218 2.2007 1229.8 -0.0055237 221.63 0.13541 1.5353 0.65136 472.83 513.32 2.4824 1.1710 1.3834 215.72 0.52882 6.0056 0.010656
-51.625 9.4655 0.016226 85.456 86.224 0.54552 591.73 0.0016900 79.049 79.159 0.51363 1.4240 2.2048 1223.2 -0.0054880 219.04 0.13482 1.6062 0.62258 473.89 514.52 2.4789 1.1752 1.3886 216.00 0.52241 6.0320 0.010741
-50.625 9.9335 0.016966 87.933 88.738 0.55668 590.60 0.0016932 81.253 81.369 0.52356 1.4262 2.2089 1216.6 -0.0054519 216.48 0.13422 1.6797 0.59534 474.95 515.73 2.4755 1.1796 1.3938 216.28 0.51612 6.0584 0.010827
-49.625 10.419 0.017731 90.422 91.267 0.56784 589.47 0.0016964 83.462 83.584 0.53347 1.4285 2.2131 1210.1 -0.0054152 213.98 0.13363 1.7558 0.56954 476.01 516.93 2.4722 1.1839 1.3991 216.55 0.50994 6.0848 0.010913
-48.625 10.924 0.018522 92.924 93.810 0.57901 588.34 0.0016997 85.674 85.802 0.54334 1.4308 2.2173 1203.5 -0.0053780 211.51 0.13303 1.8345 0.54510 477.07 518.13 2.4689 1.1883 1.4044 216.82 0.50387 6.1112 0.010999
-47.625 11.448 0.019341 95.438 96.367 0.59018 587.20 0.0017030 87.891 88.025 0.55319 1.4331 2.2216 1196.9 -0.0053403 209.08 0.13244 1.9159 0.52194 478.14 519.33 2.4657 1.1927 1.4098 217.08 0.49792 6.1375 0.011085
-46.625 11.991 0.020187 97.966 98.938 0.60136 586.06 0.0017063 90.111 90.252 0.56302 1.4354 2.2259 1190.4 -0.0053020 206.69 0.13185 2.0001 0.49997 479.20 520.53 2.4625 1.1971 1.4153 217.33 0.49207 6.1639 0.011172
-45.625 12.554 0.021062 100.51 101.52 0.61256 584.92 0.0017096 92.336 92.484 0.57282 1.4378 2.2303 1183.8 -0.0052633 204.34 0.13126 2.0872 0.47912 480.27 521.74 2.4594 1.2015 1.4207 217.58 0.48633 6.1902 0.011259
-44.625 13.137 0.021965 103.06 104.13 0.62376 583.77 0.0017130 94.565 94.720 0.58260 1.4402 2.2347 1177.3 -0.0052240 202.03 0.13067 2.1771 0.45933 481.33 522.94 2.4564 1.2060 1.4263 217.82 0.48069 6.2165 0.011347
-43.625 13.741 0.022899 105.63 106.74 0.63497 582.62 0.0017164 96.799 96.961 0.59235 1.4426 2.2392 1170.7 -0.0051841 199.75 0.13008 2.2700 0.44053 482.40 524.14 2.4535 1.2104 1.4319 218.05 0.47516 6.2429 0.011435
-42.625 14.367 0.023862 108.21 109.38 0.64619 581.47 0.0017198 99.036 99.207 0.60208 1.4450 2.2437 1164.2 -0.0051437 197.51 0.12949 2.3659 0.42267 483.46 525.33 2.4506 1.2149 1.4375 218.28 0.46973 6.2692 0.011523
-41.625 15.015 0.024857 110.81 112.02 0.65742 580.32 0.0017232 101.28 101.46 0.61179 1.4475 2.2483 1157.7 -0.0051027 195.30 0.12891 2.4649 0.40569 484.53 526.53 2.4478 1.2195 1.4432 218.50 0.46440 6.2955 0.011612
-40.625 15.686 0.025884 113.41 114.69 0.66867 579.16 0.0017266 103.52 103.71 0.62147 1.4500 2.2529 1151.1 -0.0050611 193.13 0.12832 2.5671 0.38954 485.60 527.73 2.4450 1.2240 1.4489 218.72 0.45917 6.3218 0.011701
-39.625 16.380 0.026942 116.04 117.37 0.67993 578.00 0.0017301 105.78 105.97 0.63113 1.4525 2.2576 1144.6 -0.0050189 190.99 0.12774 2.6725 0.37418 486.67 528.93 2.4423 1.2286 1.4547 218.93 0.45403 6.3481 0.011790
-38.625 17.097 0.028034 118.68 120.06 0.69120 576.83 0.0017336 108.03 108.24 0.64077 1.4550 2.2623 1138.0 -0.0049761 188.88 0.12716 2.7813 0.35955 487.74 530.12 2.4397 1.2332 1.4606 219.13 0.44900 6.3744 0.011880
-37.625 17.838 0.029160 121.33 122.78 0.70249 575.66 0.0017371 110.29 110.51 0.65039 1.4576 2.2671 1131.5 -0.0049327 186.81 0.12658 2.8934 0.34562 488.81 531.32 2.4371 1.2378 1.4665 219.33 0.44405 6.4007 0.011970
-36.625 18.604 0.030320 124.00 125.51 0.71379 574.49 0.0017407 112.56 112.78 0.65999 1.4602 2.2719 1125.0 -0.0048887 184.76 0.12600 3.0089 0.33235 489.88 532.51 2.4346 1.2424 1.4724 219.52 0.43920 6.4270 0.012060
-35.625 19.395 0.031516 126.68 128.25 0.72511 573.32 0.0017442 114.83 115.06 0.66956 1.4628 2.2768 1118.5 -0.0048440 182.75 0.12542 3.1280 0.31969 490.95 533.70 2.4321 1.2471 1.4784 219.70 0.43444 6.4533 0.012151
-34.625 20.212 0.032747 129.38 131.02 0.73644 572.14 0.0017478 117.10 117.34 0.67912 1.4654 2.2818 1111.9 -0.0047987 180.76 0.12485 3.2506 0.30763 492.02 534.89 2.4297 1.2517 1.4845 219.88 0.42977 6.4797 0.012243
-33.625 21.056 0.034016 132.09 133.80 0.74780 570.96 0.0017514 119.38 119.63 0.68865 1.4681 2.2868 1105.4 -0.0047527 178.80 0.12427 3.3770 0.29612 493.09 536.08 2.4273 1.2564 1.4906 220.05 0.42519 6.5060 0.012334
-32.625 21.926 0.035322 134.82 136.60 0.75916 569.77 0.0017551 121.66 121.93 0.69817 1.4708 2.2918 1098.9 -0.0047061 176.87 0.12370 3.5071 0.28514 494.17 537.27 2.4250 1.2611 1.4968 220.21 0.42070 6.5323 0.012426
-31.625 22.823 0.036666 137.56 139.41 0.77055 568.58 0.0017588 123.95 124.23 0.70767 1.4735 2.2970 1092.3 -0.0046587 174.97 0.12313 3.6410 0.27465 495.24 538.46 2.4227 1.2659 1.5031 220.36 0.41629 6.5587 0.012519
-30.625 23.749 0.038049 140.32 142.25 0.78196 567.39 0.0017625 126.24 126.53 0.71714 1.4762 2.3021 1085.8 -0.0046107 173.09 0.12256 3.7787 0.26464 496.31 539.64 2.4205 1.2706 1.5094 220.51 0.41196 6.5850 0.012612
-29.625 24.703 0.039473 143.10 145.10 0.79338 566.19 0.0017662 128.54 128.84 0.72660 1.4790 2.3074 1079.3 -0.0045619 171.24 0.12200 3.9205 0.25507 497.38 540.83 2.4184 1.2754 1.5157 220.65 0.40772 6.6114 0.012706
-28.625 25.687 0.040937 145.89 147.98 0.80482 564.99 0.0017699 130.84 131.16 0.73604 1.4818 2.3126 1072.8 -0.0045124 169.42 0.12143 4.0663 0.24592 498.46 542.01 2.4162 1.2802 1.5222 220.79 0.40356 6.6378 0.012800
-27.625 26.700 0.042442 148.70 150.87 0.81629 563.78 0.0017737 133.15 133.48 0.74547 1.4846 2.3180 1066.2 -0.0044621 167.62 0.12087 4.2163 0.23717 499.53 543.19 2.4142 1.2850 1.5286 220.91 0.39947 6.6642 0.012894
-26.625 27.743 0.043990 151.53 153.78 0.82778 562.57 0.0017775 135.47 135.81 0.75487 1.4874 2.3234 1059.7 -0.0044111 165.84 0.12031 4.3705 0.22881 500.60 544.37 2.4122 1.2899 1.5352 221.03 0.39547 6.6906 0.012989
-25.625 28.817 0.045582 154.37 156.71 0.83928 561.36 0.0017814 137.78 138.14 0.76426 1.4902 2.3289 1053.2 -0.0043593 164.09 0.11975 4.5290 0.22080 501.68 545.55 2.4102 1.2947 1.5418 221.14 0.39154 6.7171 0.013084
-24.625 29.923 0.047217 157.23 159.66 0.85081 560.14 0.0017853 140.11 140.48 0.77363 1.4931 2.3344 1046.7 -0.0043067 162.36 0.11919 4.6918 0.21314 502.75 546.72 2.4083 1.2996 1.5485 221.25 0.38768 6.7436 0.013180
-23.625 31.061 0.048898 160.11 162.63 0.86236 558.92 0.0017892 142.44 142.82 0.78298 1.4960 2.3400 1040.1 -0.0042533 160.65 0.11863 4.8592 0.20580 503.82 547.90 2.4064 1.3045 1.5552 221.35 0.38391 6.7701 0.013277
-22.625 32.232 0.050624 163.00 165.62 0.87394 557.69 0.0017931 144.77 145.17 0.79232 1.4990 2.3457 1033.6 -0.0041990 158.97 0.11807 5.0311 0.19877 504.90 549.07 2.4045 1.3095 1.5621 221.44 0.38020 6.7967 0.013374
-21.625 33.435 0.052398 165.91 168.62 0.88554 556.46 0.0017971 147.11 147.52 0.80164 1.5019 2.3514 1027.1 -0.0041439 157.30 0.11752 5.2076 0.19203 505.97 550.24 2.4027 1.3144 1.5690 221.52 0.37656 6.8232 0.013471
-20.625 34.673 0.054219 168.84 171.65 0.89716 555.23 0.0018011 149.45 149.88 0.81095 1.5049 2.3572 1020.6 -0.0040879 155.66 0.11697 5.3889 0.18557 507.04 551.40 2.4010 1.3194 1.5759 221.59 0.37300 6.8499 0.013569
-19.625 35.946 0.056089 171.79 174.70 0.90881 553.99 0.0018051 151.80 152.25 0.82024 1.5079 2.3630 1014.0 -0.0040311 154.04 0.11642 5.5750 0.17937 508.11 552.57 2.3992 1.3244 1.5829 221.66 0.36950 6.8765 0.013668
-18.625 37.253 0.058009 174.75 177.78 0.92048 552.74 0.0018092 154.16 154.62 0.82952 1.5109 2.3689 1007.5 -0.0039733 152.44 0.11587 5.7660 0.17343 509.19 553.73 2.3976 1.3294 1.5901 221.72 0.36608 6.9032 0.013767
-17.625 38.596 0.059979 177.74 180.87 0.93218 551.49 0.0018133 156.52 157.00 0.83878 1.5140 2.3749 1001.0 -0.0039145 150.86 0.11532 5.9621 0.16773 510.26 554.89 2.3959 1.3345 1.5972 221.77 0.36272 6.9300 0.013867
-16.625 39.976 0.062002 180.74 183.98 0.94390 550.24 0.0018174 158.89 159.39 0.84803 1.5171 2.3810 994.44 -0.0038549 149.29 0.11478 6.1632 0.16225 511.33 556.05 2.3943 1.3395 1.6045 221.81 0.35942 6.9568 0.013968
-15.625 41.392 0.064077 183.76 187.12 0.95565 548.98 0.0018216 161.26 161.78 0.85726 1.5202 2.3871 987.91 -0.0037942 147.75 0.11423 6.3696 0.15700 512.40 557.20 2.3927 1.3446 1.6119 221.85 0.35619 6.9836 0.014069
-14.625 42.846 0.066206 186.80 190.27 0.96743 547.71 0.0018258 163.64 164.18 0.86649 1.5233 2.3933 981.37 -0.0037325 146.22 0.11369 6.5812 0.15195 513.47 558.36 2.3912 1.3497 1.6193 221.87 0.35302 7.0105 0.014170
-13.625 44.338 0.068390 189.86 193.45 0.97924 546.44 0.0018300 166.02 166.58 0.87569 1.5264 2.3996 974.83 -0.0036698 144.72 0.11315 6.7983 0.14710 514.54 559.51 2.3897 1.3549 1.6268 221.89 0.34992 7.0375 0.014273
-12.625 45.870 0.070629 192.93 196.65 0.99107 545.17 0.0018343 168.41 168.99 0.88489 1.5296 2.4059 968.29 -0.0036061 143.23 0.11261 7.0208 0.14243 515.61 560.65 2.3883 1.3600 1.6344 221.90 0.34688 7.0646 0.014376
-11.625 47.440 0.072927 196.03 199.88 1.0029 543.89 0.0018386 170.81 171.41 0.89407 1.5328 2.4124 961.75 -0.0035413 141.76 0.11208 7.2490 0.13795 516.68 561.80 2.3868 1.3652 1.6421 221.91 0.34389 7.0917 0.014479
-10.625 49.051 0.075282 199.14 203.12 1.0148 542.60 0.0018430 173.21 173.83 0.90324 1.5360 2.4189 955.20 -0.0034753 140.30 0.11154 7.4829 0.13364 517.75 562.94 2.3854 1.3704 1.6498 221.90 0.34097 7.1188 0.014584
-9.6250 50.703 0.077697 202.28 206.39 1.0267 541.31 0.0018474 175.61 176.26 0.91240 1.5393 2.4255 948.65 -0.0034082 138.86 0.11101 7.7226 0.12949 518.81 564.08 2.3841 1.3757 1.6577 221.88 0.33810 7.1461 0.014689
-8.6250 52.396 0.080172 205.43 209.68 1.0387 540.02 0.0018518 178.03 178.70 0.92154 1.5426 2.4321 942.10 -0.0033400 137.44 0.11048 7.9683 0.12550 519.88 565.21 2.3827 1.3809 1.6657 221.86 0.33529 7.1734 0.014795
-7.6250 54.131 0.082709 208.61 213.00 1.0507 538.72 0.0018563 180.45 181.14 0.93068 1.5459 2.4389 935.55 -0.0032705 136.03 0.10995 8.2200 0.12165 520.94 566.35 2.3814 1.3862 1.6737 221.83 0.33254 7.2008 0.014902
-6.6250 55.909 0.085310 211.80 216.34 1.0627 537.41 0.0018608 182.87 183.59 0.93980 1.5492 2.4457 928.99 -0.0031998 134.64 0.10942 8.4779 0.11795 522.01 567.48 2.3801 1.3915 1.6819 221.79 0.32984 7.2284 0.015009
-5.6250 57.730 0.087975 215.02 219.70 1.0747 536.10 0.0018653 185.30 186.05 0.94892 1.5525 2.4526 922.43 -0.0031279 133.27 0.10889 8.7420 0.11439 523.07 568.60 2.3789 1.3969 1.6902 221.74 0.32720 7.2560 0.015117
-4.6250 59.595 0.090706 218.26 223.09 1.0868 534.78 0.0018699 187.74 188.51 0.95802 1.5559 2.4596 915.87 -0.0030546 131.91 0.10837 9.0126 0.11096 524.13 569.72 2.3777 1.4022 1.6985 221.68 0.32461 7.2837 0.015226
-3.6250 61.505 0.093504 221.51 226.50 1.0989 533.45 0.0018746 190.19 190.98 0.96711 1.5593 2.4667 909.30 -0.0029800 130.56 0.10785 9.2896 0.10765 525.19 570.84 2.3765 1.4076 1.7070 221.62 0.32207 7.3115 0.015336
-2.6250 63.461 0.096370 224.79 229.94 1.1110 532.12 0.0018793 192.64 193.46 0.97620 1.5627 2.4739 902.73 -0.0029041 129.23 0.10733 9.5733 0.10446 526.25 571.96 2.3753 1.4131 1.7156 221.54 0.31958 7.3394 0.015447
-1.6250 65.462 0.099306 228.09 233.40 1.1232 530.78 0.0018840 195.10 195.95 0.98527 1.5662 2.4811 896.16 -0.0028267 127.91 0.10681 9.8638 0.10138 527.31 573.07 2.3742 1.4185 1.7243 221.45 0.31715 7.3674 0.015559
-0.62500 67.510 0.10231 231.41 236.88 1.1354 529.44 0.0018888 197.56 198.44 0.99434 1.5696 2.4885 889.58 -0.0027478 126.61 0.10629 10.161 0.098414 528.37 574.18 2.3731 1.4240 1.7331 221.36 0.31476 7.3956 0.015671
0.37500 69.606 0.10539 234.75 240.39 1.1476 528.09 0.0018936 200.03 200.94 1.0034 1.5731 2.4960 883.00 -0.0026675 125.32 0.10578 10.466 0.095552 529.42 575.28 2.3720 1.4295 1.7421 221.26 0.31242 7.4239 0.015785
1.3750 71.749 0.10855 238.11 243.93 1.1599 526.73 0.0018985 202.51 203.45 1.0124 1.5767 2.5035 876.42 -0.0025856 124.04 0.10527 10.777 0.092790 530.48 576.38 2.3709 1.4350 1.7512 221.14 0.31013 7.4523 0.015899
2.3750 73.941 0.11178 241.49 247.49 1.1722 525.37 0.0019034 204.99 205.96 1.0215 1.5802 2.5112 869.83 -0.0025022 122.78 0.10476 11.096 0.090123 531.53 577.47 2.3699 1.4406 1.7604 221.02 0.30789 7.4808 0.016015
3.3750 76.183 0.11509 244.90 251.08 1.1845 523.99 0.0019084 207.48 208.48 1.0305 1.5838 2.5190 863.24 -0.0024171 121.53 0.10425 11.422 0.087549 532.58 578.56 2.3688 1.4462 1.7697 220.89 0.30569 7.5095 0.016131
4.3750 78.475 0.11848 248.32 254.69 1.1969 522.62 0.0019134 209.98 211.01 1.0395 1.5874 2.5268 856.64 -0.0023303 120.29 0.10374 11.756 0.085062 533.63 579.65 2.3678 1.4518 1.7792 220.75 0.30354 7.5384 0.016249
5.3750 80.817 0.12195 251.77 258.33 1.2093 521.23 0.0019185 212.48 213.55 1.0486 1.5910 2.5348 850.04 -0.0022417 119.06 0.10324 12.098 0.082660 534.67 580.73 2.3669 1.4575 1.7888 220.60 0.30144 7.5674 0.016368
6.3750 83.211 0.12550 255.25 261.99 1.2218 519.84 0.0019237 215.00 216.10 1.0576 1.5946 2.5429 843.43 -0.0021514 117.85 0.10273 12.447 0.080340 535.72 581.81 2.3659 1.4632 1.7986 220.44 0.29938 7.5966 0.016487
7.3750 85.657 0.12913 258.74 265.69 1.2342 518.44 0.0019289 217.51 218.65 1.0666 1.5983 2.5511 836.82 -0.0020593 116.65 0.10223 12.805 0.078096 536.76 582.88 2.3650 1.4689 1.8085 220.27 0.29736 7.6259 0.016608
8.3750 88.156 0.13286 262.26 269.41 1.2468 517.03 0.0019341 220.04 221.22 1.0756 1.6020 2.5595 830.20 -0.0019652 115.46 0.10173 13.170 0.075928 537.80 583.95 2.3640 1.4746 1.8186 220.08 0.29538 7.6555 0.016730
9.3750 90.708 0.13667 265.80 273.15 1.2593 515.62 0.0019394 222.57 223.79 1.0846 1.6057 2.5679 823.58 -0.0018691 114.28 0.10124 13.545 0.073830 538.84 585.01 2.3631 1.4804 1.8288 219.89 0.29345 7.6852 0.016853
10.375 93.315 0.14057 269.36 276.93 1.2719 514.19 0.0019448 225.11 226.37 1.0936 1.6095 2.5765 816.96 -0.0017710 113.11 0.10074 13.927 0.071802 539.87 586.07 2.3622 1.4863 1.8392 219.69 0.29156 7.7151 0.016978
11.375 95.977 0.14457 272.95 280.73 1.2845 512.76 0.0019502 227.66 228.95 1.1025 1.6132 2.5852 810.32 -0.0016708 111.95 0.10025 14.319 0.069840 540.90 587.12 2.3614 1.4921 1.8498 219.48 0.28971 7.7452 0.017103
12.375 98.694 0.14865 276.56 284.56 1.2972 511.32 0.0019557 230.22 231.55 1.1115 1.6170 2.5940 803.68 -0.0015685 110.80 0.099756 14.719 0.067941 541.93 588.17 2.3605 1.4980 1.8605 219.26 0.28790 7.7756 0.017230
13.375 101.47 0.15284 280.19 288.42 1.3099 509.87 0.0019613 232.78 234.15 1.1205 1.6208 2.6030 797.04 -0.0014639 109.67 0.099267 15.128 0.066103 542.96 589.21 2.3597 1.5040 1.8715 219.03 0.28612 7.8061 0.017359
14.375 104.30 0.15713 283.85 292.31 1.3226 508.42 0.0019669 235.35 236.77 1.1295 1.6247 2.6121 790.39 -0.0013569 108.54 0.098779 15.547 0.064323 543.99 590.24 2.3588 1.5099 1.8826 218.79 0.28439 7.8369 0.017488
15.375 107.19 0.16151 287.53 296.22 1.3354 506.95 0.0019726 237.93 239.39 1.1384 1.6286 2.6214 783.73 -0.0012476 107.43 0.098294 15.974 0.062600 545.01 591.27 2.3580 1.5159 1.8940 218.53 0.28270 7.8680 0.017619
16.375 110.13 0.16600 291.23 300.17 1.3482 505.48 0.0019783 240.52 242.02 1.1474 1.6324 2.6308 777.07 -0.0011357 106.32 0.097810 16.412 0.060931 546.03 592.29 2.3572 1.5220 1.9055 218.27 0.28104 7.8993 0.017752
17.375 113.14 0.17060 294.96 304.14 1.3611 504.00 0.0019841 243.11 244.66 1.1564 1.6364 2.6403 770.40 -0.0010213 105.22 0.097328 16.859 0.059314 547.04 593.31 2.3564 1.5281 1.9172 217.99 0.27942 7.9308 0.017886
18.375 116.21 0.17531 298.72 308.14 1.3740 502.50 0.0019900 245.72 247.31 1.1653 1.6403 2.6501 763.72 -0.00090422 104.14 0.096848 17.317 0.057747 548.05 594.32 2.3557 1.5342 1.9292 217.71 0.27783 7.9626 0.018021
19.375 119.33 0.18013 302.50 312.18 1.3869 501.00 0.0019960 248.33 249.97 1.1743 1.6443 2.6599 757.04 -0.00078435 103.06 0.096371 17.785 0.056228 549.06 595.33 2.3549 1.5404 1.9414 217.41 0.27628 7.9947 0.018159
20.375 122.52 0.18506 306.30 316.24 1.3999 499.49 0.0020020 250.95 252.64 1.1832 1.6483 2.6700 750.35 -0.00066161 101.99 0.095895 18.263 0.054756 550.07 596.32 2.3541 1.5466 1.9538 217.10 0.27477 8.0272 0.018297
21.375 125.77 0.19011 310.13 320.33 1.4130 497.97 0.0020082 253.57 255.32 1.1922 1.6523 2.6802 743.64 -0.00053589 100.93 0.095420 18.752 0.053328 551.07 597.31 2.3534 1.5528 1.9665 216.78 0.27329 8.0599 0.018438
22.375 129.08 0.19528 313.99 324.46 1.4260 496.43 0.0020144 256.21 258.00 1.2012 1.6563 2.6906 736.94 -0.00040708 99.877 0.094948 19.252 0.051943 552.07 598.30 2.3526 1.5591 1.9795 216.45 0.27184 8.0929 0.018580
23.375 132.46 0.20058 317.87 328.61 1.4391 494.89 0.0020206 258.86 260.70 1.2101 1.6604 2.7012 730.22 -0.00027505 98.834 0.094478 19.763 0.050600 553.06 599.27 2.3519 1.5655 1.9927 216.11 0.27043 8.1263 0.018724
24.375 135.90 0.20600 321.77 332.80 1.4523 493.34 0.0020270 261.51 263.41 1.2191 1.6645 2.7120 723.49 -0.00013968 97.800 0.094009 20.285 0.049297 554.05 600.24 2.3512 1.5718 2.0061 215.75 0.26906 8.1600 0.018870
25.375 139.41 0.21156 325.71 337.01 1.4655 491.77 0.0020335 264.17 266.13 1.2280 1.6686 2.7230 716.76 -8.3775e-07 96.773 0.093543 20.820 0.048032 555.03 601.20 2.3504 1.5783 2.0199 215.39 0.26771 8.1941 0.019017
26.375 142.98 0.21725 329.66 341.26 1.4787 490.20 0.0020400 266.84 268.85 1.2370 1.6728 2.7342 710.01 0.00014161 95.755 0.093078 21.366 0.046804 556.01 602.15 2.3497 1.5847 2.0340 215.01 0.26640 8.2286 0.019167
27.375 146.62 0.22307 333.65 345.54 1.4920 488.61 0.0020466 269.52 271.59 1.2459 1.6770 2.7456 703.26 0.00028782 94.745 0.092615 21.924 0.045612 556.99 603.10 2.3490 1.5913 2.0484 214.62 0.26512 8.2634 0.019319
28.375 150.33 0.22904 337.66 349.85 1.5053 487.01 0.0020533 272.21 274.34 1.2549 1.6812 2.7573 696.49 0.00043793 93.742 0.092154 22.495 0.044454 557.96 604.03 2.3483 1.5978 2.0631 214.21 0.26387 8.2987 0.019472
29.375 154.10 0.23515 341.70 354.20 1.5187 485.40 0.0020601 274.91 277.10 1.2638 1.6854 2.7691 689.72 0.00059212 92.747 0.091695 23.079 0.043329 558.92 604.96 2.3476 1.6044 2.0781 213.80 0.26265 8.3344 0.019628
30.375 157.94 0.24142 345.77 358.58 1.5321 483.78 0.0020671 277.62 279.87 1.2728 1.6897 2.7813 682.93 0.00075055 91.760 0.091238 23.676 0.042237 559.88 605.88 2.3469 1.6111 2.0935 213.37 0.26147 8.3705 0.019786
31.375 161.86 0.24784 349.86 362.99 1.5456 482.15 0.0020741 280.34 282.66 1.2818 1.6939 2.7936 676.13 0.00091340 90.779 0.090782 24.287 0.041175 560.84 606.79 2.3462 1.6178 2.1092 212.93 0.26031 8.4071 0.019947
32.375 165.84 0.25442 353.98 367.43 1.5591 480.50 0.0020812 283.07 285.45 1.2908 1.6983 2.8063 669.32 0.0010809 89.806 0.090328 24.911 0.040143 561.79 607.69 2.3455 1.6246 2.1254 212.48 0.25919 8.4442 0.020110
33.375 169.90 0.26116 358.13 371.91 1.5726 478.83 0.0020884 285.81 288.26 1.2997 1.7026 2.8192 662.50 0.0012532 88.840 0.089876 25.549 0.039140 562.73 608.58 2.3448 1.6314 2.1419 212.01 0.25809 8.4818 0.020275
34.375 174.02 0.26807 362.31 376.42 1.5863 477.16 0.0020957 288.56 291.07 1.3087 1.7070 2.8324 655.67 0.0014305 87.880 0.089426 26.202 0.038164 563.67 609.46 2.3440 1.6383 2.1589 211.53 0.25702 8.5199 0.020443
35.375 178.22 0.27516 366.51 380.97 1.5999 475.47 0.0021032 291.32 293.90 1.3177 1.7114 2.8459 648.82 0.0016131 86.927 0.088977 26.870 0.037216 564.60 610.33 2.3433 1.6452 2.1763 211.04 0.25599 8.5586 0.020613
36.375 182.50 0.28243 370.75 385.55 1.6136 473.77 0.0021107 294.09 296.74 1.3267 1.7158 2.8597 641.96 0.0018012 85.980 0.088531 27.553 0.036293 565.52 611.19 2.3426 1.6522 2.1942 210.53 0.25498 8.5978 0.020786
37.375 186.84 0.28988 375.01 390.17 1.6274 472.05 0.0021184 296.87 299.60 1.3357 1.7203 2.8739 635.08 0.0019950 85.040 0.088085 28.252 0.035395 566.44 612.04 2.3419 1.6592 2.2125 210.01 0.25400 8.6376 0.020962
38.375 191.27 0.29753 379.30 394.82 1.6412 470.31 0.0021262 299.66 302.46 1.3447 1.7248 2.8884 628.19 0.0021949 84.105 0.087642 28.967 0.034522 567.35 612.88 2.3411 1.6663 2.2314 209.47 0.25305 8.6780 0.021141
39.375 195.77 0.30537 383.63 399.51 1.6550 468.56 0.0021342 302.46 305.34 1.3537 1.7293 2.9033 621.29 0.0024011 83.177 0.087200 29.699 0.033671 568.26 613.70 2.3404 1.6734 2.2508 208.92 0.25213 8.7190 0.021323
40.375 200.34 0.31342 387.98 404.23 1.6689 466.80 0.0021423 305.27 308.23 1.3627 1.7339 2.9185 614.37 0.0026140 82.254 0.086760 30.447 0.032844 569.15 614.52 2.3396 1.6806 2.2708 208.36 0.25123 8.7608 0.021508
41.375 205.00 0.32169 392.36 408.99 1.6829 465.01 0.0021505 308.10 311.14 1.3718 1.7385 2.9342 607.43 0.0028338 81.338 0.086322 31.214 0.032037 570.04 615.32 2.3389 1.6879 2.2913 207.78 0.25037 8.8032 0.021696
42.375 209.73 0.33017 396.78 413.79 1.6969 463.21 0.0021588 310.94 314.06 1.3808 1.7432 2.9502 600.47 0.0030609 80.426 0.085885 31.998 0.031252 570.92 616.11 2.3381 1.6952 2.3125 207.19 0.24953 8.8463 0.021888
43.375 214.54 0.33889 401.22 418.62 1.7110 461.40 0.0021673 313.79 316.99 1.3899 1.7478 2.9667 593.50 0.0032957 79.520 0.085449 32.800 0.030488 571.79 616.88 2.3373 1.7027 2.3344 206.58 0.24871 8.8902 0.022084
44.375 219.43 0.34784 405.70 423.49 1.7251 459.56 0.0021760 316.65 319.94 1.3989 1.7525 2.9837 586.51 0.0035386 78.619 0.085015 33.622 0.029742 572.65 617.65 2.3365 1.7101 2.3569 205.96 0.24793 8.9349 0.022283
45.375 224.41 0.35704 410.20 428.41 1.7392 457.71 0.0021848 319.52 322.90 1.4080 1.7573 3.0012 579.50 0.0037900 77.723 0.084583 34.463 0.029016 573.50 618.40 2.3357 1.7177 2.3802 205.32 0.24717 8.9805 0.022485
46.375 229.46 0.36650 414.74 433.35 1.7535 455.83 0.0021938 322.41 325.88 1.4171 1.7621 3.0192 572.46 0.0040504 76.832 0.084152 35.325 0.028308 574.34 619.13 2.3349 1.7253 2.4042 204.67 0.24644 9.0269 0.022692
47.375 234.60 0.37622 419.31 438.34 1.7678 453.94 0.0022029 325.31 328.87 1.4262 1.7669 3.0377 565.41 0.0043202 75.946 0.083723 36.208 0.027618 575.17 619.85 2.3340 1.7329 2.4291 204.00 0.24573 9.0742 0.022903
48.375 239.83 0.38622 423.92 443.37 1.7821 452.03 0.0022123 328.22 331.88 1.4353 1.7718 3.0569 558.34 0.0046000 75.064 0.083295 37.112 0.026945 576.00 620.55 2.3332 1.7407 2.4548 203.31 0.24505 9.1224 0.023119
49.375 245.13 0.39651 428.56 448.44 1.7965 450.09 0.0022218 331.15 334.90 1.4445 1.7767 3.0766 551.24 0.0048904 74.186 0.082868 38.039 0.026289 576.81 621.24 2.3323 1.7485 2.4815 202.61 0.24440 9.1716 0.023339
50.375 250.53 0.40711 433.23 453.55 1.8110 448.13 0.0022315 334.09 337.94 1.4536 1.7817 3.0970 544.13 0.0051920 73.313 0.082442 38.989 0.025648 577.61 621.91 2.3314 1.7564 2.5092 201.89 0.24377 9.2219 0.023564
51.375 256.01 0.41802 437.93 458.70 1.8255 446.15 0.0022414 337.04 341.00 1.4628 1.7867 3.1181 536.98 0.0055054 72.443 0.082018 39.962 0.025024 578.39 622.56 2.3304 1.7644 2.5379 201.16 0.24317 9.2733 0.023794
52.375 261.57 0.42926 442.67 463.89 1.8401 444.15 0.0022515 340.01 344.07 1.4720 1.7918 3.1400 529.82 0.0058313 71.577 0.081595 40.961 0.024414 579.17 623.20 2.3295 1.7724 2.5677 200.41 0.24260 9.3258 0.024029
53.375 267.23 0.44084 447.45 469.12 1.8547 442.12 0.0022618 343.00 347.17 1.4812 1.7969 3.1627 522.62 0.0061705 70.715 0.081174 41.985 0.023818 579.93 623.81 2.3285 1.7805 2.5987 199.63 0.24205 9.3795 0.024270
54.375 272.97 0.45279 452.26 474.40 1.8694 440.06 0.0022724 346.00 350.28 1.4904 1.8021 3.1862 515.40 0.0065239 69.856 0.080753 43.036 0.023237 580.68 624.41 2.3274 1.7887 2.6310 198.85 0.24154 9.4344 0.024516
55.375 278.81 0.46511 457.10 479.72 1.8842 437.98 0.0022832 349.02 353.40 1.4997 1.8073 3.2106 508.15 0.0068923 69.001 0.080334 44.114 0.022669 581.41 624.99 2.3264 1.7969 2.6646 198.04 0.24105 9.4907 0.024769
56.375 284.74 0.47784 461.99 485.09 1.8990 435.87 0.0022943 352.05 356.55 1.5090 1.8126 3.2360 500.87 0.0072767 68.148 0.079915 45.221 0.022114 582.13 625.54 2.3253 1.8052 2.6998 197.22 0.24059 9.5484 0.025028
57.375 290.76 0.49098 466.91 490.49 1.9140 433.73 0.0023056 355.10 359.72 1.5183 1.8179 3.2624 493.56 0.0076782 67.299 0.079498 46.358 0.021571 582.83 626.07 2.3241 1.8136 2.7365 196.37 0.24016 9.6075 0.025294
58.375 296.87 0.50456 471.87 495.95 1.9289 431.56 0.0023172 358.17 362.91 1.5276 1.8233 3.2900 486.22 0.0080980 66.451 0.079082 47.525 0.021041 583.52 626.58 2.3230 1.8220 2.7749 195.51 0.23976 9.6682 0.025568
59.375 303.08 0.51861 476.87 501.45 1.9440 429.36 0.0023290 361.25 366.12 1.5370 1.8288 3.3188 478.84 0.0085373 65.606 0.078666 48.726 0.020523 584.18 627.07 2.3218 1.8305 2.8152 194.63 0.23939 9.7305 0.025849
60.375 309.38 0.53315 481.90 507.00 1.9591 427.13 0.0023412 364.36 369.35 1.5464 1.8343 3.3489 471.43 0.0089976 64.763 0.078251 49.960 0.020016 584.83 627.53 2.3205 1.8391 2.8576 193.73 0.23905 9.7945 0.026138
61.375 315.78 0.54822 486.98 512.60 1.9743 424.87 0.0023537 367.48 372.60 1.5558 1.8400 3.3805 463.99 0.0094803 63.922 0.077838 51.229 0.019520 585.46 627.96 2.3192 1.8479 2.9022 192.82 0.23873 9.8603 0.026436
62.375 322.28 0.56383 492.10 518.24 1.9896 422.56 0.0023665 370.62 375.88 1.5653 1.8457 3.4136 456.50 0.0099871 63.083 0.077425 52.535 0.019035 586.07 628.37 2.3178 1.8567 2.9492 191.88 0.23845 9.9281 0.026744
63.375 328.88 0.58003 497.26 523.94 2.0049 420.22 0.0023797 373.79 379.18 1.5748 1.8514 3.4483 448.97 0.010520 62.244 0.077012 53.879 0.018560 586.66 628.74 2.3164 1.8656 2.9989 190.92 0.23819 9.9979 0.027061
64.375 335.58 0.59685 502.46 529.68 2.0204 417.85 0.0023932 376.97 382.51 1.5844 1.8573 3.4850 441.40 0.011081 61.407 0.076600 55.265 0.018095 587.22 629.09 2.3149 1.8747 3.0517 189.95 0.23796 10.070 0.027389
65.375 342.38 0.61434 507.71 535.48 2.0359 415.42 0.0024072 380.18 385.86 1.5939 1.8633 3.5236 433.79 0.011672 60.570 0.076189 56.692 0.017639 587.76 629.40 2.3133 1.8839 3.1077 188.95 0.23775 10.144 0.027729
66.375 349.28 0.63253 513.00 541.33 2.0515 412.96 0.0024215 383.41 389.25 1.6036 1.8693 3.5645 426.12 0.012296 59.733 0.075779 58.165 0.017193 588.28 629.68 2.3117 1.8933 3.1674 187.93 0.23757 10.221 0.028080
67.375 356.28 0.65149 518.33 547.23 2.0672 410.45 0.0024363 386.67 392.65 1.6133 1.8755 3.6078 418.41 0.012956 58.897 0.075368 59.684 0.016755 588.76 629.92 2.3100 1.9030 3.2311 186.89 0.23740 10.300 0.028446
68.375 363.40 0.67126 523.71 553.19 2.0830 407.89 0.0024516 389.95 396.09 1.6230 1.8818 3.6537 410.64 0.013655 58.059 0.074959 61.253 0.016326 589.22 630.13 2.3082 1.9129 3.2994 185.83 0.23724 10.382 0.028825
69.375 370.61 0.69190 529.14 559.21 2.0988 405.28 0.0024674 393.26 399.57 1.6328 1.8882 3.7027 402.81 0.014396 57.221 0.074549 62.875 0.015905 589.65 630.29 2.3064 1.9231 3.3727 184.74 0.23710 10.467 0.029221
70.375 377.94 0.71350 534.62 565.28 2.1148 402.62 0.0024838 396.60 403.07 1.6426 1.8947 3.7550 394.92 0.015183 56.381 0.074141 64.552 0.015491 590.04 630.41 2.3044 1.9336 3.4518 183.63 0.23697 10.555 0.029633
71.375 385.37 0.73612 540.15 571.41 2.1309 399.89 0.0025007 399.96 406.61 1.6525 1.9014 3.8109 386.97 0.016021 55.540 0.073732 66.288 0.015086 590.40 630.49 2.3024 1.9444 3.5371 182.50 0.23684 10.647 0.030064
72.375 392.92 0.75985 545.73 577.60 2.1471 397.11 0.0025182 403.36 410.18 1.6625 1.9083 3.8711 378.95 0.016915 54.696 0.073324 68.087 0.014687 590.73 630.51 2.3002 1.9556 3.6297 181.34 0.23671 10.743 0.030515
73.375 400.57 0.78479 551.36 583.86 2.1633 394.26 0.0025364 406.79 413.80 1.6726 1.9153 3.9359 370.85 0.017871 53.848 0.072917 69.953 0.014295 591.01 630.49 2.2979 1.9673 3.7303 180.16 0.23658 10.842 0.030989
74.375 408.34 0.81106 557.05 590.17 2.1797 391.34 0.0025553 410.26 417.45 1.6827 1.9226 4.0060 362.67 0.018894 52.997 0.072510 71.890 0.013910 591.25 630.41 2.2955 1.9793 3.8401 178.95 0.23643 10.946 0.031488
75.375 416.23 0.83878 562.80 596.56 2.1962 388.34 0.0025751 413.76 421.15 1.6930 1.9301 4.0822 354.41 0.019993 52.142 0.072104 73.904 0.013531 591.44 630.27 2.2930 1.9919 3.9604 177.71 0.23627 11.054 0.032014
76.375 424.23 0.86811 568.60 603.01 2.2129 385.26 0.0025957 417.31 424.90 1.7033 1.9378 4.1654 346.06 0.021177 51.281 0.071699 76.001 0.013158 591.59 630.07 2.2903 2.0050 4.0927 176.44 0.23609 11.168 0.032570
77.375 432.35 0.89922 574.46 609.53 2.2296 382.09 0.0026172 420.89 428.70 1.7137 1.9459 4.2565 337.60 0.022455 50.414 0.071295 78.187 0.012790 591.68 629.80 2.2874 2.0186 4.2389 175.15 0.23588 11.287 0.033161
78.375 440.59 0.93232 580.39 616.13 2.2465 378.83 0.0026397 424.53 432.54 1.7243 1.9543 4.3570 329.05 0.023838 49.539 0.070893 80.469 0.012427 591.71 629.46 2.2844 2.0328 4.4012 173.82 0.23563 11.412 0.033789
79.375 448.95 0.96764 586.39 622.80 2.2635 375.46 0.0026634 428.21 436.45 1.7349 1.9631 4.4684 320.38 0.025341 48.657 0.070494 82.856 0.012069 591.68 629.04 2.2812 2.0475 4.5824 172.46 0.23535 11.544 0.034461
80.375 456.78 undefined 591.89 628.94 2.2791 85.000 0.011765 591.89 628.94 2.2791 2.0603 4.7385 171.40 0.23447 11.668 0.035070 85.000 0.011765 591.89 628.94 2.2791 2.0603 4.7385 171.40 0.23447 11.668 0.035070
81.375 460.60 undefined 593.94 631.31 2.2849 85.000 0.011765 593.94 631.31 2.2849 2.0570 4.6216 172.39 0.23034 11.701 0.035029 85.000 0.011765 593.94 631.31 2.2849 2.0570 4.6216 172.39 0.23034 11.701 0.035029
82.375 464.40 undefined 596.00 633.67 2.2907 85.000 0.011765 596.00 633.67 2.2907 2.0537 4.5147 173.38 0.22636 11.734 0.035002 85.000 0.011765 596.00 633.67 2.2907 2.0537 4.5147 173.38 0.22636 11.734 0.035002
83.375 468.19 undefined 598.05 636.03 2.2965 85.000 0.011765 598.05 636.03 2.2965 2.0505 4.4166 174.36 0.22252 11.767 0.034987 85.000 0.011765 598.05 636.03 2.2965 2.0505 4.4166 174.36 0.22252 11.767 0.034987
84.375 471.95 undefined 600.10 638.38 2.3022 85.000 0.011765 600.10 638.38 2.3022 2.0474 4.3264 175.33 0.21882 11.800 0.034983 85.000 0.011765 600.10 638.38 2.3022 2.0474 4.3264 175.33 0.21882 11.800 0.034983
85.375 475.70 undefined 602.15 640.73 2.3079 85.000 0.011765 602.15 640.73 2.3079 2.0445 4.2434 176.31 0.21523 11.833 0.034988 85.000 0.011765 602.15 640.73 2.3079 2.0445 4.2434 176.31 0.21523 11.833 0.034988
86.375 479.42 undefined 604.19 643.08 2.3136 85.000 0.011765 604.19 643.08 2.3136 2.0418 4.1668 177.27 0.21177 11.865 0.035003 85.000 0.011765 604.19 643.08 2.3136 2.0418 4.1668 177.27 0.21177 11.865 0.035003
87.375 483.13 undefined 606.23 645.42 2.3193 85.000 0.011765 606.23 645.42 2.3193 2.0394 4.0959 178.23 0.20841 11.898 0.035027 85.000 0.011765 606.23 645.42 2.3193 2.0394 4.0959 178.23 0.20841 11.898 0.035027
88.375 486.83 undefined 608.27 647.76 2.3249 85.000 0.011765 608.27 647.76 2.3249 2.0373 4.0303 179.19 0.20515 11.931 0.035057 85.000 0.011765 608.27 647.76 2.3249 2.0373 4.0303 179.19 0.20515 11.931 0.035057
89.375 490.51 undefined 610.31 650.09 2.3306 85.000 0.011765 610.31 650.09 2.3306 2.0354 3.9694 180.14 0.20198 11.963 0.035095 85.000 0.011765 610.31 650.09 2.3306 2.0354 3.9694 180.14 0.20198 11.963 0.035095
90.375 494.18 undefined 612.34 652.42 2.3362 85.000 0.011765 612.34 652.42 2.3362 2.0339 3.9128 181.09 0.19890 11.996 0.035139 85.000 0.011765 612.34 652.42 2.3362 2.0339 3.9128 181.09 0.19890 11.996 0.035139
91.375 497.83 undefined 614.37 654.75 2.3418 85.000 0.011765 614.37 654.75 2.3418 2.0326 3.8600 182.02 0.19590 12.029 0.035189 85.000 0.011765 614.37 654.75 2.3418 2.0326 3.8600 182.02 0.19590 12.029 0.035189
92.375 501.47 undefined 616.41 657.08 2.3473 85.000 0.011765 616.41 657.08 2.3473 2.0316 3.8108 182.96 0.19298 12.061 0.035244 85.000 0.011765 616.41 657.08 2.3473 2.0316 3.8108 182.96 0.19298 12.061 0.035244
93.375 505.10 undefined 618.44 659.41 2.3529 85.000 0.011765 618.44 659.41 2.3529 2.0308 3.7648 183.88 0.19014 12.094 0.035303 85.000 0.011765 618.44 659.41 2.3529 2.0308 3.7648 183.88 0.19014 12.094 0.035303
94.375 508.71 undefined 620.47 661.73 2.3584 85.000 0.011765 620.47 661.73 2.3584 2.0304 3.7217 184.81 0.18737 12.126 0.035368 85.000 0.011765 620.47 661.73 2.3584 2.0304 3.7217 184.81 0.18737 12.126 0.035368
95.375 512.32 undefined 622.50 664.05 2.3639 85.000 0.011765 622.50 664.05 2.3639 2.0301 3.6812 185.72 0.18466 12.159 0.035436 85.000 0.011765 622.50 664.05 2.3639 2.0301 3.6812 185.72 0.18466 12.159 0.035436
96.375 515.91 undefined 624.53 666.38 2.3694 85.000 0.011765 624.53 666.38 2.3694 2.0301 3.6432 186.63 0.18202 12.191 0.035508 85.000 0.011765 624.53 666.38 2.3694 2.0301 3.6432 186.63 0.18202 12.191 0.035508
97.375 519.49 undefined 626.56 668.70 2.3749 85.000 0.011765 626.56 668.70 2.3749 2.0303 3.6074 187.53 0.17944 12.223 0.035584 85.000 0.011765 626.56 668.70 2.3749 2.0303 3.6074 187.53 0.17944 12.223 0.035584
98.375 523.07 undefined 628.59 671.02 2.3804 85.000 0.011765 628.59 671.02 2.3804 2.0306 3.5737 188.43 0.17693 12.255 0.035664 85.000 0.011765 628.59 671.02 2.3804 2.0306 3.5737 188.43 0.17693 12.255 0.035664
99.375 526.63 undefined 630.62 673.34 2.3858 85.000 0.011765 630.62 673.34 2.3858 2.0312 3.5418 189.33 0.17447 12.288 0.035746 85.000 0.011765 630.62 673.34 2.3858 2.0312 3.5418 189.33 0.17447 12.288 0.035746
100.38 530.19 undefined 632.65 675.66 2.3913 85.000 0.011765 632.65 675.66 2.3913 2.0319 3.5117 190.21 0.17206 12.320 0.035831 85.000 0.011765 632.65 675.66 2.3913 2.0319 3.5117 190.21 0.17206 12.320 0.035831
101.38 533.73 undefined 634.68 677.98 2.3967 85.000 0.011765 634.68 677.98 2.3967 2.0328 3.4831 191.09 0.16971 12.352 0.035919 85.000 0.011765 634.68 677.98 2.3967 2.0328 3.4831 191.09 0.16971 12.352 0.035919
102.38 537.27 undefined 636.72 680.30 2.4021 85.000 0.011765 636.72 680.30 2.4021 2.0338 3.4561 191.97 0.16741 12.384 0.036010 85.000 0.011765 636.72 680.30 2.4021 2.0338 3.4561 191.97 0.16741 12.384 0.036010
103.38 540.80 undefined 638.75 682.62 2.4076 85.000 0.011765 638.75 682.62 2.4076 2.0349 3.4305 192.84 0.16516 12.416 0.036103 85.000 0.011765 638.75 682.62 2.4076 2.0349 3.4305 192.84 0.16516 12.416 0.036103
104.38 544.32 undefined 640.79 684.94 2.4130 85.000 0.011765 640.79 684.94 2.4130 2.0361 3.4061 193.71 0.16297 12.448 0.036198 85.000 0.011765 640.79 684.94 2.4130 2.0361 3.4061 193.71 0.16297 12.448 0.036198
105.38 547.83 undefined 642.82 687.26 2.4183 85.000 0.011765 642.82 687.26 2.4183 2.0375 3.3829 194.57 0.16081 12.480 0.036295 85.000 0.011765 642.82 687.26 2.4183 2.0375 3.3829 194.57 0.16081 12.480 0.036295
106.38 551.34 undefined 644.86 689.58 2.4237 85.000 0.011765 644.86 689.58 2.4237 2.0389 3.3609 195.43 0.15871 12.512 0.036395 85.000 0.011765 644.86 689.58 2.4237 2.0389 3.3609 195.43 0.15871 12.512 0.036395
107.38 554.84 undefined 646.90 691.91 2.4291 85.000 0.011765 646.90 691.91 2.4291 2.0405 3.3399 196.28 0.15665 12.544 0.036496 85.000 0.011765 646.90 691.91 2.4291 2.0405 3.3399 196.28 0.15665 12.544 0.036496
108.38 558.33 undefined 648.94 694.23 2.4344 85.000 0.011765 648.94 694.23 2.4344 2.0421 3.3199 197.13 0.15463 12.576 0.036599 85.000 0.011765 648.94 694.23 2.4344 2.0421 3.3199 197.13 0.15463 12.576 0.036599
109.38 561.81 undefined 650.98 696.56 2.4398 85.000 0.011765 650.98 696.56 2.4398 2.0439 3.3008 197.97 0.15265 12.607 0.036705 85.000 0.011765 650.98 696.56 2.4398 2.0439 3.3008 197.97 0.15265 12.607 0.036705
110.38 565.29 undefined 653.03 698.88 2.4451 85.000 0.011765 653.03 698.88 2.4451 2.0457 3.2825 198.81 0.15071 12.639 0.036811 85.000 0.011765 653.03 698.88 2.4451 2.0457 3.2825 198.81 0.15071 12.639 0.036811
111.38 568.76 undefined 655.08 701.21 2.4505 85.000 0.011765 655.08 701.21 2.4505 2.0475 3.2651 199.65 0.14882 12.671 0.036920 85.000 0.011765 655.08 701.21 2.4505 2.0475 3.2651 199.65 0.14882 12.671 0.036920
112.38 572.23 undefined 657.12 703.54 2.4558 85.000 0.011765 657.12 703.54 2.4558 2.0495 3.2485 200.48 0.14696 12.703 0.037030 85.000 0.011765 657.12 703.54 2.4558 2.0495 3.2485 200.48 0.14696 12.703 0.037030
113.38 575.69 undefined 659.17 705.87 2.4611 85.000 0.011765 659.17 705.87 2.4611 2.0515 3.2326 201.31 0.14513 12.734 0.037141 85.000 0.011765 659.17 705.87 2.4611 2.0515 3.2326 201.31 0.14513 12.734 0.037141
114.38 579.14 undefined 661.23 708.20 2.4664 85.000 0.011765 661.23 708.20 2.4664 2.0536 3.2174 202.13 0.14335 12.766 0.037254 85.000 0.011765 661.23 708.20 2.4664 2.0536 3.2174 202.13 0.14335 12.766 0.037254
115.38 582.59 undefined 663.28 710.54 2.4717 85.000 0.011765 663.28 710.54 2.4717 2.0557 3.2029 202.95 0.14159 12.797 0.037368 85.000 0.011765 663.28 710.54 2.4717 2.0557 3.2029 202.95 0.14159 12.797 0.037368
116.38 586.03 undefined 665.34 712.87 2.4770 85.000 0.011765 665.34 712.87 2.4770 2.0579 3.1889 203.76 0.13988 12.829 0.037484 85.000 0.011765 665.34 712.87 2.4770 2.0579 3.1889 203.76 0.13988 12.829 0.037484
117.38 589.47 undefined 667.40 715.21 2.4823 85.000 0.011765 667.40 715.21 2.4823 2.0601 3.1756 204.58 0.13819 12.860 0.037601 85.000 0.011765 667.40 715.21 2.4823 2.0601 3.1756 204.58 0.13819 12.860 0.037601
118.38 592.90 undefined 669.46 717.55 2.4875 85.000 0.011765 669.46 717.55 2.4875 2.0624 3.1628 205.38 0.13654 12.892 0.037719 85.000 0.011765 669.46 717.55 2.4875 2.0624 3.1628 205.38 0.13654 12.892 0.037719
119.38 596.32 undefined 671.52 719.89 2.4928 85.000 0.011765 671.52 719.89 2.4928 2.0648 3.1506 206.19 0.13491 12.923 0.037838 85.000 0.011765 671.52 719.89 2.4928 2.0648 3.1506 206.19 0.13491 12.923 0.037838
120.38 599.74 undefined 673.59 722.24 2.4980 85.000 0.011765 673.59 722.24 2.4980 2.0671 3.1388 206.99 0.13332 12.955 0.037958 85.000 0.011765 673.59 722.24 2.4980 2.0671 3.1388 206.99 0.13332 12.955 0.037958
121.38 603.16 undefined 675.66 724.58 2.5033 85.000 0.011765 675.66 724.58 2.5033 2.0696 3.1275 207.78 0.13176 12.986 0.038080 85.000 0.011765 675.66 724.58 2.5033 2.0696 3.1275 207.78 0.13176 12.986 0.038080
122.38 606.57 undefined 677.73 726.93 2.5085 85.000 0.011765 677.73 726.93 2.5085 2.0721 3.1167 208.58 0.13022 13.017 0.038202 85.000 0.011765 677.73 726.93 2.5085 2.0721 3.1167 208.58 0.13022 13.017 0.038202
123.38 609.97 undefined 679.80 729.28 2.5138 85.000 0.011765 679.80 729.28 2.5138 2.0746 3.1064 209.36 0.12871 13.049 0.038326 85.000 0.011765 679.80 729.28 2.5138 2.0746 3.1064 209.36 0.12871 13.049 0.038326
124.38 613.37 undefined 681.88 731.63 2.5190 85.000 0.011765 681.88 731.63 2.5190 2.0771 3.0964 210.15 0.12723 13.080 0.038451 85.000 0.011765 681.88 731.63 2.5190 2.0771 3.0964 210.15 0.12723 13.080 0.038451
125.38 616.77 undefined 683.96 733.98 2.5242 85.000 0.011765 683.96 733.98 2.5242 2.0797 3.0869 210.93 0.12578 13.111 0.038576 85.000 0.011765 683.96 733.98 2.5242 2.0797 3.0869 210.93 0.12578 13.111 0.038576
126.38 620.16 undefined 686.04 736.34 2.5294 85.000 0.011765 686.04 736.34 2.5294 2.0823 3.0777 211.71 0.12435 13.142 0.038703 85.000 0.011765 686.04 736.34 2.5294 2.0823 3.0777 211.71 0.12435 13.142 0.038703
127.38 623.54 undefined 688.12 738.70 2.5346 85.000 0.011765 688.12 738.70 2.5346 2.0850 3.0689 212.49 0.12295 13.173 0.038830 85.000 0.011765 688.12 738.70 2.5346 2.0850 3.0689 212.49 0.12295 13.173 0.038830
128.38 626.93 undefined 690.21 741.06 2.5399 85.000 0.011765 690.21 741.06 2.5399 2.0877 3.0604 213.26 0.12157 13.204 0.038959 85.000 0.011765 690.21 741.06 2.5399 2.0877 3.0604 213.26 0.12157 13.204 0.038959
129.38 630.30 undefined 692.30 743.42 2.5450 85.000 0.011765 692.30 743.42 2.5450 2.0904 3.0523 214.03 0.12021 13.235 0.039088 85.000 0.011765 692.30 743.42 2.5450 2.0904 3.0523 214.03 0.12021 13.235 0.039088
130.38 633.68 undefined 694.39 745.79 2.5502 85.000 0.011765 694.39 745.79 2.5502 2.0931 3.0445 214.79 0.11888 13.266 0.039218 85.000 0.011765 694.39 745.79 2.5502 2.0931 3.0445 214.79 0.11888 13.266 0.039218
131.38 637.05 undefined 696.48 748.16 2.5554 85.000 0.011765 696.48 748.16 2.5554 2.0959 3.0370 215.56 0.11757 13.297 0.039349 85.000 0.011765 696.48 748.16 2.5554 2.0959 3.0370 215.56 0.11757 13.297 0.039349
132.38 640.41 undefined 698.58 750.53 2.5606 85.000 0.011765 698.58 750.53 2.5606 2.0987 3.0298 216.32 0.11629 13.328 0.039481 85.000 0.011765 698.58 750.53 2.5606 2.0987 3.0298 216.32 0.11629 13.328 0.039481
133.38 643.77 undefined 700.68 752.90 2.5658 85.000 0.011765 700.68 752.90 2.5658 2.1015 3.0229 217.07 0.11502 13.359 0.039613 85.000 0.011765 700.68 752.90 2.5658 2.1015 3.0229 217.07 0.11502 13.359 0.039613
134.38 647.13 undefined 702.78 755.27 2.5709 85.000 0.011765 702.78 755.27 2.5709 2.1044 3.0162 217.83 0.11378 13.390 0.039746 85.000 0.011765 702.78 755.27 2.5709 2.1044 3.0162 217.83 0.11378 13.390 0.039746
135.38 650.48 undefined 704.89 757.65 2.5761 85.000 0.011765 704.89 757.65 2.5761 2.1073 3.0099 218.58 0.11255 13.421 0.039880 85.000 0.011765 704.89 757.65 2.5761 2.1073 3.0099 218.58 0.11255 13.421 0.039880
136.38 653.83 undefined 707.00 760.03 2.5813 85.000 0.011765 707.00 760.03 2.5813 2.1102 3.0037 219.32 0.11135 13.452 0.040015 85.000 0.011765 707.00 760.03 2.5813 2.1102 3.0037 219.32 0.11135 13.452 0.040015
137.38 657.18 undefined 709.11 762.42 2.5864 85.000 0.011765 709.11 762.42 2.5864 2.1131 2.9978 220.07 0.11016 13.482 0.040151 85.000 0.011765 709.11 762.42 2.5864 2.1131 2.9978 220.07 0.11016 13.482 0.040151
138.38 660.52 undefined 711.22 764.80 2.5916 85.000 0.011765 711.22 764.80 2.5916 2.1160 2.9922 220.81 0.10900 13.513 0.040287 85.000 0.011765 711.22 764.80 2.5916 2.1160 2.9922 220.81 0.10900 13.513 0.040287
139.38 663.86 undefined 713.34 767.19 2.5967 85.000 0.011765 713.34 767.19 2.5967 2.1190 2.9868 221.55 0.10785 13.544 0.040424 85.000 0.011765 713.34 767.19 2.5967 2.1190 2.9868 221.55 0.10785 13.544 0.040424
140.38 667.19 undefined 715.46 769.58 2.6018 85.000 0.011765 715.46 769.58 2.6018 2.1220 2.9816 222.29 0.10672 13.574 0.040561 85.000 0.011765 715.46 769.58 2.6018 2.1220 2.9816 222.29 0.10672 13.574 0.040561
141.38 670.52 undefined 717.58 771.97 2.6070 85.000 0.011765 717.58 771.97 2.6070 2.1250 2.9766 223.02 0.10561 13.605 0.040699 85.000 0.011765 717.58 771.97 2.6070 2.1250 2.9766 223.02 0.10561 13.605 0.040699
142.38 673.85 undefined 719.71 774.37 2.6121 85.000 0.011765 719.71 774.37 2.6121 2.1280 2.9718 223.75 0.10452 13.636 0.040838 85.000 0.011765 719.71 774.37 2.6121 2.1280 2.9718 223.75 0.10452 13.636 0.040838
143.38 677.18 undefined 721.84 776.77 2.6172 85.000 0.011765 721.84 776.77 2.6172 2.1310 2.9672 224.48 0.10344 13.666 0.040978 85.000 0.011765 721.84 776.77 2.6172 2.1310 2.9672 224.48 0.10344 13.666 0.040978
144.38 680.50 undefined 723.97 779.17 2.6223 85.000 0.011765 723.97 779.17 2.6223 2.1341 2.9627 225.20 0.10238 13.697 0.041118 85.000 0.011765 723.97 779.17 2.6223 2.1341 2.9627 225.20 0.10238 13.697 0.041118
145.38 683.82 undefined 726.11 781.58 2.6274 85.000 0.011765 726.11 781.58 2.6274 2.1371 2.9585 225.92 0.10134 13.727 0.041259 85.000 0.011765 726.11 781.58 2.6274 2.1371 2.9585 225.92 0.10134 13.727 0.041259
146.38 687.13 undefined 728.25 783.98 2.6325 85.000 0.011765 728.25 783.98 2.6325 2.1402 2.9544 226.64 0.10031 13.757 0.041400 85.000 0.011765 728.25 783.98 2.6325 2.1402 2.9544 226.64 0.10031 13.757 0.041400
147.38 690.44 undefined 730.39 786.39 2.6376 85.000 0.011765 730.39 786.39 2.6376 2.1433 2.9506 227.36 0.099302 13.788 0.041542 85.000 0.011765 730.39 786.39 2.6376 2.1433 2.9506 227.36 0.099302 13.788 0.041542
148.38 693.75 undefined 732.53 788.81 2.6427 85.000 0.011765 732.53 788.81 2.6427 2.1464 2.9468 228.08 0.098306 13.818 0.041684 85.000 0.011765 732.53 788.81 2.6427 2.1464 2.9468 228.08 0.098306 13.818 0.041684
149.38 697.06 undefined 734.68 791.22 2.6478 85.000 0.011765 734.68 791.22 2.6478 2.1495 2.9433 228.79 0.097325 13.849 0.041828 85.000 0.011765 734.68 791.22 2.6478 2.1495 2.9433 228.79 0.097325 13.849 0.041828
150.38 700.36 undefined 736.83 793.64 2.6529 85.000 0.011765 736.83 793.64 2.6529 2.1527 2.9399 229.50 0.096359 13.879 0.041971 85.000 0.011765 736.83 793.64 2.6529 2.1527 2.9399 229.50 0.096359 13.879 0.041971
151.38 703.66 undefined 738.99 796.06 2.6580 85.000 0.011765 738.99 796.06 2.6580 2.1558 2.9366 230.20 0.095407 13.909 0.042115 85.000 0.011765 738.99 796.06 2.6580 2.1558 2.9366 230.20 0.095407 13.909 0.042115
152.38 706.95 undefined 741.14 798.49 2.6630 85.000 0.011765 741.14 798.49 2.6630 2.1590 2.9335 230.91 0.094469 13.939 0.042260 85.000 0.011765 741.14 798.49 2.6630 2.1590 2.9335 230.91 0.094469 13.939 0.042260
153.38 710.25 undefined 743.30 800.92 2.6681 85.000 0.011765 743.30 800.92 2.6681 2.1622 2.9305 231.61 0.093545 13.969 0.042406 85.000 0.011765 743.30 800.92 2.6681 2.1622 2.9305 231.61 0.093545 13.969 0.042406
154.38 713.54 undefined 745.47 803.35 2.6732 85.000 0.011765 745.47 803.35 2.6732 2.1653 2.9277 232.31 0.092634 14.000 0.042551 85.000 0.011765 745.47 803.35 2.6732 2.1653 2.9277 232.31 0.092634 14.000 0.042551
155.38 716.82 undefined 747.64 805.78 2.6782 85.000 0.011765 747.64 805.78 2.6782 2.1685 2.9250 233.01 0.091737 14.030 0.042698 85.000 0.011765 747.64 805.78 2.6782 2.1685 2.9250 233.01 0.091737 14.030 0.042698
156.38 720.11 undefined 749.81 808.22 2.6833 85.000 0.011765 749.81 808.22 2.6833 2.1717 2.9224 233.70 0.090853 14.060 0.042845 85.000 0.011765 749.81 808.22 2.6833 2.1717 2.9224 233.70 0.090853 14.060 0.042845
157.38 723.39 undefined 751.98 810.66 2.6884 85.000 0.011765 751.98 810.66 2.6884 2.1750 2.9199 234.39 0.089981 14.090 0.042992 85.000 0.011765 751.98 810.66 2.6884 2.1750 2.9199 234.39 0.089981 14.090 0.042992
158.38 726.67 undefined 754.16 813.10 2.6934 85.000 0.011765 754.16 813.10 2.6934 2.1782 2.9176 235.09 0.089122 14.120 0.043140 85.000 0.011765 754.16 813.10 2.6934 2.1782 2.9176 235.09 0.089122 14.120 0.043140
159.38 729.95 undefined 756.34 815.55 2.6985 85.000 0.011765 756.34 815.55 2.6985 2.1814 2.9154 235.77 0.088275 14.150 0.043288 85.000 0.011765 756.34 815.55 2.6985 2.1814 2.9154 235.77 0.088275 14.150 0.043288
160.38 733.22 undefined 758.52 817.99 2.7035 85.000 0.011765 758.52 817.99 2.7035 2.1847 2.9133 236.46 0.087440 14.180 0.043437 85.000 0.011765 758.52 817.99 2.7035 2.1847 2.9133 236.46 0.087440 14.180 0.043437
161.38 736.49 undefined 760.70 820.45 2.7085 85.000 0.011765 760.70 820.45 2.7085 2.1879 2.9113 237.14 0.086616 14.209 0.043587 85.000 0.011765 760.70 820.45 2.7085 2.1879 2.9113 237.14 0.086616 14.209 0.043587
162.38 739.76 undefined 762.89 822.90 2.7136 85.000 0.011765 762.89 822.90 2.7136 2.1912 2.9094 237.82 0.085805 14.239 0.043736 85.000 0.011765 762.89 822.90 2.7136 2.1912 2.9094 237.82 0.085805 14.239 0.043736
163.38 743.03 undefined 765.09 825.36 2.7186 85.000 0.011765 765.09 825.36 2.7186 2.1945 2.9076 238.50 0.085004 14.269 0.043887 85.000 0.011765 765.09 825.36 2.7186 2.1945 2.9076 238.50 0.085004 14.269 0.043887
164.38 746.29 undefined 767.28 827.82 2.7236 85.000 0.011765 767.28 827.82 2.7236 2.1977 2.9059 239.18 0.084215 14.299 0.044038 85.000 0.011765 767.28 827.82 2.7236 2.1977 2.9059 239.18 0.084215 14.299 0.044038
165.38 749.55 undefined 769.48 830.28 2.7286 85.000 0.011765 769.48 830.28 2.7286 2.2010 2.9043 239.85 0.083437 14.329 0.044189 85.000 0.011765 769.48 830.28 2.7286 2.2010 2.9043 239.85 0.083437 14.329 0.044189
166.38 752.81 undefined 771.69 832.75 2.7337 85.000 0.011765 771.69 832.75 2.7337 2.2043 2.9028 240.53 0.082669 14.358 0.044341 85.000 0.011765 771.69 832.75 2.7337 2.2043 2.9028 240.53 0.082669 14.358 0.044341
167.38 756.07 undefined 773.89 835.22 2.7387 85.000 0.011765 773.89 835.22 2.7387 2.2076 2.9015 241.20 0.081911 14.388 0.044493 85.000 0.011765 773.89 835.22 2.7387 2.2076 2.9015 241.20 0.081911 14.388 0.044493
168.38 759.32 undefined 776.10 837.69 2.7437 85.000 0.011765 776.10 837.69 2.7437 2.2109 2.9002 241.87 0.081164 14.418 0.044645 85.000 0.011765 776.10 837.69 2.7437 2.2109 2.9002 241.87 0.081164 14.418 0.044645
169.38 762.57 undefined 778.31 840.17 2.7487 85.000 0.011765 778.31 840.17 2.7487 2.2143 2.8989 242.53 0.080427 14.447 0.044798 85.000 0.011765 778.31 840.17 2.7487 2.2143 2.8989 242.53 0.080427 14.447 0.044798
170.38 765.82 undefined 780.53 842.65 2.7537 85.000 0.011765 780.53 842.65 2.7537 2.2176 2.8978 243.20 0.079700 14.477 0.044952 85.000 0.011765 780.53 842.65 2.7537 2.2176 2.8978 243.20 0.079700 14.477 0.044952
171.38 769.07 undefined 782.75 845.13 2.7587 85.000 0.011765 782.75 845.13 2.7587 2.2209 2.8968 243.86 0.078983 14.506 0.045106 85.000 0.011765 782.75 845.13 2.7587 2.2209 2.8968 243.86 0.078983 14.506 0.045106
172.38 772.31 undefined 784.97 847.62 2.7637 85.000 0.011765 784.97 847.62 2.7637 2.2242 2.8958 244.52 0.078275 14.536 0.045260 85.000 0.011765 784.97 847.62 2.7637 2.2242 2.8958 244.52 0.078275 14.536 0.045260
173.38 775.56 undefined 787.20 850.11 2.7687 85.000 0.011765 787.20 850.11 2.7687 2.2276 2.8949 245.18 0.077577 14.565 0.045415 85.000 0.011765 787.20 850.11 2.7687 2.2276 2.8949 245.18 0.077577 14.565 0.045415
174.38 778.80 undefined 789.43 852.60 2.7737 85.000 0.011765 789.43 852.60 2.7737 2.2309 2.8941 245.83 0.076888 14.595 0.045570 85.000 0.011765 789.43 852.60 2.7737 2.2309 2.8941 245.83 0.076888 14.595 0.045570
175.38 782.03 undefined 791.66 855.09 2.7786 85.000 0.011765 791.66 855.09 2.7786 2.2343 2.8934 246.49 0.076208 14.624 0.045726 85.000 0.011765 791.66 855.09 2.7786 2.2343 2.8934 246.49 0.076208 14.624 0.045726
176.38 785.27 undefined 793.89 857.59 2.7836 85.000 0.011765 793.89 857.59 2.7836 2.2377 2.8927 247.14 0.075536 14.654 0.045882 85.000 0.011765 793.89 857.59 2.7836 2.2377 2.8927 247.14 0.075536 14.654 0.045882
177.38 788.50 undefined 796.13 860.09 2.7886 85.000 0.011765 796.13 860.09 2.7886 2.2410 2.8922 247.79 0.074874 14.683 0.046039 85.000 0.011765 796.13 860.09 2.7886 2.2410 2.8922 247.79 0.074874 14.683 0.046039
178.38 791.74 undefined 798.38 862.60 2.7936 85.000 0.011765 798.38 862.60 2.7936 2.2444 2.8917 248.44 0.074220 14.712 0.046196 85.000 0.011765 798.38 862.60 2.7936 2.2444 2.8917 248.44 0.074220 14.712 0.046196
179.38 794.97 undefined 800.62 865.11 2.7985 85.000 0.011765 800.62 865.11 2.7985 2.2478 2.8912 249.09 0.073574 14.742 0.046353 85.000 0.011765 800.62 865.11 2.7985 2.2478 2.8912 249.09 0.073574 14.742 0.046353
180.38 798.19 undefined 802.87 867.62 2.8035 85.000 0.011765 802.87 867.62 2.8035 2.2512 2.8908 249.73 0.072937 14.771 0.046511 85.000 0.011765 802.87 867.62 2.8035 2.2512 2.8908 249.73 0.072937 14.771 0.046511
181.38 801.42 undefined 805.13 870.13 2.8085 85.000 0.011765 805.13 870.13 2.8085 2.2545 2.8905 250.37 0.072308 14.800 0.046669 85.000 0.011765 805.13 870.13 2.8085 2.2545 2.8905 250.37 0.072308 14.800 0.046669
182.38 804.64 undefined 807.38 872.65 2.8134 85.000 0.011765 807.38 872.65 2.8134 2.2579 2.8903 251.01 0.071687 14.829 0.046827 85.000 0.011765 807.38 872.65 2.8134 2.2579 2.8903 251.01 0.071687 14.829 0.046827
183.38 807.86 undefined 809.64 875.17 2.8184 85.000 0.011765 809.64 875.17 2.8184 2.2613 2.8901 251.65 0.071073 14.858 0.046986 85.000 0.011765 809.64 875.17 2.8184 2.2613 2.8901 251.65 0.071073 14.858 0.046986
184.38 811.08 undefined 811.90 877.70 2.8233 85.000 0.011765 811.90 877.70 2.8233 2.2647 2.8900 252.29 0.070468 14.887 0.047145 85.000 0.011765 811.90 877.70 2.8233 2.2647 2.8900 252.29 0.070468 14.887 0.047145
185.38 814.30 undefined 814.17 880.22 2.8283 85.000 0.011765 814.17 880.22 2.8283 2.2681 2.8899 252.93 0.069870 14.916 0.047305 85.000 0.011765 814.17 880.22 2.8283 2.2681 2.8899 252.93 0.069870 14.916 0.047305
186.38 817.52 undefined 816.44 882.75 2.8332 85.000 0.011765 816.44 882.75 2.8332 2.2715 2.8899 253.56 0.069279 14.946 0.047465 85.000 0.011765 816.44 882.75 2.8332 2.2715 2.8899 253.56 0.069279 14.946 0.047465
187.38 820.73 undefined 818.71 885.29 2.8382 85.000 0.011765 818.71 885.29 2.8382 2.2750 2.8900 254.19 0.068696 14.975 0.047626 85.000 0.011765 818.71 885.29 2.8382 2.2750 2.8900 254.19 0.068696 14.975 0.047626
188.38 823.94 undefined 820.99 887.82 2.8431 85.000 0.011765 820.99 887.82 2.8431 2.2784 2.8901 254.82 0.068120 15.004 0.047787 85.000 0.011765 820.99 887.82 2.8431 2.2784 2.8901 254.82 0.068120 15.004 0.047787
189.38 827.15 undefined 823.27 890.36 2.8480 85.000 0.011765 823.27 890.36 2.8480 2.2818 2.8902 255.45 0.067551 15.032 0.047948 85.000 0.011765 823.27 890.36 2.8480 2.2818 2.8902 255.45 0.067551 15.032 0.047948
190.38 830.36 undefined 825.55 892.91 2.8530 85.000 0.011765 825.55 892.91 2.8530 2.2852 2.8904 256.08 0.066989 15.061 0.048109 85.000 0.011765 825.55 892.91 2.8530 2.2852 2.8904 256.08 0.066989 15.061 0.048109
191.38 833.57 undefined 827.84 895.46 2.8579 85.000 0.011765 827.84 895.46 2.8579 2.2887 2.8907 256.70 0.066434 15.090 0.048271 85.000 0.011765 827.84 895.46 2.8579 2.2887 2.8907 256.70 0.066434 15.090 0.048271
192.38 836.77 undefined 830.13 898.01 2.8628 85.000 0.011765 830.13 898.01 2.8628 2.2921 2.8910 257.33 0.065886 15.119 0.048434 85.000 0.011765 830.13 898.01 2.8628 2.2921 2.8910 257.33 0.065886 15.119 0.048434
193.38 839.98 undefined 832.43 900.56 2.8677 85.000 0.011765 832.43 900.56 2.8677 2.2955 2.8914 257.95 0.065344 15.148 0.048596 85.000 0.011765 832.43 900.56 2.8677 2.2955 2.8914 257.95 0.065344 15.148 0.048596
194.38 843.18 undefined 834.72 903.12 2.8727 85.000 0.011765 834.72 903.12 2.8727 2.2990 2.8918 258.57 0.064809 15.177 0.048760 85.000 0.011765 834.72 903.12 2.8727 2.2990 2.8918 258.57 0.064809 15.177 0.048760
195.38 846.38 undefined 837.02 905.68 2.8776 85.000 0.011765 837.02 905.68 2.8776 2.3024 2.8923 259.19 0.064280 15.205 0.048923 85.000 0.011765 837.02 905.68 2.8776 2.3024 2.8923 259.19 0.064280 15.205 0.048923
196.38 849.58 undefined 839.33 908.24 2.8825 85.000 0.011765 839.33 908.24 2.8825 2.3058 2.8928 259.80 0.063758 15.234 0.049087 85.000 0.011765 839.33 908.24 2.8825 2.3058 2.8928 259.80 0.063758 15.234 0.049087
197.38 852.77 undefined 841.63 910.81 2.8874 85.000 0.011765 841.63 910.81 2.8874 2.3093 2.8933 260.42 0.063241 15.263 0.049251 85.000 0.011765 841.63 910.81 2.8874 2.3093 2.8933 260.42 0.063241 15.263 0.049251
198.38 855.97 undefined 843.95 913.38 2.8923 85.000 0.011765 843.95 913.38 2.8923 2.3127 2.8939 261.03 0.062731 15.291 0.049416 85.000 0.011765 843.95 913.38 2.8923 2.3127 2.8939 261.03 0.062731 15.291 0.049416
199.38 859.16 undefined 846.26 915.95 2.8972 85.000 0.011765 846.26 915.95 2.8972 2.3162 2.8946 261.64 0.062227 15.320 0.049580 85.000 0.011765 846.26 915.95 2.8972 2.3162 2.8946 261.64 0.062227 15.320 0.049580
200.38 862.35 undefined 848.58 918.53 2.9021 85.000 0.011765 848.58 918.53 2.9021 2.3196 2.8952 262.26 0.061729 15.349 0.049746 85.000 0.011765 848.58 918.53 2.9021 2.3196 2.8952 262.26 0.061729 15.349 0.049746
201.38 865.54 undefined 850.90 921.11 2.9070 85.000 0.011765 850.90 921.11 2.9070 2.3231 2.8960 262.86 0.061236 15.377 0.049911 85.000 0.011765 850.90 921.11 2.9070 2.3231 2.8960 262.86 0.061236 15.377 0.049911
202.38 868.73 undefined 853.22 923.69 2.9119 85.000 0.011765 853.22 923.69 2.9119 2.3265 2.8967 263.47 0.060750 15.406 0.050077 85.000 0.011765 853.22 923.69 2.9119 2.3265 2.8967 263.47 0.060750 15.406 0.050077
203.38 871.92 undefined 855.55 926.28 2.9168 85.000 0.011765 855.55 926.28 2.9168 2.3300 2.8975 264.08 0.060269 15.434 0.050244 85.000 0.011765 855.55 926.28 2.9168 2.3300 2.8975 264.08 0.060269 15.434 0.050244
204.38 875.10 undefined 857.88 928.87 2.9217 85.000 0.011765 857.88 928.87 2.9217 2.3335 2.8984 264.68 0.059793 15.463 0.050410 85.000 0.011765 857.88 928.87 2.9217 2.3335 2.8984 264.68 0.059793 15.463 0.050410
205.38 878.29 undefined 860.22 931.46 2.9266 85.000 0.011765 860.22 931.46 2.9266 2.3369 2.8993 265.28 0.059323 15.491 0.050577 85.000 0.011765 860.22 931.46 2.9266 2.3369 2.8993 265.28 0.059323 15.491 0.050577
206.38 881.47 undefined 862.56 934.06 2.9315 85.000 0.011765 862.56 934.06 2.9315 2.3404 2.9002 265.88 0.058859 15.519 0.050745 85.000 0.011765 862.56 934.06 2.9315 2.3404 2.9002 265.88 0.058859 15.519 0.050745
207.38 884.65 undefined 864.90 936.66 2.9363 85.000 0.011765 864.90 936.66 2.9363 2.3439 2.9011 266.48 0.058400 15.548 0.050912 85.000 0.011765 864.90 936.66 2.9363 2.3439 2.9011 266.48 0.058400 15.548 0.050912
208.38 887.83 undefined 867.25 939.26 2.9412 85.000 0.011765 867.25 939.26 2.9412 2.3473 2.9021 267.08 0.057946 15.576 0.051080 85.000 0.011765 867.25 939.26 2.9412 2.3473 2.9021 267.08 0.057946 15.576 0.051080
209.38 891.01 undefined 869.59 941.87 2.9461 85.000 0.011765 869.59 941.87 2.9461 2.3508 2.9031 267.68 0.057497 15.604 0.051249 85.000 0.011765 869.59 941.87 2.9461 2.3508 2.9031 267.68 0.057497 15.604 0.051249
210.38 894.18 undefined 871.95 944.48 2.9510 85.000 0.011765 871.95 944.48 2.9510 2.3543 2.9042 268.27 0.057053 15.633 0.051417 85.000 0.011765 871.95 944.48 2.9510 2.3543 2.9042 268.27 0.057053 15.633 0.051417
211.38 897.36 undefined 874.30 947.09 2.9558 85.000 0.011765 874.30 947.09 2.9558 2.3577 2.9053 268.87 0.056614 15.661 0.051586 85.000 0.011765 874.30 947.09 2.9558 2.3577 2.9053 268.87 0.056614 15.661 0.051586
212.38 900.53 undefined 876.66 949.71 2.9607 85.000 0.011765 876.66 949.71 2.9607 2.3612 2.9064 269.46 0.056180 15.689 0.051756 85.000 0.011765 876.66 949.71 2.9607 2.3612 2.9064 269.46 0.056180 15.689 0.051756
213.38 903.70 undefined 879.03 952.33 2.9655 85.000 0.011765 879.03 952.33 2.9655 2.3647 2.9076 270.05 0.055751 15.717 0.051926 85.000 0.011765 879.03 952.33 2.9655 2.3647 2.9076 270.05 0.055751 15.717 0.051926
214.38 906.87 undefined 881.39 954.95 2.9704 85.000 0.011765 881.39 954.95 2.9704 2.3682 2.9087 270.64 0.055327 15.745 0.052096 85.000 0.011765 881.39 954.95 2.9704 2.3682 2.9087 270.64 0.055327 15.745 0.052096
215.38 910.04 undefined 883.76 957.58 2.9753 85.000 0.011765 883.76 957.58 2.9753 2.3716 2.9100 271.23 0.054907 15.774 0.052266 85.000 0.011765 883.76 957.58 2.9753 2.3716 2.9100 271.23 0.054907 15.774 0.052266
216.38 913.21 undefined 886.14 960.21 2.9801 85.000 0.011765 886.14 960.21 2.9801 2.3751 2.9112 271.82 0.054492 15.802 0.052437 85.000 0.011765 886.14 960.21 2.9801 2.3751 2.9112 271.82 0.054492 15.802 0.052437
217.38 916.38 undefined 888.51 962.84 2.9850 85.000 0.011765 888.51 962.84 2.9850 2.3786 2.9125 272.40 0.054081 15.830 0.052608 85.000 0.011765 888.51 962.84 2.9850 2.3786 2.9125 272.40 0.054081 15.830 0.052608
218.38 919.54 undefined 890.89 965.48 2.9898 85.000 0.011765 890.89 965.48 2.9898 2.3821 2.9138 272.99 0.053676 15.858 0.052779 85.000 0.011765 890.89 965.48 2.9898 2.3821 2.9138 272.99 0.053676 15.858 0.052779
219.38 922.71 undefined 893.28 968.12 2.9947 85.000 0.011765 893.28 968.12 2.9947 2.3856 2.9151 273.57 0.053274 15.886 0.052951 85.000 0.011765 893.28 968.12 2.9947 2.3856 2.9151 273.57 0.053274 15.886 0.052951
220.38 925.87 undefined 895.66 970.77 2.9995 85.000 0.011765 895.66 970.77 2.9995 2.3890 2.9165 274.15 0.052877 15.914 0.053123 85.000 0.011765 895.66 970.77 2.9995 2.3890 2.9165 274.15 0.052877 15.914 0.053123
221.38 929.03 undefined 898.05 973.41 3.0043 85.000 0.011765 898.05 973.41 3.0043 2.3925 2.9178 274.73 0.052484 15.941 0.053295 85.000 0.011765 898.05 973.41 3.0043 2.3925 2.9178 274.73 0.052484 15.941 0.053295
222.38 932.19 undefined 900.45 976.06 3.0092 85.000 0.011765 900.45 976.06 3.0092 2.3960 2.9193 275.31 0.052095 15.969 0.053468 85.000 0.011765 900.45 976.06 3.0092 2.3960 2.9193 275.31 0.052095 15.969 0.053468
223.38 935.35 undefined 902.85 978.72 3.0140 85.000 0.011765 902.85 978.72 3.0140 2.3995 2.9207 275.88 0.051711 15.997 0.053641 85.000 0.011765 902.85 978.72 3.0140 2.3995 2.9207 275.88 0.051711 15.997 0.053641
224.38 938.51 undefined 905.25 981.37 3.0188 85.000 0.011765 905.25 981.37 3.0188 2.4030 2.9222 276.46 0.051330 16.025 0.053814 85.000 0.011765 905.25 981.37 3.0188 2.4030 2.9222 276.46 0.051330 16.025 0.053814
225.38 941.67 undefined 907.65 984.04 3.0237 85.000 0.011765 907.65 984.04 3.0237 2.4064 2.9236 277.03 0.050954 16.053 0.053988 85.000 0.011765 907.65 984.04 3.0237 2.4064 2.9236 277.03 0.050954 16.053 0.053988
226.38 944.82 undefined 910.06 986.70 3.0285 85.000 0.011765 910.06 986.70 3.0285 2.4099 2.9252 277.61 0.050582 16.081 0.054161 85.000 0.011765 910.06 986.70 3.0285 2.4099 2.9252 277.61 0.050582 16.081 0.054161
227.38 947.98 undefined 912.47 989.37 3.0333 85.000 0.011765 912.47 989.37 3.0333 2.4134 2.9267 278.18 0.050213 16.108 0.054336 85.000 0.011765 912.47 989.37 3.0333 2.4134 2.9267 278.18 0.050213 16.108 0.054336
228.38 951.13 undefined 914.89 992.04 3.0381 85.000 0.011765 914.89 992.04 3.0381 2.4169 2.9283 278.75 0.049849 16.136 0.054510 85.000 0.011765 914.89 992.04 3.0381 2.4169 2.9283 278.75 0.049849 16.136 0.054510
229.38 954.28 undefined 917.31 994.71 3.0430 85.000 0.011765 917.31 994.71 3.0430 2.4204 2.9298 279.32 0.049488 16.164 0.054685 85.000 0.011765 917.31 994.71 3.0430 2.4204 2.9298 279.32 0.049488 16.164 0.054685
230.38 957.43 undefined 919.73 997.39 3.0478 85.000 0.011765 919.73 997.39 3.0478 2.4239 2.9314 279.89 0.049131 16.191 0.054860 85.000 0.011765 919.73 997.39 3.0478 2.4239 2.9314 279.89 0.049131 16.191 0.054860
231.38 960.58 undefined 922.15 1000.1 3.0526 85.000 0.011765 922.15 1000.1 3.0526 2.4273 2.9331 280.45 0.048778 16.219 0.055036 85.000 0.011765 922.15 1000.1 3.0526 2.4273 2.9331 280.45 0.048778 16.219 0.055036
232.38 963.73 undefined 924.58 1002.8 3.0574 85.000 0.011765 924.58 1002.8 3.0574 2.4308 2.9347 281.02 0.048428 16.246 0.055211 85.000 0.011765 924.58 1002.8 3.0574 2.4308 2.9347 281.02 0.048428 16.246 0.055211
233.38 966.88 undefined 927.02 1005.4 3.0622 85.000 0.011765 927.02 1005.4 3.0622 2.4343 2.9364 281.58 0.048082 16.274 0.055387 85.000 0.011765 927.02 1005.4 3.0622 2.4343 2.9364 281.58 0.048082 16.274 0.055387
234.38 970.02 undefined 929.45 1008.1 3.0670 85.000 0.011765 929.45 1008.1 3.0670 2.4378 2.9381 282.15 0.047740 16.302 0.055564 85.000 0.011765 929.45 1008.1 3.0670 2.4378 2.9381 282.15 0.047740 16.302 0.055564
235.38 973.17 undefined 931.89 1010.8 3.0718 85.000 0.011765 931.89 1010.8 3.0718 2.4413 2.9398 282.71 0.047401 16.329 0.055740 85.000 0.011765 931.89 1010.8 3.0718 2.4413 2.9398 282.71 0.047401 16.329 0.055740
236.38 976.31 undefined 934.33 1013.5 3.0766 85.000 0.011765 934.33 1013.5 3.0766 2.4447 2.9415 283.27 0.047065 16.356 0.055917 85.000 0.011765 934.33 1013.5 3.0766 2.4447 2.9415 283.27 0.047065 16.356 0.055917
237.38 979.46 undefined 936.78 1016.2 3.0814 85.000 0.011765 936.78 1016.2 3.0814 2.4482 2.9433 283.83 0.046733 16.384 0.056095 85.000 0.011765 936.78 1016.2 3.0814 2.4482 2.9433 283.83 0.046733 16.384 0.056095
238.38 982.60 undefined 939.23 1018.9 3.0862 85.000 0.011765 939.23 1018.9 3.0862 2.4517 2.9450 284.39 0.046405 16.411 0.056272 85.000 0.011765 939.23 1018.9 3.0862 2.4517 2.9450 284.39 0.046405 16.411 0.056272
239.38 985.74 undefined 941.68 1021.6 3.0910 85.000 0.011765 941.68 1021.6 3.0910 2.4552 2.9468 284.94 0.046079 16.439 0.056450 85.000 0.011765 941.68 1021.6 3.0910 2.4552 2.9468 284.94 0.046079 16.439 0.056450
240.38 988.88 undefined 944.14 1024.4 3.0958 85.000 0.011765 944.14 1024.4 3.0958 2.4586 2.9486 285.50 0.045757 16.466 0.056628 85.000 0.011765 944.14 1024.4 3.0958 2.4586 2.9486 285.50 0.045757 16.466 0.056628
241.38 992.02 undefined 946.60 1027.1 3.1006 85.000 0.011765 946.60 1027.1 3.1006 2.4621 2.9504 286.06 0.045439 16.493 0.056807 85.000 0.011765 946.60 1027.1 3.1006 2.4621 2.9504 286.06 0.045439 16.493 0.056807
242.38 995.16 undefined 949.06 1029.8 3.1053 85.000 0.011765 949.06 1029.8 3.1053 2.4656 2.9523 286.61 0.045123 16.521 0.056985 85.000 0.011765 949.06 1029.8 3.1053 2.4656 2.9523 286.61 0.045123 16.521 0.056985
243.38 998.29 undefined 951.53 1032.5 3.1101 85.000 0.011765 951.53 1032.5 3.1101 2.4691 2.9541 287.16 0.044810 16.548 0.057164 85.000 0.011765 951.53 1032.5 3.1101 2.4691 2.9541 287.16 0.044810 16.548 0.057164
244.38 1001.4 undefined 954.00 1035.2 3.1149 85.000 0.011765 954.00 1035.2 3.1149 2.4725 2.9560 287.71 0.044501 16.575 0.057344 85.000 0.011765 954.00 1035.2 3.1149 2.4725 2.9560 287.71 0.044501 16.575 0.057344
245.38 1004.6 undefined 956.48 1038.0 3.1197 85.000 0.011765 956.48 1038.0 3.1197 2.4760 2.9579 288.26 0.044195 16.602 0.057523 85.000 0.011765 956.48 1038.0 3.1197 2.4760 2.9579 288.26 0.044195 16.602 0.057523
246.38 1007.7 undefined 958.96 1040.7 3.1245 85.000 0.011765 958.96 1040.7 3.1245 2.4795 2.9598 288.81 0.043892 16.629 0.057703 85.000 0.011765 958.96 1040.7 3.1245 2.4795 2.9598 288.81 0.043892 16.629 0.057703
247.38 1010.8 undefined 961.44 1043.4 3.1292 85.000 0.011765 961.44 1043.4 3.1292 2.4830 2.9617 289.36 0.043591 16.656 0.057883 85.000 0.011765 961.44 1043.4 3.1292 2.4830 2.9617 289.36 0.043591 16.656 0.057883
248.38 1014.0 undefined 963.92 1046.2 3.1340 85.000 0.011765 963.92 1046.2 3.1340 2.4864 2.9637 289.91 0.043294 16.684 0.058063 85.000 0.011765 963.92 1046.2 3.1340 2.4864 2.9637 289.91 0.043294 16.684 0.058063
249.38 1017.1 undefined 966.41 1048.9 3.1388 85.000 0.011765 966.41 1048.9 3.1388 2.4899 2.9656 290.45 0.042999 16.711 0.058244 85.000 0.011765 966.41 1048.9 3.1388 2.4899 2.9656 290.45 0.042999 16.711 0.058244
250.38 1020.2 undefined 968.90 1051.7 3.1435 85.000 0.011765 968.90 1051.7 3.1435 2.4934 2.9676 291.00 0.042708 16.738 0.058425 85.000 0.011765 968.90 1051.7 3.1435 2.4934 2.9676 291.00 0.042708 16.738 0.058425
251.38 1023.4 undefined 971.40 1054.4 3.1483 85.000 0.011765 971.40 1054.4 3.1483 2.4968 2.9696 291.54 0.042419 16.765 0.058606 85.000 0.011765 971.40 1054.4 3.1483 2.4968 2.9696 291.54 0.042419 16.765 0.058606
252.38 1026.5 undefined 973.89 1057.2 3.1530 85.000 0.011765 973.89 1057.2 3.1530 2.5003 2.9716 292.08 0.042133 16.792 0.058788 85.000 0.011765 973.89 1057.2 3.1530 2.5003 2.9716 292.08 0.042133 16.792 0.058788
253.38 1029.6 undefined 976.40 1059.9 3.1578 85.000 0.011765 976.40 1059.9 3.1578 2.5037 2.9736 292.62 0.041850 16.818 0.058969 85.000 0.011765 976.40 1059.9 3.1578 2.5037 2.9736 292.62 0.041850 16.818 0.058969
254.38 1032.7 undefined 978.90 1062.7 3.1626 85.000 0.011765 978.90 1062.7 3.1626 2.5072 2.9756 293.16 0.041569 16.845 0.059151 85.000 0.011765 978.90 1062.7 3.1626 2.5072 2.9756 293.16 0.041569 16.845 0.059151
255.38 1035.9 undefined 981.41 1065.4 3.1673 85.000 0.011765 981.41 1065.4 3.1673 2.5107 2.9776 293.70 0.041292 16.872 0.059333 85.000 0.011765 981.41 1065.4 3.1673 2.5107 2.9776 293.70 0.041292 16.872 0.059333
256.38 1039.0 undefined 983.92 1068.2 3.1721 85.000 0.011765 983.92 1068.2 3.1721 2.5141 2.9797 294.24 0.041016 16.899 0.059516 85.000 0.011765 983.92 1068.2 3.1721 2.5141 2.9797 294.24 0.041016 16.899 0.059516
257.38 1042.1 undefined 986.44 1071.0 3.1768 85.000 0.011765 986.44 1071.0 3.1768 2.5176 2.9817 294.78 0.040744 16.926 0.059699 85.000 0.011765 986.44 1071.0 3.1768 2.5176 2.9817 294.78 0.040744 16.926 0.059699
258.38 1045.2 undefined 988.96 1073.7 3.1816 85.000 0.011765 988.96 1073.7 3.1816 2.5210 2.9838 295.31 0.040474 16.953 0.059881 85.000 0.011765 988.96 1073.7 3.1816 2.5210 2.9838 295.31 0.040474 16.953 0.059881
259.38 1048.4 undefined 991.48 1076.5 3.1863 85.000 0.011765 991.48 1076.5 3.1863 2.5245 2.9859 295.85 0.040206 16.979 0.060065 85.000 0.011765 991.48 1076.5 3.1863 2.5245 2.9859 295.85 0.040206 16.979 0.060065
260.38 1051.5 undefined 994.01 1079.3 3.1910 85.000 0.011765 994.01 1079.3 3.1910 2.5279 2.9880 296.38 0.039941 17.006 0.060248 85.000 0.011765 994.01 1079.3 3.1910 2.5279 2.9880 296.38 0.039941 17.006 0.060248
261.38 1054.6 undefined 996.54 1082.1 3.1958 85.000 0.011765 996.54 1082.1 3.1958 2.5314 2.9901 296.91 0.039679 17.033 0.060431 85.000 0.011765 996.54 1082.1 3.1958 2.5314 2.9901 296.91 0.039679 17.033 0.060431
262.38 1057.7 undefined 999.07 1084.9 3.2005 85.000 0.011765 999.07 1084.9 3.2005 2.5348 2.9922 297.44 0.039419 17.060 0.060615 85.000 0.011765 999.07 1084.9 3.2005 2.5348 2.9922 297.44 0.039419 17.060 0.060615
263.38 1060.8 undefined 1001.6 1087.7 3.2052 85.000 0.011765 1001.6 1087.7 3.2052 2.5383 2.9944 297.97 0.039161 17.086 0.060799 85.000 0.011765 1001.6 1087.7 3.2052 2.5383 2.9944 297.97 0.039161 17.086 0.060799
264.38 1064.0 undefined 1004.1 1090.4 3.2100 85.000 0.011765 1004.1 1090.4 3.2100 2.5417 2.9965 298.50 0.038906 17.113 0.060983 85.000 0.011765 1004.1 1090.4 3.2100 2.5417 2.9965 298.50 0.038906 17.113 0.060983
265.38 1067.1 undefined 1006.7 1093.2 3.2147 85.000 0.011765 1006.7 1093.2 3.2147 2.5451 2.9987 299.03 0.038653 17.139 0.061168 85.000 0.011765 1006.7 1093.2 3.2147 2.5451 2.9987 299.03 0.038653 17.139 0.061168
266.38 1070.2 undefined 1009.2 1096.0 3.2194 85.000 0.011765 1009.2 1096.0 3.2194 2.5486 3.0008 299.56 0.038403 17.166 0.061352 85.000 0.011765 1009.2 1096.0 3.2194 2.5486 3.0008 299.56 0.038403 17.166 0.061352
267.38 1073.3 undefined 1011.8 1098.8 3.2241 85.000 0.011765 1011.8 1098.8 3.2241 2.5520 3.0030 300.09 0.038155 17.193 0.061537 85.000 0.011765 1011.8 1098.8 3.2241 2.5520 3.0030 300.09 0.038155 17.193 0.061537
268.38 1076.4 undefined 1014.3 1101.7 3.2289 85.000 0.011765 1014.3 1101.7 3.2289 2.5554 3.0052 300.61 0.037909 17.219 0.061721 85.000 0.011765 1014.3 1101.7 3.2289 2.5554 3.0052 300.61 0.037909 17.219 0.061721
269.38 1079.5 undefined 1016.9 1104.5 3.2336 85.000 0.011765 1016.9 1104.5 3.2336 2.5589 3.0074 301.14 0.037665 17.245 0.061906 85.000 0.011765 1016.9 1104.5 3.2336 2.5589 3.0074 301.14 0.037665 17.245 0.061906
270.38 1082.6 undefined 1019.5 1107.3 3.2383 85.000 0.011765 1019.5 1107.3 3.2383 2.5623 3.0096 301.66 0.037424 17.272 0.062091 85.000 0.011765 1019.5 1107.3 3.2383 2.5623 3.0096 301.66 0.037424 17.272 0.062091
271.38 1085.8 undefined 1022.0 1110.1 3.2430 85.000 0.011765 1022.0 1110.1 3.2430 2.5657 3.0118 302.18 0.037184 17.298 0.062276 85.000 0.011765 1022.0 1110.1 3.2430 2.5657 3.0118 302.18 0.037184 17.298 0.062276
272.38 1088.9 undefined 1024.6 1112.9 3.2477 85.000 0.011765 1024.6 1112.9 3.2477 2.5692 3.0140 302.70 0.036947 17.325 0.062461 85.000 0.011765 1024.6 1112.9 3.2477 2.5692 3.0140 302.70 0.036947 17.325 0.062461
273.38 1092.0 undefined 1027.2 1115.7 3.2524 85.000 0.011765 1027.2 1115.7 3.2524 2.5726 3.0163 303.22 0.036712 17.351 0.062646 85.000 0.011765 1027.2 1115.7 3.2524 2.5726 3.0163 303.22 0.036712 17.351 0.062646
274.38 1095.1 undefined 1029.7 1118.6 3.2571 85.000 0.011765 1029.7 1118.6 3.2571 2.5760 3.0185 303.74 0.036479 17.377 0.062830 85.000 0.011765 1029.7 1118.6 3.2571 2.5760 3.0185 303.74 0.036479 17.377 0.062830
275.38 1098.2 undefined 1032.3 1121.4 3.2618 85.000 0.011765 1032.3 1121.4 3.2618 2.5794 3.0207 304.26 0.036248 17.404 0.063015 85.000 0.011765 1032.3 1121.4 3.2618 2.5794 3.0207 304.26 0.036248 17.404 0.063015
276.38 1101.3 undefined 1034.9 1124.2 3.2665 85.000 0.011765 1034.9 1124.2 3.2665 2.5828 3.0230 304.78 0.036020 17.430 0.063199 85.000 0.011765 1034.9 1124.2 3.2665 2.5828 3.0230 304.78 0.036020 17.430 0.063199
277.38 1104.4 undefined 1037.5 1127.1 3.2712 85.000 0.011765 1037.5 1127.1 3.2712 2.5863 3.0253 305.30 0.035793 17.456 0.063382 85.000 0.011765 1037.5 1127.1 3.2712 2.5863 3.0253 305.30 0.035793 17.456 0.063382
278.38 1107.5 undefined 1040.1 1129.9 3.2759 85.000 0.011765 1040.1 1129.9 3.2759 2.5897 3.0276 305.81 0.035568 17.482 0.063565 85.000 0.011765 1040.1 1129.9 3.2759 2.5897 3.0276 305.81 0.035568 17.482 0.063565
279.38 1110.6 undefined 1042.7 1132.7 3.2806 85.000 0.011765 1042.7 1132.7 3.2806 2.5931 3.0298 306.33 0.035345 17.509 0.063745 85.000 0.011765 1042.7 1132.7 3.2806 2.5931 3.0298 306.33 0.035345 17.509 0.063745
280.38 1113.7 undefined 1045.3 1135.6 3.2853 85.000 0.011765 1045.3 1135.6 3.2853 2.5965 3.0321 306.84 0.035125 17.535 0.063923 85.000 0.011765 1045.3 1135.6 3.2853 2.5965 3.0321 306.84 0.035125 17.535 0.063923
281.38 1116.8 undefined 1047.9 1138.4 3.2900 85.000 0.011765 1047.9 1138.4 3.2900 2.5999 3.0344 307.35 0.034906 17.561 0.064090 85.000 0.011765 1047.9 1138.4 3.2900 2.5999 3.0344 307.35 0.034906 17.561 0.064090
282.38 1119.9 undefined 1050.5 1141.3 3.2947 85.000 0.011765 1050.5 1141.3 3.2947 2.6033 3.0367 307.87 0.034689 17.587 0.064266 85.000 0.011765 1050.5 1141.3 3.2947 2.6033 3.0367 307.87 0.034689 17.587 0.064266
283.38 1123.0 undefined 1053.1 1144.2 3.2994 85.000 0.011765 1053.1 1144.2 3.2994 2.6067 3.0390 308.38 0.034474 17.613 0.064462 85.000 0.011765 1053.1 1144.2 3.2994 2.6067 3.0390 308.38 0.034474 17.613 0.064462
284.38 1126.2 undefined 1055.7 1147.0 3.3041 85.000 0.011765 1055.7 1147.0 3.3041 2.6101 3.0414 308.89 0.034261 17.639 0.064658 85.000 0.011765 1055.7 1147.0 3.3041 2.6101 3.0414 308.89 0.034261 17.639 0.064658
285.38 1129.3 undefined 1058.3 1149.9 3.3087 85.000 0.011765 1058.3 1149.9 3.3087 2.6135 3.0437 309.40 0.034049 17.665 0.064854 85.000 0.011765 1058.3 1149.9 3.3087 2.6135 3.0437 309.40 0.034049 17.665 0.064854
286.38 1132.4 undefined 1060.9 1152.7 3.3134 85.000 0.011765 1060.9 1152.7 3.3134 2.6169 3.0460 309.91 0.033840 17.691 0.065050 85.000 0.011765 1060.9 1152.7 3.3134 2.6169 3.0460 309.91 0.033840 17.691 0.065050
287.38 1135.5 undefined 1063.5 1155.6 3.3181 85.000 0.011765 1063.5 1155.6 3.3181 2.6202 3.0484 310.41 0.033632 17.717 0.065247 85.000 0.011765 1063.5 1155.6 3.3181 2.6202 3.0484 310.41 0.033632 17.717 0.065247
288.38 1138.6 undefined 1066.1 1158.5 3.3228 85.000 0.011765 1066.1 1158.5 3.3228 2.6236 3.0507 310.92 0.033426 17.743 0.065445 85.000 0.011765 1066.1 1158.5 3.3228 2.6236 3.0507 310.92 0.033426 17.743 0.065445
289.38 1141.7 undefined 1068.8 1161.4 3.3274 85.000 0.011765 1068.8 1161.4 3.3274 2.6270 3.0531 311.43 0.033222 17.769 0.065642 85.000 0.011765 1068.8 1161.4 3.3274 2.6270 3.0531 311.43 0.033222 17.769 0.065642
290.38 1144.8 undefined 1071.4 1164.2 3.3321 85.000 0.011765 1071.4 1164.2 3.3321 2.6304 3.0554 311.93 0.033020 17.795 0.065840 85.000 0.011765 1071.4 1164.2 3.3321 2.6304 3.0554 311.93 0.033020 17.795 0.065840
291.38 1147.9 undefined 1074.0 1167.1 3.3368 85.000 0.011765 1074.0 1167.1 3.3368 2.6338 3.0578 312.43 0.032819 17.820 0.066038 85.000 0.011765 1074.0 1167.1 3.3368 2.6338 3.0578 312.43 0.032819 17.820 0.066038
292.38 1151.0 undefined 1076.7 1170.0 3.3414 85.000 0.011765 1076.7 1170.0 3.3414 2.6371 3.0602 312.94 0.032620 17.846 0.066236 85.000 0.011765 1076.7 1170.0 3.3414 2.6371 3.0602 312.94 0.032620 17.846 0.066236
293.38 1154.0 undefined 1079.3 1172.9 3.3461 85.000 0.011765 1079.3 1172.9 3.3461 2.6405 3.0626 313.44 0.032423 17.872 0.066435 85.000 0.011765 1079.3 1172.9 3.3461 2.6405 3.0626 313.44 0.032423 17.872 0.066435
294.38 1157.1 undefined 1081.9 1175.8 3.3508 85.000 0.011765 1081.9 1175.8 3.3508 2.6439 3.0649 313.94 0.032227 17.898 0.066634 85.000 0.011765 1081.9 1175.8 3.3508 2.6439 3.0649 313.94 0.032227 17.898 0.066634
295.38 1160.2 undefined 1084.6 1178.7 3.3554 85.000 0.011765 1084.6 1178.7 3.3554 2.6472 3.0673 314.44 0.032033 17.923 0.066833 85.000 0.011765 1084.6 1178.7 3.3554 2.6472 3.0673 314.44 0.032033 17.923 0.066833
296.38 1163.3 undefined 1087.2 1181.6 3.3601 85.000 0.011765 1087.2 1181.6 3.3601 2.6506 3.0697 314.94 0.031841 17.949 0.067032 85.000 0.011765 1087.2 1181.6 3.3601 2.6506 3.0697 314.94 0.031841 17.949 0.067032
297.38 1166.4 undefined 1089.9 1184.5 3.3647 85.000 0.011765 1089.9 1184.5 3.3647 2.6540 3.0721 315.44 0.031650 17.975 0.067232 85.000 0.011765 1089.9 1184.5 3.3647 2.6540 3.0721 315.44 0.031650 17.975 0.067232
298.38 1169.5 undefined 1092.5 1187.4 3.3694 85.000 0.011765 1092.5 1187.4 3.3694 2.6573 3.0745 315.94 0.031461 18.000 0.067432 85.000 0.011765 1092.5 1187.4 3.3694 2.6573 3.0745 315.94 0.031461 18.000 0.067432
299.38 1172.6 undefined 1095.2 1190.3 3.3740 85.000 0.011765 1095.2 1190.3 3.3740 2.6607 3.0769 316.43 0.031273 18.026 0.067633 85.000 0.011765 1095.2 1190.3 3.3740 2.6607 3.0769 316.43 0.031273 18.026 0.067633
300.38 1175.7 undefined 1097.9 1193.2 3.3787 85.000 0.011765 1097.9 1193.2 3.3787 2.6640 3.0794 316.93 0.031087 18.052 0.067833 85.000 0.011765 1097.9 1193.2 3.3787 2.6640 3.0794 316.93 0.031087 18.052 0.067833