Temperature (C) Pressure (psia) Quality (l+v) Internal Energy (l+v, kJ/kg) Enthalpy (l+v, kJ/kg) Entropy (l+v, J/g*K) Density (l, kg/m3) Volume (l, m3/kg) Internal Energy (l, kJ/kg) Enthalpy (l, kJ/kg) Entropy (l, J/g*K) Cv (l, J/g*K) Cp (l, J/g*K) Sound Spd. (l, m/s) Joule-Thomson (l, F/psia) Viscosity (l, uPa*s) Therm. Cond. (l, W/m*K) Density (v, kg/m3) Volume (v, m3/kg) Internal Energy (v, kJ/kg) Enthalpy (v, kJ/kg) Entropy (v, J/g*K) Cv (v, J/g*K) Cp (v, J/g*K) Sound Spd. (v, m/s) Joule-Thomson (v, F/psia) Viscosity (v, uPa*s) Therm. Cond. (v, W/m*K)
-187.62 2.4953e-08 1.0654e-08 -196.64 -196.64 -1.3959 733.13 0.0013640 -196.64 -196.64 -1.3959 1.3553 1.9158 2136.4 -0.0077592 10960. 0.20792 1.0669e-08 9.3732e+07 350.13 366.26 5.1858 0.69067 0.87923 143.28 6.1051 2.3259 0.0017061
-186.62 3.7339e-08 1.5758e-08 -194.73 -194.73 -1.3736 732.08 0.0013660 -194.73 -194.73 -1.3736 1.3539 1.9166 2129.6 -0.0077546 10073. 0.20765 1.5780e-08 6.3371e+07 350.82 367.14 5.1200 0.69462 0.88317 144.03 5.9178 2.3534 0.0017533
-185.62 5.5322e-08 2.3081e-08 -192.81 -192.81 -1.3516 731.04 0.0013679 -192.81 -192.81 -1.3516 1.3525 1.9174 2122.9 -0.0077498 9276.1 0.20737 2.3112e-08 4.3267e+07 351.52 368.02 5.0561 0.69857 0.88713 144.77 5.7383 2.3808 0.0018007
-184.62 8.1182e-08 3.3487e-08 -190.89 -190.89 -1.3298 730.00 0.0013699 -190.89 -190.89 -1.3298 1.3513 1.9182 2116.1 -0.0077448 8557.8 0.20708 3.3533e-08 2.9821e+07 352.22 368.91 4.9939 0.70253 0.89108 145.51 5.5662 2.4083 0.0018485
-183.62 1.1803e-07 4.8145e-08 -188.97 -188.97 -1.3083 728.96 0.0013718 -188.97 -188.97 -1.3083 1.3501 1.9191 2109.3 -0.0077395 7909.8 0.20678 4.8211e-08 2.0742e+07 352.92 369.81 4.9333 0.70648 0.89504 146.24 5.4011 2.4357 0.0018965
-182.62 1.7009e-07 6.8610e-08 -187.05 -187.05 -1.2869 727.92 0.0013738 -187.05 -187.05 -1.2869 1.3490 1.9201 2102.5 -0.0077340 7324.3 0.20647 6.8704e-08 1.4555e+07 353.63 370.70 4.8744 0.71043 0.89899 146.97 5.2426 2.4632 0.0019448
-181.62 2.4299e-07 9.6945e-08 -185.13 -185.13 -1.2658 726.88 0.0013757 -185.13 -185.13 -1.2658 1.3480 1.9210 2095.7 -0.0077283 6794.5 0.20616 9.7079e-08 1.0301e+07 354.35 371.60 4.8170 0.71438 0.90294 147.69 5.0904 2.4906 0.0019934
-180.62 3.4425e-07 1.3586e-07 -183.21 -183.21 -1.2450 725.85 0.0013777 -183.21 -183.21 -1.2450 1.3470 1.9220 2088.9 -0.0077225 6314.4 0.20584 1.3605e-07 7.3504e+06 355.06 372.51 4.7612 0.71833 0.90688 148.41 4.9442 2.5181 0.0020423
-179.62 4.8378e-07 1.8889e-07 -181.29 -181.29 -1.2243 724.81 0.0013797 -181.29 -181.29 -1.2243 1.3461 1.9231 2082.0 -0.0077164 5878.8 0.20551 1.8915e-07 5.2868e+06 355.78 373.42 4.7068 0.72227 0.91082 149.13 4.8038 2.5456 0.0020915
-178.62 6.7459e-07 2.6060e-07 -179.37 -179.37 -1.2038 723.78 0.0013816 -179.37 -179.37 -1.2038 1.3453 1.9241 2075.2 -0.0077102 5482.9 0.20517 2.6096e-07 3.8320e+06 356.51 374.33 4.6538 0.72620 0.91475 149.84 4.6688 2.5731 0.0021410
-177.62 9.3358e-07 3.5687e-07 -177.44 -177.44 -1.1836 722.75 0.0013836 -177.44 -177.44 -1.1836 1.3445 1.9252 2068.4 -0.0077039 5122.6 0.20483 3.5737e-07 2.7982e+06 357.23 375.25 4.6022 0.73012 0.91867 150.54 4.5390 2.6005 0.0021907
-176.62 1.2826e-06 4.8521e-07 -175.51 -175.51 -1.1635 721.72 0.0013856 -175.52 -175.52 -1.1635 1.3437 1.9263 2061.5 -0.0076973 4794.1 0.20447 4.8588e-07 2.0581e+06 357.97 376.17 4.5519 0.73403 0.92258 151.25 4.4142 2.6280 0.0022408
-175.62 1.7496e-06 6.5510e-07 -173.59 -173.59 -1.1437 720.69 0.0013876 -173.59 -173.59 -1.1437 1.3430 1.9274 2054.7 -0.0076907 4494.3 0.20411 6.5601e-07 1.5244e+06 358.70 377.09 4.5029 0.73792 0.92648 151.95 4.2941 2.6555 0.0022912
-174.62 2.3705e-06 8.7854e-07 -171.66 -171.66 -1.1240 719.66 0.0013895 -171.66 -171.66 -1.1240 1.3423 1.9286 2047.9 -0.0076838 4220.2 0.20375 8.7976e-07 1.1367e+06 359.44 378.02 4.4551 0.74181 0.93036 152.64 4.1784 2.6830 0.0023418
-173.62 3.1903e-06 1.1705e-06 -169.73 -169.73 -1.1045 718.64 0.0013915 -169.73 -169.73 -1.1045 1.3417 1.9298 2041.0 -0.0076769 3969.3 0.20338 1.1721e-06 8.5314e+05 360.19 378.95 4.4085 0.74568 0.93423 153.33 4.0671 2.7105 0.0023928
-172.62 4.2661e-06 1.5497e-06 -167.80 -167.80 -1.0852 717.61 0.0013935 -167.80 -167.80 -1.0852 1.3411 1.9310 2034.2 -0.0076698 3739.3 0.20300 1.5518e-06 6.4441e+05 360.93 379.89 4.3631 0.74953 0.93809 154.02 3.9599 2.7379 0.0024440
-171.62 5.6692e-06 2.0390e-06 -165.87 -165.87 -1.0661 716.58 0.0013955 -165.87 -165.87 -1.0661 1.3405 1.9322 2027.3 -0.0076625 3528.0 0.20261 2.0419e-06 4.8974e+05 361.69 380.83 4.3188 0.75337 0.94193 154.71 3.8566 2.7654 0.0024955
-170.62 7.4884e-06 2.6671e-06 -163.93 -163.93 -1.0471 715.56 0.0013975 -163.94 -163.94 -1.0472 1.3400 1.9334 2020.5 -0.0076552 3333.8 0.20222 2.6708e-06 3.7442e+05 362.44 381.77 4.2755 0.75720 0.94575 155.39 3.7570 2.7929 0.0025473
-169.62 9.8334e-06 3.4684e-06 -162.00 -162.00 -1.0284 714.54 0.0013995 -162.00 -162.00 -1.0284 1.3395 1.9347 2013.6 -0.0076477 3154.9 0.20182 3.4733e-06 2.8791e+05 363.20 382.72 4.2334 0.76100 0.94956 156.07 3.6609 2.8204 0.0025994
-168.62 1.2839e-05 4.4854e-06 -160.06 -160.06 -1.0098 713.52 0.0014015 -160.07 -160.07 -1.0098 1.3390 1.9359 2006.8 -0.0076401 2989.9 0.20141 4.4917e-06 2.2263e+05 363.96 383.67 4.1922 0.76479 0.95335 156.74 3.5683 2.8479 0.0026518
-167.62 1.6672e-05 5.7690e-06 -158.13 -158.13 -0.99131 712.49 0.0014035 -158.13 -158.13 -0.99134 1.3386 1.9372 2000.0 -0.0076323 2837.5 0.20100 5.7771e-06 1.7310e+05 364.73 384.63 4.1521 0.76856 0.95712 157.41 3.4790 2.8754 0.0027045
-166.62 2.1533e-05 7.3810e-06 -156.19 -156.19 -0.97302 711.47 0.0014055 -156.19 -156.19 -0.97306 1.3382 1.9385 1993.1 -0.0076245 2696.5 0.20058 7.3914e-06 1.3529e+05 365.50 385.59 4.1129 0.77232 0.96087 158.08 3.3927 2.9029 0.0027575
-165.62 2.7666e-05 9.3952e-06 -154.25 -154.25 -0.95490 710.45 0.0014075 -154.25 -154.25 -0.95494 1.3378 1.9398 1986.3 -0.0076165 2566.0 0.20016 9.4084e-06 1.0629e+05 366.27 386.55 4.0746 0.77605 0.96460 158.75 3.3095 2.9304 0.0028108
-164.62 3.5367e-05 1.1900e-05 -152.31 -152.31 -0.93692 709.44 0.0014096 -152.31 -152.31 -0.93698 1.3375 1.9411 1979.4 -0.0076084 2444.9 0.19973 1.1916e-05 83918. 367.05 387.52 4.0372 0.77976 0.96832 159.41 3.2291 2.9579 0.0028643
-163.62 4.4989e-05 1.4999e-05 -150.36 -150.36 -0.91910 708.42 0.0014116 -150.37 -150.37 -0.91917 1.3371 1.9424 1972.6 -0.0076002 2332.3 0.19930 1.5020e-05 66577. 367.83 388.49 4.0008 0.78346 0.97201 160.07 3.1514 2.9854 0.0029182
-162.62 5.6956e-05 1.8817e-05 -148.42 -148.42 -0.90142 707.40 0.0014136 -148.43 -148.43 -0.90151 1.3368 1.9437 1965.8 -0.0075919 2227.7 0.19886 1.8844e-05 53068. 368.62 389.46 3.9651 0.78713 0.97569 160.72 3.0764 3.0129 0.0029723
-161.62 7.1773e-05 2.3499e-05 -146.47 -146.47 -0.88388 706.38 0.0014157 -146.48 -146.48 -0.88400 1.3365 1.9451 1959.0 -0.0075834 2130.2 0.19841 2.3533e-05 42494. 369.41 390.44 3.9304 0.79079 0.97935 161.38 3.0038 3.0404 0.0030268
-160.62 9.0036e-05 2.9217e-05 -144.52 -144.52 -0.86649 705.37 0.0014177 -144.54 -144.54 -0.86663 1.3363 1.9465 1952.1 -0.0075748 2039.2 0.19796 2.9258e-05 34178. 370.20 391.42 3.8964 0.79443 0.98298 162.03 2.9337 3.0679 0.0030815
-159.62 0.00011245 3.6169e-05 -142.57 -142.57 -0.84923 704.35 0.0014197 -142.59 -142.59 -0.84940 1.3360 1.9478 1945.3 -0.0075661 1954.2 0.19751 3.6221e-05 27609. 371.00 392.40 3.8632 0.79805 0.98660 162.68 2.8658 3.0955 0.0031365
-158.62 0.00013985 4.4589e-05 -140.62 -140.62 -0.83210 703.34 0.0014218 -140.64 -140.64 -0.83231 1.3358 1.9492 1938.5 -0.0075573 1874.8 0.19705 4.4652e-05 22395. 371.80 393.39 3.8307 0.80164 0.99020 163.32 2.8002 3.1230 0.0031918
-157.62 0.00017320 5.4744e-05 -138.66 -138.66 -0.81511 702.32 0.0014238 -138.69 -138.69 -0.81536 1.3356 1.9506 1931.7 -0.0075484 1800.3 0.19658 5.4822e-05 18241. 372.60 394.38 3.7990 0.80522 0.99378 163.96 2.7367 3.1505 0.0032474
-156.62 0.00021364 6.6945e-05 -136.71 -136.71 -0.79824 701.31 0.0014259 -136.74 -136.74 -0.79854 1.3354 1.9520 1924.9 -0.0075393 1730.5 0.19611 6.7040e-05 14916. 373.41 395.38 3.7680 0.80878 0.99734 164.60 2.6752 3.1780 0.0033033
-155.62 0.00026248 8.1550e-05 -134.75 -134.75 -0.78149 700.30 0.0014280 -134.79 -134.79 -0.78185 1.3352 1.9534 1918.1 -0.0075302 1664.9 0.19564 8.1666e-05 12245. 374.22 396.38 3.7377 0.81232 1.0009 165.24 2.6157 3.2055 0.0033595
-154.62 0.00032125 9.8968e-05 -132.78 -132.78 -0.76486 699.29 0.0014300 -132.83 -132.83 -0.76530 1.3350 1.9548 1911.3 -0.0075209 1603.3 0.19516 9.9109e-05 10090. 375.03 397.38 3.7081 0.81585 1.0044 165.87 2.5580 3.2330 0.0034160
-153.62 0.00039171 0.00011967 -130.82 -130.82 -0.74834 698.27 0.0014321 -130.88 -130.88 -0.74887 1.3349 1.9563 1904.5 -0.0075114 1545.3 0.19468 0.00011984 8344.6 375.85 398.39 3.6792 0.81935 1.0079 166.50 2.5022 3.2606 0.0034727
-152.62 0.00047590 0.00014418 -128.85 -128.85 -0.73193 697.26 0.0014342 -128.92 -128.92 -0.73256 1.3348 1.9577 1897.8 -0.0075019 1490.6 0.19419 0.00014439 6925.9 376.67 399.40 3.6509 0.82284 1.0114 167.13 2.4481 3.2881 0.0035298
-151.62 0.00057613 0.00017311 -126.88 -126.87 -0.71563 696.25 0.0014363 -126.96 -126.96 -0.71638 1.3346 1.9592 1891.0 -0.0074922 1438.9 0.19370 0.00017336 5768.4 377.49 400.41 3.6232 0.82631 1.0149 167.76 2.3957 3.3156 0.0035872
-150.62 0.00069507 0.00020714 -124.90 -124.89 -0.69943 695.24 0.0014384 -125.00 -125.00 -0.70032 1.3345 1.9606 1884.2 -0.0074824 1390.2 0.19320 0.00020744 4820.7 378.32 401.42 3.5962 0.82976 1.0183 168.38 2.3448 3.3431 0.0036448
-149.62 0.00083574 0.00024705 -122.92 -122.91 -0.68332 694.23 0.0014404 -123.04 -123.04 -0.68438 1.3345 1.9621 1877.4 -0.0074724 1344.0 0.19270 0.00024740 4042.0 379.15 402.44 3.5697 0.83319 1.0218 169.00 2.2956 3.3706 0.0037027
-148.62 0.0010016 0.00029369 -120.93 -120.93 -0.66731 693.22 0.0014425 -121.08 -121.08 -0.66855 1.3344 1.9636 1870.7 -0.0074623 1300.3 0.19220 0.00029412 3400.0 379.99 403.47 3.5438 0.83661 1.0252 169.62 2.2478 3.3982 0.0037610
-147.62 0.0011965 0.00034805 -118.94 -118.93 -0.65139 692.21 0.0014447 -119.11 -119.11 -0.65284 1.3343 1.9651 1863.9 -0.0074521 1258.9 0.19169 0.00034856 2869.0 380.83 404.49 3.5185 0.84001 1.0286 170.24 2.2014 3.4257 0.0038195
-146.62 0.0014249 0.00041122 -116.94 -116.93 -0.63554 691.20 0.0014468 -117.15 -117.15 -0.63724 1.3343 1.9666 1857.2 -0.0074417 1219.6 0.19117 0.00041181 2428.3 381.67 405.52 3.4938 0.84340 1.0320 170.85 2.1565 3.4532 0.0038783
-145.62 0.0016917 0.00048439 -114.94 -114.93 -0.61977 690.19 0.0014489 -115.18 -115.18 -0.62175 1.3343 1.9682 1850.4 -0.0074312 1182.3 0.19066 0.00048510 2061.4 382.51 406.56 3.4695 0.84677 1.0353 171.46 2.1128 3.4807 0.0039374
-144.62 0.0020026 0.00056894 -112.93 -112.92 -0.60407 689.18 0.0014510 -113.21 -113.21 -0.60637 1.3343 1.9697 1843.7 -0.0074206 1146.8 0.19014 0.00056976 1755.1 383.36 407.59 3.4458 0.85012 1.0387 172.07 2.0705 3.5082 0.0039967
-143.62 0.0023637 0.00066634 -110.91 -110.90 -0.58842 688.17 0.0014531 -111.24 -111.24 -0.59110 1.3343 1.9713 1836.9 -0.0074098 1113.0 0.18962 0.00066731 1498.6 384.21 408.63 3.4226 0.85346 1.0420 172.68 2.0294 3.5358 0.0040564
-142.62 0.0027820 0.00077826 -108.89 -108.87 -0.57284 687.16 0.0014553 -109.27 -109.27 -0.57593 1.3343 1.9728 1830.2 -0.0073988 1080.8 0.18909 0.00077939 1283.1 385.07 409.68 3.3999 0.85679 1.0454 173.28 1.9896 3.5633 0.0041164
-141.62 0.0032653 0.00090652 -106.85 -106.83 -0.55730 686.15 0.0014574 -107.30 -107.30 -0.56087 1.3343 1.9744 1823.5 -0.0073878 1050.1 0.18856 0.00090784 1101.5 385.93 410.72 3.3777 0.86011 1.0487 173.88 1.9508 3.5908 0.0041766
-140.62 0.0038222 0.0010531 -104.80 -104.78 -0.54180 685.14 0.0014596 -105.32 -105.32 -0.54591 1.3344 1.9760 1816.7 -0.0073765 1020.7 0.18803 0.0010547 948.16 386.79 411.77 3.3560 0.86341 1.0520 174.48 1.9133 3.6183 0.0042372
-139.62 0.0044623 0.0012203 -102.75 -102.71 -0.52633 684.13 0.0014617 -103.34 -103.34 -0.53105 1.3344 1.9776 1810.0 -0.0073651 992.74 0.18749 0.0012221 818.26 387.65 412.83 3.3347 0.86670 1.0553 175.08 1.8768 3.6459 0.0042980
-138.62 0.0051963 0.0014105 -100.68 -100.64 -0.51088 683.12 0.0014639 -101.37 -101.37 -0.51629 1.3345 1.9792 1803.3 -0.0073536 965.97 0.18695 0.0014125 707.94 388.52 413.88 3.3139 0.86998 1.0586 175.67 1.8413 3.6734 0.0043592
-137.62 0.0060358 0.0016263 -98.591 -98.550 -0.49545 682.11 0.0014660 -99.386 -99.386 -0.50162 1.3346 1.9808 1796.6 -0.0073419 940.35 0.18641 0.0016287 614.00 389.39 414.94 3.2935 0.87325 1.0619 176.26 1.8069 3.7009 0.0044206
-136.62 0.0069938 0.0018706 -96.492 -96.444 -0.48002 681.10 0.0014682 -97.404 -97.404 -0.48705 1.3347 1.9825 1789.9 -0.0073301 915.81 0.18586 0.0018733 533.80 390.26 416.00 3.2735 0.87650 1.0651 176.85 1.7734 3.7284 0.0044823
-135.62 0.0080843 0.0021466 -94.377 -94.321 -0.46458 680.09 0.0014704 -95.421 -95.421 -0.47258 1.3348 1.9841 1783.2 -0.0073180 892.30 0.18531 0.0021497 465.17 391.14 417.07 3.2540 0.87975 1.0684 177.44 1.7409 3.7559 0.0045443
-134.62 0.0093230 0.0024577 -92.243 -92.179 -0.44912 679.08 0.0014726 -93.436 -93.436 -0.45820 1.3350 1.9858 1776.5 -0.0073059 869.75 0.18476 0.0024613 406.30 392.02 418.14 3.2348 0.88299 1.0716 178.02 1.7093 3.7834 0.0046066
-133.62 0.010727 0.0028075 -90.090 -90.016 -0.43363 678.07 0.0014748 -91.450 -91.449 -0.44391 1.3351 1.9875 1769.8 -0.0072935 848.11 0.18421 0.0028116 355.67 392.91 419.21 3.2161 0.88622 1.0749 178.61 1.6786 3.8109 0.0046691
-132.62 0.012315 0.0032001 -87.915 -87.830 -0.41810 677.06 0.0014770 -89.461 -89.461 -0.42971 1.3353 1.9892 1763.1 -0.0072810 827.32 0.18365 0.0032049 312.03 393.79 420.29 3.1977 0.88944 1.0781 179.19 1.6488 3.8385 0.0047320
-131.62 0.014106 0.0036399 -85.716 -85.619 -0.40251 676.04 0.0014792 -87.471 -87.471 -0.41560 1.3354 1.9909 1756.4 -0.0072684 807.34 0.18309 0.0036453 274.33 394.68 421.36 3.1798 0.89266 1.0813 179.76 1.6197 3.8660 0.0047951
-130.62 0.016124 0.0041314 -83.492 -83.381 -0.38685 675.03 0.0014814 -85.479 -85.479 -0.40157 1.3356 1.9926 1749.7 -0.0072555 788.12 0.18253 0.0041375 241.69 395.58 422.44 3.1622 0.89586 1.0846 180.34 1.5915 3.8935 0.0048586
-129.62 0.018392 0.0046798 -81.240 -81.113 -0.37110 674.02 0.0014836 -83.486 -83.486 -0.38763 1.3358 1.9944 1743.0 -0.0072425 769.63 0.18196 0.0046867 213.37 396.47 423.53 3.1450 0.89906 1.0878 180.91 1.5641 3.9210 0.0049223
-128.62 0.020935 0.0052903 -78.957 -78.813 -0.35526 673.01 0.0014859 -81.491 -81.490 -0.37378 1.3360 1.9961 1736.3 -0.0072294 751.83 0.18140 0.0052981 188.75 397.37 424.62 3.1281 0.90226 1.0910 181.48 1.5374 3.9485 0.0049863
-127.62 0.023783 0.0059688 -76.642 -76.478 -0.33929 672.00 0.0014881 -79.494 -79.493 -0.36001 1.3363 1.9979 1729.6 -0.0072160 734.67 0.18083 0.0059776 167.29 398.27 425.71 3.1116 0.90545 1.0942 182.05 1.5114 3.9760 0.0050506
-126.62 0.026966 0.0067214 -74.291 -74.105 -0.32319 670.98 0.0014904 -77.495 -77.495 -0.34632 1.3365 1.9997 1722.9 -0.0072025 718.14 0.18025 0.0067313 148.56 399.18 426.80 3.0954 0.90863 1.0974 182.62 1.4861 4.0035 0.0051152
-125.62 0.030515 0.0075548 -71.901 -71.691 -0.30694 669.97 0.0014926 -75.494 -75.494 -0.33272 1.3368 2.0015 1716.2 -0.0071888 702.18 0.17968 0.0075660 132.17 400.09 427.89 3.0795 0.91181 1.1006 183.18 1.4615 4.0310 0.0051800
-124.62 0.034467 0.0084759 -69.470 -69.233 -0.29051 668.95 0.0014949 -73.492 -73.492 -0.31919 1.3371 2.0033 1709.5 -0.0071749 686.79 0.17910 0.0084885 117.81 401.00 428.99 3.0640 0.91499 1.1038 183.74 1.4375 4.0584 0.0052452
-123.62 0.038859 0.0094924 -66.994 -66.726 -0.27390 667.94 0.0014971 -71.488 -71.487 -0.30574 1.3374 2.0051 1702.8 -0.0071609 671.93 0.17852 0.0095065 105.19 401.91 430.10 3.0488 0.91816 1.1070 184.30 1.4141 4.0859 0.0053106
-122.62 0.043731 0.010612 -64.469 -64.168 -0.25707 666.92 0.0014994 -69.482 -69.481 -0.29237 1.3377 2.0070 1696.2 -0.0071466 657.57 0.17794 0.010628 94.092 402.83 431.20 3.0339 0.92134 1.1102 184.86 1.3913 4.1134 0.0053764
-121.62 0.049128 0.011844 -61.893 -61.554 -0.24001 665.91 0.0015017 -67.474 -67.473 -0.27907 1.3380 2.0089 1689.5 -0.0071322 643.70 0.17736 0.011861 84.309 403.75 432.31 3.0193 0.92451 1.1134 185.41 1.3691 4.1409 0.0054424
-120.62 0.055096 0.013196 -59.260 -58.880 -0.22269 664.89 0.0015040 -65.464 -65.463 -0.26585 1.3384 2.0107 1682.8 -0.0071176 630.28 0.17678 0.013215 75.669 404.67 433.42 3.0050 0.92767 1.1166 185.96 1.3475 4.1683 0.0055087
-119.62 0.061684 0.014678 -56.567 -56.142 -0.20510 663.87 0.0015063 -63.452 -63.452 -0.25271 1.3387 2.0126 1676.1 -0.0071028 617.30 0.17619 0.014700 68.027 405.60 434.53 2.9909 0.93084 1.1198 186.51 1.3264 4.1958 0.0055752
-118.62 0.068946 0.016301 -53.810 -53.335 -0.18720 662.86 0.0015086 -61.439 -61.438 -0.23963 1.3391 2.0146 1669.4 -0.0070878 604.74 0.17560 0.016325 61.255 406.53 435.64 2.9772 0.93401 1.1231 187.06 1.3058 4.2233 0.0056421
-117.62 0.076937 0.018074 -50.985 -50.454 -0.16897 661.84 0.0015109 -59.423 -59.422 -0.22663 1.3395 2.0165 1662.8 -0.0070726 592.58 0.17501 0.018101 55.245 407.46 436.76 2.9638 0.93718 1.1263 187.60 1.2857 4.2507 0.0057092
-116.62 0.085718 0.020010 -48.085 -47.494 -0.15038 660.82 0.0015133 -57.406 -57.405 -0.21370 1.3400 2.0184 1656.1 -0.0070573 580.80 0.17442 0.020040 49.901 408.39 437.88 2.9506 0.94035 1.1295 188.14 1.2660 4.2782 0.0057767
-115.62 0.095353 0.022119 -45.107 -44.450 -0.13142 659.80 0.0015156 -55.386 -55.385 -0.20084 1.3404 2.0204 1649.4 -0.0070417 569.38 0.17383 0.022152 45.142 409.33 439.01 2.9377 0.94352 1.1327 188.68 1.2468 4.3056 0.0058444
-114.62 0.10591 0.024415 -42.045 -41.315 -0.11205 658.78 0.0015180 -53.365 -53.364 -0.18805 1.3409 2.0224 1642.7 -0.0070260 558.32 0.17323 0.024451 40.898 410.27 440.13 2.9250 0.94669 1.1360 189.22 1.2281 4.3330 0.0059123
-113.62 0.11746 0.026910 -38.894 -38.085 -0.092231 657.76 0.0015203 -51.342 -51.340 -0.17533 1.3413 2.0244 1636.0 -0.0070100 547.59 0.17264 0.026949 37.107 411.21 441.26 2.9126 0.94987 1.1392 189.75 1.2097 4.3604 0.0059806
-112.62 0.13008 0.029617 -35.649 -34.752 -0.071949 656.73 0.0015227 -49.316 -49.315 -0.16267 1.3418 2.0264 1629.3 -0.0069938 537.18 0.17204 0.029661 33.715 412.16 442.39 2.9005 0.95305 1.1424 190.28 1.1918 4.3879 0.0060491
-111.62 0.14384 0.032551 -32.302 -31.311 -0.051167 655.71 0.0015251 -47.289 -47.287 -0.15008 1.3424 2.0285 1622.7 -0.0069774 527.08 0.17144 0.032600 30.675 413.10 443.53 2.8885 0.95623 1.1457 190.81 1.1742 4.4153 0.0061180
-110.62 0.15884 0.035728 -28.849 -27.754 -0.029854 654.69 0.0015274 -45.259 -45.258 -0.13755 1.3429 2.0305 1616.0 -0.0069609 517.28 0.17084 0.035781 27.948 414.06 444.66 2.8769 0.95942 1.1490 191.34 1.1570 4.4427 0.0061871
-109.62 0.17516 0.039162 -25.282 -24.075 -0.0079762 653.66 0.0015298 -43.228 -43.226 -0.12509 1.3435 2.0326 1609.3 -0.0069441 507.76 0.17024 0.039220 25.497 415.01 445.80 2.8654 0.96261 1.1522 191.86 1.1402 4.4701 0.0062564
-108.62 0.19290 0.042870 -21.596 -20.266 0.014499 652.64 0.0015322 -41.194 -41.192 -0.11269 1.3441 2.0347 1602.6 -0.0069271 498.51 0.16964 0.042933 23.292 415.96 446.94 2.8542 0.96581 1.1555 192.38 1.1236 4.4974 0.0063261
-107.62 0.21215 0.046868 -17.783 -16.320 0.037606 651.61 0.0015347 -39.158 -39.156 -0.10036 1.3447 2.0369 1595.9 -0.0069098 489.52 0.16903 0.046937 21.305 416.92 448.09 2.8433 0.96901 1.1588 192.90 1.1075 4.5248 0.0063960
-106.62 0.23301 0.051176 -13.835 -12.229 0.061380 650.58 0.0015371 -37.120 -37.118 -0.088082 1.3453 2.0390 1589.2 -0.0068924 480.79 0.16843 0.051250 19.512 417.88 449.23 2.8325 0.97222 1.1621 193.41 1.0916 4.5522 0.0064662
-105.62 0.25561 0.055810 -9.7469 -7.9846 0.085858 649.55 0.0015395 -35.080 -35.078 -0.075868 1.3460 2.0412 1582.6 -0.0068747 472.30 0.16782 0.055891 17.892 418.85 450.38 2.8220 0.97544 1.1655 193.93 1.0760 4.5795 0.0065367
-104.62 0.28004 0.060790 -5.5095 -3.5787 0.11108 648.52 0.0015420 -33.038 -33.035 -0.063714 1.3467 2.0434 1575.9 -0.0068569 464.04 0.16721 0.060878 16.426 419.81 451.53 2.8116 0.97867 1.1688 194.44 1.0608 4.6069 0.0066074
-103.62 0.30643 0.066136 -1.1153 0.99741 0.13707 647.49 0.0015444 -30.994 -30.991 -0.051619 1.3474 2.0456 1569.2 -0.0068387 456.00 0.16660 0.066231 15.099 420.78 452.68 2.8015 0.98191 1.1722 194.94 1.0458 4.6342 0.0066785
-102.62 0.33490 0.071868 3.4438 5.7528 0.16389 646.46 0.0015469 -28.947 -28.944 -0.039582 1.3481 2.0478 1562.5 -0.0068204 448.18 0.16600 0.071971 13.894 421.75 453.84 2.7916 0.98516 1.1755 195.44 1.0310 4.6615 0.0067498
-101.62 0.36558 0.078008 8.1762 10.697 0.19156 645.43 0.0015494 -26.898 -26.894 -0.027602 1.3489 2.0501 1555.8 -0.0068018 440.57 0.16539 0.078120 12.801 422.73 454.99 2.7818 0.98841 1.1789 195.95 1.0166 4.6888 0.0068213
-100.62 0.39862 0.084578 13.091 15.839 0.22012 644.39 0.0015519 -24.847 -24.843 -0.015678 1.3497 2.0524 1549.1 -0.0067830 433.16 0.16478 0.084699 11.807 423.70 456.15 2.7723 0.99168 1.1823 196.44 1.0024 4.7161 0.0068932
-99.625 0.43414 0.091601 18.196 21.189 0.24963 643.36 0.0015544 -22.794 -22.789 -0.0038103 1.3505 2.0547 1542.4 -0.0067639 425.95 0.16416 0.091731 10.901 424.68 457.31 2.7630 0.99496 1.1858 196.94 0.98838 4.7434 0.0069653
-98.625 0.47230 0.099101 23.501 26.757 0.28011 642.32 0.0015569 -20.738 -20.733 0.0080027 1.3514 2.0570 1535.7 -0.0067447 418.92 0.16355 0.099240 10.077 425.66 458.48 2.7538 0.99825 1.1892 197.43 0.97464 4.7707 0.0070377
-97.625 0.51325 0.10710 29.015 32.554 0.31162 641.28 0.0015594 -18.680 -18.674 0.019762 1.3522 2.0594 1529.0 -0.0067251 412.07 0.16294 0.10725 9.3239 426.65 459.64 2.7448 1.0016 1.1927 197.92 0.96112 4.7979 0.0071103
-96.625 0.55714 0.11563 34.748 38.590 0.34419 640.24 0.0015619 -16.620 -16.614 0.031467 1.3531 2.0618 1522.3 -0.0067053 405.39 0.16233 0.11579 8.6365 427.63 460.81 2.7360 1.0049 1.1962 198.40 0.94783 4.8251 0.0071832
-95.625 0.60416 0.12471 40.710 44.876 0.37787 639.20 0.0015645 -14.557 -14.550 0.043120 1.3540 2.0642 1515.7 -0.0066853 398.88 0.16171 0.12488 8.0078 428.62 461.98 2.7274 1.0082 1.1997 198.88 0.93475 4.8524 0.0072564
-94.625 0.65446 0.13436 46.911 51.424 0.41270 638.16 0.0015670 -12.491 -12.484 0.054721 1.3550 2.0667 1509.0 -0.0066650 392.53 0.16110 0.13455 7.4323 429.61 463.15 2.7189 1.0116 1.2032 199.36 0.92188 4.8796 0.0073299
-93.625 0.70822 0.14463 53.361 58.244 0.44873 637.12 0.0015696 -10.424 -10.416 0.066271 1.3560 2.0691 1502.3 -0.0066444 386.34 0.16048 0.14482 6.9050 430.60 464.32 2.7107 1.0149 1.2068 199.83 0.90921 4.9068 0.0074036
-92.625 0.76564 0.15553 60.071 65.350 0.48600 636.07 0.0015722 -8.3535 -8.3452 0.077771 1.3570 2.0716 1495.6 -0.0066236 380.31 0.15987 0.15573 6.4212 431.60 465.49 2.7025 1.0183 1.2104 200.30 0.89673 4.9340 0.0074776
-91.625 0.82689 0.16709 67.051 72.752 0.52455 635.02 0.0015747 -6.2808 -6.2719 0.089220 1.3580 2.0742 1488.9 -0.0066025 374.41 0.15925 0.16731 5.9769 432.59 466.67 2.6946 1.0217 1.2140 200.77 0.88445 4.9611 0.0075518
-90.625 0.89218 0.17935 74.312 80.464 0.56445 633.98 0.0015773 -4.2056 -4.1959 0.10062 1.3591 2.0767 1482.2 -0.0065811 368.66 0.15864 0.17958 5.5685 433.59 467.84 2.6868 1.0251 1.2177 201.24 0.87236 4.9883 0.0076263
-89.625 0.96172 0.19233 81.867 88.497 0.60572 632.93 0.0015800 -2.1279 -2.1174 0.11197 1.3602 2.0793 1475.5 -0.0065595 363.05 0.15802 0.19258 5.1928 434.59 469.02 2.6791 1.0285 1.2213 201.70 0.86045 5.0154 0.0077011
-88.625 1.0357 0.20607 89.725 96.866 0.64842 631.88 0.0015826 -0.047516 -0.036215 0.12328 1.3613 2.0819 1468.8 -0.0065375 357.56 0.15740 0.20633 4.8466 435.59 470.20 2.6717 1.0320 1.2250 202.15 0.84873 5.0425 0.0077761
-87.625 1.1144 0.22060 97.898 105.58 0.69260 630.83 0.0015852 2.0355 2.0476 0.13454 1.3625 2.0846 1462.1 -0.0065153 352.21 0.15679 0.22087 4.5276 436.60 471.39 2.6643 1.0354 1.2288 202.61 0.83718 5.0696 0.0078514
-86.625 1.1979 0.23595 106.40 114.66 0.73830 629.77 0.0015879 4.1211 4.1342 0.14575 1.3637 2.0873 1455.4 -0.0064928 346.98 0.15617 0.23623 4.2331 437.61 472.57 2.6571 1.0389 1.2325 203.06 0.82580 5.0967 0.0079270
-85.625 1.2866 0.25215 115.24 124.11 0.78557 628.72 0.0015905 6.2094 6.2235 0.15691 1.3649 2.0900 1448.8 -0.0064701 341.87 0.15555 0.25245 3.9612 438.61 473.75 2.6501 1.0424 1.2363 203.50 0.81460 5.1237 0.0080028
-84.625 1.3806 0.26925 124.43 133.95 0.83446 627.66 0.0015932 8.3004 8.3155 0.16803 1.3661 2.0927 1442.1 -0.0064470 336.87 0.15494 0.26956 3.7097 439.63 474.94 2.6432 1.0460 1.2402 203.95 0.80356 5.1508 0.0080789
-83.625 1.4803 0.28727 133.99 144.20 0.88501 626.60 0.0015959 10.394 10.410 0.17911 1.3674 2.0955 1435.4 -0.0064236 331.99 0.15432 0.28760 3.4771 440.64 476.13 2.6364 1.0495 1.2440 204.38 0.79269 5.1778 0.0081553
-82.625 1.5858 0.30625 143.92 154.86 0.93729 625.54 0.0015986 12.491 12.508 0.19014 1.3687 2.0983 1428.7 -0.0063999 327.22 0.15370 0.30659 3.2616 441.65 477.31 2.6298 1.0531 1.2479 204.82 0.78199 5.2048 0.0082319
-81.625 1.6975 0.32624 154.25 165.95 0.99133 624.48 0.0016013 14.590 14.609 0.20113 1.3700 2.1012 1422.0 -0.0063759 322.55 0.15309 0.32659 3.0619 442.67 478.50 2.6233 1.0567 1.2519 205.25 0.77144 5.2318 0.0083088
-80.625 1.8155 0.34726 164.97 177.49 1.0472 623.42 0.0016041 16.692 16.712 0.21208 1.3714 2.1041 1415.4 -0.0063516 317.99 0.15247 0.34763 2.8766 443.69 479.70 2.6169 1.0603 1.2558 205.67 0.76106 5.2587 0.0083860
-79.625 1.9402 0.36936 176.11 189.49 1.1049 622.36 0.0016068 18.797 18.819 0.22299 1.3728 2.1070 1408.7 -0.0063270 313.52 0.15186 0.36974 2.7046 444.71 480.89 2.6106 1.0639 1.2598 206.10 0.75083 5.2857 0.0084634
-78.625 2.0718 0.39258 187.68 201.97 1.1645 621.29 0.0016096 20.905 20.928 0.23385 1.3742 2.1099 1402.0 -0.0063021 309.15 0.15124 0.39296 2.5448 445.73 482.08 2.6045 1.0676 1.2639 206.51 0.74076 5.3126 0.0085411
-77.625 2.2107 0.41695 199.69 214.94 1.2261 620.22 0.0016123 23.016 23.040 0.24468 1.3757 2.1129 1395.3 -0.0062768 304.88 0.15062 0.41735 2.3961 446.75 483.27 2.5985 1.0712 1.2680 206.93 0.73084 5.3395 0.0086190
-76.625 2.3571 0.44252 212.16 228.41 1.2897 619.15 0.0016151 25.130 25.156 0.25546 1.3772 2.1159 1388.7 -0.0062512 300.69 0.15001 0.44292 2.2577 447.78 484.47 2.5926 1.0749 1.2721 207.34 0.72107 5.3664 0.0086972
-75.625 2.5113 0.46934 225.10 242.41 1.3554 618.08 0.0016179 27.247 27.275 0.26620 1.3787 2.1190 1382.0 -0.0062253 296.59 0.14939 0.46974 2.1288 448.81 485.67 2.5869 1.0787 1.2762 207.74 0.71146 5.3933 0.0087757
-74.625 2.6736 0.49743 238.52 256.95 1.4231 617.01 0.0016207 29.366 29.396 0.27691 1.3802 2.1221 1375.4 -0.0061990 292.58 0.14878 0.49783 2.0087 449.83 486.86 2.5812 1.0824 1.2804 208.14 0.70200 5.4201 0.0088544
-73.625 2.8444 0.52685 252.44 272.05 1.4931 615.93 0.0016236 31.489 31.521 0.28758 1.3818 2.1252 1368.7 -0.0061724 288.65 0.14816 0.52725 1.8966 450.86 488.06 2.5757 1.0862 1.2847 208.54 0.69268 5.4469 0.0089334
-72.625 3.0240 0.55764 266.87 287.72 1.5652 614.85 0.0016264 33.615 33.649 0.29821 1.3834 2.1284 1362.0 -0.0061454 284.81 0.14755 0.55804 1.7920 451.90 489.26 2.5703 1.0900 1.2889 208.93 0.68351 5.4737 0.0090126
-71.625 3.2127 0.58985 281.82 303.97 1.6396 613.78 0.0016293 35.745 35.781 0.30880 1.3851 2.1316 1355.4 -0.0061181 281.03 0.14694 0.59024 1.6942 452.93 490.46 2.5650 1.0938 1.2932 209.32 0.67448 5.5005 0.0090922
-70.625 3.4108 0.62352 297.31 320.83 1.7163 612.69 0.0016321 37.877 37.915 0.31935 1.3867 2.1349 1348.7 -0.0060904 277.34 0.14632 0.62390 1.6028 453.96 491.66 2.5598 1.0976 1.2976 209.70 0.66560 5.5273 0.0091720
-69.625 3.6187 0.65869 313.36 338.31 1.7953 611.61 0.0016350 40.013 40.053 0.32987 1.3884 2.1382 1342.1 -0.0060624 273.72 0.14571 0.65906 1.5173 455.00 492.86 2.5547 1.1015 1.3020 210.08 0.65687 5.5540 0.0092520
-68.625 3.8367 0.69543 329.98 356.43 1.8768 610.53 0.0016379 42.152 42.195 0.34036 1.3902 2.1415 1335.5 -0.0060339 270.17 0.14510 0.69577 1.4372 456.04 494.06 2.5497 1.1054 1.3064 210.45 0.64827 5.5807 0.0093324
-67.625 4.0652 0.73376 347.18 375.21 1.9607 609.44 0.0016409 44.294 44.340 0.35080 1.3919 2.1449 1328.8 -0.0060051 266.69 0.14449 0.73408 1.3622 457.08 495.26 2.5448 1.1093 1.3109 210.82 0.63981 5.6074 0.0094130
-66.625 4.3046 0.77375 364.98 394.66 2.0471 608.35 0.0016438 46.439 46.488 0.36122 1.3937 2.1483 1322.2 -0.0059760 263.28 0.14388 0.77404 1.2919 458.12 496.46 2.5400 1.1133 1.3154 211.18 0.63150 5.6341 0.0094939
-65.625 4.5551 0.81545 383.39 414.80 2.1360 607.26 0.0016467 48.588 48.640 0.37160 1.3955 2.1518 1315.6 -0.0059464 259.93 0.14327 0.81570 1.2259 459.16 497.67 2.5353 1.1172 1.3200 211.54 0.62332 5.6608 0.0095750
-64.625 4.8173 0.85890 402.43 435.64 2.2275 606.16 0.0016497 50.740 50.795 0.38195 1.3974 2.1553 1308.9 -0.0059164 256.65 0.14266 0.85910 1.1640 460.21 498.87 2.5307 1.1212 1.3246 211.89 0.61527 5.6874 0.0096564
-63.625 5.0915 0.90415 422.11 457.22 2.3217 605.07 0.0016527 52.896 52.954 0.39226 1.3993 2.1588 1302.3 -0.0058861 253.42 0.14205 0.90429 1.1058 461.25 500.07 2.5262 1.1252 1.3293 212.24 0.60736 5.7140 0.0097382
-62.625 5.3781 0.95126 442.45 479.53 2.4185 603.97 0.0016557 55.055 55.117 0.40254 1.4012 2.1624 1295.7 -0.0058553 250.26 0.14144 0.95134 1.0511 462.30 501.28 2.5218 1.1293 1.3340 212.58 0.59958 5.7406 0.0098201
-61.625 5.6758 undefined 463.35 502.48 2.5175 1.0000 1.0000 463.35 502.48 2.5175 1.1333 1.3387 212.92 0.59193 5.7672 0.0099024 1.0000 1.0000 463.35 502.48 2.5175 1.1333 1.3387 212.92 0.59193 5.7672 0.0099024
-60.625 5.7038 undefined 464.48 503.81 2.5229 1.0000 1.0000 464.48 503.81 2.5229 1.1368 1.3420 213.40 0.58373 5.7948 0.0099869 1.0000 1.0000 464.48 503.81 2.5229 1.1368 1.3420 213.40 0.58373 5.7948 0.0099869
-59.625 5.7318 undefined 465.62 505.14 2.5282 1.0000 1.0000 465.62 505.14 2.5282 1.1404 1.3454 213.88 0.57566 5.8223 0.010072 1.0000 1.0000 465.62 505.14 2.5282 1.1404 1.3454 213.88 0.57566 5.8223 0.010072
-58.625 5.7598 undefined 466.76 506.48 2.5336 1.0000 1.0000 466.76 506.48 2.5336 1.1439 1.3487 214.36 0.56772 5.8499 0.010157 1.0000 1.0000 466.76 506.48 2.5336 1.1439 1.3487 214.36 0.56772 5.8499 0.010157
-57.625 5.7877 undefined 467.91 507.81 2.5389 1.0000 1.0000 467.91 507.81 2.5389 1.1475 1.3521 214.84 0.55991 5.8774 0.010242 1.0000 1.0000 467.91 507.81 2.5389 1.1475 1.3521 214.84 0.55991 5.8774 0.010242
-56.625 5.8157 undefined 469.06 509.16 2.5442 1.0000 1.0000 469.06 509.16 2.5442 1.1511 1.3555 215.31 0.55224 5.9049 0.010328 1.0000 1.0000 469.06 509.16 2.5442 1.1511 1.3555 215.31 0.55224 5.9049 0.010328
-55.625 5.8437 undefined 470.21 510.50 2.5495 1.0000 1.0000 470.21 510.50 2.5495 1.1546 1.3589 215.78 0.54469 5.9324 0.010414 1.0000 1.0000 470.21 510.50 2.5495 1.1546 1.3589 215.78 0.54469 5.9324 0.010414
-54.625 5.8716 undefined 471.37 511.85 2.5548 1.0000 1.0000 471.37 511.85 2.5548 1.1582 1.3623 216.26 0.53727 5.9600 0.010500 1.0000 1.0000 471.37 511.85 2.5548 1.1582 1.3623 216.26 0.53727 5.9600 0.010500
-53.625 5.8996 undefined 472.53 513.20 2.5601 1.0000 1.0000 472.53 513.20 2.5601 1.1618 1.3657 216.73 0.52997 5.9875 0.010586 1.0000 1.0000 472.53 513.20 2.5601 1.1618 1.3657 216.73 0.52997 5.9875 0.010586
-52.625 5.9275 undefined 473.69 514.56 2.5654 1.0000 1.0000 473.69 514.56 2.5654 1.1654 1.3691 217.20 0.52279 6.0150 0.010673 1.0000 1.0000 473.69 514.56 2.5654 1.1654 1.3691 217.20 0.52279 6.0150 0.010673
-51.625 5.9554 undefined 474.86 515.92 2.5707 1.0000 1.0000 474.86 515.92 2.5707 1.1690 1.3726 217.66 0.51573 6.0425 0.010760 1.0000 1.0000 474.86 515.92 2.5707 1.1690 1.3726 217.66 0.51573 6.0425 0.010760
-50.625 5.9834 undefined 476.03 517.28 2.5760 1.0000 1.0000 476.03 517.28 2.5760 1.1727 1.3760 218.13 0.50880 6.0700 0.010847 1.0000 1.0000 476.03 517.28 2.5760 1.1727 1.3760 218.13 0.50880 6.0700 0.010847
-49.625 6.0113 undefined 477.20 518.65 2.5813 1.0000 1.0000 477.20 518.65 2.5813 1.1763 1.3795 218.59 0.50197 6.0974 0.010935 1.0000 1.0000 477.20 518.65 2.5813 1.1763 1.3795 218.59 0.50197 6.0974 0.010935
-48.625 6.0392 undefined 478.38 520.02 2.5865 1.0000 1.0000 478.38 520.02 2.5865 1.1799 1.3830 219.06 0.49527 6.1249 0.011023 1.0000 1.0000 478.38 520.02 2.5865 1.1799 1.3830 219.06 0.49527 6.1249 0.011023
-47.625 6.0671 undefined 479.56 521.39 2.5918 1.0000 1.0000 479.56 521.39 2.5918 1.1836 1.3865 219.52 0.48867 6.1524 0.011111 1.0000 1.0000 479.56 521.39 2.5918 1.1836 1.3865 219.52 0.48867 6.1524 0.011111
-46.625 6.0950 undefined 480.75 522.77 2.5970 1.0000 1.0000 480.75 522.77 2.5970 1.1873 1.3900 219.98 0.48219 6.1798 0.011200 1.0000 1.0000 480.75 522.77 2.5970 1.1873 1.3900 219.98 0.48219 6.1798 0.011200
-45.625 6.1229 undefined 481.94 524.15 2.6022 1.0000 1.0000 481.94 524.15 2.6022 1.1910 1.3935 220.44 0.47582 6.2073 0.011289 1.0000 1.0000 481.94 524.15 2.6022 1.1910 1.3935 220.44 0.47582 6.2073 0.011289
-44.625 6.1508 undefined 483.13 525.54 2.6075 1.0000 1.0000 483.13 525.54 2.6075 1.1946 1.3970 220.90 0.46955 6.2347 0.011378 1.0000 1.0000 483.13 525.54 2.6075 1.1946 1.3970 220.90 0.46955 6.2347 0.011378
-43.625 6.1786 undefined 484.33 526.93 2.6127 1.0000 1.0000 484.33 526.93 2.6127 1.1983 1.4006 221.35 0.46339 6.2622 0.011467 1.0000 1.0000 484.33 526.93 2.6127 1.1983 1.4006 221.35 0.46339 6.2622 0.011467
-42.625 6.2065 undefined 485.53 528.32 2.6179 1.0000 1.0000 485.53 528.32 2.6179 1.2021 1.4042 221.81 0.45733 6.2896 0.011557 1.0000 1.0000 485.53 528.32 2.6179 1.2021 1.4042 221.81 0.45733 6.2896 0.011557
-41.625 6.2344 undefined 486.73 529.72 2.6231 1.0000 1.0000 486.73 529.72 2.6231 1.2058 1.4077 222.26 0.45138 6.3170 0.011647 1.0000 1.0000 486.73 529.72 2.6231 1.2058 1.4077 222.26 0.45138 6.3170 0.011647
-40.625 6.2622 undefined 487.94 531.12 2.6283 1.0000 1.0000 487.94 531.12 2.6283 1.2095 1.4113 222.71 0.44552 6.3445 0.011737 1.0000 1.0000 487.94 531.12 2.6283 1.2095 1.4113 222.71 0.44552 6.3445 0.011737
-39.625 6.2901 undefined 489.15 532.52 2.6335 1.0000 1.0000 489.15 532.52 2.6335 1.2133 1.4150 223.17 0.43976 6.3719 0.011828 1.0000 1.0000 489.15 532.52 2.6335 1.2133 1.4150 223.17 0.43976 6.3719 0.011828
-38.625 6.3179 undefined 490.37 533.93 2.6387 1.0000 1.0000 490.37 533.93 2.6387 1.2170 1.4186 223.62 0.43410 6.3993 0.011919 1.0000 1.0000 490.37 533.93 2.6387 1.2170 1.4186 223.62 0.43410 6.3993 0.011919
-37.625 6.3458 undefined 491.58 535.34 2.6439 1.0000 1.0000 491.58 535.34 2.6439 1.2208 1.4222 224.06 0.42854 6.4267 0.012010 1.0000 1.0000 491.58 535.34 2.6439 1.2208 1.4222 224.06 0.42854 6.4267 0.012010
-36.625 6.3736 undefined 492.81 536.75 2.6491 1.0000 1.0000 492.81 536.75 2.6491 1.2246 1.4259 224.51 0.42307 6.4541 0.012101 1.0000 1.0000 492.81 536.75 2.6491 1.2246 1.4259 224.51 0.42307 6.4541 0.012101
-35.625 6.4015 undefined 494.03 538.17 2.6543 1.0000 1.0000 494.03 538.17 2.6543 1.2284 1.4295 224.96 0.41768 6.4814 0.012193 1.0000 1.0000 494.03 538.17 2.6543 1.2284 1.4295 224.96 0.41768 6.4814 0.012193
-34.625 6.4293 undefined 495.26 539.59 2.6594 1.0000 1.0000 495.26 539.59 2.6594 1.2322 1.4332 225.40 0.41239 6.5088 0.012285 1.0000 1.0000 495.26 539.59 2.6594 1.2322 1.4332 225.40 0.41239 6.5088 0.012285
-33.625 6.4571 undefined 496.50 541.02 2.6646 1.0000 1.0000 496.50 541.02 2.6646 1.2360 1.4369 225.85 0.40719 6.5362 0.012377 1.0000 1.0000 496.50 541.02 2.6646 1.2360 1.4369 225.85 0.40719 6.5362 0.012377
-32.625 6.4849 undefined 497.74 542.45 2.6698 1.0000 1.0000 497.74 542.45 2.6698 1.2399 1.4406 226.29 0.40207 6.5635 0.012470 1.0000 1.0000 497.74 542.45 2.6698 1.2399 1.4406 226.29 0.40207 6.5635 0.012470
-31.625 6.5127 undefined 498.98 543.88 2.6749 1.0000 1.0000 498.98 543.88 2.6749 1.2437 1.4443 226.73 0.39704 6.5909 0.012563 1.0000 1.0000 498.98 543.88 2.6749 1.2437 1.4443 226.73 0.39704 6.5909 0.012563
-30.625 6.5406 undefined 500.22 545.32 2.6801 1.0000 1.0000 500.22 545.32 2.6801 1.2476 1.4481 227.17 0.39209 6.6182 0.012656 1.0000 1.0000 500.22 545.32 2.6801 1.2476 1.4481 227.17 0.39209 6.6182 0.012656
-29.625 6.5684 undefined 501.47 546.76 2.6852 1.0000 1.0000 501.47 546.76 2.6852 1.2515 1.4518 227.61 0.38723 6.6455 0.012750 1.0000 1.0000 501.47 546.76 2.6852 1.2515 1.4518 227.61 0.38723 6.6455 0.012750
-28.625 6.5962 undefined 502.73 548.21 2.6903 1.0000 1.0000 502.73 548.21 2.6903 1.2553 1.4556 228.05 0.38244 6.6729 0.012843 1.0000 1.0000 502.73 548.21 2.6903 1.2553 1.4556 228.05 0.38244 6.6729 0.012843
-27.625 6.6239 undefined 503.98 549.65 2.6955 1.0000 1.0000 503.98 549.65 2.6955 1.2592 1.4594 228.48 0.37773 6.7002 0.012937 1.0000 1.0000 503.98 549.65 2.6955 1.2592 1.4594 228.48 0.37773 6.7002 0.012937
-26.625 6.6517 undefined 505.24 551.11 2.7006 1.0000 1.0000 505.24 551.11 2.7006 1.2631 1.4632 228.92 0.37310 6.7275 0.013032 1.0000 1.0000 505.24 551.11 2.7006 1.2631 1.4632 228.92 0.37310 6.7275 0.013032
-25.625 6.6795 undefined 506.51 552.56 2.7057 1.0000 1.0000 506.51 552.56 2.7057 1.2671 1.4670 229.35 0.36855 6.7548 0.013126 1.0000 1.0000 506.51 552.56 2.7057 1.2671 1.4670 229.35 0.36855 6.7548 0.013126
-24.625 6.7073 undefined 507.78 554.02 2.7108 1.0000 1.0000 507.78 554.02 2.7108 1.2710 1.4708 229.79 0.36407 6.7821 0.013221 1.0000 1.0000 507.78 554.02 2.7108 1.2710 1.4708 229.79 0.36407 6.7821 0.013221
-23.625 6.7351 undefined 509.05 555.49 2.7159 1.0000 1.0000 509.05 555.49 2.7159 1.2749 1.4746 230.22 0.35966 6.8094 0.013317 1.0000 1.0000 509.05 555.49 2.7159 1.2749 1.4746 230.22 0.35966 6.8094 0.013317
-22.625 6.7628 undefined 510.33 556.96 2.7210 1.0000 1.0000 510.33 556.96 2.7210 1.2789 1.4785 230.65 0.35532 6.8366 0.013412 1.0000 1.0000 510.33 556.96 2.7210 1.2789 1.4785 230.65 0.35532 6.8366 0.013412
-21.625 6.7906 undefined 511.61 558.43 2.7261 1.0000 1.0000 511.61 558.43 2.7261 1.2829 1.4823 231.08 0.35105 6.8639 0.013508 1.0000 1.0000 511.61 558.43 2.7261 1.2829 1.4823 231.08 0.35105 6.8639 0.013508
-20.625 6.8184 undefined 512.89 559.91 2.7312 1.0000 1.0000 512.89 559.91 2.7312 1.2868 1.4862 231.51 0.34685 6.8911 0.013604 1.0000 1.0000 512.89 559.91 2.7312 1.2868 1.4862 231.51 0.34685 6.8911 0.013604
-19.625 6.8461 undefined 514.18 561.39 2.7363 1.0000 1.0000 514.18 561.39 2.7363 1.2908 1.4901 231.94 0.34272 6.9184 0.013701 1.0000 1.0000 514.18 561.39 2.7363 1.2908 1.4901 231.94 0.34272 6.9184 0.013701
-18.625 6.8739 undefined 515.48 562.87 2.7414 1.0000 1.0000 515.48 562.87 2.7414 1.2948 1.4940 232.36 0.33866 6.9456 0.013797 1.0000 1.0000 515.48 562.87 2.7414 1.2948 1.4940 232.36 0.33866 6.9456 0.013797
-17.625 6.9016 undefined 516.77 564.36 2.7465 1.0000 1.0000 516.77 564.36 2.7465 1.2988 1.4979 232.79 0.33466 6.9729 0.013894 1.0000 1.0000 516.77 564.36 2.7465 1.2988 1.4979 232.79 0.33466 6.9729 0.013894
-16.625 6.9294 undefined 518.07 565.85 2.7516 1.0000 1.0000 518.07 565.85 2.7516 1.3029 1.5018 233.21 0.33072 7.0001 0.013992 1.0000 1.0000 518.07 565.85 2.7516 1.3029 1.5018 233.21 0.33072 7.0001 0.013992
-15.625 6.9571 undefined 519.38 567.35 2.7567 1.0000 1.0000 519.38 567.35 2.7567 1.3069 1.5058 233.64 0.32685 7.0273 0.014089 1.0000 1.0000 519.38 567.35 2.7567 1.3069 1.5058 233.64 0.32685 7.0273 0.014089
-14.625 6.9849 undefined 520.69 568.85 2.7617 1.0000 1.0000 520.69 568.85 2.7617 1.3110 1.5097 234.06 0.32303 7.0545 0.014187 1.0000 1.0000 520.69 568.85 2.7617 1.3110 1.5097 234.06 0.32303 7.0545 0.014187
-13.625 7.0126 undefined 522.00 570.35 2.7668 1.0000 1.0000 522.00 570.35 2.7668 1.3150 1.5137 234.48 0.31928 7.0817 0.014285 1.0000 1.0000 522.00 570.35 2.7668 1.3150 1.5137 234.48 0.31928 7.0817 0.014285
-12.625 7.0403 undefined 523.32 571.86 2.7719 1.0000 1.0000 523.32 571.86 2.7719 1.3191 1.5176 234.90 0.31558 7.1089 0.014384 1.0000 1.0000 523.32 571.86 2.7719 1.3191 1.5176 234.90 0.31558 7.1089 0.014384
-11.625 7.0681 undefined 524.64 573.37 2.7769 1.0000 1.0000 524.64 573.37 2.7769 1.3232 1.5216 235.32 0.31194 7.1361 0.014482 1.0000 1.0000 524.64 573.37 2.7769 1.3232 1.5216 235.32 0.31194 7.1361 0.014482
-10.625 7.0958 undefined 525.96 574.89 2.7820 1.0000 1.0000 525.96 574.89 2.7820 1.3272 1.5256 235.74 0.30836 7.1632 0.014581 1.0000 1.0000 525.96 574.89 2.7820 1.3272 1.5256 235.74 0.30836 7.1632 0.014581
-9.6250 7.1235 undefined 527.29 576.41 2.7871 1.0000 1.0000 527.29 576.41 2.7871 1.3313 1.5296 236.16 0.30484 7.1904 0.014681 1.0000 1.0000 527.29 576.41 2.7871 1.3313 1.5296 236.16 0.30484 7.1904 0.014681
-8.6250 7.1512 undefined 528.63 577.93 2.7921 1.0000 1.0000 528.63 577.93 2.7921 1.3355 1.5337 236.58 0.30136 7.2175 0.014780 1.0000 1.0000 528.63 577.93 2.7921 1.3355 1.5337 236.58 0.30136 7.2175 0.014780
-7.6250 7.1790 undefined 529.96 579.46 2.7971 1.0000 1.0000 529.96 579.46 2.7971 1.3396 1.5377 236.99 0.29795 7.2447 0.014880 1.0000 1.0000 529.96 579.46 2.7971 1.3396 1.5377 236.99 0.29795 7.2447 0.014880
-6.6250 7.2067 undefined 531.31 580.99 2.8022 1.0000 1.0000 531.31 580.99 2.8022 1.3437 1.5418 237.41 0.29458 7.2718 0.014980 1.0000 1.0000 531.31 580.99 2.8022 1.3437 1.5418 237.41 0.29458 7.2718 0.014980
-5.6250 7.2344 undefined 532.65 582.53 2.8072 1.0000 1.0000 532.65 582.53 2.8072 1.3479 1.5458 237.82 0.29126 7.2989 0.015081 1.0000 1.0000 532.65 582.53 2.8072 1.3479 1.5458 237.82 0.29126 7.2989 0.015081
-4.6250 7.2621 undefined 534.00 584.07 2.8123 1.0000 1.0000 534.00 584.07 2.8123 1.3520 1.5499 238.23 0.28800 7.3260 0.015182 1.0000 1.0000 534.00 584.07 2.8123 1.3520 1.5499 238.23 0.28800 7.3260 0.015182
-3.6250 7.2898 undefined 535.36 585.62 2.8173 1.0000 1.0000 535.36 585.62 2.8173 1.3562 1.5540 238.64 0.28478 7.3531 0.015283 1.0000 1.0000 535.36 585.62 2.8173 1.3562 1.5540 238.64 0.28478 7.3531 0.015283
-2.6250 7.3175 undefined 536.71 587.17 2.8223 1.0000 1.0000 536.71 587.17 2.8223 1.3603 1.5580 239.06 0.28161 7.3802 0.015384 1.0000 1.0000 536.71 587.17 2.8223 1.3603 1.5580 239.06 0.28161 7.3802 0.015384
-1.6250 7.3452 undefined 538.08 588.72 2.8274 1.0000 1.0000 538.08 588.72 2.8274 1.3645 1.5621 239.47 0.27849 7.4073 0.015486 1.0000 1.0000 538.08 588.72 2.8274 1.3645 1.5621 239.47 0.27849 7.4073 0.015486
-0.62500 7.3729 undefined 539.44 590.28 2.8324 1.0000 1.0000 539.44 590.28 2.8324 1.3687 1.5663 239.88 0.27542 7.4344 0.015588 1.0000 1.0000 539.44 590.28 2.8324 1.3687 1.5663 239.88 0.27542 7.4344 0.015588
0.37500 7.4005 undefined 540.81 591.84 2.8374 1.0000 1.0000 540.81 591.84 2.8374 1.3729 1.5704 240.28 0.27239 7.4615 0.015690 1.0000 1.0000 540.81 591.84 2.8374 1.3729 1.5704 240.28 0.27239 7.4615 0.015690
1.3750 7.4282 undefined 542.19 593.40 2.8424 1.0000 1.0000 542.19 593.40 2.8424 1.3771 1.5745 240.69 0.26941 7.4885 0.015793 1.0000 1.0000 542.19 593.40 2.8424 1.3771 1.5745 240.69 0.26941 7.4885 0.015793
2.3750 7.4559 undefined 543.57 594.97 2.8474 1.0000 1.0000 543.57 594.97 2.8474 1.3813 1.5787 241.10 0.26647 7.5156 0.015895 1.0000 1.0000 543.57 594.97 2.8474 1.3813 1.5787 241.10 0.26647 7.5156 0.015895
3.3750 7.4836 undefined 544.95 596.55 2.8524 1.0000 1.0000 544.95 596.55 2.8524 1.3856 1.5828 241.50 0.26358 7.5426 0.015998 1.0000 1.0000 544.95 596.55 2.8524 1.3856 1.5828 241.50 0.26358 7.5426 0.015998
4.3750 7.5113 undefined 546.34 598.13 2.8575 1.0000 1.0000 546.34 598.13 2.8575 1.3898 1.5870 241.91 0.26072 7.5696 0.016102 1.0000 1.0000 546.34 598.13 2.8575 1.3898 1.5870 241.91 0.26072 7.5696 0.016102
5.3750 7.5390 undefined 547.73 599.71 2.8625 1.0000 1.0000 547.73 599.71 2.8625 1.3940 1.5911 242.31 0.25791 7.5966 0.016206 1.0000 1.0000 547.73 599.71 2.8625 1.3940 1.5911 242.31 0.25791 7.5966 0.016206
6.3750 7.5666 undefined 549.13 601.30 2.8675 1.0000 1.0000 549.13 601.30 2.8675 1.3983 1.5953 242.72 0.25514 7.6236 0.016310 1.0000 1.0000 549.13 601.30 2.8675 1.3983 1.5953 242.72 0.25514 7.6236 0.016310
7.3750 7.5943 undefined 550.53 602.89 2.8725 1.0000 1.0000 550.53 602.89 2.8725 1.4025 1.5995 243.12 0.25241 7.6506 0.016414 1.0000 1.0000 550.53 602.89 2.8725 1.4025 1.5995 243.12 0.25241 7.6506 0.016414
8.3750 7.6220 undefined 551.93 604.48 2.8775 1.0000 1.0000 551.93 604.48 2.8775 1.4068 1.6037 243.52 0.24972 7.6776 0.016518 1.0000 1.0000 551.93 604.48 2.8775 1.4068 1.6037 243.52 0.24972 7.6776 0.016518
9.3750 7.6496 undefined 553.34 606.08 2.8825 1.0000 1.0000 553.34 606.08 2.8825 1.4111 1.6079 243.92 0.24706 7.7046 0.016623 1.0000 1.0000 553.34 606.08 2.8825 1.4111 1.6079 243.92 0.24706 7.7046 0.016623
10.375 7.6773 undefined 554.75 607.69 2.8875 1.0000 1.0000 554.75 607.69 2.8875 1.4154 1.6121 244.32 0.24445 7.7316 0.016728 1.0000 1.0000 554.75 607.69 2.8875 1.4154 1.6121 244.32 0.24445 7.7316 0.016728
11.375 7.7049 undefined 556.17 609.30 2.8924 1.0000 1.0000 556.17 609.30 2.8924 1.4197 1.6164 244.72 0.24187 7.7585 0.016834 1.0000 1.0000 556.17 609.30 2.8924 1.4197 1.6164 244.72 0.24187 7.7585 0.016834
12.375 7.7326 undefined 557.59 610.91 2.8974 1.0000 1.0000 557.59 610.91 2.8974 1.4240 1.6206 245.12 0.23933 7.7855 0.016940 1.0000 1.0000 557.59 610.91 2.8974 1.4240 1.6206 245.12 0.23933 7.7855 0.016940
13.375 7.7603 undefined 559.02 612.52 2.9024 1.0000 1.0000 559.02 612.52 2.9024 1.4283 1.6248 245.51 0.23683 7.8124 0.017046 1.0000 1.0000 559.02 612.52 2.9024 1.4283 1.6248 245.51 0.23683 7.8124 0.017046
14.375 7.7879 undefined 560.45 614.15 2.9074 1.0000 1.0000 560.45 614.15 2.9074 1.4326 1.6291 245.91 0.23436 7.8393 0.017152 1.0000 1.0000 560.45 614.15 2.9074 1.4326 1.6291 245.91 0.23436 7.8393 0.017152
15.375 7.8156 undefined 561.89 615.77 2.9124 1.0000 1.0000 561.89 615.77 2.9124 1.4369 1.6334 246.31 0.23192 7.8663 0.017259 1.0000 1.0000 561.89 615.77 2.9124 1.4369 1.6334 246.31 0.23192 7.8663 0.017259
16.375 7.8432 undefined 563.32 617.40 2.9174 1.0000 1.0000 563.32 617.40 2.9174 1.4412 1.6376 246.70 0.22952 7.8932 0.017366 1.0000 1.0000 563.32 617.40 2.9174 1.4412 1.6376 246.70 0.22952 7.8932 0.017366
17.375 7.8708 undefined 564.77 619.04 2.9223 1.0000 1.0000 564.77 619.04 2.9223 1.4456 1.6419 247.09 0.22715 7.9201 0.017473 1.0000 1.0000 564.77 619.04 2.9223 1.4456 1.6419 247.09 0.22715 7.9201 0.017473
18.375 7.8985 undefined 566.22 620.67 2.9273 1.0000 1.0000 566.22 620.67 2.9273 1.4499 1.6462 247.49 0.22482 7.9469 0.017580 1.0000 1.0000 566.22 620.67 2.9273 1.4499 1.6462 247.49 0.22482 7.9469 0.017580
19.375 7.9261 undefined 567.67 622.32 2.9323 1.0000 1.0000 567.67 622.32 2.9323 1.4543 1.6505 247.88 0.22252 7.9738 0.017688 1.0000 1.0000 567.67 622.32 2.9323 1.4543 1.6505 247.88 0.22252 7.9738 0.017688
20.375 7.9538 undefined 569.12 623.96 2.9373 1.0000 1.0000 569.12 623.96 2.9373 1.4586 1.6548 248.27 0.22025 8.0007 0.017796 1.0000 1.0000 569.12 623.96 2.9373 1.4586 1.6548 248.27 0.22025 8.0007 0.017796
21.375 7.9814 undefined 570.58 625.61 2.9422 1.0000 1.0000 570.58 625.61 2.9422 1.4630 1.6591 248.66 0.21801 8.0275 0.017904 1.0000 1.0000 570.58 625.61 2.9422 1.4630 1.6591 248.66 0.21801 8.0275 0.017904
22.375 8.0090 undefined 572.05 627.27 2.9472 1.0000 1.0000 572.05 627.27 2.9472 1.4674 1.6634 249.05 0.21580 8.0544 0.018013 1.0000 1.0000 572.05 627.27 2.9472 1.4674 1.6634 249.05 0.21580 8.0544 0.018013
23.375 8.0367 undefined 573.52 628.93 2.9522 1.0000 1.0000 573.52 628.93 2.9522 1.4717 1.6677 249.44 0.21362 8.0812 0.018122 1.0000 1.0000 573.52 628.93 2.9522 1.4717 1.6677 249.44 0.21362 8.0812 0.018122
24.375 8.0643 undefined 574.99 630.59 2.9571 1.0000 1.0000 574.99 630.59 2.9571 1.4761 1.6720 249.83 0.21147 8.1080 0.018231 1.0000 1.0000 574.99 630.59 2.9571 1.4761 1.6720 249.83 0.21147 8.1080 0.018231
25.375 8.0919 undefined 576.47 632.26 2.9621 1.0000 1.0000 576.47 632.26 2.9621 1.4805 1.6764 250.22 0.20936 8.1348 0.018341 1.0000 1.0000 576.47 632.26 2.9621 1.4805 1.6764 250.22 0.20936 8.1348 0.018341
26.375 8.1195 undefined 577.95 633.94 2.9670 1.0000 1.0000 577.95 633.94 2.9670 1.4849 1.6807 250.61 0.20727 8.1616 0.018451 1.0000 1.0000 577.95 633.94 2.9670 1.4849 1.6807 250.61 0.20727 8.1616 0.018451
27.375 8.1472 undefined 579.44 635.61 2.9720 1.0000 1.0000 579.44 635.61 2.9720 1.4893 1.6851 251.00 0.20520 8.1884 0.018561 1.0000 1.0000 579.44 635.61 2.9720 1.4893 1.6851 251.00 0.20520 8.1884 0.018561
28.375 8.1748 undefined 580.93 637.30 2.9770 1.0000 1.0000 580.93 637.30 2.9770 1.4937 1.6894 251.38 0.20317 8.2152 0.018671 1.0000 1.0000 580.93 637.30 2.9770 1.4937 1.6894 251.38 0.20317 8.2152 0.018671
29.375 8.2024 undefined 582.43 638.98 2.9819 1.0000 1.0000 582.43 638.98 2.9819 1.4981 1.6938 251.77 0.20116 8.2420 0.018782 1.0000 1.0000 582.43 638.98 2.9819 1.4981 1.6938 251.77 0.20116 8.2420 0.018782
30.375 8.2300 undefined 583.93 640.67 2.9869 1.0000 1.0000 583.93 640.67 2.9869 1.5025 1.6981 252.15 0.19918 8.2687 0.018893 1.0000 1.0000 583.93 640.67 2.9869 1.5025 1.6981 252.15 0.19918 8.2687 0.018893
31.375 8.2576 undefined 585.43 642.37 2.9918 1.0000 1.0000 585.43 642.37 2.9918 1.5070 1.7025 252.54 0.19723 8.2955 0.019004 1.0000 1.0000 585.43 642.37 2.9918 1.5070 1.7025 252.54 0.19723 8.2955 0.019004
32.375 8.2852 undefined 586.94 644.07 2.9968 1.0000 1.0000 586.94 644.07 2.9968 1.5114 1.7069 252.92 0.19530 8.3222 0.019116 1.0000 1.0000 586.94 644.07 2.9968 1.5114 1.7069 252.92 0.19530 8.3222 0.019116
33.375 8.3128 undefined 588.46 645.77 3.0017 1.0000 1.0000 588.46 645.77 3.0017 1.5158 1.7112 253.30 0.19340 8.3489 0.019228 1.0000 1.0000 588.46 645.77 3.0017 1.5158 1.7112 253.30 0.19340 8.3489 0.019228
34.375 8.3405 undefined 589.97 647.48 3.0066 1.0000 1.0000 589.97 647.48 3.0066 1.5202 1.7156 253.68 0.19153 8.3757 0.019340 1.0000 1.0000 589.97 647.48 3.0066 1.5202 1.7156 253.68 0.19153 8.3757 0.019340
35.375 8.3681 undefined 591.50 649.19 3.0116 1.0000 1.0000 591.50 649.19 3.0116 1.5247 1.7200 254.06 0.18967 8.4024 0.019452 1.0000 1.0000 591.50 649.19 3.0116 1.5247 1.7200 254.06 0.18967 8.4024 0.019452
36.375 8.3957 undefined 593.02 650.91 3.0165 1.0000 1.0000 593.02 650.91 3.0165 1.5291 1.7244 254.44 0.18785 8.4290 0.019565 1.0000 1.0000 593.02 650.91 3.0165 1.5291 1.7244 254.44 0.18785 8.4290 0.019565
37.375 8.4233 undefined 594.56 652.63 3.0215 1.0000 1.0000 594.56 652.63 3.0215 1.5336 1.7288 254.82 0.18604 8.4557 0.019678 1.0000 1.0000 594.56 652.63 3.0215 1.5336 1.7288 254.82 0.18604 8.4557 0.019678
38.375 8.4509 undefined 596.09 654.36 3.0264 1.0000 1.0000 596.09 654.36 3.0264 1.5380 1.7332 255.20 0.18426 8.4824 0.019791 1.0000 1.0000 596.09 654.36 3.0264 1.5380 1.7332 255.20 0.18426 8.4824 0.019791
39.375 8.4785 undefined 597.63 656.09 3.0313 1.0000 1.0000 597.63 656.09 3.0313 1.5425 1.7376 255.58 0.18251 8.5090 0.019905 1.0000 1.0000 597.63 656.09 3.0313 1.5425 1.7376 255.58 0.18251 8.5090 0.019905
40.375 8.5061 undefined 599.18 657.82 3.0363 1.0000 1.0000 599.18 657.82 3.0363 1.5469 1.7420 255.96 0.18077 8.5357 0.020019 1.0000 1.0000 599.18 657.82 3.0363 1.5469 1.7420 255.96 0.18077 8.5357 0.020019
41.375 8.5337 undefined 600.73 659.56 3.0412 1.0000 1.0000 600.73 659.56 3.0412 1.5514 1.7465 256.34 0.17906 8.5623 0.020133 1.0000 1.0000 600.73 659.56 3.0412 1.5514 1.7465 256.34 0.17906 8.5623 0.020133
42.375 8.5613 undefined 602.28 661.31 3.0461 1.0000 1.0000 602.28 661.31 3.0461 1.5559 1.7509 256.71 0.17738 8.5889 0.020247 1.0000 1.0000 602.28 661.31 3.0461 1.5559 1.7509 256.71 0.17738 8.5889 0.020247
43.375 8.5888 undefined 603.84 663.06 3.0511 1.0000 1.0000 603.84 663.06 3.0511 1.5604 1.7553 257.09 0.17571 8.6156 0.020362 1.0000 1.0000 603.84 663.06 3.0511 1.5604 1.7553 257.09 0.17571 8.6156 0.020362
44.375 8.6164 undefined 605.40 664.81 3.0560 1.0000 1.0000 605.40 664.81 3.0560 1.5648 1.7597 257.47 0.17406 8.6422 0.020477 1.0000 1.0000 605.40 664.81 3.0560 1.5648 1.7597 257.47 0.17406 8.6422 0.020477
45.375 8.6440 undefined 606.97 666.57 3.0609 1.0000 1.0000 606.97 666.57 3.0609 1.5693 1.7642 257.84 0.17244 8.6687 0.020593 1.0000 1.0000 606.97 666.57 3.0609 1.5693 1.7642 257.84 0.17244 8.6687 0.020593
46.375 8.6716 undefined 608.54 668.33 3.0659 1.0000 1.0000 608.54 668.33 3.0659 1.5738 1.7686 258.21 0.17084 8.6953 0.020708 1.0000 1.0000 608.54 668.33 3.0659 1.5738 1.7686 258.21 0.17084 8.6953 0.020708
47.375 8.6992 undefined 610.11 670.09 3.0708 1.0000 1.0000 610.11 670.09 3.0708 1.5783 1.7731 258.59 0.16925 8.7219 0.020824 1.0000 1.0000 610.11 670.09 3.0708 1.5783 1.7731 258.59 0.16925 8.7219 0.020824
48.375 8.7268 undefined 611.70 671.86 3.0757 1.0000 1.0000 611.70 671.86 3.0757 1.5828 1.7775 258.96 0.16769 8.7484 0.020941 1.0000 1.0000 611.70 671.86 3.0757 1.5828 1.7775 258.96 0.16769 8.7484 0.020941
49.375 8.7544 undefined 613.28 673.64 3.0806 1.0000 1.0000 613.28 673.64 3.0806 1.5872 1.7820 259.33 0.16615 8.7750 0.021057 1.0000 1.0000 613.28 673.64 3.0806 1.5872 1.7820 259.33 0.16615 8.7750 0.021057
50.375 8.7819 undefined 614.87 675.42 3.0855 1.0000 1.0000 614.87 675.42 3.0855 1.5917 1.7864 259.71 0.16462 8.8015 0.021174 1.0000 1.0000 614.87 675.42 3.0855 1.5917 1.7864 259.71 0.16462 8.8015 0.021174
51.375 8.8095 undefined 616.46 677.20 3.0905 1.0000 1.0000 616.46 677.20 3.0905 1.5962 1.7909 260.08 0.16312 8.8280 0.021291 1.0000 1.0000 616.46 677.20 3.0905 1.5962 1.7909 260.08 0.16312 8.8280 0.021291
52.375 8.8371 undefined 618.06 678.99 3.0954 1.0000 1.0000 618.06 678.99 3.0954 1.6007 1.7953 260.45 0.16164 8.8545 0.021408 1.0000 1.0000 618.06 678.99 3.0954 1.6007 1.7953 260.45 0.16164 8.8545 0.021408
53.375 8.8647 undefined 619.67 680.78 3.1003 1.0000 1.0000 619.67 680.78 3.1003 1.6052 1.7998 260.82 0.16017 8.8810 0.021526 1.0000 1.0000 619.67 680.78 3.1003 1.6052 1.7998 260.82 0.16017 8.8810 0.021526
54.375 8.8923 undefined 621.27 682.58 3.1052 1.0000 1.0000 621.27 682.58 3.1052 1.6097 1.8042 261.19 0.15872 8.9075 0.021644 1.0000 1.0000 621.27 682.58 3.1052 1.6097 1.8042 261.19 0.15872 8.9075 0.021644
55.375 8.9198 undefined 622.88 684.38 3.1101 1.0000 1.0000 622.88 684.38 3.1101 1.6142 1.8087 261.55 0.15729 8.9340 0.021762 1.0000 1.0000 622.88 684.38 3.1101 1.6142 1.8087 261.55 0.15729 8.9340 0.021762
56.375 8.9474 undefined 624.50 686.19 3.1150 1.0000 1.0000 624.50 686.19 3.1150 1.6188 1.8132 261.92 0.15588 8.9604 0.021881 1.0000 1.0000 624.50 686.19 3.1150 1.6188 1.8132 261.92 0.15588 8.9604 0.021881
57.375 8.9750 undefined 626.12 688.00 3.1200 1.0000 1.0000 626.12 688.00 3.1200 1.6233 1.8177 262.29 0.15449 8.9869 0.022000 1.0000 1.0000 626.12 688.00 3.1200 1.6233 1.8177 262.29 0.15449 8.9869 0.022000
58.375 9.0025 undefined 627.75 689.82 3.1249 1.0000 1.0000 627.75 689.82 3.1249 1.6278 1.8221 262.66 0.15311 9.0133 0.022119 1.0000 1.0000 627.75 689.82 3.1249 1.6278 1.8221 262.66 0.15311 9.0133 0.022119
59.375 9.0301 undefined 629.38 691.64 3.1298 1.0000 1.0000 629.38 691.64 3.1298 1.6323 1.8266 263.02 0.15175 9.0397 0.022238 1.0000 1.0000 629.38 691.64 3.1298 1.6323 1.8266 263.02 0.15175 9.0397 0.022238
60.375 9.0577 undefined 631.01 693.46 3.1347 1.0000 1.0000 631.01 693.46 3.1347 1.6368 1.8311 263.39 0.15041 9.0661 0.022358 1.0000 1.0000 631.01 693.46 3.1347 1.6368 1.8311 263.39 0.15041 9.0661 0.022358
61.375 9.0852 undefined 632.65 695.29 3.1396 1.0000 1.0000 632.65 695.29 3.1396 1.6413 1.8356 263.76 0.14908 9.0925 0.022478 1.0000 1.0000 632.65 695.29 3.1396 1.6413 1.8356 263.76 0.14908 9.0925 0.022478
62.375 9.1128 undefined 634.29 697.13 3.1445 1.0000 1.0000 634.29 697.13 3.1445 1.6458 1.8400 264.12 0.14777 9.1189 0.022598 1.0000 1.0000 634.29 697.13 3.1445 1.6458 1.8400 264.12 0.14777 9.1189 0.022598
63.375 9.1404 undefined 635.94 698.96 3.1494 1.0000 1.0000 635.94 698.96 3.1494 1.6504 1.8445 264.48 0.14648 9.1453 0.022719 1.0000 1.0000 635.94 698.96 3.1494 1.6504 1.8445 264.48 0.14648 9.1453 0.022719
64.375 9.1679 undefined 637.60 700.81 3.1543 1.0000 1.0000 637.60 700.81 3.1543 1.6549 1.8490 264.85 0.14520 9.1716 0.022840 1.0000 1.0000 637.60 700.81 3.1543 1.6549 1.8490 264.85 0.14520 9.1716 0.022840
65.375 9.1955 undefined 639.25 702.65 3.1592 1.0000 1.0000 639.25 702.65 3.1592 1.6594 1.8535 265.21 0.14394 9.1980 0.022961 1.0000 1.0000 639.25 702.65 3.1592 1.6594 1.8535 265.21 0.14394 9.1980 0.022961
66.375 9.2230 undefined 640.91 704.50 3.1641 1.0000 1.0000 640.91 704.50 3.1641 1.6639 1.8580 265.57 0.14269 9.2243 0.023083 1.0000 1.0000 640.91 704.50 3.1641 1.6639 1.8580 265.57 0.14269 9.2243 0.023083
67.375 9.2506 undefined 642.58 706.36 3.1690 1.0000 1.0000 642.58 706.36 3.1690 1.6684 1.8625 265.94 0.14146 9.2506 0.023204 1.0000 1.0000 642.58 706.36 3.1690 1.6684 1.8625 265.94 0.14146 9.2506 0.023204
68.375 9.2782 undefined 644.25 708.22 3.1739 1.0000 1.0000 644.25 708.22 3.1739 1.6730 1.8670 266.30 0.14024 9.2769 0.023326 1.0000 1.0000 644.25 708.22 3.1739 1.6730 1.8670 266.30 0.14024 9.2769 0.023326
69.375 9.3057 undefined 645.93 710.09 3.1788 1.0000 1.0000 645.93 710.09 3.1788 1.6775 1.8715 266.66 0.13904 9.3032 0.023449 1.0000 1.0000 645.93 710.09 3.1788 1.6775 1.8715 266.66 0.13904 9.3032 0.023449
70.375 9.3333 undefined 647.61 711.96 3.1837 1.0000 1.0000 647.61 711.96 3.1837 1.6820 1.8760 267.02 0.13785 9.3295 0.023571 1.0000 1.0000 647.61 711.96 3.1837 1.6820 1.8760 267.02 0.13785 9.3295 0.023571
71.375 9.3608 undefined 649.29 713.83 3.1886 1.0000 1.0000 649.29 713.83 3.1886 1.6865 1.8804 267.38 0.13668 9.3558 0.023694 1.0000 1.0000 649.29 713.83 3.1886 1.6865 1.8804 267.38 0.13668 9.3558 0.023694
72.375 9.3884 undefined 650.98 715.71 3.1935 1.0000 1.0000 650.98 715.71 3.1935 1.6911 1.8849 267.74 0.13552 9.3821 0.023818 1.0000 1.0000 650.98 715.71 3.1935 1.6911 1.8849 267.74 0.13552 9.3821 0.023818
73.375 9.4159 undefined 652.67 717.59 3.1984 1.0000 1.0000 652.67 717.59 3.1984 1.6956 1.8894 268.10 0.13438 9.4083 0.023941 1.0000 1.0000 652.67 717.59 3.1984 1.6956 1.8894 268.10 0.13438 9.4083 0.023941
74.375 9.4435 undefined 654.37 719.48 3.2033 1.0000 1.0000 654.37 719.48 3.2033 1.7001 1.8939 268.46 0.13324 9.4345 0.024065 1.0000 1.0000 654.37 719.48 3.2033 1.7001 1.8939 268.46 0.13324 9.4345 0.024065
75.375 9.4710 undefined 656.07 721.37 3.2082 1.0000 1.0000 656.07 721.37 3.2082 1.7047 1.8984 268.81 0.13213 9.4607 0.024189 1.0000 1.0000 656.07 721.37 3.2082 1.7047 1.8984 268.81 0.13213 9.4607 0.024189
76.375 9.4986 undefined 657.78 723.27 3.2131 1.0000 1.0000 657.78 723.27 3.2131 1.7092 1.9029 269.17 0.13102 9.4870 0.024314 1.0000 1.0000 657.78 723.27 3.2131 1.7092 1.9029 269.17 0.13102 9.4870 0.024314
77.375 9.5261 undefined 659.49 725.17 3.2179 1.0000 1.0000 659.49 725.17 3.2179 1.7137 1.9074 269.53 0.12993 9.5131 0.024438 1.0000 1.0000 659.49 725.17 3.2179 1.7137 1.9074 269.53 0.12993 9.5131 0.024438
78.375 9.5537 undefined 661.21 727.08 3.2228 1.0000 1.0000 661.21 727.08 3.2228 1.7182 1.9119 269.88 0.12885 9.5393 0.024563 1.0000 1.0000 661.21 727.08 3.2228 1.7182 1.9119 269.88 0.12885 9.5393 0.024563
79.375 9.5812 undefined 662.93 728.99 3.2277 1.0000 1.0000 662.93 728.99 3.2277 1.7228 1.9164 270.24 0.12779 9.5655 0.024688 1.0000 1.0000 662.93 728.99 3.2277 1.7228 1.9164 270.24 0.12779 9.5655 0.024688
80.375 9.6087 undefined 664.65 730.90 3.2326 1.0000 1.0000 664.65 730.90 3.2326 1.7273 1.9209 270.60 0.12673 9.5916 0.024814 1.0000 1.0000 664.65 730.90 3.2326 1.7273 1.9209 270.60 0.12673 9.5916 0.024814
81.375 9.6363 undefined 666.38 732.82 3.2375 1.0000 1.0000 666.38 732.82 3.2375 1.7318 1.9254 270.95 0.12569 9.6178 0.024940 1.0000 1.0000 666.38 732.82 3.2375 1.7318 1.9254 270.95 0.12569 9.6178 0.024940
82.375 9.6638 undefined 668.12 734.75 3.2424 1.0000 1.0000 668.12 734.75 3.2424 1.7364 1.9299 271.31 0.12466 9.6439 0.025066 1.0000 1.0000 668.12 734.75 3.2424 1.7364 1.9299 271.31 0.12466 9.6439 0.025066
83.375 9.6914 undefined 669.86 736.67 3.2473 1.0000 1.0000 669.86 736.67 3.2473 1.7409 1.9344 271.66 0.12365 9.6700 0.025192 1.0000 1.0000 669.86 736.67 3.2473 1.7409 1.9344 271.66 0.12365 9.6700 0.025192
84.375 9.7189 undefined 671.60 738.61 3.2521 1.0000 1.0000 671.60 738.61 3.2521 1.7454 1.9389 272.01 0.12264 9.6961 0.025319 1.0000 1.0000 671.60 738.61 3.2521 1.7454 1.9389 272.01 0.12264 9.6961 0.025319
85.375 9.7464 undefined 673.35 740.55 3.2570 1.0000 1.0000 673.35 740.55 3.2570 1.7499 1.9434 272.37 0.12165 9.7222 0.025446 1.0000 1.0000 673.35 740.55 3.2570 1.7499 1.9434 272.37 0.12165 9.7222 0.025446
86.375 9.7740 undefined 675.10 742.49 3.2619 1.0000 1.0000 675.10 742.49 3.2619 1.7545 1.9479 272.72 0.12067 9.7483 0.025574 1.0000 1.0000 675.10 742.49 3.2619 1.7545 1.9479 272.72 0.12067 9.7483 0.025574
87.375 9.8015 undefined 676.85 744.43 3.2668 1.0000 1.0000 676.85 744.43 3.2668 1.7590 1.9524 273.07 0.11970 9.7744 0.025701 1.0000 1.0000 676.85 744.43 3.2668 1.7590 1.9524 273.07 0.11970 9.7744 0.025701
88.375 9.8291 undefined 678.62 746.38 3.2717 1.0000 1.0000 678.62 746.38 3.2717 1.7635 1.9569 273.42 0.11874 9.8004 0.025829 1.0000 1.0000 678.62 746.38 3.2717 1.7635 1.9569 273.42 0.11874 9.8004 0.025829
89.375 9.8566 undefined 680.38 748.34 3.2765 1.0000 1.0000 680.38 748.34 3.2765 1.7680 1.9614 273.77 0.11779 9.8264 0.025957 1.0000 1.0000 680.38 748.34 3.2765 1.7680 1.9614 273.77 0.11779 9.8264 0.025957
90.375 9.8841 undefined 682.15 750.30 3.2814 1.0000 1.0000 682.15 750.30 3.2814 1.7725 1.9659 274.12 0.11685 9.8525 0.026086 1.0000 1.0000 682.15 750.30 3.2814 1.7725 1.9659 274.12 0.11685 9.8525 0.026086
91.375 9.9116 undefined 683.93 752.27 3.2863 1.0000 1.0000 683.93 752.27 3.2863 1.7771 1.9704 274.47 0.11593 9.8785 0.026214 1.0000 1.0000 683.93 752.27 3.2863 1.7771 1.9704 274.47 0.11593 9.8785 0.026214
92.375 9.9392 undefined 685.71 754.23 3.2912 1.0000 1.0000 685.71 754.23 3.2912 1.7816 1.9749 274.82 0.11501 9.9045 0.026344 1.0000 1.0000 685.71 754.23 3.2912 1.7816 1.9749 274.82 0.11501 9.9045 0.026344
93.375 9.9667 undefined 687.49 756.21 3.2960 1.0000 1.0000 687.49 756.21 3.2960 1.7861 1.9794 275.17 0.11410 9.9305 0.026473 1.0000 1.0000 687.49 756.21 3.2960 1.7861 1.9794 275.17 0.11410 9.9305 0.026473
94.375 9.9942 undefined 689.28 758.19 3.3009 1.0000 1.0000 689.28 758.19 3.3009 1.7906 1.9838 275.52 0.11321 9.9564 0.026603 1.0000 1.0000 689.28 758.19 3.3009 1.7906 1.9838 275.52 0.11321 9.9564 0.026603
95.375 10.022 undefined 691.07 760.17 3.3058 1.0000 1.0000 691.07 760.17 3.3058 1.7951 1.9883 275.87 0.11232 9.9824 0.026732 1.0000 1.0000 691.07 760.17 3.3058 1.7951 1.9883 275.87 0.11232 9.9824 0.026732
96.375 10.049 undefined 692.87 762.16 3.3107 1.0000 1.0000 692.87 762.16 3.3107 1.7996 1.9928 276.22 0.11145 10.008 0.026863 1.0000 1.0000 692.87 762.16 3.3107 1.7996 1.9928 276.22 0.11145 10.008 0.026863
97.375 10.077 undefined 694.67 764.15 3.3155 1.0000 1.0000 694.67 764.15 3.3155 1.8041 1.9973 276.56 0.11059 10.034 0.026993 1.0000 1.0000 694.67 764.15 3.3155 1.8041 1.9973 276.56 0.11059 10.034 0.026993
98.375 10.104 undefined 696.48 766.14 3.3204 1.0000 1.0000 696.48 766.14 3.3204 1.8087 2.0018 276.91 0.10973 10.060 0.027124 1.0000 1.0000 696.48 766.14 3.3204 1.8087 2.0018 276.91 0.10973 10.060 0.027124
99.375 10.132 undefined 698.29 768.14 3.3253 1.0000 1.0000 698.29 768.14 3.3253 1.8132 2.0063 277.26 0.10888 10.086 0.027255 1.0000 1.0000 698.29 768.14 3.3253 1.8132 2.0063 277.26 0.10888 10.086 0.027255
100.38 10.159 undefined 700.10 770.15 3.3301 1.0000 1.0000 700.10 770.15 3.3301 1.8177 2.0108 277.60 0.10805 10.112 0.027387 1.0000 1.0000 700.10 770.15 3.3301 1.8177 2.0108 277.60 0.10805 10.112 0.027387
101.38 10.187 undefined 701.92 772.16 3.3350 1.0000 1.0000 701.92 772.16 3.3350 1.8222 2.0152 277.95 0.10722 10.138 0.027518 1.0000 1.0000 701.92 772.16 3.3350 1.8222 2.0152 277.95 0.10722 10.138 0.027518
102.38 10.214 undefined 703.75 774.17 3.3399 1.0000 1.0000 703.75 774.17 3.3399 1.8267 2.0197 278.30 0.10640 10.164 0.027650 1.0000 1.0000 703.75 774.17 3.3399 1.8267 2.0197 278.30 0.10640 10.164 0.027650
103.38 10.242 undefined 705.58 776.19 3.3447 1.0000 1.0000 705.58 776.19 3.3447 1.8312 2.0242 278.64 0.10560 10.190 0.027782 1.0000 1.0000 705.58 776.19 3.3447 1.8312 2.0242 278.64 0.10560 10.190 0.027782
104.38 10.269 undefined 707.41 778.22 3.3496 1.0000 1.0000 707.41 778.22 3.3496 1.8357 2.0287 278.98 0.10480 10.215 0.027915 1.0000 1.0000 707.41 778.22 3.3496 1.8357 2.0287 278.98 0.10480 10.215 0.027915
105.38 10.297 undefined 709.25 780.24 3.3545 1.0000 1.0000 709.25 780.24 3.3545 1.8402 2.0331 279.33 0.10401 10.241 0.028048 1.0000 1.0000 709.25 780.24 3.3545 1.8402 2.0331 279.33 0.10401 10.241 0.028048
106.38 10.325 undefined 711.09 782.28 3.3593 1.0000 1.0000 711.09 782.28 3.3593 1.8446 2.0376 279.67 0.10322 10.267 0.028181 1.0000 1.0000 711.09 782.28 3.3593 1.8446 2.0376 279.67 0.10322 10.267 0.028181
107.38 10.352 undefined 712.94 784.31 3.3642 1.0000 1.0000 712.94 784.31 3.3642 1.8491 2.0421 280.01 0.10245 10.293 0.028314 1.0000 1.0000 712.94 784.31 3.3642 1.8491 2.0421 280.01 0.10245 10.293 0.028314
108.38 10.380 undefined 714.79 786.35 3.3690 1.0000 1.0000 714.79 786.35 3.3690 1.8536 2.0465 280.36 0.10168 10.319 0.028448 1.0000 1.0000 714.79 786.35 3.3690 1.8536 2.0465 280.36 0.10168 10.319 0.028448
109.38 10.407 undefined 716.64 788.40 3.3739 1.0000 1.0000 716.64 788.40 3.3739 1.8581 2.0510 280.70 0.10093 10.344 0.028582 1.0000 1.0000 716.64 788.40 3.3739 1.8581 2.0510 280.70 0.10093 10.344 0.028582
110.38 10.435 undefined 718.50 790.45 3.3787 1.0000 1.0000 718.50 790.45 3.3787 1.8626 2.0555 281.04 0.10018 10.370 0.028717 1.0000 1.0000 718.50 790.45 3.3787 1.8626 2.0555 281.04 0.10018 10.370 0.028717
111.38 10.462 undefined 720.37 792.50 3.3836 1.0000 1.0000 720.37 792.50 3.3836 1.8671 2.0599 281.38 0.099439 10.396 0.028851 1.0000 1.0000 720.37 792.50 3.3836 1.8671 2.0599 281.38 0.099439 10.396 0.028851
112.38 10.490 undefined 722.24 794.56 3.3885 1.0000 1.0000 722.24 794.56 3.3885 1.8716 2.0644 281.72 0.098707 10.421 0.028986 1.0000 1.0000 722.24 794.56 3.3885 1.8716 2.0644 281.72 0.098707 10.421 0.028986
113.38 10.517 undefined 724.11 796.63 3.3933 1.0000 1.0000 724.11 796.63 3.3933 1.8760 2.0688 282.06 0.097983 10.447 0.029121 1.0000 1.0000 724.11 796.63 3.3933 1.8760 2.0688 282.06 0.097983 10.447 0.029121
114.38 10.545 undefined 725.99 798.69 3.3982 1.0000 1.0000 725.99 798.69 3.3982 1.8805 2.0733 282.40 0.097266 10.473 0.029257 1.0000 1.0000 725.99 798.69 3.3982 1.8805 2.0733 282.40 0.097266 10.473 0.029257
115.38 10.572 undefined 727.87 800.77 3.4030 1.0000 1.0000 727.87 800.77 3.4030 1.8850 2.0777 282.74 0.096558 10.499 0.029392 1.0000 1.0000 727.87 800.77 3.4030 1.8850 2.0777 282.74 0.096558 10.499 0.029392
116.38 10.600 undefined 729.76 802.84 3.4079 1.0000 1.0000 729.76 802.84 3.4079 1.8894 2.0822 283.08 0.095856 10.524 0.029529 1.0000 1.0000 729.76 802.84 3.4079 1.8894 2.0822 283.08 0.095856 10.524 0.029529
117.38 10.627 undefined 731.65 804.92 3.4127 1.0000 1.0000 731.65 804.92 3.4127 1.8939 2.0866 283.42 0.095163 10.550 0.029665 1.0000 1.0000 731.65 804.92 3.4127 1.8939 2.0866 283.42 0.095163 10.550 0.029665
118.38 10.655 undefined 733.55 807.01 3.4176 1.0000 1.0000 733.55 807.01 3.4176 1.8984 2.0911 283.76 0.094476 10.575 0.029802 1.0000 1.0000 733.55 807.01 3.4176 1.8984 2.0911 283.76 0.094476 10.575 0.029802
119.38 10.682 undefined 735.45 809.10 3.4224 1.0000 1.0000 735.45 809.10 3.4224 1.9028 2.0955 284.10 0.093797 10.601 0.029938 1.0000 1.0000 735.45 809.10 3.4224 1.9028 2.0955 284.10 0.093797 10.601 0.029938
120.38 10.710 undefined 737.35 811.20 3.4273 1.0000 1.0000 737.35 811.20 3.4273 1.9073 2.0999 284.44 0.093126 10.627 0.030076 1.0000 1.0000 737.35 811.20 3.4273 1.9073 2.0999 284.44 0.093126 10.627 0.030076
121.38 10.737 undefined 739.26 813.29 3.4321 1.0000 1.0000 739.26 813.29 3.4321 1.9117 2.1044 284.77 0.092461 10.652 0.030213 1.0000 1.0000 739.26 813.29 3.4321 1.9117 2.1044 284.77 0.092461 10.652 0.030213
122.38 10.765 undefined 741.18 815.40 3.4370 1.0000 1.0000 741.18 815.40 3.4370 1.9162 2.1088 285.11 0.091803 10.678 0.030351 1.0000 1.0000 741.18 815.40 3.4370 1.9162 2.1088 285.11 0.091803 10.678 0.030351
123.38 10.792 undefined 743.10 817.51 3.4418 1.0000 1.0000 743.10 817.51 3.4418 1.9206 2.1132 285.45 0.091152 10.703 0.030489 1.0000 1.0000 743.10 817.51 3.4418 1.9206 2.1132 285.45 0.091152 10.703 0.030489
124.38 10.820 undefined 745.02 819.62 3.4466 1.0000 1.0000 745.02 819.62 3.4466 1.9251 2.1176 285.78 0.090508 10.729 0.030627 1.0000 1.0000 745.02 819.62 3.4466 1.9251 2.1176 285.78 0.090508 10.729 0.030627
125.38 10.847 undefined 746.95 821.74 3.4515 1.0000 1.0000 746.95 821.74 3.4515 1.9295 2.1220 286.12 0.089871 10.754 0.030766 1.0000 1.0000 746.95 821.74 3.4515 1.9295 2.1220 286.12 0.089871 10.754 0.030766
126.38 10.875 undefined 748.88 823.86 3.4563 1.0000 1.0000 748.88 823.86 3.4563 1.9339 2.1265 286.45 0.089240 10.780 0.030905 1.0000 1.0000 748.88 823.86 3.4563 1.9339 2.1265 286.45 0.089240 10.780 0.030905
127.38 10.902 undefined 750.81 825.98 3.4612 1.0000 1.0000 750.81 825.98 3.4612 1.9384 2.1309 286.79 0.088616 10.805 0.031044 1.0000 1.0000 750.81 825.98 3.4612 1.9384 2.1309 286.79 0.088616 10.805 0.031044
128.38 10.930 undefined 752.75 828.11 3.4660 1.0000 1.0000 752.75 828.11 3.4660 1.9428 2.1353 287.12 0.087998 10.831 0.031184 1.0000 1.0000 752.75 828.11 3.4660 1.9428 2.1353 287.12 0.087998 10.831 0.031184
129.38 10.957 undefined 754.70 830.25 3.4708 1.0000 1.0000 754.70 830.25 3.4708 1.9472 2.1397 287.46 0.087387 10.856 0.031324 1.0000 1.0000 754.70 830.25 3.4708 1.9472 2.1397 287.46 0.087387 10.856 0.031324
130.38 10.985 undefined 756.65 832.39 3.4757 1.0000 1.0000 756.65 832.39 3.4757 1.9516 2.1441 287.79 0.086782 10.882 0.031464 1.0000 1.0000 756.65 832.39 3.4757 1.9516 2.1441 287.79 0.086782 10.882 0.031464
131.38 11.012 undefined 758.60 834.53 3.4805 1.0000 1.0000 758.60 834.53 3.4805 1.9560 2.1485 288.12 0.086183 10.907 0.031604 1.0000 1.0000 758.60 834.53 3.4805 1.9560 2.1485 288.12 0.086183 10.907 0.031604
132.38 11.040 undefined 760.56 836.68 3.4853 1.0000 1.0000 760.56 836.68 3.4853 1.9605 2.1529 288.46 0.085591 10.933 0.031745 1.0000 1.0000 760.56 836.68 3.4853 1.9605 2.1529 288.46 0.085591 10.933 0.031745
133.38 11.067 undefined 762.52 838.83 3.4902 1.0000 1.0000 762.52 838.83 3.4902 1.9649 2.1573 288.79 0.085004 10.958 0.031886 1.0000 1.0000 762.52 838.83 3.4902 1.9649 2.1573 288.79 0.085004 10.958 0.031886
134.38 11.095 undefined 764.49 840.99 3.4950 1.0000 1.0000 764.49 840.99 3.4950 1.9693 2.1617 289.12 0.084423 10.984 0.032027 1.0000 1.0000 764.49 840.99 3.4950 1.9693 2.1617 289.12 0.084423 10.984 0.032027
135.38 11.122 undefined 766.46 843.15 3.4998 1.0000 1.0000 766.46 843.15 3.4998 1.9737 2.1661 289.45 0.083849 11.009 0.032169 1.0000 1.0000 766.46 843.15 3.4998 1.9737 2.1661 289.45 0.083849 11.009 0.032169
136.38 11.150 undefined 768.44 845.31 3.5047 1.0000 1.0000 768.44 845.31 3.5047 1.9781 2.1704 289.79 0.083280 11.034 0.032311 1.0000 1.0000 768.44 845.31 3.5047 1.9781 2.1704 289.79 0.083280 11.034 0.032311
137.38 11.177 undefined 770.42 847.48 3.5095 1.0000 1.0000 770.42 847.48 3.5095 1.9825 2.1748 290.12 0.082716 11.060 0.032453 1.0000 1.0000 770.42 847.48 3.5095 1.9825 2.1748 290.12 0.082716 11.060 0.032453
138.38 11.205 undefined 772.40 849.66 3.5143 1.0000 1.0000 772.40 849.66 3.5143 1.9868 2.1792 290.45 0.082159 11.085 0.032596 1.0000 1.0000 772.40 849.66 3.5143 1.9868 2.1792 290.45 0.082159 11.085 0.032596
139.38 11.232 undefined 774.39 851.84 3.5192 1.0000 1.0000 774.39 851.84 3.5192 1.9912 2.1835 290.78 0.081607 11.110 0.032738 1.0000 1.0000 774.39 851.84 3.5192 1.9912 2.1835 290.78 0.081607 11.110 0.032738
140.38 11.260 undefined 776.39 854.02 3.5240 1.0000 1.0000 776.39 854.02 3.5240 1.9956 2.1879 291.11 0.081060 11.136 0.032881 1.0000 1.0000 776.39 854.02 3.5240 1.9956 2.1879 291.11 0.081060 11.136 0.032881
141.38 11.287 undefined 778.38 856.21 3.5288 1.0000 1.0000 778.38 856.21 3.5288 2.0000 2.1923 291.44 0.080519 11.161 0.033025 1.0000 1.0000 778.38 856.21 3.5288 2.0000 2.1923 291.44 0.080519 11.161 0.033025
142.38 11.315 undefined 780.39 858.40 3.5336 1.0000 1.0000 780.39 858.40 3.5336 2.0044 2.1966 291.77 0.079984 11.186 0.033168 1.0000 1.0000 780.39 858.40 3.5336 2.0044 2.1966 291.77 0.079984 11.186 0.033168
143.38 11.342 undefined 782.39 860.59 3.5385 1.0000 1.0000 782.39 860.59 3.5385 2.0087 2.2010 292.10 0.079453 11.211 0.033312 1.0000 1.0000 782.39 860.59 3.5385 2.0087 2.2010 292.10 0.079453 11.211 0.033312
144.38 11.370 undefined 784.40 862.79 3.5433 1.0000 1.0000 784.40 862.79 3.5433 2.0131 2.2053 292.42 0.078928 11.237 0.033457 1.0000 1.0000 784.40 862.79 3.5433 2.0131 2.2053 292.42 0.078928 11.237 0.033457
145.38 11.397 undefined 786.42 865.00 3.5481 1.0000 1.0000 786.42 865.00 3.5481 2.0175 2.2097 292.75 0.078408 11.262 0.033601 1.0000 1.0000 786.42 865.00 3.5481 2.0175 2.2097 292.75 0.078408 11.262 0.033601
146.38 11.425 undefined 788.44 867.21 3.5529 1.0000 1.0000 788.44 867.21 3.5529 2.0218 2.2140 293.08 0.077893 11.287 0.033746 1.0000 1.0000 788.44 867.21 3.5529 2.0218 2.2140 293.08 0.077893 11.287 0.033746
147.38 11.452 undefined 790.46 869.42 3.5577 1.0000 1.0000 790.46 869.42 3.5577 2.0262 2.2184 293.41 0.077383 11.312 0.033891 1.0000 1.0000 790.46 869.42 3.5577 2.0262 2.2184 293.41 0.077383 11.312 0.033891
148.38 11.480 undefined 792.49 871.64 3.5626 1.0000 1.0000 792.49 871.64 3.5626 2.0305 2.2227 293.73 0.076879 11.337 0.034036 1.0000 1.0000 792.49 871.64 3.5626 2.0305 2.2227 293.73 0.076879 11.337 0.034036
149.38 11.507 undefined 794.52 873.86 3.5674 1.0000 1.0000 794.52 873.86 3.5674 2.0349 2.2270 294.06 0.076379 11.363 0.034182 1.0000 1.0000 794.52 873.86 3.5674 2.0349 2.2270 294.06 0.076379 11.363 0.034182
150.38 11.535 undefined 796.56 876.09 3.5722 1.0000 1.0000 796.56 876.09 3.5722 2.0392 2.2313 294.39 0.075883 11.388 0.034328 1.0000 1.0000 796.56 876.09 3.5722 2.0392 2.2313 294.39 0.075883 11.388 0.034328
151.38 11.562 undefined 798.60 878.32 3.5770 1.0000 1.0000 798.60 878.32 3.5770 2.0435 2.2357 294.71 0.075393 11.413 0.034474 1.0000 1.0000 798.60 878.32 3.5770 2.0435 2.2357 294.71 0.075393 11.413 0.034474
152.38 11.590 undefined 800.65 880.56 3.5818 1.0000 1.0000 800.65 880.56 3.5818 2.0479 2.2400 295.04 0.074907 11.438 0.034621 1.0000 1.0000 800.65 880.56 3.5818 2.0479 2.2400 295.04 0.074907 11.438 0.034621
153.38 11.617 undefined 802.70 882.79 3.5866 1.0000 1.0000 802.70 882.79 3.5866 2.0522 2.2443 295.36 0.074426 11.463 0.034768 1.0000 1.0000 802.70 882.79 3.5866 2.0522 2.2443 295.36 0.074426 11.463 0.034768
154.38 11.645 undefined 804.75 885.04 3.5914 1.0000 1.0000 804.75 885.04 3.5914 2.0565 2.2486 295.69 0.073950 11.488 0.034915 1.0000 1.0000 804.75 885.04 3.5914 2.0565 2.2486 295.69 0.073950 11.488 0.034915
155.38 11.672 undefined 806.81 887.29 3.5963 1.0000 1.0000 806.81 887.29 3.5963 2.0608 2.2529 296.01 0.073478 11.513 0.035062 1.0000 1.0000 806.81 887.29 3.5963 2.0608 2.2529 296.01 0.073478 11.513 0.035062
156.38 11.700 undefined 808.87 889.54 3.6011 1.0000 1.0000 808.87 889.54 3.6011 2.0651 2.2572 296.34 0.073011 11.538 0.035210 1.0000 1.0000 808.87 889.54 3.6011 2.0651 2.2572 296.34 0.073011 11.538 0.035210
157.38 11.727 undefined 810.94 891.80 3.6059 1.0000 1.0000 810.94 891.80 3.6059 2.0694 2.2615 296.66 0.072548 11.563 0.035358 1.0000 1.0000 810.94 891.80 3.6059 2.0694 2.2615 296.66 0.072548 11.563 0.035358
158.38 11.755 undefined 813.01 894.06 3.6107 1.0000 1.0000 813.01 894.06 3.6107 2.0737 2.2658 296.99 0.072089 11.588 0.035506 1.0000 1.0000 813.01 894.06 3.6107 2.0737 2.2658 296.99 0.072089 11.588 0.035506
159.38 11.782 undefined 815.09 896.32 3.6155 1.0000 1.0000 815.09 896.32 3.6155 2.0780 2.2700 297.31 0.071635 11.613 0.035655 1.0000 1.0000 815.09 896.32 3.6155 2.0780 2.2700 297.31 0.071635 11.613 0.035655
160.38 11.810 undefined 817.17 898.59 3.6203 1.0000 1.0000 817.17 898.59 3.6203 2.0823 2.2743 297.63 0.071185 11.638 0.035804 1.0000 1.0000 817.17 898.59 3.6203 2.0823 2.2743 297.63 0.071185 11.638 0.035804
161.38 11.837 undefined 819.25 900.87 3.6251 1.0000 1.0000 819.25 900.87 3.6251 2.0866 2.2786 297.95 0.070740 11.663 0.035953 1.0000 1.0000 819.25 900.87 3.6251 2.0866 2.2786 297.95 0.070740 11.663 0.035953
162.38 11.865 undefined 821.34 903.14 3.6299 1.0000 1.0000 821.34 903.14 3.6299 2.0909 2.2829 298.28 0.070298 11.688 0.036102 1.0000 1.0000 821.34 903.14 3.6299 2.0909 2.2829 298.28 0.070298 11.688 0.036102
163.38 11.892 undefined 823.43 905.43 3.6347 1.0000 1.0000 823.43 905.43 3.6347 2.0952 2.2871 298.60 0.069860 11.713 0.036252 1.0000 1.0000 823.43 905.43 3.6347 2.0952 2.2871 298.60 0.069860 11.713 0.036252
164.38 11.920 undefined 825.53 907.71 3.6395 1.0000 1.0000 825.53 907.71 3.6395 2.0994 2.2914 298.92 0.069427 11.738 0.036402 1.0000 1.0000 825.53 907.71 3.6395 2.0994 2.2914 298.92 0.069427 11.738 0.036402
165.38 11.947 undefined 827.63 910.01 3.6443 1.0000 1.0000 827.63 910.01 3.6443 2.1037 2.2956 299.24 0.068998 11.763 0.036553 1.0000 1.0000 827.63 910.01 3.6443 2.1037 2.2956 299.24 0.068998 11.763 0.036553
166.38 11.975 undefined 829.74 912.30 3.6491 1.0000 1.0000 829.74 912.30 3.6491 2.1080 2.2999 299.56 0.068572 11.788 0.036703 1.0000 1.0000 829.74 912.30 3.6491 2.1080 2.2999 299.56 0.068572 11.788 0.036703
167.38 12.002 undefined 831.85 914.60 3.6539 1.0000 1.0000 831.85 914.60 3.6539 2.1122 2.3041 299.88 0.068151 11.813 0.036854 1.0000 1.0000 831.85 914.60 3.6539 2.1122 2.3041 299.88 0.068151 11.813 0.036854
168.38 12.030 undefined 833.96 916.90 3.6587 1.0000 1.0000 833.96 916.90 3.6587 2.1165 2.3084 300.20 0.067733 11.838 0.037005 1.0000 1.0000 833.96 916.90 3.6587 2.1165 2.3084 300.20 0.067733 11.838 0.037005
169.38 12.057 undefined 836.08 919.21 3.6635 1.0000 1.0000 836.08 919.21 3.6635 2.1207 2.3126 300.52 0.067319 11.863 0.037157 1.0000 1.0000 836.08 919.21 3.6635 2.1207 2.3126 300.52 0.067319 11.863 0.037157
170.38 12.085 undefined 838.20 921.52 3.6683 1.0000 1.0000 838.20 921.52 3.6683 2.1250 2.3168 300.84 0.066909 11.887 0.037309 1.0000 1.0000 838.20 921.52 3.6683 2.1250 2.3168 300.84 0.066909 11.887 0.037309
171.38 12.112 undefined 840.33 923.84 3.6730 1.0000 1.0000 840.33 923.84 3.6730 2.1292 2.3211 301.16 0.066503 11.912 0.037461 1.0000 1.0000 840.33 923.84 3.6730 2.1292 2.3211 301.16 0.066503 11.912 0.037461
172.38 12.139 undefined 842.46 926.16 3.6778 1.0000 1.0000 842.46 926.16 3.6778 2.1335 2.3253 301.48 0.066100 11.937 0.037613 1.0000 1.0000 842.46 926.16 3.6778 2.1335 2.3253 301.48 0.066100 11.937 0.037613
173.38 12.167 undefined 844.60 928.49 3.6826 1.0000 1.0000 844.60 928.49 3.6826 2.1377 2.3295 301.80 0.065701 11.962 0.037766 1.0000 1.0000 844.60 928.49 3.6826 2.1377 2.3295 301.80 0.065701 11.962 0.037766
174.38 12.194 undefined 846.74 930.82 3.6874 1.0000 1.0000 846.74 930.82 3.6874 2.1419 2.3337 302.12 0.065305 11.987 0.037919 1.0000 1.0000 846.74 930.82 3.6874 2.1419 2.3337 302.12 0.065305 11.987 0.037919
175.38 12.222 undefined 848.88 933.15 3.6922 1.0000 1.0000 848.88 933.15 3.6922 2.1461 2.3379 302.44 0.064913 12.011 0.038072 1.0000 1.0000 848.88 933.15 3.6922 2.1461 2.3379 302.44 0.064913 12.011 0.038072
176.38 12.249 undefined 851.03 935.49 3.6970 1.0000 1.0000 851.03 935.49 3.6970 2.1503 2.3421 302.75 0.064525 12.036 0.038226 1.0000 1.0000 851.03 935.49 3.6970 2.1503 2.3421 302.75 0.064525 12.036 0.038226
177.38 12.277 undefined 853.18 937.83 3.7018 1.0000 1.0000 853.18 937.83 3.7018 2.1545 2.3463 303.07 0.064140 12.061 0.038379 1.0000 1.0000 853.18 937.83 3.7018 2.1545 2.3463 303.07 0.064140 12.061 0.038379
178.38 12.304 undefined 855.34 940.18 3.7065 1.0000 1.0000 855.34 940.18 3.7065 2.1587 2.3505 303.39 0.063758 12.086 0.038534 1.0000 1.0000 855.34 940.18 3.7065 2.1587 2.3505 303.39 0.063758 12.086 0.038534
179.38 12.332 undefined 857.50 942.53 3.7113 1.0000 1.0000 857.50 942.53 3.7113 2.1629 2.3547 303.70 0.063380 12.110 0.038688 1.0000 1.0000 857.50 942.53 3.7113 2.1629 2.3547 303.70 0.063380 12.110 0.038688
180.38 12.359 undefined 859.67 944.88 3.7161 1.0000 1.0000 859.67 944.88 3.7161 2.1671 2.3589 304.02 0.063005 12.135 0.038843 1.0000 1.0000 859.67 944.88 3.7161 2.1671 2.3589 304.02 0.063005 12.135 0.038843
181.38 12.387 undefined 861.84 947.24 3.7209 1.0000 1.0000 861.84 947.24 3.7209 2.1713 2.3631 304.34 0.062634 12.160 0.038998 1.0000 1.0000 861.84 947.24 3.7209 2.1713 2.3631 304.34 0.062634 12.160 0.038998
182.38 12.414 undefined 864.01 949.60 3.7257 1.0000 1.0000 864.01 949.60 3.7257 2.1755 2.3672 304.65 0.062265 12.184 0.039153 1.0000 1.0000 864.01 949.60 3.7257 2.1755 2.3672 304.65 0.062265 12.184 0.039153
183.38 12.442 undefined 866.19 951.97 3.7304 1.0000 1.0000 866.19 951.97 3.7304 2.1797 2.3714 304.97 0.061900 12.209 0.039309 1.0000 1.0000 866.19 951.97 3.7304 2.1797 2.3714 304.97 0.061900 12.209 0.039309
184.38 12.469 undefined 868.37 954.34 3.7352 1.0000 1.0000 868.37 954.34 3.7352 2.1838 2.3755 305.28 0.061538 12.233 0.039464 1.0000 1.0000 868.37 954.34 3.7352 2.1838 2.3755 305.28 0.061538 12.233 0.039464
185.38 12.497 undefined 870.55 956.72 3.7400 1.0000 1.0000 870.55 956.72 3.7400 2.1880 2.3797 305.60 0.061180 12.258 0.039621 1.0000 1.0000 870.55 956.72 3.7400 2.1880 2.3797 305.60 0.061180 12.258 0.039621
186.38 12.524 undefined 872.74 959.10 3.7448 1.0000 1.0000 872.74 959.10 3.7448 2.1922 2.3839 305.91 0.060824 12.283 0.039777 1.0000 1.0000 872.74 959.10 3.7448 2.1922 2.3839 305.91 0.060824 12.283 0.039777
187.38 12.552 undefined 874.94 961.48 3.7495 1.0000 1.0000 874.94 961.48 3.7495 2.1963 2.3880 306.23 0.060471 12.307 0.039934 1.0000 1.0000 874.94 961.48 3.7495 2.1963 2.3880 306.23 0.060471 12.307 0.039934
188.38 12.579 undefined 877.14 963.87 3.7543 1.0000 1.0000 877.14 963.87 3.7543 2.2005 2.3921 306.54 0.060122 12.332 0.040091 1.0000 1.0000 877.14 963.87 3.7543 2.2005 2.3921 306.54 0.060122 12.332 0.040091
189.38 12.607 undefined 879.34 966.26 3.7591 1.0000 1.0000 879.34 966.26 3.7591 2.2046 2.3963 306.85 0.059775 12.356 0.040248 1.0000 1.0000 879.34 966.26 3.7591 2.2046 2.3963 306.85 0.059775 12.356 0.040248
190.38 12.634 undefined 881.55 968.65 3.7638 1.0000 1.0000 881.55 968.65 3.7638 2.2088 2.4004 307.17 0.059432 12.381 0.040406 1.0000 1.0000 881.55 968.65 3.7638 2.2088 2.4004 307.17 0.059432 12.381 0.040406
191.38 12.662 undefined 883.76 971.06 3.7686 1.0000 1.0000 883.76 971.06 3.7686 2.2129 2.4045 307.48 0.059091 12.405 0.040564 1.0000 1.0000 883.76 971.06 3.7686 2.2129 2.4045 307.48 0.059091 12.405 0.040564
192.38 12.689 undefined 885.97 973.46 3.7733 1.0000 1.0000 885.97 973.46 3.7733 2.2170 2.4086 307.79 0.058753 12.430 0.040722 1.0000 1.0000 885.97 973.46 3.7733 2.2170 2.4086 307.79 0.058753 12.430 0.040722
193.38 12.717 undefined 888.19 975.87 3.7781 1.0000 1.0000 888.19 975.87 3.7781 2.2211 2.4127 308.10 0.058418 12.454 0.040881 1.0000 1.0000 888.19 975.87 3.7781 2.2211 2.4127 308.10 0.058418 12.454 0.040881
194.38 12.744 undefined 890.41 978.28 3.7829 1.0000 1.0000 890.41 978.28 3.7829 2.2253 2.4169 308.42 0.058086 12.479 0.041039 1.0000 1.0000 890.41 978.28 3.7829 2.2253 2.4169 308.42 0.058086 12.479 0.041039
195.38 12.772 undefined 892.64 980.70 3.7876 1.0000 1.0000 892.64 980.70 3.7876 2.2294 2.4210 308.73 0.057757 12.503 0.041198 1.0000 1.0000 892.64 980.70 3.7876 2.2294 2.4210 308.73 0.057757 12.503 0.041198
196.38 12.799 undefined 894.87 983.12 3.7924 1.0000 1.0000 894.87 983.12 3.7924 2.2335 2.4251 309.04 0.057430 12.527 0.041358 1.0000 1.0000 894.87 983.12 3.7924 2.2335 2.4251 309.04 0.057430 12.527 0.041358
197.38 12.826 undefined 897.11 985.54 3.7971 1.0000 1.0000 897.11 985.54 3.7971 2.2376 2.4291 309.35 0.057107 12.552 0.041517 1.0000 1.0000 897.11 985.54 3.7971 2.2376 2.4291 309.35 0.057107 12.552 0.041517
198.38 12.854 undefined 899.35 987.97 3.8019 1.0000 1.0000 899.35 987.97 3.8019 2.2417 2.4332 309.66 0.056786 12.576 0.041677 1.0000 1.0000 899.35 987.97 3.8019 2.2417 2.4332 309.66 0.056786 12.576 0.041677
199.38 12.881 undefined 901.59 990.41 3.8067 1.0000 1.0000 901.59 990.41 3.8067 2.2458 2.4373 309.97 0.056467 12.600 0.041838 1.0000 1.0000 901.59 990.41 3.8067 2.2458 2.4373 309.97 0.056467 12.600 0.041838
200.38 12.909 undefined 903.84 992.84 3.8114 1.0000 1.0000 903.84 992.84 3.8114 2.2499 2.4414 310.28 0.056151 12.625 0.041998 1.0000 1.0000 903.84 992.84 3.8114 2.2499 2.4414 310.28 0.056151 12.625 0.041998
201.38 12.936 undefined 906.09 995.28 3.8162 1.0000 1.0000 906.09 995.28 3.8162 2.2539 2.4455 310.59 0.055838 12.649 0.042159 1.0000 1.0000 906.09 995.28 3.8162 2.2539 2.4455 310.59 0.055838 12.649 0.042159
202.38 12.964 undefined 908.35 997.73 3.8209 1.0000 1.0000 908.35 997.73 3.8209 2.2580 2.4495 310.90 0.055528 12.673 0.042320 1.0000 1.0000 908.35 997.73 3.8209 2.2580 2.4495 310.90 0.055528 12.673 0.042320
203.38 12.991 undefined 910.61 1000.2 3.8257 1.0000 1.0000 910.61 1000.2 3.8257 2.2621 2.4536 311.21 0.055220 12.698 0.042482 1.0000 1.0000 910.61 1000.2 3.8257 2.2621 2.4536 311.21 0.055220 12.698 0.042482
204.38 13.019 undefined 912.87 1002.6 3.8304 1.0000 1.0000 912.87 1002.6 3.8304 2.2661 2.4576 311.52 0.054914 12.722 0.042643 1.0000 1.0000 912.87 1002.6 3.8304 2.2661 2.4576 311.52 0.054914 12.722 0.042643
205.38 13.046 undefined 915.14 1005.1 3.8351 1.0000 1.0000 915.14 1005.1 3.8351 2.2702 2.4617 311.83 0.054611 12.746 0.042805 1.0000 1.0000 915.14 1005.1 3.8351 2.2702 2.4617 311.83 0.054611 12.746 0.042805
206.38 13.074 undefined 917.41 1007.6 3.8399 1.0000 1.0000 917.41 1007.6 3.8399 2.2742 2.4657 312.14 0.054310 12.770 0.042968 1.0000 1.0000 917.41 1007.6 3.8399 2.2742 2.4657 312.14 0.054310 12.770 0.042968
207.38 13.101 undefined 919.69 1010.0 3.8446 1.0000 1.0000 919.69 1010.0 3.8446 2.2783 2.4698 312.45 0.054012 12.795 0.043130 1.0000 1.0000 919.69 1010.0 3.8446 2.2783 2.4698 312.45 0.054012 12.795 0.043130
208.38 13.129 undefined 921.97 1012.5 3.8494 1.0000 1.0000 921.97 1012.5 3.8494 2.2823 2.4738 312.75 0.053717 12.819 0.043293 1.0000 1.0000 921.97 1012.5 3.8494 2.2823 2.4738 312.75 0.053717 12.819 0.043293
209.38 13.156 undefined 924.25 1015.0 3.8541 1.0000 1.0000 924.25 1015.0 3.8541 2.2864 2.4778 313.06 0.053423 12.843 0.043456 1.0000 1.0000 924.25 1015.0 3.8541 2.2864 2.4778 313.06 0.053423 12.843 0.043456
210.38 13.184 undefined 926.54 1017.4 3.8588 1.0000 1.0000 926.54 1017.4 3.8588 2.2904 2.4818 313.37 0.053132 12.867 0.043620 1.0000 1.0000 926.54 1017.4 3.8588 2.2904 2.4818 313.37 0.053132 12.867 0.043620
211.38 13.211 undefined 928.83 1019.9 3.8636 1.0000 1.0000 928.83 1019.9 3.8636 2.2944 2.4858 313.68 0.052844 12.891 0.043784 1.0000 1.0000 928.83 1019.9 3.8636 2.2944 2.4858 313.68 0.052844 12.891 0.043784
212.38 13.239 undefined 931.13 1022.4 3.8683 1.0000 1.0000 931.13 1022.4 3.8683 2.2984 2.4899 313.98 0.052557 12.916 0.043948 1.0000 1.0000 931.13 1022.4 3.8683 2.2984 2.4899 313.98 0.052557 12.916 0.043948
213.38 13.266 undefined 933.43 1024.9 3.8731 1.0000 1.0000 933.43 1024.9 3.8731 2.3025 2.4939 314.29 0.052273 12.940 0.044112 1.0000 1.0000 933.43 1024.9 3.8731 2.3025 2.4939 314.29 0.052273 12.940 0.044112
214.38 13.294 undefined 935.73 1027.4 3.8778 1.0000 1.0000 935.73 1027.4 3.8778 2.3065 2.4979 314.59 0.051991 12.964 0.044277 1.0000 1.0000 935.73 1027.4 3.8778 2.3065 2.4979 314.59 0.051991 12.964 0.044277
215.38 13.321 undefined 938.04 1029.9 3.8825 1.0000 1.0000 938.04 1029.9 3.8825 2.3105 2.5018 314.90 0.051712 12.988 0.044441 1.0000 1.0000 938.04 1029.9 3.8825 2.3105 2.5018 314.90 0.051712 12.988 0.044441
216.38 13.348 undefined 940.36 1032.4 3.8872 1.0000 1.0000 940.36 1032.4 3.8872 2.3145 2.5058 315.21 0.051434 13.012 0.044607 1.0000 1.0000 940.36 1032.4 3.8872 2.3145 2.5058 315.21 0.051434 13.012 0.044607
217.38 13.376 undefined 942.67 1034.9 3.8920 1.0000 1.0000 942.67 1034.9 3.8920 2.3184 2.5098 315.51 0.051159 13.036 0.044772 1.0000 1.0000 942.67 1034.9 3.8920 2.3184 2.5098 315.51 0.051159 13.036 0.044772
218.38 13.403 undefined 944.99 1037.4 3.8967 1.0000 1.0000 944.99 1037.4 3.8967 2.3224 2.5138 315.82 0.050886 13.060 0.044938 1.0000 1.0000 944.99 1037.4 3.8967 2.3224 2.5138 315.82 0.050886 13.060 0.044938
219.38 13.431 undefined 947.32 1039.9 3.9014 1.0000 1.0000 947.32 1039.9 3.9014 2.3264 2.5178 316.12 0.050615 13.084 0.045104 1.0000 1.0000 947.32 1039.9 3.9014 2.3264 2.5178 316.12 0.050615 13.084 0.045104
220.38 13.458 undefined 949.65 1042.4 3.9061 1.0000 1.0000 949.65 1042.4 3.9061 2.3304 2.5217 316.43 0.050346 13.108 0.045270 1.0000 1.0000 949.65 1042.4 3.9061 2.3304 2.5217 316.43 0.050346 13.108 0.045270
221.38 13.486 undefined 951.98 1045.0 3.9109 1.0000 1.0000 951.98 1045.0 3.9109 2.3344 2.5257 316.73 0.050080 13.132 0.045437 1.0000 1.0000 951.98 1045.0 3.9109 2.3344 2.5257 316.73 0.050080 13.132 0.045437
222.38 13.513 undefined 954.31 1047.5 3.9156 1.0000 1.0000 954.31 1047.5 3.9156 2.3383 2.5296 317.03 0.049815 13.156 0.045604 1.0000 1.0000 954.31 1047.5 3.9156 2.3383 2.5296 317.03 0.049815 13.156 0.045604
223.38 13.541 undefined 956.65 1050.0 3.9203 1.0000 1.0000 956.65 1050.0 3.9203 2.3423 2.5336 317.34 0.049553 13.180 0.045771 1.0000 1.0000 956.65 1050.0 3.9203 2.3423 2.5336 317.34 0.049553 13.180 0.045771
224.38 13.568 undefined 959.00 1052.5 3.9250 1.0000 1.0000 959.00 1052.5 3.9250 2.3462 2.5375 317.64 0.049292 13.204 0.045939 1.0000 1.0000 959.00 1052.5 3.9250 2.3462 2.5375 317.64 0.049292 13.204 0.045939
225.38 13.596 undefined 961.35 1055.1 3.9297 1.0000 1.0000 961.35 1055.1 3.9297 2.3502 2.5415 317.94 0.049033 13.228 0.046107 1.0000 1.0000 961.35 1055.1 3.9297 2.3502 2.5415 317.94 0.049033 13.228 0.046107
226.38 13.623 undefined 963.70 1057.6 3.9344 1.0000 1.0000 963.70 1057.6 3.9344 2.3541 2.5454 318.25 0.048777 13.252 0.046275 1.0000 1.0000 963.70 1057.6 3.9344 2.3541 2.5454 318.25 0.048777 13.252 0.046275
227.38 13.651 undefined 966.06 1060.2 3.9392 1.0000 1.0000 966.06 1060.2 3.9392 2.3580 2.5493 318.55 0.048522 13.275 0.046443 1.0000 1.0000 966.06 1060.2 3.9392 2.3580 2.5493 318.55 0.048522 13.275 0.046443
228.38 13.678 undefined 968.42 1062.7 3.9439 1.0000 1.0000 968.42 1062.7 3.9439 2.3620 2.5532 318.85 0.048269 13.299 0.046612 1.0000 1.0000 968.42 1062.7 3.9439 2.3620 2.5532 318.85 0.048269 13.299 0.046612
229.38 13.706 undefined 970.78 1065.3 3.9486 1.0000 1.0000 970.78 1065.3 3.9486 2.3659 2.5572 319.15 0.048019 13.323 0.046781 1.0000 1.0000 970.78 1065.3 3.9486 2.3659 2.5572 319.15 0.048019 13.323 0.046781
230.38 13.733 undefined 973.15 1067.8 3.9533 1.0000 1.0000 973.15 1067.8 3.9533 2.3698 2.5611 319.45 0.047770 13.347 0.046950 1.0000 1.0000 973.15 1067.8 3.9533 2.3698 2.5611 319.45 0.047770 13.347 0.046950
231.38 13.761 undefined 975.52 1070.4 3.9580 1.0000 1.0000 975.52 1070.4 3.9580 2.3737 2.5650 319.76 0.047523 13.371 0.047120 1.0000 1.0000 975.52 1070.4 3.9580 2.3737 2.5650 319.76 0.047523 13.371 0.047120
232.38 13.788 undefined 977.89 1073.0 3.9627 1.0000 1.0000 977.89 1073.0 3.9627 2.3776 2.5689 320.06 0.047278 13.394 0.047290 1.0000 1.0000 977.89 1073.0 3.9627 2.3776 2.5689 320.06 0.047278 13.394 0.047290
233.38 13.815 undefined 980.27 1075.5 3.9674 1.0000 1.0000 980.27 1075.5 3.9674 2.3815 2.5728 320.36 0.047034 13.418 0.047460 1.0000 1.0000 980.27 1075.5 3.9674 2.3815 2.5728 320.36 0.047034 13.418 0.047460
234.38 13.843 undefined 982.66 1078.1 3.9721 1.0000 1.0000 982.66 1078.1 3.9721 2.3854 2.5766 320.66 0.046793 13.442 0.047630 1.0000 1.0000 982.66 1078.1 3.9721 2.3854 2.5766 320.66 0.046793 13.442 0.047630
235.38 13.870 undefined 985.04 1080.7 3.9768 1.0000 1.0000 985.04 1080.7 3.9768 2.3893 2.5805 320.96 0.046553 13.466 0.047801 1.0000 1.0000 985.04 1080.7 3.9768 2.3893 2.5805 320.96 0.046553 13.466 0.047801
236.38 13.898 undefined 987.44 1083.3 3.9815 1.0000 1.0000 987.44 1083.3 3.9815 2.3932 2.5844 321.26 0.046315 13.489 0.047972 1.0000 1.0000 987.44 1083.3 3.9815 2.3932 2.5844 321.26 0.046315 13.489 0.047972
237.38 13.925 undefined 989.83 1085.8 3.9862 1.0000 1.0000 989.83 1085.8 3.9862 2.3971 2.5883 321.56 0.046079 13.513 0.048143 1.0000 1.0000 989.83 1085.8 3.9862 2.3971 2.5883 321.56 0.046079 13.513 0.048143
238.38 13.953 undefined 992.23 1088.4 3.9909 1.0000 1.0000 992.23 1088.4 3.9909 2.4010 2.5921 321.86 0.045845 13.537 0.048315 1.0000 1.0000 992.23 1088.4 3.9909 2.4010 2.5921 321.86 0.045845 13.537 0.048315
239.38 13.980 undefined 994.63 1091.0 3.9956 1.0000 1.0000 994.63 1091.0 3.9956 2.4048 2.5960 322.16 0.045612 13.560 0.048487 1.0000 1.0000 994.63 1091.0 3.9956 2.4048 2.5960 322.16 0.045612 13.560 0.048487
240.38 14.008 undefined 997.04 1093.6 4.0003 1.0000 1.0000 997.04 1093.6 4.0003 2.4087 2.5999 322.46 0.045381 13.584 0.048659 1.0000 1.0000 997.04 1093.6 4.0003 2.4087 2.5999 322.46 0.045381 13.584 0.048659
241.38 14.035 undefined 999.45 1096.2 4.0050 1.0000 1.0000 999.45 1096.2 4.0050 2.4125 2.6037 322.76 0.045152 13.608 0.048832 1.0000 1.0000 999.45 1096.2 4.0050 2.4125 2.6037 322.76 0.045152 13.608 0.048832
242.38 14.063 undefined 1001.9 1098.8 4.0096 1.0000 1.0000 1001.9 1098.8 4.0096 2.4164 2.6075 323.05 0.044924 13.631 0.049004 1.0000 1.0000 1001.9 1098.8 4.0096 2.4164 2.6075 323.05 0.044924 13.631 0.049004
243.38 14.090 undefined 1004.3 1101.4 4.0143 1.0000 1.0000 1004.3 1101.4 4.0143 2.4202 2.6114 323.35 0.044698 13.655 0.049178 1.0000 1.0000 1004.3 1101.4 4.0143 2.4202 2.6114 323.35 0.044698 13.655 0.049178
244.38 14.118 undefined 1006.7 1104.0 4.0190 1.0000 1.0000 1006.7 1104.0 4.0190 2.4241 2.6152 323.65 0.044474 13.678 0.049351 1.0000 1.0000 1006.7 1104.0 4.0190 2.4241 2.6152 323.65 0.044474 13.678 0.049351
245.38 14.145 undefined 1009.1 1106.7 4.0237 1.0000 1.0000 1009.1 1106.7 4.0237 2.4279 2.6190 323.95 0.044251 13.702 0.049525 1.0000 1.0000 1009.1 1106.7 4.0237 2.4279 2.6190 323.95 0.044251 13.702 0.049525
246.38 14.173 undefined 1011.6 1109.3 4.0284 1.0000 1.0000 1011.6 1109.3 4.0284 2.4317 2.6229 324.24 0.044030 13.726 0.049699 1.0000 1.0000 1011.6 1109.3 4.0284 2.4317 2.6229 324.24 0.044030 13.726 0.049699
247.38 14.200 undefined 1014.0 1111.9 4.0331 1.0000 1.0000 1014.0 1111.9 4.0331 2.4356 2.6267 324.54 0.043811 13.749 0.049873 1.0000 1.0000 1014.0 1111.9 4.0331 2.4356 2.6267 324.54 0.043811 13.749 0.049873
248.38 14.227 undefined 1016.4 1114.5 4.0377 1.0000 1.0000 1016.4 1114.5 4.0377 2.4394 2.6305 324.84 0.043593 13.773 0.050047 1.0000 1.0000 1016.4 1114.5 4.0377 2.4394 2.6305 324.84 0.043593 13.773 0.050047
249.38 14.255 undefined 1018.9 1117.2 4.0424 1.0000 1.0000 1018.9 1117.2 4.0424 2.4432 2.6343 325.14 0.043376 13.796 0.050222 1.0000 1.0000 1018.9 1117.2 4.0424 2.4432 2.6343 325.14 0.043376 13.796 0.050222
250.38 14.282 undefined 1021.3 1119.8 4.0471 1.0000 1.0000 1021.3 1119.8 4.0471 2.4470 2.6381 325.43 0.043162 13.819 0.050397 1.0000 1.0000 1021.3 1119.8 4.0471 2.4470 2.6381 325.43 0.043162 13.819 0.050397
251.38 14.310 undefined 1023.8 1122.4 4.0518 1.0000 1.0000 1023.8 1122.4 4.0518 2.4508 2.6419 325.73 0.042948 13.843 0.050573 1.0000 1.0000 1023.8 1122.4 4.0518 2.4508 2.6419 325.73 0.042948 13.843 0.050573
252.38 14.337 undefined 1026.2 1125.1 4.0564 1.0000 1.0000 1026.2 1125.1 4.0564 2.4546 2.6457 326.02 0.042737 13.866 0.050748 1.0000 1.0000 1026.2 1125.1 4.0564 2.4546 2.6457 326.02 0.042737 13.866 0.050748
253.38 14.365 undefined 1028.7 1127.7 4.0611 1.0000 1.0000 1028.7 1127.7 4.0611 2.4584 2.6494 326.32 0.042526 13.890 0.050924 1.0000 1.0000 1028.7 1127.7 4.0611 2.4584 2.6494 326.32 0.042526 13.890 0.050924
254.38 14.392 undefined 1031.1 1130.4 4.0658 1.0000 1.0000 1031.1 1130.4 4.0658 2.4621 2.6532 326.61 0.042317 13.913 0.051101 1.0000 1.0000 1031.1 1130.4 4.0658 2.4621 2.6532 326.61 0.042317 13.913 0.051101
255.38 14.420 undefined 1033.6 1133.0 4.0704 1.0000 1.0000 1033.6 1133.0 4.0704 2.4659 2.6570 326.91 0.042110 13.936 0.051277 1.0000 1.0000 1033.6 1133.0 4.0704 2.4659 2.6570 326.91 0.042110 13.936 0.051277
256.38 14.447 undefined 1036.1 1135.7 4.0751 1.0000 1.0000 1036.1 1135.7 4.0751 2.4697 2.6608 327.20 0.041904 13.960 0.051454 1.0000 1.0000 1036.1 1135.7 4.0751 2.4697 2.6608 327.20 0.041904 13.960 0.051454
257.38 14.475 undefined 1038.5 1138.3 4.0798 1.0000 1.0000 1038.5 1138.3 4.0798 2.4735 2.6645 327.50 0.041700 13.983 0.051631 1.0000 1.0000 1038.5 1138.3 4.0798 2.4735 2.6645 327.50 0.041700 13.983 0.051631
258.38 14.502 undefined 1041.0 1141.0 4.0844 1.0000 1.0000 1041.0 1141.0 4.0844 2.4772 2.6683 327.79 0.041497 14.006 0.051809 1.0000 1.0000 1041.0 1141.0 4.0844 2.4772 2.6683 327.79 0.041497 14.006 0.051809
259.38 14.530 undefined 1043.5 1143.7 4.0891 1.0000 1.0000 1043.5 1143.7 4.0891 2.4810 2.6720 328.09 0.041295 14.030 0.051986 1.0000 1.0000 1043.5 1143.7 4.0891 2.4810 2.6720 328.09 0.041295 14.030 0.051986
260.38 14.557 undefined 1046.0 1146.3 4.0937 1.0000 1.0000 1046.0 1146.3 4.0937 2.4847 2.6758 328.38 0.041095 14.053 0.052165 1.0000 1.0000 1046.0 1146.3 4.0937 2.4847 2.6758 328.38 0.041095 14.053 0.052165
261.38 14.584 undefined 1048.5 1149.0 4.0984 1.0000 1.0000 1048.5 1149.0 4.0984 2.4885 2.6795 328.67 0.040896 14.076 0.052343 1.0000 1.0000 1048.5 1149.0 4.0984 2.4885 2.6795 328.67 0.040896 14.076 0.052343
262.38 14.612 undefined 1051.0 1151.7 4.1031 1.0000 1.0000 1051.0 1151.7 4.1031 2.4922 2.6832 328.97 0.040699 14.100 0.052521 1.0000 1.0000 1051.0 1151.7 4.1031 2.4922 2.6832 328.97 0.040699 14.100 0.052521
263.38 14.639 undefined 1053.4 1154.4 4.1077 1.0000 1.0000 1053.4 1154.4 4.1077 2.4959 2.6870 329.26 0.040503 14.123 0.052700 1.0000 1.0000 1053.4 1154.4 4.1077 2.4959 2.6870 329.26 0.040503 14.123 0.052700
264.38 14.667 undefined 1055.9 1157.1 4.1124 1.0000 1.0000 1055.9 1157.1 4.1124 2.4997 2.6907 329.55 0.040308 14.146 0.052880 1.0000 1.0000 1055.9 1157.1 4.1124 2.4997 2.6907 329.55 0.040308 14.146 0.052880
265.38 14.694 undefined 1058.4 1159.8 4.1170 1.0000 1.0000 1058.4 1159.8 4.1170 2.5034 2.6944 329.85 0.040115 14.169 0.053059 1.0000 1.0000 1058.4 1159.8 4.1170 2.5034 2.6944 329.85 0.040115 14.169 0.053059
266.38 14.722 undefined 1061.0 1162.5 4.1217 1.0000 1.0000 1061.0 1162.5 4.1217 2.5071 2.6981 330.14 0.039923 14.192 0.053239 1.0000 1.0000 1061.0 1162.5 4.1217 2.5071 2.6981 330.14 0.039923 14.192 0.053239
267.38 14.749 undefined 1063.5 1165.2 4.1263 1.0000 1.0000 1063.5 1165.2 4.1263 2.5108 2.7018 330.43 0.039732 14.215 0.053419 1.0000 1.0000 1063.5 1165.2 4.1263 2.5108 2.7018 330.43 0.039732 14.215 0.053419
268.38 14.777 undefined 1066.0 1167.9 4.1310 1.0000 1.0000 1066.0 1167.9 4.1310 2.5145 2.7055 330.72 0.039542 14.239 0.053599 1.0000 1.0000 1066.0 1167.9 4.1310 2.5145 2.7055 330.72 0.039542 14.239 0.053599
269.38 14.804 undefined 1068.5 1170.6 4.1356 1.0000 1.0000 1068.5 1170.6 4.1356 2.5182 2.7092 331.01 0.039354 14.262 0.053780 1.0000 1.0000 1068.5 1170.6 4.1356 2.5182 2.7092 331.01 0.039354 14.262 0.053780
270.38 14.832 undefined 1071.0 1173.3 4.1402 1.0000 1.0000 1071.0 1173.3 4.1402 2.5219 2.7129 331.31 0.039167 14.285 0.053961 1.0000 1.0000 1071.0 1173.3 4.1402 2.5219 2.7129 331.31 0.039167 14.285 0.053961
271.38 14.859 undefined 1073.5 1176.0 4.1449 1.0000 1.0000 1073.5 1176.0 4.1449 2.5256 2.7166 331.60 0.038982 14.308 0.054142 1.0000 1.0000 1073.5 1176.0 4.1449 2.5256 2.7166 331.60 0.038982 14.308 0.054142
272.38 14.887 undefined 1076.1 1178.7 4.1495 1.0000 1.0000 1076.1 1178.7 4.1495 2.5293 2.7202 331.89 0.038797 14.331 0.054324 1.0000 1.0000 1076.1 1178.7 4.1495 2.5293 2.7202 331.89 0.038797 14.331 0.054324
273.38 14.914 undefined 1078.6 1181.4 4.1541 1.0000 1.0000 1078.6 1181.4 4.1541 2.5330 2.7239 332.18 0.038614 14.354 0.054506 1.0000 1.0000 1078.6 1181.4 4.1541 2.5330 2.7239 332.18 0.038614 14.354 0.054506
274.38 14.941 undefined 1081.1 1184.1 4.1588 1.0000 1.0000 1081.1 1184.1 4.1588 2.5366 2.7276 332.47 0.038432 14.377 0.054688 1.0000 1.0000 1081.1 1184.1 4.1588 2.5366 2.7276 332.47 0.038432 14.377 0.054688
275.38 14.969 undefined 1083.7 1186.9 4.1634 1.0000 1.0000 1083.7 1186.9 4.1634 2.5403 2.7312 332.76 0.038251 14.400 0.054870 1.0000 1.0000 1083.7 1186.9 4.1634 2.5403 2.7312 332.76 0.038251 14.400 0.054870
276.38 14.996 undefined 1086.2 1189.6 4.1680 1.0000 1.0000 1086.2 1189.6 4.1680 2.5440 2.7349 333.05 0.038072 14.423 0.055053 1.0000 1.0000 1086.2 1189.6 4.1680 2.5440 2.7349 333.05 0.038072 14.423 0.055053
277.38 15.024 undefined 1088.8 1192.3 4.1727 1.0000 1.0000 1088.8 1192.3 4.1727 2.5476 2.7385 333.34 0.037894 14.446 0.055236 1.0000 1.0000 1088.8 1192.3 4.1727 2.5476 2.7385 333.34 0.037894 14.446 0.055236
278.38 15.051 undefined 1091.3 1195.1 4.1773 1.0000 1.0000 1091.3 1195.1 4.1773 2.5513 2.7422 333.63 0.037716 14.469 0.055419 1.0000 1.0000 1091.3 1195.1 4.1773 2.5513 2.7422 333.63 0.037716 14.469 0.055419
279.38 15.079 undefined 1093.9 1197.8 4.1819 1.0000 1.0000 1093.9 1197.8 4.1819 2.5549 2.7458 333.92 0.037540 14.492 0.055603 1.0000 1.0000 1093.9 1197.8 4.1819 2.5549 2.7458 333.92 0.037540 14.492 0.055603
280.38 15.106 undefined 1096.4 1200.6 4.1865 1.0000 1.0000 1096.4 1200.6 4.1865 2.5586 2.7495 334.21 0.037366 14.515 0.055786 1.0000 1.0000 1096.4 1200.6 4.1865 2.5586 2.7495 334.21 0.037366 14.515 0.055786
281.38 15.134 undefined 1099.0 1203.3 4.1912 1.0000 1.0000 1099.0 1203.3 4.1912 2.5622 2.7531 334.49 0.037192 14.538 0.055971 1.0000 1.0000 1099.0 1203.3 4.1912 2.5622 2.7531 334.49 0.037192 14.538 0.055971
282.38 15.161 undefined 1101.5 1206.1 4.1958 1.0000 1.0000 1101.5 1206.1 4.1958 2.5658 2.7567 334.78 0.037019 14.560 0.056155 1.0000 1.0000 1101.5 1206.1 4.1958 2.5658 2.7567 334.78 0.037019 14.560 0.056155
283.38 15.189 undefined 1104.1 1208.8 4.2004 1.0000 1.0000 1104.1 1208.8 4.2004 2.5695 2.7603 335.07 0.036848 14.583 0.056340 1.0000 1.0000 1104.1 1208.8 4.2004 2.5695 2.7603 335.07 0.036848 14.583 0.056340
284.38 15.216 undefined 1106.7 1211.6 4.2050 1.0000 1.0000 1106.7 1211.6 4.2050 2.5731 2.7639 335.36 0.036678 14.606 0.056525 1.0000 1.0000 1106.7 1211.6 4.2050 2.5731 2.7639 335.36 0.036678 14.606 0.056525
285.38 15.244 undefined 1109.3 1214.4 4.2096 1.0000 1.0000 1109.3 1214.4 4.2096 2.5767 2.7676 335.65 0.036508 14.629 0.056710 1.0000 1.0000 1109.3 1214.4 4.2096 2.5767 2.7676 335.65 0.036508 14.629 0.056710
286.38 15.271 undefined 1111.8 1217.1 4.2142 1.0000 1.0000 1111.8 1217.1 4.2142 2.5803 2.7712 335.93 0.036340 14.652 0.056896 1.0000 1.0000 1111.8 1217.1 4.2142 2.5803 2.7712 335.93 0.036340 14.652 0.056896
287.38 15.298 undefined 1114.4 1219.9 4.2189 1.0000 1.0000 1114.4 1219.9 4.2189 2.5839 2.7748 336.22 0.036173 14.674 0.057082 1.0000 1.0000 1114.4 1219.9 4.2189 2.5839 2.7748 336.22 0.036173 14.674 0.057082
288.38 15.326 undefined 1117.0 1222.7 4.2235 1.0000 1.0000 1117.0 1222.7 4.2235 2.5875 2.7783 336.51 0.036007 14.697 0.057268 1.0000 1.0000 1117.0 1222.7 4.2235 2.5875 2.7783 336.51 0.036007 14.697 0.057268
289.38 15.353 undefined 1119.6 1225.4 4.2281 1.0000 1.0000 1119.6 1225.4 4.2281 2.5911 2.7819 336.79 0.035842 14.720 0.057454 1.0000 1.0000 1119.6 1225.4 4.2281 2.5911 2.7819 336.79 0.035842 14.720 0.057454
290.38 15.381 undefined 1122.2 1228.2 4.2327 1.0000 1.0000 1122.2 1228.2 4.2327 2.5947 2.7855 337.08 0.035678 14.743 0.057641 1.0000 1.0000 1122.2 1228.2 4.2327 2.5947 2.7855 337.08 0.035678 14.743 0.057641
291.38 15.408 undefined 1124.8 1231.0 4.2373 1.0000 1.0000 1124.8 1231.0 4.2373 2.5983 2.7891 337.37 0.035516 14.765 0.057828 1.0000 1.0000 1124.8 1231.0 4.2373 2.5983 2.7891 337.37 0.035516 14.765 0.057828
292.38 15.436 undefined 1127.4 1233.8 4.2419 1.0000 1.0000 1127.4 1233.8 4.2419 2.6018 2.7927 337.65 0.035354 14.788 0.058016 1.0000 1.0000 1127.4 1233.8 4.2419 2.6018 2.7927 337.65 0.035354 14.788 0.058016
293.38 15.463 undefined 1130.0 1236.6 4.2465 1.0000 1.0000 1130.0 1236.6 4.2465 2.6054 2.7962 337.94 0.035193 14.811 0.058203 1.0000 1.0000 1130.0 1236.6 4.2465 2.6054 2.7962 337.94 0.035193 14.811 0.058203
294.38 15.491 undefined 1132.6 1239.4 4.2511 1.0000 1.0000 1132.6 1239.4 4.2511 2.6090 2.7998 338.22 0.035033 14.833 0.058391 1.0000 1.0000 1132.6 1239.4 4.2511 2.6090 2.7998 338.22 0.035033 14.833 0.058391
295.38 15.518 undefined 1135.2 1242.2 4.2557 1.0000 1.0000 1135.2 1242.2 4.2557 2.6125 2.8033 338.51 0.034875 14.856 0.058579 1.0000 1.0000 1135.2 1242.2 4.2557 2.6125 2.8033 338.51 0.034875 14.856 0.058579
296.38 15.546 undefined 1137.8 1245.0 4.2603 1.0000 1.0000 1137.8 1245.0 4.2603 2.6161 2.8069 338.80 0.034717 14.879 0.058768 1.0000 1.0000 1137.8 1245.0 4.2603 2.6161 2.8069 338.80 0.034717 14.879 0.058768
297.38 15.573 undefined 1140.4 1247.8 4.2649 1.0000 1.0000 1140.4 1247.8 4.2649 2.6196 2.8104 339.08 0.034560 14.901 0.058957 1.0000 1.0000 1140.4 1247.8 4.2649 2.6196 2.8104 339.08 0.034560 14.901 0.058957
298.38 15.600 undefined 1143.1 1250.6 4.2695 1.0000 1.0000 1143.1 1250.6 4.2695 2.6232 2.8140 339.36 0.034405 14.924 0.059146 1.0000 1.0000 1143.1 1250.6 4.2695 2.6232 2.8140 339.36 0.034405 14.924 0.059146
299.38 15.628 undefined 1145.7 1253.4 4.2740 1.0000 1.0000 1145.7 1253.4 4.2740 2.6267 2.8175 339.65 0.034250 14.946 0.059335 1.0000 1.0000 1145.7 1253.4 4.2740 2.6267 2.8175 339.65 0.034250 14.946 0.059335
300.38 15.655 undefined 1148.3 1256.2 4.2786 1.0000 1.0000 1148.3 1256.2 4.2786 2.6302 2.8210 339.93 0.034096 14.969 0.059525 1.0000 1.0000 1148.3 1256.2 4.2786 2.6302 2.8210 339.93 0.034096 14.969 0.059525