Temperature (C) Pressure (psia) Quality (l+v) Internal Energy (l+v, kJ/kg) Enthalpy (l+v, kJ/kg) Entropy (l+v, J/g*K) Density (l, kg/m3) Volume (l, m3/kg) Internal Energy (l, kJ/kg) Enthalpy (l, kJ/kg) Entropy (l, J/g*K) Cv (l, J/g*K) Cp (l, J/g*K) Sound Spd. (l, m/s) Joule-Thomson (l, F/psia) Viscosity (l, uPa*s) Therm. Cond. (l, W/m*K) Density (v, kg/m3) Volume (v, m3/kg) Internal Energy (v, kJ/kg) Enthalpy (v, kJ/kg) Entropy (v, J/g*K) Cv (v, J/g*K) Cp (v, J/g*K) Sound Spd. (v, m/s) Joule-Thomson (v, F/psia) Viscosity (v, uPa*s) Therm. Cond. (v, W/m*K)
-187.62 2.4953e-08 9.2135e-11 -196.64 -196.64 -1.3959 733.13 0.0013640 -196.64 -196.64 -1.3959 1.3553 1.9158 2136.4 -0.0077592 10960. 0.20792 1.0669e-08 9.3732e+07 350.13 366.26 5.1858 0.69067 0.87923 143.28 6.1051 2.3259 0.0017061
-186.62 3.7339e-08 1.3625e-10 -194.73 -194.73 -1.3736 732.08 0.0013660 -194.73 -194.73 -1.3736 1.3539 1.9166 2129.6 -0.0077546 10073. 0.20765 1.5780e-08 6.3371e+07 350.82 367.14 5.1200 0.69462 0.88317 144.03 5.9178 2.3534 0.0017533
-185.62 5.5322e-08 1.9951e-10 -192.81 -192.81 -1.3516 731.04 0.0013679 -192.81 -192.81 -1.3516 1.3525 1.9174 2122.9 -0.0077498 9276.1 0.20737 2.3112e-08 4.3267e+07 351.52 368.02 5.0561 0.69857 0.88713 144.77 5.7383 2.3808 0.0018007
-184.62 8.1182e-08 2.8940e-10 -190.89 -190.89 -1.3298 730.00 0.0013699 -190.89 -190.89 -1.3298 1.3513 1.9182 2116.1 -0.0077448 8557.8 0.20708 3.3533e-08 2.9821e+07 352.22 368.91 4.9939 0.70253 0.89108 145.51 5.5662 2.4083 0.0018485
-183.62 1.1803e-07 4.1597e-10 -188.97 -188.97 -1.3083 728.96 0.0013718 -188.97 -188.97 -1.3083 1.3501 1.9191 2109.3 -0.0077395 7909.8 0.20678 4.8211e-08 2.0742e+07 352.92 369.81 4.9333 0.70648 0.89504 146.24 5.4011 2.4357 0.0018965
-182.62 1.7009e-07 5.9266e-10 -187.05 -187.05 -1.2869 727.92 0.0013738 -187.05 -187.05 -1.2869 1.3490 1.9201 2102.5 -0.0077340 7324.3 0.20647 6.8704e-08 1.4555e+07 353.63 370.70 4.8744 0.71043 0.89899 146.97 5.2426 2.4632 0.0019448
-181.62 2.4299e-07 8.3723e-10 -185.13 -185.13 -1.2658 726.88 0.0013757 -185.13 -185.13 -1.2658 1.3480 1.9210 2095.7 -0.0077283 6794.5 0.20616 9.7079e-08 1.0301e+07 354.35 371.60 4.8170 0.71438 0.90294 147.69 5.0904 2.4906 0.0019934
-180.62 3.4425e-07 1.1730e-09 -183.21 -183.21 -1.2450 725.85 0.0013777 -183.21 -183.21 -1.2450 1.3470 1.9220 2088.9 -0.0077225 6314.4 0.20584 1.3605e-07 7.3504e+06 355.06 372.51 4.7612 0.71833 0.90688 148.41 4.9442 2.5181 0.0020423
-179.62 4.8378e-07 1.6305e-09 -181.29 -181.29 -1.2243 724.81 0.0013797 -181.29 -181.29 -1.2243 1.3461 1.9231 2082.0 -0.0077164 5878.8 0.20551 1.8915e-07 5.2868e+06 355.78 373.42 4.7068 0.72227 0.91082 149.13 4.8038 2.5456 0.0020915
-178.62 6.7459e-07 2.2491e-09 -179.37 -179.37 -1.2038 723.78 0.0013816 -179.37 -179.37 -1.2038 1.3453 1.9241 2075.2 -0.0077102 5482.9 0.20517 2.6096e-07 3.8320e+06 356.51 374.33 4.6538 0.72620 0.91475 149.84 4.6688 2.5731 0.0021410
-177.62 9.3358e-07 3.0792e-09 -177.44 -177.44 -1.1836 722.75 0.0013836 -177.44 -177.44 -1.1836 1.3445 1.9252 2068.4 -0.0077039 5122.6 0.20483 3.5737e-07 2.7982e+06 357.23 375.25 4.6022 0.73012 0.91867 150.54 4.5390 2.6005 0.0021907
-176.62 1.2826e-06 4.1856e-09 -175.52 -175.52 -1.1635 721.72 0.0013856 -175.52 -175.52 -1.1635 1.3437 1.9263 2061.5 -0.0076973 4794.1 0.20447 4.8588e-07 2.0581e+06 357.97 376.17 4.5519 0.73403 0.92258 151.25 4.4142 2.6280 0.0022408
-175.62 1.7496e-06 5.6499e-09 -173.59 -173.59 -1.1437 720.69 0.0013876 -173.59 -173.59 -1.1437 1.3430 1.9274 2054.7 -0.0076907 4494.3 0.20411 6.5601e-07 1.5244e+06 358.70 377.09 4.5029 0.73792 0.92648 151.95 4.2941 2.6555 0.0022912
-174.62 2.3705e-06 7.5752e-09 -171.66 -171.66 -1.1240 719.66 0.0013895 -171.66 -171.66 -1.1240 1.3423 1.9286 2047.9 -0.0076838 4220.2 0.20375 8.7976e-07 1.1367e+06 359.44 378.02 4.4551 0.74181 0.93036 152.64 4.1784 2.6830 0.0023418
-173.62 3.1903e-06 1.0090e-08 -169.73 -169.73 -1.1045 718.64 0.0013915 -169.73 -169.73 -1.1045 1.3417 1.9298 2041.0 -0.0076769 3969.3 0.20338 1.1721e-06 8.5314e+05 360.19 378.95 4.4085 0.74568 0.93423 153.33 4.0671 2.7105 0.0023928
-172.62 4.2661e-06 1.3356e-08 -167.80 -167.80 -1.0852 717.61 0.0013935 -167.80 -167.80 -1.0852 1.3411 1.9310 2034.2 -0.0076698 3739.3 0.20300 1.5518e-06 6.4441e+05 360.93 379.89 4.3631 0.74953 0.93809 154.02 3.9599 2.7379 0.0024440
-171.62 5.6692e-06 1.7569e-08 -165.87 -165.87 -1.0661 716.58 0.0013955 -165.87 -165.87 -1.0661 1.3405 1.9322 2027.3 -0.0076625 3528.0 0.20261 2.0419e-06 4.8974e+05 361.69 380.83 4.3188 0.75337 0.94193 154.71 3.8566 2.7654 0.0024955
-170.62 7.4884e-06 2.2976e-08 -163.94 -163.94 -1.0472 715.56 0.0013975 -163.94 -163.94 -1.0472 1.3400 1.9334 2020.5 -0.0076552 3333.8 0.20222 2.6708e-06 3.7442e+05 362.44 381.77 4.2755 0.75720 0.94575 155.39 3.7570 2.7929 0.0025473
-169.62 9.8334e-06 2.9872e-08 -162.00 -162.00 -1.0284 714.54 0.0013995 -162.00 -162.00 -1.0284 1.3395 1.9347 2013.6 -0.0076477 3154.9 0.20182 3.4733e-06 2.8791e+05 363.20 382.72 4.2334 0.76100 0.94956 156.07 3.6609 2.8204 0.0025994
-168.62 1.2839e-05 3.8622e-08 -160.07 -160.07 -1.0098 713.52 0.0014015 -160.07 -160.07 -1.0098 1.3390 1.9359 2006.8 -0.0076401 2989.9 0.20141 4.4917e-06 2.2263e+05 363.96 383.67 4.1922 0.76479 0.95335 156.74 3.5683 2.8479 0.0026518
-167.62 1.6672e-05 4.9663e-08 -158.13 -158.13 -0.99134 712.49 0.0014035 -158.13 -158.13 -0.99134 1.3386 1.9372 2000.0 -0.0076323 2837.5 0.20100 5.7771e-06 1.7310e+05 364.73 384.63 4.1521 0.76856 0.95712 157.41 3.4790 2.8754 0.0027045
-166.62 2.1533e-05 6.3525e-08 -156.19 -156.19 -0.97306 711.47 0.0014055 -156.19 -156.19 -0.97306 1.3382 1.9385 1993.1 -0.0076245 2696.5 0.20058 7.3914e-06 1.3529e+05 365.50 385.59 4.1129 0.77232 0.96087 158.08 3.3927 2.9029 0.0027575
-165.62 2.7666e-05 8.0841e-08 -154.25 -154.25 -0.95494 710.45 0.0014075 -154.25 -154.25 -0.95494 1.3378 1.9398 1986.3 -0.0076165 2566.0 0.20016 9.4084e-06 1.0629e+05 366.27 386.55 4.0746 0.77605 0.96460 158.75 3.3095 2.9304 0.0028108
-164.62 3.5367e-05 1.0237e-07 -152.31 -152.31 -0.93698 709.44 0.0014096 -152.31 -152.31 -0.93698 1.3375 1.9411 1979.4 -0.0076084 2444.9 0.19973 1.1916e-05 83918. 367.05 387.52 4.0372 0.77976 0.96832 159.41 3.2291 2.9579 0.0028643
-163.62 4.4989e-05 1.2900e-07 -150.37 -150.37 -0.91917 708.42 0.0014116 -150.37 -150.37 -0.91917 1.3371 1.9424 1972.6 -0.0076002 2332.3 0.19930 1.5020e-05 66577. 367.83 388.49 4.0008 0.78346 0.97201 160.07 3.1514 2.9854 0.0029182
-162.62 5.6956e-05 1.6180e-07 -148.43 -148.43 -0.90151 707.40 0.0014136 -148.43 -148.43 -0.90151 1.3368 1.9437 1965.8 -0.0075919 2227.7 0.19886 1.8844e-05 53068. 368.62 389.46 3.9651 0.78713 0.97569 160.72 3.0764 3.0129 0.0029723
-161.62 7.1773e-05 2.0201e-07 -146.48 -146.48 -0.88400 706.38 0.0014157 -146.48 -146.48 -0.88400 1.3365 1.9451 1959.0 -0.0075834 2130.2 0.19841 2.3533e-05 42494. 369.41 390.44 3.9304 0.79079 0.97935 161.38 3.0038 3.0404 0.0030268
-160.62 9.0036e-05 2.5110e-07 -144.54 -144.54 -0.86663 705.37 0.0014177 -144.54 -144.54 -0.86663 1.3363 1.9465 1952.1 -0.0075748 2039.2 0.19796 2.9258e-05 34178. 370.20 391.42 3.8964 0.79443 0.98298 162.03 2.9337 3.0679 0.0030815
-159.62 0.00011245 3.1078e-07 -142.59 -142.59 -0.84940 704.35 0.0014197 -142.59 -142.59 -0.84940 1.3360 1.9478 1945.3 -0.0075661 1954.2 0.19751 3.6221e-05 27609. 371.00 392.40 3.8632 0.79805 0.98660 162.68 2.8658 3.0955 0.0031365
-158.62 0.00013985 3.8303e-07 -140.64 -140.64 -0.83231 703.34 0.0014218 -140.64 -140.64 -0.83231 1.3358 1.9492 1938.5 -0.0075573 1874.8 0.19705 4.4652e-05 22395. 371.80 393.39 3.8307 0.80164 0.99020 163.32 2.8002 3.1230 0.0031918
-157.62 0.00017320 4.7016e-07 -138.69 -138.69 -0.81536 702.32 0.0014238 -138.69 -138.69 -0.81536 1.3356 1.9506 1931.7 -0.0075484 1800.3 0.19658 5.4822e-05 18241. 372.60 394.38 3.7990 0.80522 0.99378 163.96 2.7367 3.1505 0.0032474
-156.62 0.00021364 5.7481e-07 -136.74 -136.74 -0.79854 701.31 0.0014259 -136.74 -136.74 -0.79854 1.3354 1.9520 1924.9 -0.0075393 1730.5 0.19611 6.7040e-05 14916. 373.41 395.38 3.7680 0.80878 0.99734 164.60 2.6752 3.1780 0.0033033
-155.62 0.00026248 7.0005e-07 -134.79 -134.79 -0.78185 700.30 0.0014280 -134.79 -134.79 -0.78185 1.3352 1.9534 1918.1 -0.0075302 1664.9 0.19564 8.1666e-05 12245. 374.22 396.38 3.7377 0.81232 1.0009 165.24 2.6157 3.2055 0.0033595
-154.62 0.00032125 8.4936e-07 -132.83 -132.83 -0.76529 699.29 0.0014300 -132.83 -132.83 -0.76530 1.3350 1.9548 1911.3 -0.0075209 1603.3 0.19516 9.9109e-05 10090. 375.03 397.38 3.7081 0.81585 1.0044 165.87 2.5580 3.2330 0.0034160
-153.62 0.00039171 1.0268e-06 -130.88 -130.88 -0.74886 698.27 0.0014321 -130.88 -130.88 -0.74887 1.3349 1.9563 1904.5 -0.0075114 1545.3 0.19468 0.00011984 8344.6 375.85 398.39 3.6792 0.81935 1.0079 166.50 2.5022 3.2606 0.0034727
-152.62 0.00047590 1.2368e-06 -128.92 -128.92 -0.73256 697.26 0.0014342 -128.92 -128.92 -0.73256 1.3348 1.9577 1897.8 -0.0075019 1490.6 0.19419 0.00014439 6925.9 376.67 399.40 3.6509 0.82284 1.0114 167.13 2.4481 3.2881 0.0035298
-151.62 0.00057613 1.4846e-06 -126.96 -126.96 -0.71637 696.25 0.0014363 -126.96 -126.96 -0.71638 1.3346 1.9592 1891.0 -0.0074922 1438.9 0.19370 0.00017336 5768.4 377.49 400.41 3.6232 0.82631 1.0149 167.76 2.3957 3.3156 0.0035872
-150.62 0.00069507 1.7760e-06 -125.00 -125.00 -0.70031 695.24 0.0014384 -125.00 -125.00 -0.70032 1.3345 1.9606 1884.2 -0.0074824 1390.2 0.19320 0.00020744 4820.7 378.32 401.42 3.5962 0.82976 1.0183 168.38 2.3448 3.3431 0.0036448
-149.62 0.00083574 2.1177e-06 -123.04 -123.04 -0.68437 694.23 0.0014404 -123.04 -123.04 -0.68438 1.3345 1.9621 1877.4 -0.0074724 1344.0 0.19270 0.00024740 4042.0 379.15 402.44 3.5697 0.83319 1.0218 169.00 2.2956 3.3706 0.0037027
-148.62 0.0010016 2.5169e-06 -121.08 -121.08 -0.66854 693.22 0.0014425 -121.08 -121.08 -0.66855 1.3344 1.9636 1870.7 -0.0074623 1300.3 0.19220 0.00029412 3400.0 379.99 403.47 3.5438 0.83661 1.0252 169.62 2.2478 3.3982 0.0037610
-147.62 0.0011965 2.9820e-06 -119.11 -119.11 -0.65283 692.21 0.0014447 -119.11 -119.11 -0.65284 1.3343 1.9651 1863.9 -0.0074521 1258.9 0.19169 0.00034856 2869.0 380.83 404.49 3.5185 0.84001 1.0286 170.24 2.2014 3.4257 0.0038195
-146.62 0.0014249 3.5223e-06 -117.15 -117.15 -0.63722 691.20 0.0014468 -117.15 -117.15 -0.63724 1.3343 1.9666 1857.2 -0.0074417 1219.6 0.19117 0.00041181 2428.3 381.67 405.52 3.4938 0.84340 1.0320 170.85 2.1565 3.4532 0.0038783
-145.62 0.0016917 4.1481e-06 -115.18 -115.18 -0.62173 690.19 0.0014489 -115.18 -115.18 -0.62175 1.3343 1.9682 1850.4 -0.0074312 1182.3 0.19066 0.00048510 2061.4 382.51 406.56 3.4695 0.84677 1.0353 171.46 2.1128 3.4807 0.0039374
-144.62 0.0020026 4.8709e-06 -113.21 -113.21 -0.60635 689.18 0.0014510 -113.21 -113.21 -0.60637 1.3343 1.9697 1843.7 -0.0074206 1146.8 0.19014 0.00056976 1755.1 383.36 407.59 3.4458 0.85012 1.0387 172.07 2.0705 3.5082 0.0039967
-143.62 0.0023637 5.7034e-06 -111.24 -111.24 -0.59108 688.17 0.0014531 -111.24 -111.24 -0.59110 1.3343 1.9713 1836.9 -0.0074098 1113.0 0.18962 0.00066731 1498.6 384.21 408.63 3.4226 0.85346 1.0420 172.68 2.0294 3.5358 0.0040564
-142.62 0.0027820 6.6597e-06 -109.27 -109.27 -0.57591 687.16 0.0014553 -109.27 -109.27 -0.57593 1.3343 1.9728 1830.2 -0.0073988 1080.8 0.18909 0.00077939 1283.1 385.07 409.68 3.3999 0.85679 1.0454 173.28 1.9896 3.5633 0.0041164
-141.62 0.0032653 7.7553e-06 -107.29 -107.29 -0.56084 686.15 0.0014574 -107.30 -107.30 -0.56087 1.3343 1.9744 1823.5 -0.0073878 1050.1 0.18856 0.00090784 1101.5 385.93 410.72 3.3777 0.86011 1.0487 173.88 1.9508 3.5908 0.0041766
-140.62 0.0038222 9.0074e-06 -105.32 -105.32 -0.54587 685.14 0.0014596 -105.32 -105.32 -0.54591 1.3344 1.9760 1816.7 -0.0073765 1020.7 0.18803 0.0010547 948.16 386.79 411.77 3.3560 0.86341 1.0520 174.48 1.9133 3.6183 0.0042372
-139.62 0.0044623 1.0435e-05 -103.34 -103.34 -0.53101 684.13 0.0014617 -103.34 -103.34 -0.53105 1.3344 1.9776 1810.0 -0.0073651 992.74 0.18749 0.0012221 818.26 387.65 412.83 3.3347 0.86670 1.0553 175.08 1.8768 3.6459 0.0042980
-138.62 0.0051963 1.2058e-05 -101.36 -101.36 -0.51624 683.12 0.0014639 -101.37 -101.37 -0.51629 1.3345 1.9792 1803.3 -0.0073536 965.97 0.18695 0.0014125 707.94 388.52 413.88 3.3139 0.86998 1.0586 175.67 1.8413 3.6734 0.0043592
-137.62 0.0060358 1.3899e-05 -99.379 -99.379 -0.50157 682.11 0.0014660 -99.386 -99.386 -0.50162 1.3346 1.9808 1796.6 -0.0073419 940.35 0.18641 0.0016287 614.00 389.39 414.94 3.2935 0.87325 1.0619 176.26 1.8069 3.7009 0.0044206
-136.62 0.0069938 1.5983e-05 -97.397 -97.396 -0.48699 681.10 0.0014682 -97.404 -97.404 -0.48705 1.3347 1.9825 1789.9 -0.0073301 915.81 0.18586 0.0018733 533.80 390.26 416.00 3.2735 0.87650 1.0651 176.85 1.7734 3.7284 0.0044823
-135.62 0.0080843 1.8336e-05 -95.412 -95.412 -0.47251 680.09 0.0014704 -95.421 -95.421 -0.47258 1.3348 1.9841 1783.2 -0.0073180 892.30 0.18531 0.0021497 465.17 391.14 417.07 3.2540 0.87975 1.0684 177.44 1.7409 3.7559 0.0045443
-134.62 0.0093230 2.0988e-05 -93.426 -93.425 -0.45812 679.08 0.0014726 -93.436 -93.436 -0.45820 1.3350 1.9858 1776.5 -0.0073059 869.75 0.18476 0.0024613 406.30 392.02 418.14 3.2348 0.88299 1.0716 178.02 1.7093 3.7834 0.0046066
-133.62 0.010727 2.3970e-05 -91.438 -91.437 -0.44382 678.07 0.0014748 -91.450 -91.449 -0.44391 1.3351 1.9875 1769.8 -0.0072935 848.11 0.18421 0.0028116 355.67 392.91 419.21 3.2161 0.88622 1.0749 178.61 1.6786 3.8109 0.0046691
-132.62 0.012315 2.7315e-05 -89.448 -89.447 -0.42961 677.06 0.0014770 -89.461 -89.461 -0.42971 1.3353 1.9892 1763.1 -0.0072810 827.32 0.18365 0.0032049 312.03 393.79 420.29 3.1977 0.88944 1.0781 179.19 1.6488 3.8385 0.0047320
-131.62 0.014106 3.1061e-05 -87.456 -87.455 -0.41549 676.04 0.0014792 -87.471 -87.471 -0.41560 1.3354 1.9909 1756.4 -0.0072684 807.34 0.18309 0.0036453 274.33 394.68 421.36 3.1798 0.89266 1.0813 179.76 1.6197 3.8660 0.0047951
-130.62 0.016124 3.5246e-05 -85.462 -85.461 -0.40145 675.03 0.0014814 -85.479 -85.479 -0.40157 1.3356 1.9926 1749.7 -0.0072555 788.12 0.18253 0.0041375 241.69 395.58 422.44 3.1622 0.89586 1.0846 180.34 1.5915 3.8935 0.0048586
-129.62 0.018392 3.9914e-05 -83.467 -83.465 -0.38749 674.02 0.0014836 -83.486 -83.486 -0.38763 1.3358 1.9944 1743.0 -0.0072425 769.63 0.18196 0.0046867 213.37 396.47 423.53 3.1450 0.89906 1.0878 180.91 1.5641 3.9210 0.0049223
-128.62 0.020935 4.5109e-05 -81.469 -81.468 -0.37362 673.01 0.0014859 -81.491 -81.490 -0.37378 1.3360 1.9961 1736.3 -0.0072294 751.83 0.18140 0.0052981 188.75 397.37 424.62 3.1281 0.90226 1.0910 181.48 1.5374 3.9485 0.0049863
-127.62 0.023783 5.0881e-05 -79.469 -79.468 -0.35983 672.00 0.0014881 -79.494 -79.493 -0.36001 1.3363 1.9979 1729.6 -0.0072160 734.67 0.18083 0.0059776 167.29 398.27 425.71 3.1116 0.90545 1.0942 182.05 1.5114 3.9760 0.0050506
-126.62 0.026966 5.7282e-05 -77.468 -77.466 -0.34613 670.98 0.0014904 -77.495 -77.495 -0.34632 1.3365 1.9997 1722.9 -0.0072025 718.14 0.18025 0.0067313 148.56 399.18 426.80 3.0954 0.90863 1.0974 182.62 1.4861 4.0035 0.0051152
-125.62 0.030515 6.4367e-05 -75.464 -75.462 -0.33250 669.97 0.0014926 -75.494 -75.494 -0.33272 1.3368 2.0015 1716.2 -0.0071888 702.18 0.17968 0.0075660 132.17 400.09 427.89 3.0795 0.91181 1.1006 183.18 1.4615 4.0310 0.0051800
-124.62 0.034467 7.2197e-05 -73.458 -73.455 -0.31894 668.95 0.0014949 -73.492 -73.492 -0.31919 1.3371 2.0033 1709.5 -0.0071749 686.79 0.17910 0.0084885 117.81 401.00 428.99 3.0640 0.91499 1.1038 183.74 1.4375 4.0584 0.0052452
-123.62 0.038859 8.0833e-05 -71.449 -71.447 -0.30547 667.94 0.0014971 -71.488 -71.487 -0.30574 1.3374 2.0051 1702.8 -0.0071609 671.93 0.17852 0.0095065 105.19 401.91 430.10 3.0488 0.91816 1.1070 184.30 1.4141 4.0859 0.0053106
-122.62 0.043731 9.0345e-05 -69.439 -69.436 -0.29207 666.92 0.0014994 -69.482 -69.481 -0.29237 1.3377 2.0070 1696.2 -0.0071466 657.57 0.17794 0.010628 94.092 402.83 431.20 3.0339 0.92134 1.1102 184.86 1.3913 4.1134 0.0053764
-121.62 0.049128 0.00010080 -67.426 -67.423 -0.27874 665.91 0.0015017 -67.474 -67.473 -0.27907 1.3380 2.0089 1689.5 -0.0071322 643.70 0.17736 0.011861 84.309 403.75 432.31 3.0193 0.92451 1.1134 185.41 1.3691 4.1409 0.0054424
-120.62 0.055096 0.00011228 -65.411 -65.407 -0.26549 664.89 0.0015040 -65.464 -65.463 -0.26585 1.3384 2.0107 1682.8 -0.0071176 630.28 0.17678 0.013215 75.669 404.67 433.42 3.0050 0.92767 1.1166 185.96 1.3475 4.1683 0.0055087
-119.62 0.061684 0.00012486 -63.394 -63.389 -0.25230 663.87 0.0015063 -63.452 -63.452 -0.25271 1.3387 2.0126 1676.1 -0.0071028 617.30 0.17619 0.014700 68.027 405.60 434.53 2.9909 0.93084 1.1198 186.51 1.3264 4.1958 0.0055752
-118.62 0.068946 0.00013863 -61.374 -61.369 -0.23919 662.86 0.0015086 -61.439 -61.438 -0.23963 1.3391 2.0146 1669.4 -0.0070878 604.74 0.17560 0.016325 61.255 406.53 435.64 2.9772 0.93401 1.1231 187.06 1.3058 4.2233 0.0056421
-117.62 0.076937 0.00015367 -59.351 -59.346 -0.22614 661.84 0.0015109 -59.423 -59.422 -0.22663 1.3395 2.0165 1662.8 -0.0070726 592.58 0.17501 0.018101 55.245 407.46 436.76 2.9638 0.93718 1.1263 187.60 1.2857 4.2507 0.0057092
-116.62 0.085718 0.00017008 -57.326 -57.321 -0.21316 660.82 0.0015133 -57.406 -57.405 -0.21370 1.3400 2.0184 1656.1 -0.0070573 580.80 0.17442 0.020040 49.901 408.39 437.88 2.9506 0.94035 1.1295 188.14 1.2660 4.2782 0.0057767
-115.62 0.095353 0.00018795 -55.299 -55.292 -0.20025 659.80 0.0015156 -55.386 -55.385 -0.20084 1.3404 2.0204 1649.4 -0.0070417 569.38 0.17383 0.022152 45.142 409.33 439.01 2.9377 0.94352 1.1327 188.68 1.2468 4.3056 0.0058444
-114.62 0.10591 0.00020740 -53.269 -53.261 -0.18740 658.78 0.0015180 -53.365 -53.364 -0.18805 1.3409 2.0224 1642.7 -0.0070260 558.32 0.17323 0.024451 40.898 410.27 440.13 2.9250 0.94669 1.1360 189.22 1.2281 4.3330 0.0059123
-113.62 0.11746 0.00022853 -51.236 -51.228 -0.17462 657.76 0.0015203 -51.342 -51.340 -0.17533 1.3413 2.0244 1636.0 -0.0070100 547.59 0.17264 0.026949 37.107 411.21 441.26 2.9126 0.94987 1.1392 189.75 1.2097 4.3604 0.0059806
-112.62 0.13008 0.00025146 -49.200 -49.191 -0.16190 656.73 0.0015227 -49.316 -49.315 -0.16267 1.3418 2.0264 1629.3 -0.0069938 537.18 0.17204 0.029661 33.715 412.16 442.39 2.9005 0.95305 1.1424 190.28 1.1918 4.3879 0.0060491
-111.62 0.14384 0.00027629 -47.162 -47.152 -0.14924 655.71 0.0015251 -47.289 -47.287 -0.15008 1.3424 2.0285 1622.7 -0.0069774 527.08 0.17144 0.032600 30.675 413.10 443.53 2.8885 0.95623 1.1457 190.81 1.1742 4.4153 0.0061180
-110.62 0.15884 0.00030317 -45.120 -45.109 -0.13664 654.69 0.0015274 -45.259 -45.258 -0.13755 1.3429 2.0305 1616.0 -0.0069609 517.28 0.17084 0.035781 27.948 414.06 444.66 2.8769 0.95942 1.1490 191.34 1.1570 4.4427 0.0061871
-109.62 0.17516 0.00033222 -43.076 -43.063 -0.12410 653.66 0.0015298 -43.228 -43.226 -0.12509 1.3435 2.0326 1609.3 -0.0069441 507.76 0.17024 0.039220 25.497 415.01 445.80 2.8654 0.96261 1.1522 191.86 1.1402 4.4701 0.0062564
-108.62 0.19290 0.00036357 -41.028 -41.015 -0.11161 652.64 0.0015322 -41.194 -41.192 -0.11269 1.3441 2.0347 1602.6 -0.0069271 498.51 0.16964 0.042933 23.292 415.96 446.94 2.8542 0.96581 1.1555 192.38 1.1236 4.4974 0.0063261
-107.62 0.21215 0.00039737 -38.977 -38.963 -0.099187 651.61 0.0015347 -39.158 -39.156 -0.10036 1.3447 2.0369 1595.9 -0.0069098 489.52 0.16903 0.046937 21.305 416.92 448.09 2.8433 0.96901 1.1588 192.90 1.1075 4.5248 0.0063960
-106.62 0.23301 0.00043376 -36.923 -36.907 -0.086816 650.58 0.0015371 -37.120 -37.118 -0.088082 1.3453 2.0390 1589.2 -0.0068924 480.79 0.16843 0.051250 19.512 417.88 449.23 2.8325 0.97222 1.1621 193.41 1.0916 4.5522 0.0064662
-105.62 0.25561 0.00047290 -34.866 -34.848 -0.074498 649.55 0.0015395 -35.080 -35.078 -0.075868 1.3460 2.0412 1582.6 -0.0068747 472.30 0.16782 0.055891 17.892 418.85 450.38 2.8220 0.97544 1.1655 193.93 1.0760 4.5795 0.0065367
-104.62 0.28004 0.00051495 -32.805 -32.786 -0.062234 648.52 0.0015420 -33.038 -33.035 -0.063714 1.3467 2.0434 1575.9 -0.0068569 464.04 0.16721 0.060878 16.426 419.81 451.53 2.8116 0.97867 1.1688 194.44 1.0608 4.6069 0.0066074
-103.62 0.30643 0.00056008 -30.741 -30.720 -0.050021 647.49 0.0015444 -30.994 -30.991 -0.051619 1.3474 2.0456 1569.2 -0.0068387 456.00 0.16660 0.066231 15.099 420.78 452.68 2.8015 0.98191 1.1722 194.94 1.0458 4.6342 0.0066785
-102.62 0.33490 0.00060845 -28.673 -28.650 -0.037859 646.46 0.0015469 -28.947 -28.944 -0.039582 1.3481 2.0478 1562.5 -0.0068204 448.18 0.16600 0.071971 13.894 421.75 453.84 2.7916 0.98516 1.1755 195.44 1.0310 4.6615 0.0067498
-101.62 0.36558 0.00066024 -26.601 -26.576 -0.025747 645.43 0.0015494 -26.898 -26.894 -0.027602 1.3489 2.0501 1555.8 -0.0068018 440.57 0.16539 0.078120 12.801 422.73 454.99 2.7818 0.98841 1.1789 195.95 1.0166 4.6888 0.0068213
-100.62 0.39862 0.00071564 -24.526 -24.499 -0.013683 644.39 0.0015519 -24.847 -24.843 -0.015678 1.3497 2.0524 1549.1 -0.0067830 433.16 0.16478 0.084699 11.807 423.70 456.15 2.7723 0.99168 1.1823 196.44 1.0024 4.7161 0.0068932
-99.625 0.43414 0.00077484 -22.447 -22.417 -0.0016665 643.36 0.0015544 -22.794 -22.789 -0.0038103 1.3505 2.0547 1542.4 -0.0067639 425.95 0.16416 0.091731 10.901 424.68 457.31 2.7630 0.99496 1.1858 196.94 0.98838 4.7434 0.0069653
-98.625 0.47230 0.00083803 -20.364 -20.331 0.010304 642.32 0.0015569 -20.738 -20.733 0.0080027 1.3514 2.0570 1535.7 -0.0067447 418.92 0.16355 0.099240 10.077 425.66 458.48 2.7538 0.99825 1.1892 197.43 0.97464 4.7707 0.0070377
-97.625 0.51325 0.00090542 -18.277 -18.241 0.022229 641.28 0.0015594 -18.680 -18.674 0.019762 1.3522 2.0594 1529.0 -0.0067251 412.07 0.16294 0.10725 9.3239 426.65 459.64 2.7448 1.0016 1.1927 197.92 0.96112 4.7979 0.0071103
-96.625 0.55714 0.00097721 -16.185 -16.147 0.034110 640.24 0.0015619 -16.620 -16.614 0.031467 1.3531 2.0618 1522.3 -0.0067053 405.39 0.16233 0.11579 8.6365 427.63 460.81 2.7360 1.0049 1.1962 198.40 0.94783 4.8251 0.0071832
-95.625 0.60416 0.0010536 -14.090 -14.048 0.045948 639.20 0.0015645 -14.557 -14.550 0.043120 1.3540 2.0642 1515.7 -0.0066853 398.88 0.16171 0.12488 8.0078 428.62 461.98 2.7274 1.0082 1.1997 198.88 0.93475 4.8524 0.0072564
-94.625 0.65446 0.0011349 -11.990 -11.945 0.057745 638.16 0.0015670 -12.491 -12.484 0.054721 1.3550 2.0667 1509.0 -0.0066650 392.53 0.16110 0.13455 7.4323 429.61 463.15 2.7189 1.0116 1.2032 199.36 0.92188 4.8796 0.0073299
-93.625 0.70822 0.0012212 -9.8851 -9.8363 0.069500 637.12 0.0015696 -10.424 -10.416 0.066271 1.3560 2.0691 1502.3 -0.0066444 386.34 0.16048 0.14482 6.9050 430.60 464.32 2.7107 1.0149 1.2068 199.83 0.90921 4.9068 0.0074036
-92.625 0.76564 0.0013128 -7.7759 -7.7232 0.081216 636.07 0.0015722 -8.3535 -8.3452 0.077771 1.3570 2.0716 1495.6 -0.0066236 380.31 0.15987 0.15573 6.4212 431.60 465.49 2.7025 1.0183 1.2104 200.30 0.89673 4.9340 0.0074776
-91.625 0.82689 0.0014100 -5.6620 -5.6050 0.092894 635.02 0.0015747 -6.2808 -6.2719 0.089220 1.3580 2.0742 1488.9 -0.0066025 374.41 0.15925 0.16731 5.9769 432.59 466.67 2.6946 1.0217 1.2140 200.77 0.88445 4.9611 0.0075518
-90.625 0.89218 0.0015130 -3.5433 -3.4817 0.10453 633.98 0.0015773 -4.2056 -4.1959 0.10062 1.3591 2.0767 1482.2 -0.0065811 368.66 0.15864 0.17958 5.5685 433.59 467.84 2.6868 1.0251 1.2177 201.24 0.87236 4.9883 0.0076263
-89.625 0.96172 0.0016220 -1.4195 -1.3532 0.11614 632.93 0.0015800 -2.1279 -2.1174 0.11197 1.3602 2.0793 1475.5 -0.0065595 363.05 0.15802 0.19258 5.1928 434.59 469.02 2.6791 1.0285 1.2213 201.70 0.86045 5.0154 0.0077011
-88.625 1.0357 0.0017373 0.70933 0.78074 0.12771 631.88 0.0015826 -0.047516 -0.036215 0.12328 1.3613 2.0819 1468.8 -0.0065375 357.56 0.15740 0.20633 4.8466 435.59 470.20 2.6717 1.0320 1.2250 202.15 0.84873 5.0425 0.0077761
-87.625 1.1144 0.0018592 2.8434 2.9202 0.13924 630.83 0.0015852 2.0355 2.0476 0.13454 1.3625 2.0846 1462.1 -0.0065153 352.21 0.15679 0.22087 4.5276 436.60 471.39 2.6643 1.0354 1.2288 202.61 0.83718 5.0696 0.0078514
-86.625 1.1979 0.0019880 4.9828 5.0654 0.15074 629.77 0.0015879 4.1211 4.1342 0.14575 1.3637 2.0873 1455.4 -0.0064928 346.98 0.15617 0.23623 4.2331 437.61 472.57 2.6571 1.0389 1.2325 203.06 0.82580 5.0967 0.0079270
-85.625 1.2866 0.0021238 7.1277 7.2164 0.16221 628.72 0.0015905 6.2094 6.2235 0.15691 1.3649 2.0900 1448.8 -0.0064701 341.87 0.15555 0.25245 3.9612 438.61 473.75 2.6501 1.0424 1.2363 203.50 0.81460 5.1237 0.0080028
-84.625 1.3806 0.0022671 9.2782 9.3734 0.17365 627.66 0.0015932 8.3004 8.3155 0.16803 1.3661 2.0927 1442.1 -0.0064470 336.87 0.15494 0.26956 3.7097 439.63 474.94 2.6432 1.0460 1.2402 203.95 0.80356 5.1508 0.0080789
-83.625 1.4803 0.0024181 11.434 11.537 0.18505 626.60 0.0015959 10.394 10.410 0.17911 1.3674 2.0955 1435.4 -0.0064236 331.99 0.15432 0.28760 3.4771 440.64 476.13 2.6364 1.0495 1.2440 204.38 0.79269 5.1778 0.0081553
-82.625 1.5858 0.0025771 13.597 13.706 0.19643 625.54 0.0015986 12.491 12.508 0.19014 1.3687 2.0983 1428.7 -0.0063999 327.22 0.15370 0.30659 3.2616 441.65 477.31 2.6298 1.0531 1.2479 204.82 0.78199 5.2048 0.0082319
-81.625 1.6975 0.0027444 15.765 15.882 0.20778 624.48 0.0016013 14.590 14.609 0.20113 1.3700 2.1012 1422.0 -0.0063759 322.55 0.15309 0.32659 3.0619 442.67 478.50 2.6233 1.0567 1.2519 205.25 0.77144 5.2318 0.0083088
-80.625 1.8155 0.0029203 17.939 18.064 0.21910 623.42 0.0016041 16.692 16.712 0.21208 1.3714 2.1041 1415.4 -0.0063516 317.99 0.15247 0.34763 2.8766 443.69 479.70 2.6169 1.0603 1.2558 205.67 0.76106 5.2587 0.0083860
-79.625 1.9402 0.0031051 20.120 20.253 0.23040 622.36 0.0016068 18.797 18.819 0.22299 1.3728 2.1070 1408.7 -0.0063270 313.52 0.15186 0.36974 2.7046 444.71 480.89 2.6106 1.0639 1.2598 206.10 0.75083 5.2857 0.0084634
-78.625 2.0718 0.0032992 22.307 22.449 0.24167 621.29 0.0016096 20.905 20.928 0.23385 1.3742 2.1099 1402.0 -0.0063021 309.15 0.15124 0.39296 2.5448 445.73 482.08 2.6045 1.0676 1.2639 206.51 0.74076 5.3126 0.0085411
-77.625 2.2107 0.0035029 24.500 24.653 0.25292 620.22 0.0016123 23.016 23.040 0.24468 1.3757 2.1129 1395.3 -0.0062768 304.88 0.15062 0.41735 2.3961 446.75 483.27 2.5985 1.0712 1.2680 206.93 0.73084 5.3395 0.0086190
-76.625 2.3571 0.0037165 26.700 26.863 0.26415 619.15 0.0016151 25.130 25.156 0.25546 1.3772 2.1159 1388.7 -0.0062512 300.69 0.15001 0.44292 2.2577 447.78 484.47 2.5926 1.0749 1.2721 207.34 0.72107 5.3664 0.0086972
-75.625 2.5113 0.0039404 28.908 29.081 0.27535 618.08 0.0016179 27.247 27.275 0.26620 1.3787 2.1190 1382.0 -0.0062253 296.59 0.14939 0.46974 2.1288 448.81 485.67 2.5869 1.0787 1.2762 207.74 0.71146 5.3933 0.0087757
-74.625 2.6736 0.0041749 31.122 31.306 0.28653 617.01 0.0016207 29.366 29.396 0.27691 1.3802 2.1221 1375.4 -0.0061990 292.58 0.14878 0.49783 2.0087 449.83 486.86 2.5812 1.0824 1.2804 208.14 0.70200 5.4201 0.0088544
-73.625 2.8444 0.0044203 33.343 33.539 0.29769 615.93 0.0016236 31.489 31.521 0.28758 1.3818 2.1252 1368.7 -0.0061724 288.65 0.14816 0.52725 1.8966 450.86 488.06 2.5757 1.0862 1.2847 208.54 0.69268 5.4469 0.0089334
-72.625 3.0240 0.0046771 35.572 35.780 0.30883 614.85 0.0016264 33.615 33.649 0.29821 1.3834 2.1284 1362.0 -0.0061454 284.81 0.14755 0.55804 1.7920 451.90 489.26 2.5703 1.0900 1.2889 208.93 0.68351 5.4737 0.0090126
-71.625 3.2127 0.0049455 37.808 38.029 0.31996 613.78 0.0016293 35.745 35.781 0.30880 1.3851 2.1316 1355.4 -0.0061181 281.03 0.14694 0.59024 1.6942 452.93 490.46 2.5650 1.0938 1.2932 209.32 0.67448 5.5005 0.0090922
-70.625 3.4108 0.0052260 40.052 40.287 0.33106 612.69 0.0016321 37.877 37.915 0.31935 1.3867 2.1349 1348.7 -0.0060904 277.34 0.14632 0.62390 1.6028 453.96 491.66 2.5598 1.0976 1.2976 209.70 0.66560 5.5273 0.0091720
-69.625 3.6187 0.0055190 42.303 42.552 0.34215 611.61 0.0016350 40.013 40.053 0.32987 1.3884 2.1382 1342.1 -0.0060624 273.72 0.14571 0.65906 1.5173 455.00 492.86 2.5547 1.1015 1.3020 210.08 0.65687 5.5540 0.0092520
-68.625 3.8367 0.0058247 44.562 44.827 0.35322 610.53 0.0016379 42.152 42.195 0.34036 1.3902 2.1415 1335.5 -0.0060339 270.17 0.14510 0.69577 1.4372 456.04 494.06 2.5497 1.1054 1.3064 210.45 0.64827 5.5807 0.0093324
-67.625 4.0652 0.0061437 46.830 47.110 0.36428 609.44 0.0016409 44.294 44.340 0.35080 1.3919 2.1449 1328.8 -0.0060051 266.69 0.14449 0.73408 1.3622 457.08 495.26 2.5448 1.1093 1.3109 210.82 0.63981 5.6074 0.0094130
-66.625 4.3046 0.0064763 49.105 49.402 0.37533 608.35 0.0016438 46.439 46.488 0.36122 1.3937 2.1483 1322.2 -0.0059760 263.28 0.14388 0.77404 1.2919 458.12 496.46 2.5400 1.1133 1.3154 211.18 0.63150 5.6341 0.0094939
-65.625 4.5551 0.0068229 51.389 51.703 0.38636 607.26 0.0016467 48.588 48.640 0.37160 1.3955 2.1518 1315.6 -0.0059464 259.93 0.14327 0.81570 1.2259 459.16 497.67 2.5353 1.1172 1.3200 211.54 0.62332 5.6608 0.0095750
-64.625 4.8173 0.0071839 53.682 54.014 0.39738 606.16 0.0016497 50.740 50.795 0.38195 1.3974 2.1553 1308.9 -0.0059164 256.65 0.14266 0.85910 1.1640 460.21 498.87 2.5307 1.1212 1.3246 211.89 0.61527 5.6874 0.0096564
-63.625 5.0915 0.0075597 55.983 56.334 0.40839 605.07 0.0016527 52.896 52.954 0.39226 1.3993 2.1588 1302.3 -0.0058861 253.42 0.14205 0.90429 1.1058 461.25 500.07 2.5262 1.1252 1.3293 212.24 0.60736 5.7140 0.0097382
-62.625 5.3781 0.0079508 58.293 58.664 0.41939 603.97 0.0016557 55.055 55.117 0.40254 1.4012 2.1624 1295.7 -0.0058553 250.26 0.14144 0.95134 1.0511 462.30 501.28 2.5218 1.1293 1.3340 212.58 0.59958 5.7406 0.0098201
-61.625 5.6774 0.0083575 60.612 61.004 0.43038 602.87 0.0016587 57.218 57.283 0.41279 1.4031 2.1660 1289.1 -0.0058241 247.16 0.14084 1.0003 0.99972 463.35 502.48 2.5175 1.1333 1.3387 212.92 0.59194 5.7672 0.0099024
-60.625 5.9899 0.0087803 62.941 63.354 0.44136 601.77 0.0016618 59.385 59.453 0.42301 1.4051 2.1697 1282.5 -0.0057925 244.12 0.14023 1.0512 0.95131 464.40 503.68 2.5133 1.1374 1.3435 213.26 0.58442 5.7938 0.0099850
-59.625 6.3160 0.0092197 65.278 65.714 0.45234 600.66 0.0016648 61.554 61.627 0.43320 1.4071 2.1734 1275.9 -0.0057605 241.13 0.13962 1.1041 0.90573 465.45 504.89 2.5091 1.1415 1.3483 213.58 0.57704 5.8203 0.010068
-58.625 6.6561 0.0096760 67.625 68.084 0.46330 599.55 0.0016679 63.728 63.805 0.44335 1.4091 2.1772 1269.3 -0.0057280 238.19 0.13902 1.1591 0.86277 466.50 506.09 2.5051 1.1457 1.3532 213.90 0.56978 5.8468 0.010151
-57.625 7.0107 0.010150 69.982 70.465 0.47426 598.44 0.0016710 65.905 65.986 0.45348 1.4111 2.1810 1262.7 -0.0056951 235.31 0.13842 1.2161 0.82228 467.55 507.30 2.5011 1.1498 1.3581 214.22 0.56265 5.8733 0.010234
-56.625 7.3801 0.010641 72.349 72.857 0.48522 597.33 0.0016741 68.086 68.172 0.46358 1.4132 2.1848 1256.1 -0.0056617 232.48 0.13781 1.2754 0.78408 468.60 508.50 2.4972 1.1540 1.3631 214.53 0.55564 5.8998 0.010318
-55.625 7.7648 0.011151 74.725 75.260 0.49617 596.22 0.0016772 70.271 70.361 0.47364 1.4153 2.1887 1249.5 -0.0056279 229.69 0.13721 1.3369 0.74802 469.66 509.71 2.4934 1.1582 1.3681 214.84 0.54875 5.9263 0.010402
-54.625 8.1652 0.011680 77.112 77.675 0.50711 595.10 0.0016804 72.460 72.554 0.48368 1.4174 2.1927 1242.9 -0.0055937 226.96 0.13661 1.4006 0.71396 470.72 510.91 2.4897 1.1624 1.3731 215.14 0.54199 5.9527 0.010486
-53.625 8.5819 0.012228 79.508 80.100 0.51806 593.98 0.0016836 74.652 74.752 0.49369 1.4196 2.1967 1236.3 -0.0055589 224.27 0.13601 1.4667 0.68178 471.77 512.11 2.4860 1.1667 1.3782 215.43 0.53535 5.9792 0.010571
-52.625 9.0151 0.012796 81.916 82.537 0.52900 592.86 0.0016867 76.849 76.954 0.50368 1.4218 2.2007 1229.8 -0.0055237 221.63 0.13541 1.5353 0.65136 472.83 513.32 2.4824 1.1710 1.3834 215.72 0.52882 6.0056 0.010656
-51.625 9.4655 0.013384 84.334 84.986 0.53994 591.73 0.0016900 79.049 79.159 0.51363 1.4240 2.2048 1223.2 -0.0054880 219.04 0.13482 1.6062 0.62258 473.89 514.52 2.4789 1.1752 1.3886 216.00 0.52241 6.0320 0.010741
-50.625 9.9335 0.013993 86.762 87.447 0.55088 590.60 0.0016932 81.253 81.369 0.52356 1.4262 2.2089 1216.6 -0.0054519 216.48 0.13422 1.6797 0.59534 474.95 515.73 2.4755 1.1796 1.3938 216.28 0.51612 6.0584 0.010827
-49.625 10.419 0.014623 89.202 89.920 0.56181 589.47 0.0016964 83.462 83.584 0.53347 1.4285 2.2131 1210.1 -0.0054152 213.98 0.13363 1.7558 0.56954 476.01 516.93 2.4722 1.1839 1.3991 216.55 0.50994 6.0848 0.010913
-48.625 10.924 0.015275 91.653 92.406 0.57275 588.34 0.0016997 85.674 85.802 0.54334 1.4308 2.2173 1203.5 -0.0053780 211.51 0.13303 1.8345 0.54510 477.07 518.13 2.4689 1.1883 1.4044 216.82 0.50387 6.1112 0.010999
-47.625 11.448 0.015949 94.115 94.904 0.58369 587.20 0.0017030 87.891 88.025 0.55319 1.4331 2.2216 1196.9 -0.0053403 209.08 0.13244 1.9159 0.52194 478.14 519.33 2.4657 1.1927 1.4098 217.08 0.49792 6.1375 0.011085
-46.625 11.991 0.016645 96.588 97.415 0.59464 586.06 0.0017063 90.111 90.252 0.56302 1.4354 2.2259 1190.4 -0.0053020 206.69 0.13185 2.0001 0.49997 479.20 520.53 2.4625 1.1971 1.4153 217.33 0.49207 6.1639 0.011172
-45.625 12.554 0.017365 99.073 99.938 0.60558 584.92 0.0017096 92.336 92.484 0.57282 1.4378 2.2303 1183.8 -0.0052633 204.34 0.13126 2.0872 0.47912 480.27 521.74 2.4594 1.2015 1.4207 217.58 0.48633 6.1902 0.011259
-44.625 13.137 0.018109 101.57 102.48 0.61653 583.77 0.0017130 94.565 94.720 0.58260 1.4402 2.2347 1177.3 -0.0052240 202.03 0.13067 2.1771 0.45933 481.33 522.94 2.4564 1.2060 1.4263 217.82 0.48069 6.2165 0.011347
-43.625 13.741 0.018877 104.08 105.03 0.62748 582.62 0.0017164 96.799 96.961 0.59235 1.4426 2.2392 1170.7 -0.0051841 199.75 0.13008 2.2700 0.44053 482.40 524.14 2.4535 1.2104 1.4319 218.05 0.47516 6.2429 0.011435
-42.625 14.367 0.019670 106.60 107.59 0.63844 581.47 0.0017198 99.036 99.207 0.60208 1.4450 2.2437 1164.2 -0.0051437 197.51 0.12949 2.3659 0.42267 483.46 525.33 2.4506 1.2149 1.4375 218.28 0.46973 6.2692 0.011523
-41.625 15.015 0.020489 109.13 110.17 0.64940 580.32 0.0017232 101.28 101.46 0.61179 1.4475 2.2483 1157.7 -0.0051027 195.30 0.12891 2.4649 0.40569 484.53 526.53 2.4478 1.2195 1.4432 218.50 0.46440 6.2955 0.011612
-40.625 15.686 0.021333 111.68 112.76 0.66037 579.16 0.0017266 103.52 103.71 0.62147 1.4500 2.2529 1151.1 -0.0050611 193.13 0.12832 2.5671 0.38954 485.60 527.73 2.4450 1.2240 1.4489 218.72 0.45917 6.3218 0.011701
-39.625 16.380 0.022204 114.23 115.36 0.67135 578.00 0.0017301 105.78 105.97 0.63113 1.4525 2.2576 1144.6 -0.0050189 190.99 0.12774 2.6725 0.37418 486.67 528.93 2.4423 1.2286 1.4547 218.93 0.45403 6.3481 0.011790
-38.625 17.097 0.023102 116.80 117.98 0.68233 576.83 0.0017336 108.03 108.24 0.64077 1.4550 2.2623 1138.0 -0.0049761 188.88 0.12716 2.7813 0.35955 487.74 530.12 2.4397 1.2332 1.4606 219.13 0.44900 6.3744 0.011880
-37.625 17.838 0.024028 119.39 120.62 0.69332 575.66 0.0017371 110.29 110.51 0.65039 1.4576 2.2671 1131.5 -0.0049327 186.81 0.12658 2.8934 0.34562 488.81 531.32 2.4371 1.2378 1.4665 219.33 0.44405 6.4007 0.011970
-36.625 18.604 0.024982 121.98 123.27 0.70432 574.49 0.0017407 112.56 112.78 0.65999 1.4602 2.2719 1125.0 -0.0048887 184.76 0.12600 3.0089 0.33235 489.88 532.51 2.4346 1.2424 1.4724 219.52 0.43920 6.4270 0.012060
-35.625 19.395 0.025966 124.59 125.93 0.71533 573.32 0.0017442 114.83 115.06 0.66956 1.4628 2.2768 1118.5 -0.0048440 182.75 0.12542 3.1280 0.31969 490.95 533.70 2.4321 1.2471 1.4784 219.70 0.43444 6.4533 0.012151
-34.625 20.212 0.026978 127.21 128.61 0.72634 572.14 0.0017478 117.10 117.34 0.67912 1.4654 2.2818 1111.9 -0.0047987 180.76 0.12485 3.2506 0.30763 492.02 534.89 2.4297 1.2517 1.4845 219.88 0.42977 6.4797 0.012243
-33.625 21.056 0.028021 129.85 131.30 0.73737 570.96 0.0017514 119.38 119.63 0.68865 1.4681 2.2868 1105.4 -0.0047527 178.80 0.12427 3.3770 0.29612 493.09 536.08 2.4273 1.2564 1.4906 220.05 0.42519 6.5060 0.012334
-32.625 21.926 0.029094 132.50 134.01 0.74841 569.77 0.0017551 121.66 121.93 0.69817 1.4708 2.2918 1098.9 -0.0047061 176.87 0.12370 3.5071 0.28514 494.17 537.27 2.4250 1.2611 1.4968 220.21 0.42070 6.5323 0.012426
-31.625 22.823 0.030199 135.16 136.74 0.75946 568.58 0.0017588 123.95 124.23 0.70767 1.4735 2.2970 1092.3 -0.0046587 174.97 0.12313 3.6410 0.27465 495.24 538.46 2.4227 1.2659 1.5031 220.36 0.41629 6.5587 0.012519
-30.625 23.749 0.031336 137.84 139.48 0.77052 567.39 0.0017625 126.24 126.53 0.71714 1.4762 2.3021 1085.8 -0.0046107 173.09 0.12256 3.7787 0.26464 496.31 539.64 2.4205 1.2706 1.5094 220.51 0.41196 6.5850 0.012612
-29.625 24.703 0.032506 140.53 142.23 0.78159 566.19 0.0017662 128.54 128.84 0.72660 1.4790 2.3074 1079.3 -0.0045619 171.24 0.12200 3.9205 0.25507 497.38 540.83 2.4184 1.2754 1.5157 220.65 0.40772 6.6114 0.012706
-28.625 25.687 0.033709 143.24 145.01 0.79268 564.99 0.0017699 130.84 131.16 0.73604 1.4818 2.3126 1072.8 -0.0045124 169.42 0.12143 4.0663 0.24592 498.46 542.01 2.4162 1.2802 1.5222 220.79 0.40356 6.6378 0.012800
-27.625 26.700 0.034946 145.96 147.80 0.80378 563.78 0.0017737 133.15 133.48 0.74547 1.4846 2.3180 1066.2 -0.0044621 167.62 0.12087 4.2163 0.23717 499.53 543.19 2.4142 1.2850 1.5286 220.91 0.39947 6.6642 0.012894
-26.625 27.743 0.036217 148.69 150.60 0.81489 562.57 0.0017775 135.47 135.81 0.75487 1.4874 2.3234 1059.7 -0.0044111 165.84 0.12031 4.3705 0.22881 500.60 544.37 2.4122 1.2899 1.5352 221.03 0.39547 6.6906 0.012989
-25.625 28.817 0.037524 151.44 153.43 0.82602 561.36 0.0017814 137.78 138.14 0.76426 1.4902 2.3289 1053.2 -0.0043593 164.09 0.11975 4.5290 0.22080 501.68 545.55 2.4102 1.2947 1.5418 221.14 0.39154 6.7171 0.013084
-24.625 29.923 0.038868 154.20 156.27 0.83716 560.14 0.0017853 140.11 140.48 0.77363 1.4931 2.3344 1046.7 -0.0043067 162.36 0.11919 4.6918 0.21314 502.75 546.72 2.4083 1.2996 1.5485 221.25 0.38768 6.7436 0.013180
-23.625 31.061 0.040248 156.98 159.12 0.84832 558.92 0.0017892 142.44 142.82 0.78298 1.4960 2.3400 1040.1 -0.0042533 160.65 0.11863 4.8592 0.20580 503.82 547.90 2.4064 1.3045 1.5552 221.35 0.38391 6.7701 0.013277
-22.625 32.232 0.041665 159.77 162.00 0.85950 557.69 0.0017931 144.77 145.17 0.79232 1.4990 2.3457 1033.6 -0.0041990 158.97 0.11807 5.0311 0.19877 504.90 549.07 2.4045 1.3095 1.5621 221.44 0.38020 6.7967 0.013374
-21.625 33.435 0.043121 162.58 164.89 0.87069 556.46 0.0017971 147.11 147.52 0.80164 1.5019 2.3514 1027.1 -0.0041439 157.30 0.11752 5.2076 0.19203 505.97 550.24 2.4027 1.3144 1.5690 221.52 0.37656 6.8232 0.013471
-20.625 34.673 0.044616 165.41 167.80 0.88189 555.23 0.0018011 149.45 149.88 0.81095 1.5049 2.3572 1020.6 -0.0040879 155.66 0.11697 5.3889 0.18557 507.04 551.40 2.4010 1.3194 1.5759 221.59 0.37300 6.8499 0.013569
-19.625 35.946 0.046151 168.25 170.73 0.89312 553.99 0.0018051 151.80 152.25 0.82024 1.5079 2.3630 1014.0 -0.0040311 154.04 0.11642 5.5750 0.17937 508.11 552.57 2.3992 1.3244 1.5829 221.66 0.36950 6.8765 0.013668
-18.625 37.253 0.047726 171.10 173.67 0.90436 552.74 0.0018092 154.16 154.62 0.82952 1.5109 2.3689 1007.5 -0.0039733 152.44 0.11587 5.7660 0.17343 509.19 553.73 2.3976 1.3294 1.5901 221.72 0.36608 6.9032 0.013767
-17.625 38.596 0.049343 173.97 176.64 0.91562 551.49 0.0018133 156.52 157.00 0.83878 1.5140 2.3749 1001.0 -0.0039145 150.86 0.11532 5.9621 0.16773 510.26 554.89 2.3959 1.3345 1.5972 221.77 0.36272 6.9300 0.013867
-16.625 39.976 0.051002 176.86 179.62 0.92689 550.24 0.0018174 158.89 159.39 0.84803 1.5171 2.3810 994.44 -0.0038549 149.29 0.11478 6.1632 0.16225 511.33 556.05 2.3943 1.3395 1.6045 221.81 0.35942 6.9568 0.013968
-15.625 41.392 0.052704 179.77 182.62 0.93819 548.98 0.0018216 161.26 161.78 0.85726 1.5202 2.3871 987.91 -0.0037942 147.75 0.11423 6.3696 0.15700 512.40 557.20 2.3927 1.3446 1.6119 221.85 0.35619 6.9836 0.014069
-14.625 42.846 0.054451 182.69 185.64 0.94951 547.71 0.0018258 163.64 164.18 0.86649 1.5233 2.3933 981.37 -0.0037325 146.22 0.11369 6.5812 0.15195 513.47 558.36 2.3912 1.3497 1.6193 221.87 0.35302 7.0105 0.014170
-13.625 44.338 0.056242 185.62 188.68 0.96084 546.44 0.0018300 166.02 166.58 0.87569 1.5264 2.3996 974.83 -0.0036698 144.72 0.11315 6.7983 0.14710 514.54 559.51 2.3897 1.3549 1.6268 221.89 0.34992 7.0375 0.014273
-12.625 45.870 0.058078 188.58 191.74 0.97220 545.17 0.0018343 168.41 168.99 0.88489 1.5296 2.4059 968.29 -0.0036061 143.23 0.11261 7.0208 0.14243 515.61 560.65 2.3883 1.3600 1.6344 221.90 0.34688 7.0646 0.014376
-11.625 47.440 0.059961 191.54 194.82 0.98358 543.89 0.0018386 170.81 171.41 0.89407 1.5328 2.4124 961.75 -0.0035413 141.76 0.11208 7.2490 0.13795 516.68 561.80 2.3868 1.3652 1.6421 221.91 0.34389 7.0917 0.014479
-10.625 49.051 0.061892 194.53 197.91 0.99498 542.60 0.0018430 173.21 173.83 0.90324 1.5360 2.4189 955.20 -0.0034753 140.30 0.11154 7.4829 0.13364 517.75 562.94 2.3854 1.3704 1.6498 221.90 0.34097 7.1188 0.014584
-9.6250 50.703 0.063871 197.53 201.03 1.0064 541.31 0.0018474 175.61 176.26 0.91240 1.5393 2.4255 948.65 -0.0034082 138.86 0.11101 7.7226 0.12949 518.81 564.08 2.3841 1.3757 1.6577 221.88 0.33810 7.1461 0.014689
-8.6250 52.396 0.065900 200.56 204.17 1.0178 540.02 0.0018518 178.03 178.70 0.92154 1.5426 2.4321 942.10 -0.0033400 137.44 0.11048 7.9683 0.12550 519.88 565.21 2.3827 1.3809 1.6657 221.86 0.33529 7.1734 0.014795
-7.6250 54.131 0.067979 203.59 207.33 1.0293 538.72 0.0018563 180.45 181.14 0.93068 1.5459 2.4389 935.55 -0.0032705 136.03 0.10995 8.2200 0.12165 520.94 566.35 2.3814 1.3862 1.6737 221.83 0.33254 7.2008 0.014902
-6.6250 55.909 0.070109 206.65 210.50 1.0408 537.41 0.0018608 182.87 183.59 0.93980 1.5492 2.4457 928.99 -0.0031998 134.64 0.10942 8.4779 0.11795 522.01 567.48 2.3801 1.3915 1.6819 221.79 0.32984 7.2284 0.015009
-5.6250 57.730 0.072292 209.72 213.70 1.0523 536.10 0.0018653 185.30 186.05 0.94892 1.5525 2.4526 922.43 -0.0031279 133.27 0.10889 8.7420 0.11439 523.07 568.60 2.3789 1.3969 1.6902 221.74 0.32720 7.2560 0.015117
-4.6250 59.595 0.074529 212.81 216.92 1.0638 534.78 0.0018699 187.74 188.51 0.95802 1.5559 2.4596 915.87 -0.0030546 131.91 0.10837 9.0126 0.11096 524.13 569.72 2.3777 1.4022 1.6985 221.68 0.32461 7.2837 0.015226
-3.6250 61.505 0.076820 215.92 220.16 1.0754 533.45 0.0018746 190.19 190.98 0.96711 1.5593 2.4667 909.30 -0.0029800 130.56 0.10785 9.2896 0.10765 525.19 570.84 2.3765 1.4076 1.7070 221.62 0.32207 7.3115 0.015336
-2.6250 63.461 0.079166 219.05 223.42 1.0870 532.12 0.0018793 192.64 193.46 0.97620 1.5627 2.4739 902.73 -0.0029041 129.23 0.10733 9.5733 0.10446 526.25 571.96 2.3753 1.4131 1.7156 221.54 0.31958 7.3394 0.015447
-1.6250 65.462 0.081570 222.19 226.71 1.0986 530.78 0.0018840 195.10 195.95 0.98527 1.5662 2.4811 896.16 -0.0028267 127.91 0.10681 9.8638 0.10138 527.31 573.07 2.3742 1.4185 1.7243 221.45 0.31715 7.3674 0.015559
-0.62500 67.510 0.084032 225.36 230.01 1.1102 529.44 0.0018888 197.56 198.44 0.99434 1.5696 2.4885 889.58 -0.0027478 126.61 0.10629 10.161 0.098414 528.37 574.18 2.3731 1.4240 1.7331 221.36 0.31476 7.3956 0.015671
0.37500 69.606 0.086553 228.54 233.34 1.1218 528.09 0.0018936 200.03 200.94 1.0034 1.5731 2.4960 883.00 -0.0026675 125.32 0.10578 10.466 0.095552 529.42 575.28 2.3720 1.4295 1.7421 221.26 0.31242 7.4239 0.015785
1.3750 71.749 0.089134 231.74 236.69 1.1335 526.73 0.0018985 202.51 203.45 1.0124 1.5767 2.5035 876.42 -0.0025856 124.04 0.10527 10.777 0.092790 530.48 576.38 2.3709 1.4350 1.7512 221.14 0.31013 7.4523 0.015899
2.3750 73.941 0.091777 234.96 240.06 1.1452 525.37 0.0019034 204.99 205.96 1.0215 1.5802 2.5112 869.83 -0.0025022 122.78 0.10476 11.096 0.090123 531.53 577.47 2.3699 1.4406 1.7604 221.02 0.30789 7.4808 0.016015
3.3750 76.183 0.094483 238.20 243.45 1.1570 523.99 0.0019084 207.48 208.48 1.0305 1.5838 2.5190 863.24 -0.0024171 121.53 0.10425 11.422 0.087549 532.58 578.56 2.3688 1.4462 1.7697 220.89 0.30569 7.5095 0.016131
4.3750 78.475 0.097254 241.45 246.87 1.1687 522.62 0.0019134 209.98 211.01 1.0395 1.5874 2.5268 856.64 -0.0023303 120.29 0.10374 11.756 0.085062 533.63 579.65 2.3678 1.4518 1.7792 220.75 0.30354 7.5384 0.016249
5.3750 80.817 0.10009 244.73 250.30 1.1805 521.23 0.0019185 212.48 213.55 1.0486 1.5910 2.5348 850.04 -0.0022417 119.06 0.10324 12.098 0.082660 534.67 580.73 2.3669 1.4575 1.7888 220.60 0.30144 7.5674 0.016368
6.3750 83.211 0.10299 248.03 253.76 1.1923 519.84 0.0019237 215.00 216.10 1.0576 1.5946 2.5429 843.43 -0.0021514 117.85 0.10273 12.447 0.080340 535.72 581.81 2.3659 1.4632 1.7986 220.44 0.29938 7.5966 0.016487
7.3750 85.657 0.10597 251.34 257.25 1.2042 518.44 0.0019289 217.51 218.65 1.0666 1.5983 2.5511 836.82 -0.0020593 116.65 0.10223 12.805 0.078096 536.76 582.88 2.3650 1.4689 1.8085 220.27 0.29736 7.6259 0.016608
8.3750 88.156 0.10901 254.68 260.76 1.2160 517.03 0.0019341 220.04 221.22 1.0756 1.6020 2.5595 830.20 -0.0019652 115.46 0.10173 13.170 0.075928 537.80 583.95 2.3640 1.4746 1.8186 220.08 0.29538 7.6555 0.016730
9.3750 90.708 0.11212 258.03 264.29 1.2279 515.62 0.0019394 222.57 223.79 1.0846 1.6057 2.5679 823.58 -0.0018691 114.28 0.10124 13.545 0.073830 538.84 585.01 2.3631 1.4804 1.8288 219.89 0.29345 7.6852 0.016853
10.375 93.315 0.11531 261.41 267.84 1.2399 514.19 0.0019448 225.11 226.37 1.0936 1.6095 2.5765 816.96 -0.0017710 113.11 0.10074 13.927 0.071802 539.87 586.07 2.3622 1.4863 1.8392 219.69 0.29156 7.7151 0.016978
11.375 95.977 0.11857 264.80 271.42 1.2518 512.76 0.0019502 227.66 228.95 1.1025 1.6132 2.5852 810.32 -0.0016708 111.95 0.10025 14.319 0.069840 540.90 587.12 2.3614 1.4921 1.8498 219.48 0.28971 7.7452 0.017103
12.375 98.694 0.12191 268.22 275.02 1.2638 511.32 0.0019557 230.22 231.55 1.1115 1.6170 2.5940 803.68 -0.0015685 110.80 0.099756 14.719 0.067941 541.93 588.17 2.3605 1.4980 1.8605 219.26 0.28790 7.7756 0.017230
13.375 101.47 0.12533 271.66 278.65 1.2758 509.87 0.0019613 232.78 234.15 1.1205 1.6208 2.6030 797.04 -0.0014639 109.67 0.099267 15.128 0.066103 542.96 589.21 2.3597 1.5040 1.8715 219.03 0.28612 7.8061 0.017359
14.375 104.30 0.12883 275.11 282.30 1.2878 508.42 0.0019669 235.35 236.77 1.1295 1.6247 2.6121 790.39 -0.0013569 108.54 0.098779 15.547 0.064323 543.99 590.24 2.3588 1.5099 1.8826 218.79 0.28439 7.8369 0.017488
15.375 107.19 0.13241 278.59 285.98 1.2999 506.95 0.0019726 237.93 239.39 1.1384 1.6286 2.6214 783.73 -0.0012476 107.43 0.098294 15.974 0.062600 545.01 591.27 2.3580 1.5159 1.8940 218.53 0.28270 7.8680 0.017619
16.375 110.13 0.13607 282.09 289.68 1.3120 505.48 0.0019783 240.52 242.02 1.1474 1.6324 2.6308 777.07 -0.0011357 106.32 0.097810 16.412 0.060931 546.03 592.29 2.3572 1.5220 1.9055 218.27 0.28104 7.8993 0.017752
17.375 113.14 0.13982 285.61 293.41 1.3242 504.00 0.0019841 243.11 244.66 1.1564 1.6364 2.6403 770.40 -0.0010213 105.22 0.097328 16.859 0.059314 547.04 593.31 2.3564 1.5281 1.9172 217.99 0.27942 7.9308 0.017886
18.375 116.21 0.14366 289.15 297.16 1.3363 502.50 0.0019900 245.72 247.31 1.1653 1.6403 2.6501 763.72 -0.00090422 104.14 0.096848 17.317 0.057747 548.05 594.32 2.3557 1.5342 1.9292 217.71 0.27783 7.9626 0.018021
19.375 119.33 0.14759 292.71 300.94 1.3485 501.00 0.0019960 248.33 249.97 1.1743 1.6443 2.6599 757.04 -0.00078435 103.06 0.096371 17.785 0.056228 549.06 595.33 2.3549 1.5404 1.9414 217.41 0.27628 7.9947 0.018159
20.375 122.52 0.15161 296.30 304.74 1.3608 499.49 0.0020020 250.95 252.64 1.1832 1.6483 2.6700 750.35 -0.00066161 101.99 0.095895 18.263 0.054756 550.07 596.32 2.3541 1.5466 1.9538 217.10 0.27477 8.0272 0.018297
21.375 125.77 0.15573 299.90 308.57 1.3730 497.97 0.0020082 253.57 255.32 1.1922 1.6523 2.6802 743.64 -0.00053589 100.93 0.095420 18.752 0.053328 551.07 597.31 2.3534 1.5528 1.9665 216.78 0.27329 8.0599 0.018438
22.375 129.08 0.15994 303.53 312.43 1.3853 496.43 0.0020144 256.21 258.00 1.2012 1.6563 2.6906 736.94 -0.00040708 99.877 0.094948 19.252 0.051943 552.07 598.30 2.3526 1.5591 1.9795 216.45 0.27184 8.0929 0.018580
23.375 132.46 0.16425 307.18 316.31 1.3976 494.89 0.0020206 258.86 260.70 1.2101 1.6604 2.7012 730.22 -0.00027505 98.834 0.094478 19.763 0.050600 553.06 599.27 2.3519 1.5655 1.9927 216.11 0.27043 8.1263 0.018724
24.375 135.90 0.16867 310.85 320.22 1.4100 493.34 0.0020270 261.51 263.41 1.2191 1.6645 2.7120 723.49 -0.00013968 97.800 0.094009 20.285 0.049297 554.05 600.24 2.3512 1.5718 2.0061 215.75 0.26906 8.1600 0.018870
25.375 139.41 0.17319 314.55 324.16 1.4224 491.77 0.0020335 264.17 266.13 1.2280 1.6686 2.7230 716.76 -8.3775e-07 96.773 0.093543 20.820 0.048032 555.03 601.20 2.3504 1.5783 2.0199 215.39 0.26771 8.1941 0.019017
26.375 142.98 0.17782 318.26 328.12 1.4348 490.20 0.0020400 266.84 268.85 1.2370 1.6728 2.7342 710.01 0.00014161 95.755 0.093078 21.366 0.046804 556.01 602.15 2.3497 1.5847 2.0340 215.01 0.26640 8.2286 0.019167
27.375 146.62 0.18256 322.00 332.11 1.4473 488.61 0.0020466 269.52 271.59 1.2459 1.6770 2.7456 703.26 0.00028782 94.745 0.092615 21.924 0.045612 556.99 603.10 2.3490 1.5913 2.0484 214.62 0.26512 8.2634 0.019319
28.375 150.33 0.18742 325.77 336.13 1.4598 487.01 0.0020533 272.21 274.34 1.2549 1.6812 2.7573 696.49 0.00043793 93.742 0.092154 22.495 0.044454 557.96 604.03 2.3483 1.5978 2.0631 214.21 0.26387 8.2987 0.019472
29.375 154.10 0.19239 329.56 340.18 1.4724 485.40 0.0020601 274.91 277.10 1.2638 1.6854 2.7691 689.72 0.00059212 92.747 0.091695 23.079 0.043329 558.92 604.96 2.3476 1.6044 2.0781 213.80 0.26265 8.3344 0.019628
30.375 157.94 0.19749 333.37 344.26 1.4849 483.78 0.0020671 277.62 279.87 1.2728 1.6897 2.7813 682.93 0.00075055 91.760 0.091238 23.676 0.042237 559.88 605.88 2.3469 1.6111 2.0935 213.37 0.26147 8.3705 0.019786
31.375 161.86 0.20271 337.20 348.36 1.4975 482.15 0.0020741 280.34 282.66 1.2818 1.6939 2.7936 676.13 0.00091340 90.779 0.090782 24.287 0.041175 560.84 606.79 2.3462 1.6178 2.1092 212.93 0.26031 8.4071 0.019947
32.375 165.84 0.20805 341.06 352.49 1.5102 480.50 0.0020812 283.07 285.45 1.2908 1.6983 2.8063 669.32 0.0010809 89.806 0.090328 24.911 0.040143 561.79 607.69 2.3455 1.6246 2.1254 212.48 0.25919 8.4442 0.020110
33.375 169.90 0.21353 344.94 356.65 1.5229 478.83 0.0020884 285.81 288.26 1.2997 1.7026 2.8192 662.50 0.0012532 88.840 0.089876 25.549 0.039140 562.73 608.58 2.3448 1.6314 2.1419 212.01 0.25809 8.4818 0.020275
34.375 174.02 0.21914 348.85 360.85 1.5356 477.16 0.0020957 288.56 291.07 1.3087 1.7070 2.8324 655.67 0.0014305 87.880 0.089426 26.202 0.038164 563.67 609.46 2.3440 1.6383 2.1589 211.53 0.25702 8.5199 0.020443
35.375 178.22 0.22490 352.78 365.07 1.5484 475.47 0.0021032 291.32 293.90 1.3177 1.7114 2.8459 648.82 0.0016131 86.927 0.088977 26.870 0.037216 564.60 610.33 2.3433 1.6452 2.1763 211.04 0.25599 8.5586 0.020613
36.375 182.50 0.23080 356.73 369.32 1.5612 473.77 0.0021107 294.09 296.74 1.3267 1.7158 2.8597 641.96 0.0018012 85.980 0.088531 27.553 0.036293 565.52 611.19 2.3426 1.6522 2.1942 210.53 0.25498 8.5978 0.020786
37.375 186.84 0.23685 360.72 373.60 1.5740 472.05 0.0021184 296.87 299.60 1.3357 1.7203 2.8739 635.08 0.0019950 85.040 0.088085 28.252 0.035395 566.44 612.04 2.3419 1.6592 2.2125 210.01 0.25400 8.6376 0.020962
38.375 191.27 0.24305 364.72 377.91 1.5869 470.31 0.0021262 299.66 302.46 1.3447 1.7248 2.8884 628.19 0.0021949 84.105 0.087642 28.967 0.034522 567.35 612.88 2.3411 1.6663 2.2314 209.47 0.25305 8.6780 0.021141
39.375 195.77 0.24941 368.75 382.25 1.5998 468.56 0.0021342 302.46 305.34 1.3537 1.7293 2.9033 621.29 0.0024011 83.177 0.087200 29.699 0.033671 568.26 613.70 2.3404 1.6734 2.2508 208.92 0.25213 8.7190 0.021323
40.375 200.34 0.25594 372.81 386.62 1.6128 466.80 0.0021423 305.27 308.23 1.3627 1.7339 2.9185 614.37 0.0026140 82.254 0.086760 30.447 0.032844 569.15 614.52 2.3396 1.6806 2.2708 208.36 0.25123 8.7608 0.021508
41.375 205.00 0.26264 376.90 391.03 1.6258 465.01 0.0021505 308.10 311.14 1.3718 1.7385 2.9342 607.43 0.0028338 81.338 0.086322 31.214 0.032037 570.04 615.32 2.3389 1.6879 2.2913 207.78 0.25037 8.8032 0.021696
42.375 209.73 0.26952 381.01 395.47 1.6388 463.21 0.0021588 310.94 314.06 1.3808 1.7432 2.9502 600.47 0.0030609 80.426 0.085885 31.998 0.031252 570.92 616.11 2.3381 1.6952 2.3125 207.19 0.24953 8.8463 0.021888
43.375 214.54 0.27658 385.14 399.94 1.6519 461.40 0.0021673 313.79 316.99 1.3899 1.7478 2.9667 593.50 0.0032957 79.520 0.085449 32.800 0.030488 571.79 616.88 2.3373 1.7027 2.3344 206.58 0.24871 8.8902 0.022084
44.375 219.43 0.28382 389.31 404.44 1.6650 459.56 0.0021760 316.65 319.94 1.3989 1.7525 2.9837 586.51 0.0035386 78.619 0.085015 33.622 0.029742 572.65 617.65 2.3365 1.7101 2.3569 205.96 0.24793 8.9349 0.022283
45.375 224.41 0.29127 393.50 408.97 1.6782 457.71 0.0021848 319.52 322.90 1.4080 1.7573 3.0012 579.50 0.0037900 77.723 0.084583 34.463 0.029016 573.50 618.40 2.3357 1.7177 2.3802 205.32 0.24717 8.9805 0.022485
46.375 229.46 0.29892 397.72 413.54 1.6915 455.83 0.0021938 322.41 325.88 1.4171 1.7621 3.0192 572.46 0.0040504 76.832 0.084152 35.325 0.028308 574.34 619.13 2.3349 1.7253 2.4042 204.67 0.24644 9.0269 0.022692
47.375 234.60 0.30679 401.96 418.14 1.7047 453.94 0.0022029 325.31 328.87 1.4262 1.7669 3.0377 565.41 0.0043202 75.946 0.083723 36.208 0.027618 575.17 619.85 2.3340 1.7329 2.4291 204.00 0.24573 9.0742 0.022903
48.375 239.83 0.31487 406.24 422.77 1.7180 452.03 0.0022123 328.22 331.88 1.4353 1.7718 3.0569 558.34 0.0046000 75.064 0.083295 37.112 0.026945 576.00 620.55 2.3332 1.7407 2.4548 203.31 0.24505 9.1224 0.023119
49.375 245.13 0.32319 410.54 427.44 1.7314 450.09 0.0022218 331.15 334.90 1.4445 1.7767 3.0766 551.24 0.0048904 74.186 0.082868 38.039 0.026289 576.81 621.24 2.3323 1.7485 2.4815 202.61 0.24440 9.1716 0.023339
50.375 250.53 0.33175 414.87 432.15 1.7448 448.13 0.0022315 334.09 337.94 1.4536 1.7817 3.0970 544.13 0.0051920 73.313 0.082442 38.989 0.025648 577.61 621.91 2.3314 1.7564 2.5092 201.89 0.24377 9.2219 0.023564
51.375 256.01 0.34056 419.24 436.89 1.7583 446.15 0.0022414 337.04 341.00 1.4628 1.7867 3.1181 536.98 0.0055054 72.443 0.082018 39.962 0.025024 578.39 622.56 2.3304 1.7644 2.5379 201.16 0.24317 9.2733 0.023794
52.375 261.57 0.34963 423.63 441.66 1.7718 444.15 0.0022515 340.01 344.07 1.4720 1.7918 3.1400 529.82 0.0058313 71.577 0.081595 40.961 0.024414 579.17 623.20 2.3295 1.7724 2.5677 200.41 0.24260 9.3258 0.024029
53.375 267.23 0.35898 428.05 446.48 1.7854 442.12 0.0022618 343.00 347.17 1.4812 1.7969 3.1627 522.62 0.0061705 70.715 0.081174 41.985 0.023818 579.93 623.81 2.3285 1.7805 2.5987 199.63 0.24205 9.3795 0.024270
54.375 272.97 0.36861 432.50 451.32 1.7990 440.06 0.0022724 346.00 350.28 1.4904 1.8021 3.1862 515.40 0.0065239 69.856 0.080753 43.036 0.023237 580.68 624.41 2.3274 1.7887 2.6310 198.85 0.24154 9.4344 0.024516
55.375 278.81 0.37854 436.99 456.21 1.8126 437.98 0.0022832 349.02 353.40 1.4997 1.8073 3.2106 508.15 0.0068923 69.001 0.080334 44.114 0.022669 581.41 624.99 2.3264 1.7969 2.6646 198.04 0.24105 9.4907 0.024769
56.375 284.74 0.38880 441.50 461.13 1.8264 435.87 0.0022943 352.05 356.55 1.5090 1.8126 3.2360 500.87 0.0072767 68.148 0.079915 45.221 0.022114 582.13 625.54 2.3253 1.8052 2.6998 197.22 0.24059 9.5484 0.025028
57.375 290.76 0.39938 446.05 466.10 1.8401 433.73 0.0023056 355.10 359.72 1.5183 1.8179 3.2624 493.56 0.0076782 67.299 0.079498 46.358 0.021571 582.83 626.07 2.3241 1.8136 2.7365 196.37 0.24016 9.6075 0.025294
58.375 296.87 0.41032 450.63 471.10 1.8540 431.56 0.0023172 358.17 362.91 1.5276 1.8233 3.2900 486.22 0.0080980 66.451 0.079082 47.525 0.021041 583.52 626.58 2.3230 1.8220 2.7749 195.51 0.23976 9.6682 0.025568
59.375 303.08 0.42162 455.24 476.14 1.8679 429.36 0.0023290 361.25 366.12 1.5370 1.8288 3.3188 478.84 0.0085373 65.606 0.078666 48.726 0.020523 584.18 627.07 2.3218 1.8305 2.8152 194.63 0.23939 9.7305 0.025849
60.375 309.38 0.43331 459.89 481.22 1.8818 427.13 0.0023412 364.36 369.35 1.5464 1.8343 3.3489 471.43 0.0089976 64.763 0.078251 49.960 0.020016 584.83 627.53 2.3205 1.8391 2.8576 193.73 0.23905 9.7945 0.026138
61.375 315.78 0.44542 464.57 486.35 1.8958 424.87 0.0023537 367.48 372.60 1.5558 1.8400 3.3805 463.99 0.0094803 63.922 0.077838 51.229 0.019520 585.46 627.96 2.3192 1.8479 2.9022 192.82 0.23873 9.8603 0.026436
62.375 322.28 0.45796 469.29 491.51 1.9099 422.56 0.0023665 370.62 375.88 1.5653 1.8457 3.4136 456.50 0.0099871 63.083 0.077425 52.535 0.019035 586.07 628.37 2.3178 1.8567 2.9492 191.88 0.23845 9.9281 0.026744
63.375 328.88 0.47096 474.04 496.72 1.9241 420.22 0.0023797 373.79 379.18 1.5748 1.8514 3.4483 448.97 0.010520 62.244 0.077012 53.879 0.018560 586.66 628.74 2.3164 1.8656 2.9989 190.92 0.23819 9.9979 0.027061
64.375 335.58 0.48446 478.83 501.97 1.9383 417.85 0.0023932 376.97 382.51 1.5844 1.8573 3.4850 441.40 0.011081 61.407 0.076600 55.265 0.018095 587.22 629.09 2.3149 1.8747 3.0517 189.95 0.23796 10.070 0.027389
65.375 342.38 0.49848 483.66 507.26 1.9526 415.42 0.0024072 380.18 385.86 1.5939 1.8633 3.5236 433.79 0.011672 60.570 0.076189 56.692 0.017639 587.76 629.40 2.3133 1.8839 3.1077 188.95 0.23775 10.144 0.027729
66.375 349.28 0.51306 488.52 512.60 1.9669 412.96 0.0024215 383.41 389.25 1.6036 1.8693 3.5645 426.12 0.012296 59.733 0.075779 58.165 0.017193 588.28 629.68 2.3117 1.8933 3.1674 187.93 0.23757 10.221 0.028080
67.375 356.28 0.52824 493.42 517.99 1.9813 410.45 0.0024363 386.67 392.65 1.6133 1.8755 3.6078 418.41 0.012956 58.897 0.075368 59.684 0.016755 588.76 629.92 2.3100 1.9030 3.2311 186.89 0.23740 10.300 0.028446
68.375 363.40 0.54406 498.37 523.42 1.9958 407.89 0.0024516 389.95 396.09 1.6230 1.8818 3.6537 410.64 0.013655 58.059 0.074959 61.253 0.016326 589.22 630.13 2.3082 1.9129 3.2994 185.83 0.23724 10.382 0.028825
69.375 370.61 0.56058 503.35 528.90 2.0104 405.28 0.0024674 393.26 399.57 1.6328 1.8882 3.7027 402.81 0.014396 57.221 0.074549 62.875 0.015905 589.65 630.29 2.3064 1.9231 3.3727 184.74 0.23710 10.467 0.029221
70.375 377.94 0.57783 508.38 534.44 2.0250 402.62 0.0024838 396.60 403.07 1.6426 1.8947 3.7550 394.92 0.015183 56.381 0.074141 64.552 0.015491 590.04 630.41 2.3044 1.9336 3.4518 183.63 0.23697 10.555 0.029633
71.375 385.37 0.59589 513.45 540.02 2.0398 399.89 0.0025007 399.96 406.61 1.6525 1.9014 3.8109 386.97 0.016021 55.540 0.073732 66.288 0.015086 590.40 630.49 2.3024 1.9444 3.5371 182.50 0.23684 10.647 0.030064
72.375 392.92 0.61483 518.56 545.65 2.0546 397.11 0.0025182 403.36 410.18 1.6625 1.9083 3.8711 378.95 0.016915 54.696 0.073324 68.087 0.014687 590.73 630.51 2.3002 1.9556 3.6297 181.34 0.23671 10.743 0.030515
73.375 400.57 0.63472 523.72 551.34 2.0695 394.26 0.0025364 406.79 413.80 1.6726 1.9153 3.9359 370.85 0.017871 53.848 0.072917 69.953 0.014295 591.01 630.49 2.2979 1.9673 3.7303 180.16 0.23658 10.842 0.030989
74.375 408.34 0.65564 528.92 557.08 2.0845 391.34 0.0025553 410.26 417.45 1.6827 1.9226 4.0060 362.67 0.018894 52.997 0.072510 71.890 0.013910 591.25 630.41 2.2955 1.9793 3.8401 178.95 0.23643 10.946 0.031488
75.375 416.23 0.67771 534.18 562.87 2.0996 388.34 0.0025751 413.76 421.15 1.6930 1.9301 4.0822 354.41 0.019993 52.142 0.072104 73.904 0.013531 591.44 630.27 2.2930 1.9919 3.9604 177.71 0.23627 11.054 0.032014
76.375 424.23 0.70103 539.48 568.73 2.1148 385.26 0.0025957 417.31 424.90 1.7033 1.9378 4.1654 346.06 0.021177 51.281 0.071699 76.001 0.013158 591.59 630.07 2.2903 2.0050 4.0927 176.44 0.23609 11.168 0.032570
77.375 432.35 0.72575 544.84 574.65 2.1301 382.09 0.0026172 420.89 428.70 1.7137 1.9459 4.2565 337.60 0.022455 50.414 0.071295 78.187 0.012790 591.68 629.80 2.2874 2.0186 4.2389 175.15 0.23588 11.287 0.033161
78.375 440.59 0.75201 550.25 580.63 2.1455 378.83 0.0026397 424.53 432.54 1.7243 1.9543 4.3570 329.05 0.023838 49.539 0.070893 80.469 0.012427 591.71 629.46 2.2844 2.0328 4.4012 173.82 0.23563 11.412 0.033789
79.375 448.95 0.78002 555.72 586.67 2.1610 375.46 0.0026634 428.21 436.45 1.7349 1.9631 4.4684 320.38 0.025341 48.657 0.070494 82.856 0.012069 591.68 629.04 2.2812 2.0475 4.5824 172.46 0.23535 11.544 0.034461
80.375 457.44 0.80998 561.25 592.78 2.1767 371.97 0.0026884 431.94 440.42 1.7457 1.9723 4.5928 311.58 0.026980 47.764 0.070099 85.359 0.011715 591.58 628.53 2.2778 2.0630 4.7859 171.07 0.23501 11.684 0.035181
81.375 466.05 0.84218 566.84 598.97 2.1925 368.36 0.0027147 435.74 444.46 1.7567 1.9820 4.7327 302.66 0.028773 46.860 0.069708 87.988 0.011365 591.40 627.92 2.2742 2.0791 5.0161 169.64 0.23461 11.832 0.035957
82.375 474.79 0.87693 572.49 605.23 2.2084 364.61 0.0027427 439.60 448.58 1.7678 1.9924 4.8914 293.60 0.030744 45.942 0.069323 90.757 0.011018 591.14 627.21 2.2703 2.0959 5.2786 168.17 0.23413 11.989 0.036797
83.375 483.66 0.91465 578.22 611.56 2.2245 360.70 0.0027724 443.53 452.78 1.7791 2.0034 5.0731 284.38 0.032920 45.010 0.068948 93.681 0.010674 590.79 626.38 2.2661 2.1136 5.5807 166.67 0.23357 12.157 0.037711
84.375 492.67 0.95583 584.02 617.99 2.2408 356.61 0.0028041 447.54 457.07 1.7907 2.0153 5.2834 275.00 0.035335 44.059 0.068586 96.781 0.010333 590.33 625.42 2.2616 2.1321 5.9321 165.13 0.23290 12.338 0.038713
85.375 501.70 undefined 589.81 624.40 2.2569 100.00 0.010000 589.81 624.40 2.2569 2.1510 6.3288 163.61 0.23201 12.528 0.039786 100.00 0.010000 589.81 624.40 2.2569 2.1510 6.3288 163.61 0.23201 12.528 0.039786
86.375 506.41 undefined 591.96 626.87 2.2629 100.00 0.010000 591.96 626.87 2.2629 2.1425 6.0673 164.67 0.22785 12.561 0.039558 100.00 0.010000 591.96 626.87 2.2629 2.1425 6.0673 164.67 0.22785 12.561 0.039558
87.375 511.08 undefined 594.09 629.33 2.2688 100.00 0.010000 594.09 629.33 2.2688 2.1345 5.8374 165.74 0.22385 12.595 0.039368 100.00 0.010000 594.09 629.33 2.2688 2.1345 5.8374 165.74 0.22385 12.595 0.039368
88.375 515.72 undefined 596.23 631.78 2.2748 100.00 0.010000 596.23 631.78 2.2748 2.1270 5.6339 166.80 0.21999 12.628 0.039209 100.00 0.010000 596.23 631.78 2.2748 2.1270 5.6339 166.80 0.21999 12.628 0.039209
89.375 520.34 undefined 598.35 634.23 2.2806 100.00 0.010000 598.35 634.23 2.2806 2.1201 5.4527 167.86 0.21626 12.661 0.039077 100.00 0.010000 598.35 634.23 2.2806 2.1201 5.4527 167.86 0.21626 12.661 0.039077
90.375 524.93 undefined 600.47 636.66 2.2864 100.00 0.010000 600.47 636.66 2.2864 2.1138 5.2905 168.91 0.21264 12.694 0.038969 100.00 0.010000 600.47 636.66 2.2864 2.1138 5.2905 168.91 0.21264 12.694 0.038969
91.375 529.50 undefined 602.58 639.08 2.2922 100.00 0.010000 602.58 639.08 2.2922 2.1082 5.1444 169.96 0.20914 12.728 0.038882 100.00 0.010000 602.58 639.08 2.2922 2.1082 5.1444 169.96 0.20914 12.728 0.038882
92.375 534.04 undefined 604.68 641.50 2.2980 100.00 0.010000 604.68 641.50 2.2980 2.1031 5.0124 171.01 0.20574 12.761 0.038814 100.00 0.010000 604.68 641.50 2.2980 2.1031 5.0124 171.01 0.20574 12.761 0.038814
93.375 538.56 undefined 606.78 643.92 2.3038 100.00 0.010000 606.78 643.92 2.3038 2.0987 4.8924 172.05 0.20243 12.794 0.038761 100.00 0.010000 606.78 643.92 2.3038 2.0987 4.8924 172.05 0.20243 12.794 0.038761
94.375 543.06 undefined 608.88 646.32 2.3095 100.00 0.010000 608.88 646.32 2.3095 2.0949 4.7830 173.08 0.19921 12.827 0.038722 100.00 0.010000 608.88 646.32 2.3095 2.0949 4.7830 173.08 0.19921 12.827 0.038722
95.375 547.55 undefined 610.97 648.73 2.3152 100.00 0.010000 610.97 648.73 2.3152 2.0916 4.6827 174.10 0.19608 12.861 0.038696 100.00 0.010000 610.97 648.73 2.3152 2.0916 4.6827 174.10 0.19608 12.861 0.038696
96.375 552.01 undefined 613.06 651.12 2.3208 100.00 0.010000 613.06 651.12 2.3208 2.0887 4.5906 175.12 0.19303 12.896 0.038681 100.00 0.010000 613.06 651.12 2.3208 2.0887 4.5906 175.12 0.19303 12.896 0.038681
97.375 556.46 undefined 615.15 653.52 2.3265 100.00 0.010000 615.15 653.52 2.3265 2.0863 4.5057 176.13 0.19005 12.928 0.038677 100.00 0.010000 615.15 653.52 2.3265 2.0863 4.5057 176.13 0.19005 12.928 0.038677
98.375 560.90 undefined 617.24 655.91 2.3321 100.00 0.010000 617.24 655.91 2.3321 2.0844 4.4271 177.13 0.18715 12.960 0.038682 100.00 0.010000 617.24 655.91 2.3321 2.0844 4.4271 177.13 0.18715 12.960 0.038682
99.375 565.32 undefined 619.32 658.30 2.3377 100.00 0.010000 619.32 658.30 2.3377 2.0828 4.3542 178.13 0.18432 12.992 0.038695 100.00 0.010000 619.32 658.30 2.3377 2.0828 4.3542 178.13 0.18432 12.992 0.038695
100.38 569.72 undefined 621.40 660.68 2.3433 100.00 0.010000 621.40 660.68 2.3433 2.0815 4.2864 179.11 0.18156 13.024 0.038716 100.00 0.010000 621.40 660.68 2.3433 2.0815 4.2864 179.11 0.18156 13.024 0.038716
101.38 574.12 undefined 623.48 663.07 2.3488 100.00 0.010000 623.48 663.07 2.3488 2.0806 4.2231 180.10 0.17886 13.057 0.038744 100.00 0.010000 623.48 663.07 2.3488 2.0806 4.2231 180.10 0.17886 13.057 0.038744
102.38 578.49 undefined 625.56 665.45 2.3544 100.00 0.010000 625.56 665.45 2.3544 2.0799 4.1640 181.07 0.17623 13.089 0.038777 100.00 0.010000 625.56 665.45 2.3544 2.0799 4.1640 181.07 0.17623 13.089 0.038777
103.38 582.86 undefined 627.64 667.83 2.3599 100.00 0.010000 627.64 667.83 2.3599 2.0794 4.1086 182.04 0.17366 13.122 0.038817 100.00 0.010000 627.64 667.83 2.3599 2.0794 4.1086 182.04 0.17366 13.122 0.038817
104.38 587.22 undefined 629.72 670.21 2.3654 100.00 0.010000 629.72 670.21 2.3654 2.0792 4.0566 183.01 0.17115 13.154 0.038862 100.00 0.010000 629.72 670.21 2.3654 2.0792 4.0566 183.01 0.17115 13.154 0.038862
105.38 591.56 undefined 631.80 672.59 2.3709 100.00 0.010000 631.80 672.59 2.3709 2.0792 4.0076 183.96 0.16870 13.187 0.038912 100.00 0.010000 631.80 672.59 2.3709 2.0792 4.0076 183.96 0.16870 13.187 0.038912
106.38 595.89 undefined 633.88 674.97 2.3764 100.00 0.010000 633.88 674.97 2.3764 2.0794 3.9616 184.92 0.16631 13.219 0.038967 100.00 0.010000 633.88 674.97 2.3764 2.0794 3.9616 184.92 0.16631 13.219 0.038967
107.38 600.21 undefined 635.96 677.34 2.3819 100.00 0.010000 635.96 677.34 2.3819 2.0797 3.9181 185.86 0.16397 13.252 0.039026 100.00 0.010000 635.96 677.34 2.3819 2.0797 3.9181 185.86 0.16397 13.252 0.039026
108.38 604.52 undefined 638.04 679.72 2.3873 100.00 0.010000 638.04 679.72 2.3873 2.0803 3.8770 186.80 0.16168 13.284 0.039089 100.00 0.010000 638.04 679.72 2.3873 2.0803 3.8770 186.80 0.16168 13.284 0.039089
109.38 608.83 undefined 640.12 682.10 2.3928 100.00 0.010000 640.12 682.10 2.3928 2.0809 3.8381 187.74 0.15944 13.317 0.039155 100.00 0.010000 640.12 682.10 2.3928 2.0809 3.8381 187.74 0.15944 13.317 0.039155
110.38 613.12 undefined 642.20 684.47 2.3982 100.00 0.010000 642.20 684.47 2.3982 2.0817 3.8013 188.67 0.15725 13.349 0.039226 100.00 0.010000 642.20 684.47 2.3982 2.0817 3.8013 188.67 0.15725 13.349 0.039226
111.38 617.40 undefined 644.28 686.85 2.4036 100.00 0.010000 644.28 686.85 2.4036 2.0826 3.7664 189.59 0.15511 13.381 0.039299 100.00 0.010000 644.28 686.85 2.4036 2.0826 3.7664 189.59 0.15511 13.381 0.039299
112.38 621.68 undefined 646.37 689.23 2.4090 100.00 0.010000 646.37 689.23 2.4090 2.0837 3.7333 190.51 0.15302 13.414 0.039376 100.00 0.010000 646.37 689.23 2.4090 2.0837 3.7333 190.51 0.15302 13.414 0.039376
113.38 625.94 undefined 648.45 691.61 2.4144 100.00 0.010000 648.45 691.61 2.4144 2.0848 3.7018 191.43 0.15097 13.446 0.039456 100.00 0.010000 648.45 691.61 2.4144 2.0848 3.7018 191.43 0.15097 13.446 0.039456
114.38 630.20 undefined 650.54 693.99 2.4198 100.00 0.010000 650.54 693.99 2.4198 2.0861 3.6719 192.34 0.14896 13.478 0.039538 100.00 0.010000 650.54 693.99 2.4198 2.0861 3.6719 192.34 0.14896 13.478 0.039538
115.38 634.45 undefined 652.62 696.37 2.4252 100.00 0.010000 652.62 696.37 2.4252 2.0874 3.6433 193.25 0.14700 13.510 0.039623 100.00 0.010000 652.62 696.37 2.4252 2.0874 3.6433 193.25 0.14700 13.510 0.039623
116.38 638.69 undefined 654.71 698.75 2.4306 100.00 0.010000 654.71 698.75 2.4306 2.0889 3.6162 194.15 0.14508 13.542 0.039711 100.00 0.010000 654.71 698.75 2.4306 2.0889 3.6162 194.15 0.14508 13.542 0.039711
117.38 642.93 undefined 656.80 701.13 2.4359 100.00 0.010000 656.80 701.13 2.4359 2.0904 3.5903 195.04 0.14319 13.574 0.039801 100.00 0.010000 656.80 701.13 2.4359 2.0904 3.5903 195.04 0.14319 13.574 0.039801
118.38 647.15 undefined 658.89 703.51 2.4413 100.00 0.010000 658.89 703.51 2.4413 2.0920 3.5656 195.94 0.14135 13.606 0.039893 100.00 0.010000 658.89 703.51 2.4413 2.0920 3.5656 195.94 0.14135 13.606 0.039893
119.38 651.37 undefined 660.99 705.90 2.4466 100.00 0.010000 660.99 705.90 2.4466 2.0937 3.5420 196.82 0.13954 13.638 0.039988 100.00 0.010000 660.99 705.90 2.4466 2.0937 3.5420 196.82 0.13954 13.638 0.039988
120.38 655.58 undefined 663.08 708.28 2.4520 100.00 0.010000 663.08 708.28 2.4520 2.0955 3.5194 197.71 0.13777 13.670 0.040085 100.00 0.010000 663.08 708.28 2.4520 2.0955 3.5194 197.71 0.13777 13.670 0.040085
121.38 659.79 undefined 665.18 710.67 2.4573 100.00 0.010000 665.18 710.67 2.4573 2.0973 3.4979 198.59 0.13604 13.702 0.040183 100.00 0.010000 665.18 710.67 2.4573 2.0973 3.4979 198.59 0.13604 13.702 0.040183
122.38 663.99 undefined 667.27 713.05 2.4626 100.00 0.010000 667.27 713.05 2.4626 2.0992 3.4773 199.46 0.13433 13.734 0.040284 100.00 0.010000 667.27 713.05 2.4626 2.0992 3.4773 199.46 0.13433 13.734 0.040284
123.38 668.18 undefined 669.37 715.44 2.4679 100.00 0.010000 669.37 715.44 2.4679 2.1012 3.4575 200.33 0.13266 13.765 0.040386 100.00 0.010000 669.37 715.44 2.4679 2.1012 3.4575 200.33 0.13266 13.765 0.040386
124.38 672.37 undefined 671.48 717.83 2.4732 100.00 0.010000 671.48 717.83 2.4732 2.1032 3.4386 201.20 0.13103 13.797 0.040490 100.00 0.010000 671.48 717.83 2.4732 2.1032 3.4386 201.20 0.13103 13.797 0.040490
125.38 676.55 undefined 673.58 720.23 2.4785 100.00 0.010000 673.58 720.23 2.4785 2.1053 3.4205 202.06 0.12942 13.829 0.040596 100.00 0.010000 673.58 720.23 2.4785 2.1053 3.4205 202.06 0.12942 13.829 0.040596
126.38 680.72 undefined 675.69 722.62 2.4838 100.00 0.010000 675.69 722.62 2.4838 2.1074 3.4031 202.92 0.12785 13.861 0.040703 100.00 0.010000 675.69 722.62 2.4838 2.1074 3.4031 202.92 0.12785 13.861 0.040703
127.38 684.89 undefined 677.80 725.02 2.4890 100.00 0.010000 677.80 725.02 2.4890 2.1096 3.3865 203.77 0.12630 13.892 0.040812 100.00 0.010000 677.80 725.02 2.4890 2.1096 3.3865 203.77 0.12630 13.892 0.040812
128.38 689.05 undefined 679.91 727.41 2.4943 100.00 0.010000 679.91 727.41 2.4943 2.1119 3.3705 204.62 0.12479 13.924 0.040922 100.00 0.010000 679.91 727.41 2.4943 2.1119 3.3705 204.62 0.12479 13.924 0.040922
129.38 693.21 undefined 682.02 729.81 2.4995 100.00 0.010000 682.02 729.81 2.4995 2.1141 3.3552 205.47 0.12330 13.955 0.041034 100.00 0.010000 682.02 729.81 2.4995 2.1141 3.3552 205.47 0.12330 13.955 0.041034
130.38 697.36 undefined 684.13 732.22 2.5048 100.00 0.010000 684.13 732.22 2.5048 2.1165 3.3404 206.31 0.12184 13.987 0.041147 100.00 0.010000 684.13 732.22 2.5048 2.1165 3.3404 206.31 0.12184 13.987 0.041147
131.38 701.50 undefined 686.25 734.62 2.5100 100.00 0.010000 686.25 734.62 2.5100 2.1189 3.3263 207.15 0.12040 14.018 0.041261 100.00 0.010000 686.25 734.62 2.5100 2.1189 3.3263 207.15 0.12040 14.018 0.041261
132.38 705.64 undefined 688.37 737.02 2.5153 100.00 0.010000 688.37 737.02 2.5153 2.1213 3.3127 207.99 0.11900 14.050 0.041377 100.00 0.010000 688.37 737.02 2.5153 2.1213 3.3127 207.99 0.11900 14.050 0.041377
133.38 709.78 undefined 690.50 739.43 2.5205 100.00 0.010000 690.50 739.43 2.5205 2.1237 3.2996 208.82 0.11761 14.081 0.041494 100.00 0.010000 690.50 739.43 2.5205 2.1237 3.2996 208.82 0.11761 14.081 0.041494
134.38 713.91 undefined 692.62 741.84 2.5257 100.00 0.010000 692.62 741.84 2.5257 2.1262 3.2871 209.65 0.11625 14.112 0.041612 100.00 0.010000 692.62 741.84 2.5257 2.1262 3.2871 209.65 0.11625 14.112 0.041612
135.38 718.03 undefined 694.75 744.25 2.5309 100.00 0.010000 694.75 744.25 2.5309 2.1288 3.2750 210.48 0.11492 14.144 0.041731 100.00 0.010000 694.75 744.25 2.5309 2.1288 3.2750 210.48 0.11492 14.144 0.041731
136.38 722.15 undefined 696.88 746.67 2.5361 100.00 0.010000 696.88 746.67 2.5361 2.1313 3.2634 211.30 0.11361 14.175 0.041852 100.00 0.010000 696.88 746.67 2.5361 2.1313 3.2634 211.30 0.11361 14.175 0.041852
137.38 726.27 undefined 699.01 749.08 2.5413 100.00 0.010000 699.01 749.08 2.5413 2.1339 3.2522 212.12 0.11232 14.206 0.041973 100.00 0.010000 699.01 749.08 2.5413 2.1339 3.2522 212.12 0.11232 14.206 0.041973
138.38 730.38 undefined 701.15 751.50 2.5465 100.00 0.010000 701.15 751.50 2.5465 2.1365 3.2414 212.93 0.11105 14.238 0.042096 100.00 0.010000 701.15 751.50 2.5465 2.1365 3.2414 212.93 0.11105 14.238 0.042096
139.38 734.49 undefined 703.28 753.92 2.5517 100.00 0.010000 703.28 753.92 2.5517 2.1392 3.2311 213.74 0.10981 14.269 0.042220 100.00 0.010000 703.28 753.92 2.5517 2.1392 3.2311 213.74 0.10981 14.269 0.042220
140.38 738.59 undefined 705.42 756.35 2.5569 100.00 0.010000 705.42 756.35 2.5569 2.1419 3.2211 214.55 0.10859 14.300 0.042344 100.00 0.010000 705.42 756.35 2.5569 2.1419 3.2211 214.55 0.10859 14.300 0.042344
141.38 742.68 undefined 707.57 758.77 2.5621 100.00 0.010000 707.57 758.77 2.5621 2.1446 3.2115 215.36 0.10738 14.331 0.042470 100.00 0.010000 707.57 758.77 2.5621 2.1446 3.2115 215.36 0.10738 14.331 0.042470
142.38 746.78 undefined 709.71 761.20 2.5673 100.00 0.010000 709.71 761.20 2.5673 2.1473 3.2022 216.16 0.10620 14.362 0.042596 100.00 0.010000 709.71 761.20 2.5673 2.1473 3.2022 216.16 0.10620 14.362 0.042596
143.38 750.87 undefined 711.86 763.63 2.5724 100.00 0.010000 711.86 763.63 2.5724 2.1501 3.1933 216.96 0.10504 14.393 0.042724 100.00 0.010000 711.86 763.63 2.5724 2.1501 3.1933 216.96 0.10504 14.393 0.042724
144.38 754.95 undefined 714.01 766.07 2.5776 100.00 0.010000 714.01 766.07 2.5776 2.1529 3.1847 217.75 0.10390 14.424 0.042852 100.00 0.010000 714.01 766.07 2.5776 2.1529 3.1847 217.75 0.10390 14.424 0.042852
145.38 759.03 undefined 716.17 768.50 2.5827 100.00 0.010000 716.17 768.50 2.5827 2.1557 3.1765 218.54 0.10277 14.455 0.042981 100.00 0.010000 716.17 768.50 2.5827 2.1557 3.1765 218.54 0.10277 14.455 0.042981
146.38 763.11 undefined 718.32 770.94 2.5879 100.00 0.010000 718.32 770.94 2.5879 2.1585 3.1685 219.33 0.10167 14.486 0.043111 100.00 0.010000 718.32 770.94 2.5879 2.1585 3.1685 219.33 0.10167 14.486 0.043111
147.38 767.18 undefined 720.48 773.38 2.5930 100.00 0.010000 720.48 773.38 2.5930 2.1614 3.1608 220.12 0.10058 14.517 0.043242 100.00 0.010000 720.48 773.38 2.5930 2.1614 3.1608 220.12 0.10058 14.517 0.043242
148.38 771.25 undefined 722.65 775.82 2.5982 100.00 0.010000 722.65 775.82 2.5982 2.1643 3.1534 220.90 0.099507 14.547 0.043374 100.00 0.010000 722.65 775.82 2.5982 2.1643 3.1534 220.90 0.099507 14.547 0.043374
149.38 775.31 undefined 724.81 778.27 2.6033 100.00 0.010000 724.81 778.27 2.6033 2.1672 3.1463 221.68 0.098453 14.578 0.043507 100.00 0.010000 724.81 778.27 2.6033 2.1672 3.1463 221.68 0.098453 14.578 0.043507
150.38 779.37 undefined 726.98 780.72 2.6084 100.00 0.010000 726.98 780.72 2.6084 2.1701 3.1394 222.46 0.097416 14.609 0.043640 100.00 0.010000 726.98 780.72 2.6084 2.1701 3.1394 222.46 0.097416 14.609 0.043640
151.38 783.43 undefined 729.15 783.17 2.6135 100.00 0.010000 729.15 783.17 2.6135 2.1730 3.1328 223.24 0.096396 14.640 0.043774 100.00 0.010000 729.15 783.17 2.6135 2.1730 3.1328 223.24 0.096396 14.640 0.043774
152.38 787.48 undefined 731.33 785.62 2.6187 100.00 0.010000 731.33 785.62 2.6187 2.1760 3.1264 224.01 0.095391 14.670 0.043909 100.00 0.010000 731.33 785.62 2.6187 2.1760 3.1264 224.01 0.095391 14.670 0.043909
153.38 791.53 undefined 733.51 788.08 2.6238 100.00 0.010000 733.51 788.08 2.6238 2.1789 3.1203 224.78 0.094403 14.701 0.044044 100.00 0.010000 733.51 788.08 2.6238 2.1789 3.1203 224.78 0.094403 14.701 0.044044
154.38 795.57 undefined 735.69 790.54 2.6289 100.00 0.010000 735.69 790.54 2.6289 2.1819 3.1144 225.54 0.093429 14.732 0.044180 100.00 0.010000 735.69 790.54 2.6289 2.1819 3.1144 225.54 0.093429 14.732 0.044180
155.38 799.62 undefined 737.87 793.00 2.6340 100.00 0.010000 737.87 793.00 2.6340 2.1849 3.1087 226.31 0.092471 14.762 0.044317 100.00 0.010000 737.87 793.00 2.6340 2.1849 3.1087 226.31 0.092471 14.762 0.044317
156.38 803.65 undefined 740.06 795.47 2.6391 100.00 0.010000 740.06 795.47 2.6391 2.1879 3.1032 227.07 0.091527 14.793 0.044455 100.00 0.010000 740.06 795.47 2.6391 2.1879 3.1032 227.07 0.091527 14.793 0.044455
157.38 807.69 undefined 742.25 797.93 2.6442 100.00 0.010000 742.25 797.93 2.6442 2.1909 3.0979 227.82 0.090598 14.823 0.044593 100.00 0.010000 742.25 797.93 2.6442 2.1909 3.0979 227.82 0.090598 14.823 0.044593
158.38 811.72 undefined 744.44 800.40 2.6492 100.00 0.010000 744.44 800.40 2.6492 2.1940 3.0928 228.58 0.089682 14.854 0.044732 100.00 0.010000 744.44 800.40 2.6492 2.1940 3.0928 228.58 0.089682 14.854 0.044732
159.38 815.75 undefined 746.63 802.88 2.6543 100.00 0.010000 746.63 802.88 2.6543 2.1970 3.0879 229.33 0.088781 14.884 0.044872 100.00 0.010000 746.63 802.88 2.6543 2.1970 3.0879 229.33 0.088781 14.884 0.044872
160.38 819.77 undefined 748.83 805.35 2.6594 100.00 0.010000 748.83 805.35 2.6594 2.2001 3.0832 230.08 0.087893 14.914 0.045012 100.00 0.010000 748.83 805.35 2.6594 2.2001 3.0832 230.08 0.087893 14.914 0.045012
161.38 823.80 undefined 751.03 807.83 2.6645 100.00 0.010000 751.03 807.83 2.6645 2.2032 3.0787 230.83 0.087018 14.945 0.045153 100.00 0.010000 751.03 807.83 2.6645 2.2032 3.0787 230.83 0.087018 14.945 0.045153
162.38 827.81 undefined 753.24 810.31 2.6695 100.00 0.010000 753.24 810.31 2.6695 2.2063 3.0743 231.57 0.086156 14.975 0.045294 100.00 0.010000 753.24 810.31 2.6695 2.2063 3.0743 231.57 0.086156 14.975 0.045294
163.38 831.83 undefined 755.45 812.80 2.6746 100.00 0.010000 755.45 812.80 2.6746 2.2094 3.0701 232.32 0.085307 15.005 0.045436 100.00 0.010000 755.45 812.80 2.6746 2.2094 3.0701 232.32 0.085307 15.005 0.045436
164.38 835.84 undefined 757.66 815.29 2.6797 100.00 0.010000 757.66 815.29 2.6797 2.2125 3.0661 233.05 0.084470 15.035 0.045579 100.00 0.010000 757.66 815.29 2.6797 2.2125 3.0661 233.05 0.084470 15.035 0.045579
165.38 839.85 undefined 759.87 817.78 2.6847 100.00 0.010000 759.87 817.78 2.6847 2.2156 3.0622 233.79 0.083645 15.066 0.045722 100.00 0.010000 759.87 817.78 2.6847 2.2156 3.0622 233.79 0.083645 15.066 0.045722
166.38 843.86 undefined 762.09 820.27 2.6898 100.00 0.010000 762.09 820.27 2.6898 2.2188 3.0585 234.53 0.082833 15.096 0.045866 100.00 0.010000 762.09 820.27 2.6898 2.2188 3.0585 234.53 0.082833 15.096 0.045866
167.38 847.86 undefined 764.31 822.77 2.6948 100.00 0.010000 764.31 822.77 2.6948 2.2219 3.0549 235.26 0.082032 15.126 0.046011 100.00 0.010000 764.31 822.77 2.6948 2.2219 3.0549 235.26 0.082032 15.126 0.046011
168.38 851.86 undefined 766.53 825.27 2.6999 100.00 0.010000 766.53 825.27 2.6999 2.2251 3.0515 235.99 0.081242 15.156 0.046155 100.00 0.010000 766.53 825.27 2.6999 2.2251 3.0515 235.99 0.081242 15.156 0.046155
169.38 855.86 undefined 768.76 827.77 2.7049 100.00 0.010000 768.76 827.77 2.7049 2.2282 3.0482 236.72 0.080464 15.186 0.046301 100.00 0.010000 768.76 827.77 2.7049 2.2282 3.0482 236.72 0.080464 15.186 0.046301
170.38 859.85 undefined 770.99 830.27 2.7099 100.00 0.010000 770.99 830.27 2.7099 2.2314 3.0450 237.44 0.079697 15.216 0.046447 100.00 0.010000 770.99 830.27 2.7099 2.2314 3.0450 237.44 0.079697 15.216 0.046447
171.38 863.84 undefined 773.22 832.78 2.7150 100.00 0.010000 773.22 832.78 2.7150 2.2346 3.0420 238.16 0.078940 15.246 0.046594 100.00 0.010000 773.22 832.78 2.7150 2.2346 3.0420 238.16 0.078940 15.246 0.046594
172.38 867.83 undefined 775.46 835.29 2.7200 100.00 0.010000 775.46 835.29 2.7200 2.2378 3.0391 238.88 0.078194 15.276 0.046741 100.00 0.010000 775.46 835.29 2.7200 2.2378 3.0391 238.88 0.078194 15.276 0.046741
173.38 871.82 undefined 777.70 837.81 2.7250 100.00 0.010000 777.70 837.81 2.7250 2.2410 3.0363 239.60 0.077459 15.306 0.046888 100.00 0.010000 777.70 837.81 2.7250 2.2410 3.0363 239.60 0.077459 15.306 0.046888
174.38 875.80 undefined 779.94 840.32 2.7300 100.00 0.010000 779.94 840.32 2.7300 2.2442 3.0337 240.32 0.076734 15.336 0.047037 100.00 0.010000 779.94 840.32 2.7300 2.2442 3.0337 240.32 0.076734 15.336 0.047037
175.38 879.78 undefined 782.19 842.84 2.7350 100.00 0.010000 782.19 842.84 2.7350 2.2474 3.0311 241.03 0.076019 15.366 0.047185 100.00 0.010000 782.19 842.84 2.7350 2.2474 3.0311 241.03 0.076019 15.366 0.047185
176.38 883.76 undefined 784.43 845.37 2.7400 100.00 0.010000 784.43 845.37 2.7400 2.2507 3.0287 241.74 0.075313 15.395 0.047334 100.00 0.010000 784.43 845.37 2.7400 2.2507 3.0287 241.74 0.075313 15.395 0.047334
177.38 887.73 undefined 786.69 847.89 2.7450 100.00 0.010000 786.69 847.89 2.7450 2.2539 3.0264 242.45 0.074617 15.425 0.047484 100.00 0.010000 786.69 847.89 2.7450 2.2539 3.0264 242.45 0.074617 15.425 0.047484
178.38 891.71 undefined 788.94 850.42 2.7500 100.00 0.010000 788.94 850.42 2.7500 2.2571 3.0242 243.16 0.073931 15.455 0.047634 100.00 0.010000 788.94 850.42 2.7500 2.2571 3.0242 243.16 0.073931 15.455 0.047634
179.38 895.68 undefined 791.20 852.96 2.7550 100.00 0.010000 791.20 852.96 2.7550 2.2604 3.0221 243.86 0.073254 15.485 0.047785 100.00 0.010000 791.20 852.96 2.7550 2.2604 3.0221 243.86 0.073254 15.485 0.047785
180.38 899.64 undefined 793.46 855.49 2.7600 100.00 0.010000 793.46 855.49 2.7600 2.2636 3.0201 244.56 0.072586 15.514 0.047936 100.00 0.010000 793.46 855.49 2.7600 2.2636 3.0201 244.56 0.072586 15.514 0.047936
181.38 903.61 undefined 795.73 858.03 2.7650 100.00 0.010000 795.73 858.03 2.7650 2.2669 3.0182 245.26 0.071927 15.544 0.048087 100.00 0.010000 795.73 858.03 2.7650 2.2669 3.0182 245.26 0.071927 15.544 0.048087
182.38 907.57 undefined 798.00 860.57 2.7700 100.00 0.010000 798.00 860.57 2.7700 2.2702 3.0164 245.96 0.071277 15.573 0.048239 100.00 0.010000 798.00 860.57 2.7700 2.2702 3.0164 245.96 0.071277 15.573 0.048239
183.38 911.53 undefined 800.27 863.12 2.7750 100.00 0.010000 800.27 863.12 2.7750 2.2734 3.0147 246.66 0.070635 15.603 0.048392 100.00 0.010000 800.27 863.12 2.7750 2.2734 3.0147 246.66 0.070635 15.603 0.048392
184.38 915.49 undefined 802.54 865.66 2.7800 100.00 0.010000 802.54 865.66 2.7800 2.2767 3.0131 247.35 0.070002 15.632 0.048545 100.00 0.010000 802.54 865.66 2.7800 2.2767 3.0131 247.35 0.070002 15.632 0.048545
185.38 919.44 undefined 804.82 868.22 2.7849 100.00 0.010000 804.82 868.22 2.7849 2.2800 3.0116 248.04 0.069377 15.662 0.048698 100.00 0.010000 804.82 868.22 2.7849 2.2800 3.0116 248.04 0.069377 15.662 0.048698
186.38 923.39 undefined 807.10 870.77 2.7899 100.00 0.010000 807.10 870.77 2.7899 2.2833 3.0101 248.73 0.068761 15.691 0.048852 100.00 0.010000 807.10 870.77 2.7899 2.2833 3.0101 248.73 0.068761 15.691 0.048852
187.38 927.35 undefined 809.39 873.33 2.7949 100.00 0.010000 809.39 873.33 2.7949 2.2866 3.0088 249.42 0.068152 15.721 0.049006 100.00 0.010000 809.39 873.33 2.7949 2.2866 3.0088 249.42 0.068152 15.721 0.049006
188.38 931.29 undefined 811.68 875.89 2.7998 100.00 0.010000 811.68 875.89 2.7998 2.2899 3.0075 250.11 0.067551 15.750 0.049161 100.00 0.010000 811.68 875.89 2.7998 2.2899 3.0075 250.11 0.067551 15.750 0.049161
189.38 935.24 undefined 813.97 878.45 2.8048 100.00 0.010000 813.97 878.45 2.8048 2.2932 3.0063 250.79 0.066958 15.780 0.049316 100.00 0.010000 813.97 878.45 2.8048 2.2932 3.0063 250.79 0.066958 15.780 0.049316
190.38 939.18 undefined 816.26 881.02 2.8098 100.00 0.010000 816.26 881.02 2.8098 2.2965 3.0052 251.47 0.066373 15.809 0.049472 100.00 0.010000 816.26 881.02 2.8098 2.2965 3.0052 251.47 0.066373 15.809 0.049472
191.38 943.12 undefined 818.56 883.59 2.8147 100.00 0.010000 818.56 883.59 2.8147 2.2998 3.0042 252.15 0.065795 15.838 0.049628 100.00 0.010000 818.56 883.59 2.8147 2.2998 3.0042 252.15 0.065795 15.838 0.049628
192.38 947.06 undefined 820.86 886.16 2.8197 100.00 0.010000 820.86 886.16 2.8197 2.3032 3.0032 252.83 0.065224 15.867 0.049784 100.00 0.010000 820.86 886.16 2.8197 2.3032 3.0032 252.83 0.065224 15.867 0.049784
193.38 951.00 undefined 823.17 888.74 2.8246 100.00 0.010000 823.17 888.74 2.8246 2.3065 3.0023 253.51 0.064661 15.897 0.049941 100.00 0.010000 823.17 888.74 2.8246 2.3065 3.0023 253.51 0.064661 15.897 0.049941
194.38 954.93 undefined 825.48 891.32 2.8296 100.00 0.010000 825.48 891.32 2.8296 2.3098 3.0015 254.18 0.064105 15.926 0.050099 100.00 0.010000 825.48 891.32 2.8296 2.3098 3.0015 254.18 0.064105 15.926 0.050099
195.38 958.87 undefined 827.79 893.90 2.8345 100.00 0.010000 827.79 893.90 2.8345 2.3132 3.0008 254.85 0.063556 15.955 0.050256 100.00 0.010000 827.79 893.90 2.8345 2.3132 3.0008 254.85 0.063556 15.955 0.050256
196.38 962.80 undefined 830.10 896.48 2.8394 100.00 0.010000 830.10 896.48 2.8394 2.3165 3.0001 255.52 0.063013 15.984 0.050414 100.00 0.010000 830.10 896.48 2.8394 2.3165 3.0001 255.52 0.063013 15.984 0.050414
197.38 966.73 undefined 832.42 899.07 2.8444 100.00 0.010000 832.42 899.07 2.8444 2.3198 2.9995 256.19 0.062478 16.013 0.050573 100.00 0.010000 832.42 899.07 2.8444 2.3198 2.9995 256.19 0.062478 16.013 0.050573
198.38 970.65 undefined 834.74 901.67 2.8493 100.00 0.010000 834.74 901.67 2.8493 2.3232 2.9990 256.86 0.061949 16.042 0.050732 100.00 0.010000 834.74 901.67 2.8493 2.3232 2.9990 256.86 0.061949 16.042 0.050732
199.38 974.58 undefined 837.07 904.26 2.8542 100.00 0.010000 837.07 904.26 2.8542 2.3265 2.9985 257.52 0.061426 16.071 0.050891 100.00 0.010000 837.07 904.26 2.8542 2.3265 2.9985 257.52 0.061426 16.071 0.050891
200.38 978.50 undefined 839.39 906.86 2.8591 100.00 0.010000 839.39 906.86 2.8591 2.3299 2.9981 258.18 0.060910 16.100 0.051051 100.00 0.010000 839.39 906.86 2.8591 2.3299 2.9981 258.18 0.060910 16.100 0.051051
201.38 982.42 undefined 841.73 909.46 2.8641 100.00 0.010000 841.73 909.46 2.8641 2.3332 2.9977 258.85 0.060400 16.129 0.051211 100.00 0.010000 841.73 909.46 2.8641 2.3332 2.9977 258.85 0.060400 16.129 0.051211
202.38 986.34 undefined 844.06 912.07 2.8690 100.00 0.010000 844.06 912.07 2.8690 2.3366 2.9975 259.51 0.059897 16.158 0.051371 100.00 0.010000 844.06 912.07 2.8690 2.3366 2.9975 259.51 0.059897 16.158 0.051371
203.38 990.26 undefined 846.40 914.68 2.8739 100.00 0.010000 846.40 914.68 2.8739 2.3400 2.9972 260.16 0.059399 16.187 0.051532 100.00 0.010000 846.40 914.68 2.8739 2.3400 2.9972 260.16 0.059399 16.187 0.051532
204.38 994.17 undefined 848.74 917.29 2.8788 100.00 0.010000 848.74 917.29 2.8788 2.3433 2.9970 260.82 0.058908 16.216 0.051693 100.00 0.010000 848.74 917.29 2.8788 2.3433 2.9970 260.82 0.058908 16.216 0.051693
205.38 998.08 undefined 851.09 919.90 2.8837 100.00 0.010000 851.09 919.90 2.8837 2.3467 2.9969 261.47 0.058422 16.244 0.051855 100.00 0.010000 851.09 919.90 2.8837 2.3467 2.9969 261.47 0.058422 16.244 0.051855
206.38 1002.0 undefined 853.43 922.52 2.8886 100.00 0.010000 853.43 922.52 2.8886 2.3501 2.9969 262.12 0.057942 16.273 0.052017 100.00 0.010000 853.43 922.52 2.8886 2.3501 2.9969 262.12 0.057942 16.273 0.052017
207.38 1005.9 undefined 855.79 925.14 2.8935 100.00 0.010000 855.79 925.14 2.8935 2.3535 2.9968 262.77 0.057468 16.302 0.052179 100.00 0.010000 855.79 925.14 2.8935 2.3535 2.9968 262.77 0.057468 16.302 0.052179
208.38 1009.8 undefined 858.14 927.77 2.8984 100.00 0.010000 858.14 927.77 2.8984 2.3568 2.9969 263.42 0.057000 16.331 0.052342 100.00 0.010000 858.14 927.77 2.8984 2.3568 2.9969 263.42 0.057000 16.331 0.052342
209.38 1013.7 undefined 860.50 930.39 2.9033 100.00 0.010000 860.50 930.39 2.9033 2.3602 2.9970 264.07 0.056537 16.359 0.052505 100.00 0.010000 860.50 930.39 2.9033 2.3602 2.9970 264.07 0.056537 16.359 0.052505
210.38 1017.6 undefined 862.86 933.02 2.9082 100.00 0.010000 862.86 933.02 2.9082 2.3636 2.9971 264.72 0.056080 16.388 0.052669 100.00 0.010000 862.86 933.02 2.9082 2.3636 2.9971 264.72 0.056080 16.388 0.052669
211.38 1021.5 undefined 865.23 935.66 2.9131 100.00 0.010000 865.23 935.66 2.9131 2.3670 2.9973 265.36 0.055628 16.417 0.052833 100.00 0.010000 865.23 935.66 2.9131 2.3670 2.9973 265.36 0.055628 16.417 0.052833
212.38 1025.4 undefined 867.60 938.30 2.9179 100.00 0.010000 867.60 938.30 2.9179 2.3704 2.9975 266.00 0.055181 16.445 0.052997 100.00 0.010000 867.60 938.30 2.9179 2.3704 2.9975 266.00 0.055181 16.445 0.052997
213.38 1029.3 undefined 869.97 940.94 2.9228 100.00 0.010000 869.97 940.94 2.9228 2.3738 2.9978 266.64 0.054739 16.474 0.053161 100.00 0.010000 869.97 940.94 2.9228 2.3738 2.9978 266.64 0.054739 16.474 0.053161
214.38 1033.2 undefined 872.34 943.58 2.9277 100.00 0.010000 872.34 943.58 2.9277 2.3772 2.9981 267.28 0.054303 16.502 0.053326 100.00 0.010000 872.34 943.58 2.9277 2.3772 2.9981 267.28 0.054303 16.502 0.053326
215.38 1037.1 undefined 874.72 946.23 2.9326 100.00 0.010000 874.72 946.23 2.9326 2.3806 2.9985 267.92 0.053871 16.531 0.053492 100.00 0.010000 874.72 946.23 2.9326 2.3806 2.9985 267.92 0.053871 16.531 0.053492
216.38 1041.0 undefined 877.10 948.88 2.9375 100.00 0.010000 877.10 948.88 2.9375 2.3840 2.9989 268.55 0.053445 16.559 0.053657 100.00 0.010000 877.10 948.88 2.9375 2.3840 2.9989 268.55 0.053445 16.559 0.053657
217.38 1044.9 undefined 879.49 951.53 2.9423 100.00 0.010000 879.49 951.53 2.9423 2.3874 2.9994 269.19 0.053023 16.587 0.053823 100.00 0.010000 879.49 951.53 2.9423 2.3874 2.9994 269.19 0.053023 16.587 0.053823
218.38 1048.8 undefined 881.88 954.19 2.9472 100.00 0.010000 881.88 954.19 2.9472 2.3908 2.9999 269.82 0.052606 16.616 0.053990 100.00 0.010000 881.88 954.19 2.9472 2.3908 2.9999 269.82 0.052606 16.616 0.053990
219.38 1052.7 undefined 884.27 956.85 2.9520 100.00 0.010000 884.27 956.85 2.9520 2.3942 3.0004 270.45 0.052194 16.644 0.054156 100.00 0.010000 884.27 956.85 2.9520 2.3942 3.0004 270.45 0.052194 16.644 0.054156
220.38 1056.6 undefined 886.67 959.52 2.9569 100.00 0.010000 886.67 959.52 2.9569 2.3976 3.0010 271.08 0.051787 16.672 0.054323 100.00 0.010000 886.67 959.52 2.9569 2.3976 3.0010 271.08 0.051787 16.672 0.054323
221.38 1060.4 undefined 889.07 962.18 2.9618 100.00 0.010000 889.07 962.18 2.9618 2.4010 3.0016 271.71 0.051384 16.701 0.054491 100.00 0.010000 889.07 962.18 2.9618 2.4010 3.0016 271.71 0.051384 16.701 0.054491
222.38 1064.3 undefined 891.47 964.85 2.9666 100.00 0.010000 891.47 964.85 2.9666 2.4044 3.0023 272.33 0.050985 16.729 0.054658 100.00 0.010000 891.47 964.85 2.9666 2.4044 3.0023 272.33 0.050985 16.729 0.054658
223.38 1068.2 undefined 893.88 967.53 2.9715 100.00 0.010000 893.88 967.53 2.9715 2.4078 3.0030 272.96 0.050591 16.757 0.054826 100.00 0.010000 893.88 967.53 2.9715 2.4078 3.0030 272.96 0.050591 16.757 0.054826
224.38 1072.1 undefined 896.29 970.20 2.9763 100.00 0.010000 896.29 970.20 2.9763 2.4112 3.0037 273.58 0.050202 16.785 0.054995 100.00 0.010000 896.29 970.20 2.9763 2.4112 3.0037 273.58 0.050202 16.785 0.054995
225.38 1076.0 undefined 898.70 972.88 2.9812 100.00 0.010000 898.70 972.88 2.9812 2.4146 3.0045 274.20 0.049817 16.814 0.055163 100.00 0.010000 898.70 972.88 2.9812 2.4146 3.0045 274.20 0.049817 16.814 0.055163
226.38 1079.8 undefined 901.11 975.57 2.9860 100.00 0.010000 901.11 975.57 2.9860 2.4180 3.0053 274.82 0.049436 16.842 0.055332 100.00 0.010000 901.11 975.57 2.9860 2.4180 3.0053 274.82 0.049436 16.842 0.055332
227.38 1083.7 undefined 903.53 978.25 2.9908 100.00 0.010000 903.53 978.25 2.9908 2.4214 3.0061 275.44 0.049059 16.870 0.055502 100.00 0.010000 903.53 978.25 2.9908 2.4214 3.0061 275.44 0.049059 16.870 0.055502
228.38 1087.6 undefined 905.96 980.94 2.9957 100.00 0.010000 905.96 980.94 2.9957 2.4249 3.0070 276.06 0.048686 16.898 0.055671 100.00 0.010000 905.96 980.94 2.9957 2.4249 3.0070 276.06 0.048686 16.898 0.055671
229.38 1091.5 undefined 908.38 983.64 3.0005 100.00 0.010000 908.38 983.64 3.0005 2.4283 3.0079 276.67 0.048318 16.926 0.055841 100.00 0.010000 908.38 983.64 3.0005 2.4283 3.0079 276.67 0.048318 16.926 0.055841
230.38 1095.3 undefined 910.81 986.34 3.0053 100.00 0.010000 910.81 986.34 3.0053 2.4317 3.0088 277.29 0.047953 16.954 0.056012 100.00 0.010000 910.81 986.34 3.0053 2.4317 3.0088 277.29 0.047953 16.954 0.056012
231.38 1099.2 undefined 913.25 989.04 3.0102 100.00 0.010000 913.25 989.04 3.0102 2.4351 3.0098 277.90 0.047592 16.982 0.056182 100.00 0.010000 913.25 989.04 3.0102 2.4351 3.0098 277.90 0.047592 16.982 0.056182
232.38 1103.1 undefined 915.68 991.74 3.0150 100.00 0.010000 915.68 991.74 3.0150 2.4385 3.0108 278.51 0.047236 17.010 0.056353 100.00 0.010000 915.68 991.74 3.0150 2.4385 3.0108 278.51 0.047236 17.010 0.056353
233.38 1106.9 undefined 918.12 994.45 3.0198 100.00 0.010000 918.12 994.45 3.0198 2.4419 3.0118 279.12 0.046883 17.038 0.056525 100.00 0.010000 918.12 994.45 3.0198 2.4419 3.0118 279.12 0.046883 17.038 0.056525
234.38 1110.8 undefined 920.57 997.16 3.0246 100.00 0.010000 920.57 997.16 3.0246 2.4453 3.0129 279.73 0.046534 17.065 0.056696 100.00 0.010000 920.57 997.16 3.0246 2.4453 3.0129 279.73 0.046534 17.065 0.056696
235.38 1114.7 undefined 923.02 999.87 3.0295 100.00 0.010000 923.02 999.87 3.0295 2.4488 3.0140 280.34 0.046188 17.093 0.056868 100.00 0.010000 923.02 999.87 3.0295 2.4488 3.0140 280.34 0.046188 17.093 0.056868
236.38 1118.5 undefined 925.47 1002.6 3.0343 100.00 0.010000 925.47 1002.6 3.0343 2.4522 3.0151 280.94 0.045846 17.121 0.057040 100.00 0.010000 925.47 1002.6 3.0343 2.4522 3.0151 280.94 0.045846 17.121 0.057040
237.38 1122.4 undefined 927.92 1005.3 3.0391 100.00 0.010000 927.92 1005.3 3.0391 2.4556 3.0163 281.55 0.045508 17.149 0.057213 100.00 0.010000 927.92 1005.3 3.0391 2.4556 3.0163 281.55 0.045508 17.149 0.057213
238.38 1126.3 undefined 930.38 1008.0 3.0439 100.00 0.010000 930.38 1008.0 3.0439 2.4590 3.0174 282.15 0.045174 17.177 0.057385 100.00 0.010000 930.38 1008.0 3.0439 2.4590 3.0174 282.15 0.045174 17.177 0.057385
239.38 1130.1 undefined 932.84 1010.8 3.0487 100.00 0.010000 932.84 1010.8 3.0487 2.4624 3.0186 282.75 0.044843 17.204 0.057559 100.00 0.010000 932.84 1010.8 3.0487 2.4624 3.0186 282.75 0.044843 17.204 0.057559
240.38 1134.0 undefined 935.30 1013.5 3.0535 100.00 0.010000 935.30 1013.5 3.0535 2.4658 3.0199 283.35 0.044515 17.232 0.057732 100.00 0.010000 935.30 1013.5 3.0535 2.4658 3.0199 283.35 0.044515 17.232 0.057732
241.38 1137.8 undefined 937.77 1016.2 3.0583 100.00 0.010000 937.77 1016.2 3.0583 2.4693 3.0211 283.95 0.044191 17.260 0.057906 100.00 0.010000 937.77 1016.2 3.0583 2.4693 3.0211 283.95 0.044191 17.260 0.057906
242.38 1141.7 undefined 940.24 1019.0 3.0631 100.00 0.010000 940.24 1019.0 3.0631 2.4727 3.0224 284.55 0.043870 17.287 0.058080 100.00 0.010000 940.24 1019.0 3.0631 2.4727 3.0224 284.55 0.043870 17.287 0.058080
243.38 1145.5 undefined 942.71 1021.7 3.0679 100.00 0.010000 942.71 1021.7 3.0679 2.4761 3.0237 285.14 0.043553 17.315 0.058254 100.00 0.010000 942.71 1021.7 3.0679 2.4761 3.0237 285.14 0.043553 17.315 0.058254
244.38 1149.4 undefined 945.19 1024.4 3.0727 100.00 0.010000 945.19 1024.4 3.0727 2.4795 3.0250 285.74 0.043238 17.342 0.058428 100.00 0.010000 945.19 1024.4 3.0727 2.4795 3.0250 285.74 0.043238 17.342 0.058428
245.38 1153.3 undefined 947.67 1027.2 3.0775 100.00 0.010000 947.67 1027.2 3.0775 2.4829 3.0264 286.33 0.042927 17.370 0.058603 100.00 0.010000 947.67 1027.2 3.0775 2.4829 3.0264 286.33 0.042927 17.370 0.058603
246.38 1157.1 undefined 950.16 1029.9 3.0823 100.00 0.010000 950.16 1029.9 3.0823 2.4863 3.0277 286.92 0.042620 17.397 0.058778 100.00 0.010000 950.16 1029.9 3.0823 2.4863 3.0277 286.92 0.042620 17.397 0.058778
247.38 1161.0 undefined 952.65 1032.7 3.0870 100.00 0.010000 952.65 1032.7 3.0870 2.4897 3.0291 287.52 0.042315 17.425 0.058954 100.00 0.010000 952.65 1032.7 3.0870 2.4897 3.0291 287.52 0.042315 17.425 0.058954
248.38 1164.8 undefined 955.14 1035.4 3.0918 100.00 0.010000 955.14 1035.4 3.0918 2.4932 3.0306 288.11 0.042013 17.452 0.059129 100.00 0.010000 955.14 1035.4 3.0918 2.4932 3.0306 288.11 0.042013 17.452 0.059129
249.38 1168.6 undefined 957.63 1038.2 3.0966 100.00 0.010000 957.63 1038.2 3.0966 2.4966 3.0320 288.69 0.041715 17.480 0.059305 100.00 0.010000 957.63 1038.2 3.0966 2.4966 3.0320 288.69 0.041715 17.480 0.059305
250.38 1172.5 undefined 960.13 1041.0 3.1014 100.00 0.010000 960.13 1041.0 3.1014 2.5000 3.0335 289.28 0.041419 17.507 0.059481 100.00 0.010000 960.13 1041.0 3.1014 2.5000 3.0335 289.28 0.041419 17.507 0.059481
251.38 1176.3 undefined 962.63 1043.7 3.1062 100.00 0.010000 962.63 1043.7 3.1062 2.5034 3.0350 289.87 0.041127 17.534 0.059658 100.00 0.010000 962.63 1043.7 3.1062 2.5034 3.0350 289.87 0.041127 17.534 0.059658
252.38 1180.2 undefined 965.14 1046.5 3.1109 100.00 0.010000 965.14 1046.5 3.1109 2.5068 3.0365 290.45 0.040837 17.561 0.059834 100.00 0.010000 965.14 1046.5 3.1109 2.5068 3.0365 290.45 0.040837 17.561 0.059834
253.38 1184.0 undefined 967.65 1049.3 3.1157 100.00 0.010000 967.65 1049.3 3.1157 2.5102 3.0380 291.03 0.040551 17.589 0.060011 100.00 0.010000 967.65 1049.3 3.1157 2.5102 3.0380 291.03 0.040551 17.589 0.060011
254.38 1187.9 undefined 970.16 1052.1 3.1205 100.00 0.010000 970.16 1052.1 3.1205 2.5136 3.0395 291.62 0.040267 17.616 0.060188 100.00 0.010000 970.16 1052.1 3.1205 2.5136 3.0395 291.62 0.040267 17.616 0.060188
255.38 1191.7 undefined 972.67 1054.8 3.1252 100.00 0.010000 972.67 1054.8 3.1252 2.5170 3.0411 292.20 0.039986 17.643 0.060366 100.00 0.010000 972.67 1054.8 3.1252 2.5170 3.0411 292.20 0.039986 17.643 0.060366
256.38 1195.5 undefined 975.19 1057.6 3.1300 100.00 0.010000 975.19 1057.6 3.1300 2.5204 3.0427 292.78 0.039707 17.670 0.060543 100.00 0.010000 975.19 1057.6 3.1300 2.5204 3.0427 292.78 0.039707 17.670 0.060543
257.38 1199.4 undefined 977.71 1060.4 3.1347 100.00 0.010000 977.71 1060.4 3.1347 2.5238 3.0443 293.36 0.039432 17.697 0.060721 100.00 0.010000 977.71 1060.4 3.1347 2.5238 3.0443 293.36 0.039432 17.697 0.060721
258.38 1203.2 undefined 980.24 1063.2 3.1395 100.00 0.010000 980.24 1063.2 3.1395 2.5273 3.0459 293.93 0.039159 17.725 0.060899 100.00 0.010000 980.24 1063.2 3.1395 2.5273 3.0459 293.93 0.039159 17.725 0.060899
259.38 1207.0 undefined 982.77 1066.0 3.1443 100.00 0.010000 982.77 1066.0 3.1443 2.5307 3.0476 294.51 0.038889 17.752 0.061077 100.00 0.010000 982.77 1066.0 3.1443 2.5307 3.0476 294.51 0.038889 17.752 0.061077
260.38 1210.9 undefined 985.30 1068.8 3.1490 100.00 0.010000 985.30 1068.8 3.1490 2.5341 3.0492 295.08 0.038622 17.779 0.061256 100.00 0.010000 985.30 1068.8 3.1490 2.5341 3.0492 295.08 0.038622 17.779 0.061256
261.38 1214.7 undefined 987.84 1071.6 3.1538 100.00 0.010000 987.84 1071.6 3.1538 2.5375 3.0509 295.66 0.038357 17.806 0.061434 100.00 0.010000 987.84 1071.6 3.1538 2.5375 3.0509 295.66 0.038357 17.806 0.061434
262.38 1218.5 undefined 990.38 1074.4 3.1585 100.00 0.010000 990.38 1074.4 3.1585 2.5409 3.0526 296.23 0.038094 17.833 0.061613 100.00 0.010000 990.38 1074.4 3.1585 2.5409 3.0526 296.23 0.038094 17.833 0.061613
263.38 1222.4 undefined 992.92 1077.2 3.1632 100.00 0.010000 992.92 1077.2 3.1632 2.5443 3.0543 296.80 0.037834 17.860 0.061792 100.00 0.010000 992.92 1077.2 3.1632 2.5443 3.0543 296.80 0.037834 17.860 0.061792
264.38 1226.2 undefined 995.46 1080.0 3.1680 100.00 0.010000 995.46 1080.0 3.1680 2.5477 3.0560 297.37 0.037577 17.887 0.061971 100.00 0.010000 995.46 1080.0 3.1680 2.5477 3.0560 297.37 0.037577 17.887 0.061971
265.38 1230.0 undefined 998.01 1082.8 3.1727 100.00 0.010000 998.01 1082.8 3.1727 2.5511 3.0578 297.94 0.037322 17.914 0.062151 100.00 0.010000 998.01 1082.8 3.1727 2.5511 3.0578 297.94 0.037322 17.914 0.062151
266.38 1233.9 undefined 1000.6 1085.6 3.1775 100.00 0.010000 1000.6 1085.6 3.1775 2.5545 3.0595 298.51 0.037070 17.940 0.062330 100.00 0.010000 1000.6 1085.6 3.1775 2.5545 3.0595 298.51 0.037070 17.940 0.062330
267.38 1237.7 undefined 1003.1 1088.5 3.1822 100.00 0.010000 1003.1 1088.5 3.1822 2.5578 3.0613 299.07 0.036820 17.967 0.062509 100.00 0.010000 1003.1 1088.5 3.1822 2.5578 3.0613 299.07 0.036820 17.967 0.062509
268.38 1241.5 undefined 1005.7 1091.3 3.1869 100.00 0.010000 1005.7 1091.3 3.1869 2.5612 3.0631 299.64 0.036572 17.994 0.062689 100.00 0.010000 1005.7 1091.3 3.1869 2.5612 3.0631 299.64 0.036572 17.994 0.062689
269.38 1245.3 undefined 1008.2 1094.1 3.1917 100.00 0.010000 1008.2 1094.1 3.1917 2.5646 3.0649 300.20 0.036327 18.021 0.062868 100.00 0.010000 1008.2 1094.1 3.1917 2.5646 3.0649 300.20 0.036327 18.021 0.062868
270.38 1249.2 undefined 1010.8 1096.9 3.1964 100.00 0.010000 1010.8 1096.9 3.1964 2.5680 3.0667 300.77 0.036084 18.048 0.063048 100.00 0.010000 1010.8 1096.9 3.1964 2.5680 3.0667 300.77 0.036084 18.048 0.063048
271.38 1253.0 undefined 1013.4 1099.8 3.2011 100.00 0.010000 1013.4 1099.8 3.2011 2.5714 3.0686 301.33 0.035843 18.074 0.063227 100.00 0.010000 1013.4 1099.8 3.2011 2.5714 3.0686 301.33 0.035843 18.074 0.063227
272.38 1256.8 undefined 1016.0 1102.6 3.2058 100.00 0.010000 1016.0 1102.6 3.2058 2.5748 3.0704 301.89 0.035605 18.101 0.063407 100.00 0.010000 1016.0 1102.6 3.2058 2.5748 3.0704 301.89 0.035605 18.101 0.063407
273.38 1260.6 undefined 1018.5 1105.4 3.2105 100.00 0.010000 1018.5 1105.4 3.2105 2.5782 3.0723 302.45 0.035369 18.128 0.063586 100.00 0.010000 1018.5 1105.4 3.2105 2.5782 3.0723 302.45 0.035369 18.128 0.063586
274.38 1264.5 undefined 1021.1 1108.3 3.2153 100.00 0.010000 1021.1 1108.3 3.2153 2.5815 3.0741 303.01 0.035135 18.154 0.063765 100.00 0.010000 1021.1 1108.3 3.2153 2.5815 3.0741 303.01 0.035135 18.154 0.063765
275.38 1268.3 undefined 1023.7 1111.1 3.2200 100.00 0.010000 1023.7 1111.1 3.2200 2.5849 3.0760 303.57 0.034903 18.181 0.063943 100.00 0.010000 1023.7 1111.1 3.2200 2.5849 3.0760 303.57 0.034903 18.181 0.063943
276.38 1272.1 undefined 1026.3 1114.0 3.2247 100.00 0.010000 1026.3 1114.0 3.2247 2.5883 3.0779 304.12 0.034673 18.207 0.064121 100.00 0.010000 1026.3 1114.0 3.2247 2.5883 3.0779 304.12 0.034673 18.207 0.064121
277.38 1275.9 undefined 1028.9 1116.8 3.2294 100.00 0.010000 1028.9 1116.8 3.2294 2.5917 3.0798 304.68 0.034445 18.234 0.064298 100.00 0.010000 1028.9 1116.8 3.2294 2.5917 3.0798 304.68 0.034445 18.234 0.064298
278.38 1279.7 undefined 1031.5 1119.7 3.2341 100.00 0.010000 1031.5 1119.7 3.2341 2.5951 3.0818 305.23 0.034220 18.260 0.064473 100.00 0.010000 1031.5 1119.7 3.2341 2.5951 3.0818 305.23 0.034220 18.260 0.064473
279.38 1283.5 undefined 1034.1 1122.6 3.2388 100.00 0.010000 1034.1 1122.6 3.2388 2.5984 3.0837 305.79 0.033996 18.287 0.064646 100.00 0.010000 1034.1 1122.6 3.2388 2.5984 3.0837 305.79 0.033996 18.287 0.064646
280.38 1287.4 undefined 1036.7 1125.4 3.2435 100.00 0.010000 1036.7 1125.4 3.2435 2.6018 3.0856 306.34 0.033775 18.313 0.064815 100.00 0.010000 1036.7 1125.4 3.2435 2.6018 3.0856 306.34 0.033775 18.313 0.064815
281.38 1291.2 undefined 1039.3 1128.3 3.2482 100.00 0.010000 1039.3 1128.3 3.2482 2.6052 3.0876 306.89 0.033556 18.340 0.064968 100.00 0.010000 1039.3 1128.3 3.2482 2.6052 3.0876 306.89 0.033556 18.340 0.064968
282.38 1295.0 undefined 1041.9 1131.2 3.2529 100.00 0.010000 1041.9 1131.2 3.2529 2.6085 3.0896 307.44 0.033338 18.366 0.065134 100.00 0.010000 1041.9 1131.2 3.2529 2.6085 3.0896 307.44 0.033338 18.366 0.065134
283.38 1298.8 undefined 1044.5 1134.0 3.2576 100.00 0.010000 1044.5 1134.0 3.2576 2.6119 3.0916 307.99 0.033123 18.392 0.065327 100.00 0.010000 1044.5 1134.0 3.2576 2.6119 3.0916 307.99 0.033123 18.392 0.065327
284.38 1302.6 undefined 1047.1 1136.9 3.2623 100.00 0.010000 1047.1 1136.9 3.2623 2.6153 3.0936 308.54 0.032909 18.419 0.065521 100.00 0.010000 1047.1 1136.9 3.2623 2.6153 3.0936 308.54 0.032909 18.419 0.065521
285.38 1306.4 undefined 1049.7 1139.8 3.2670 100.00 0.010000 1049.7 1139.8 3.2670 2.6186 3.0956 309.08 0.032698 18.445 0.065714 100.00 0.010000 1049.7 1139.8 3.2670 2.6186 3.0956 309.08 0.032698 18.445 0.065714
286.38 1310.2 undefined 1052.3 1142.7 3.2717 100.00 0.010000 1052.3 1142.7 3.2717 2.6220 3.0976 309.63 0.032488 18.471 0.065908 100.00 0.010000 1052.3 1142.7 3.2717 2.6220 3.0976 309.63 0.032488 18.471 0.065908
287.38 1314.0 undefined 1055.0 1145.6 3.2763 100.00 0.010000 1055.0 1145.6 3.2763 2.6253 3.0996 310.18 0.032280 18.498 0.066102 100.00 0.010000 1055.0 1145.6 3.2763 2.6253 3.0996 310.18 0.032280 18.498 0.066102
288.38 1317.8 undefined 1057.6 1148.4 3.2810 100.00 0.010000 1057.6 1148.4 3.2810 2.6287 3.1016 310.72 0.032074 18.524 0.066296 100.00 0.010000 1057.6 1148.4 3.2810 2.6287 3.1016 310.72 0.032074 18.524 0.066296
289.38 1321.7 undefined 1060.2 1151.3 3.2857 100.00 0.010000 1060.2 1151.3 3.2857 2.6320 3.1037 311.26 0.031870 18.550 0.066491 100.00 0.010000 1060.2 1151.3 3.2857 2.6320 3.1037 311.26 0.031870 18.550 0.066491
290.38 1325.5 undefined 1062.8 1154.2 3.2904 100.00 0.010000 1062.8 1154.2 3.2904 2.6354 3.1057 311.80 0.031667 18.576 0.066686 100.00 0.010000 1062.8 1154.2 3.2904 2.6354 3.1057 311.80 0.031667 18.576 0.066686
291.38 1329.3 undefined 1065.5 1157.1 3.2951 100.00 0.010000 1065.5 1157.1 3.2951 2.6387 3.1078 312.35 0.031467 18.602 0.066881 100.00 0.010000 1065.5 1157.1 3.2951 2.6387 3.1078 312.35 0.031467 18.602 0.066881
292.38 1333.1 undefined 1068.1 1160.0 3.2997 100.00 0.010000 1068.1 1160.0 3.2997 2.6421 3.1099 312.89 0.031268 18.628 0.067077 100.00 0.010000 1068.1 1160.0 3.2997 2.6421 3.1099 312.89 0.031268 18.628 0.067077
293.38 1336.9 undefined 1070.8 1162.9 3.3044 100.00 0.010000 1070.8 1162.9 3.3044 2.6454 3.1120 313.42 0.031071 18.654 0.067272 100.00 0.010000 1070.8 1162.9 3.3044 2.6454 3.1120 313.42 0.031071 18.654 0.067272
294.38 1340.7 undefined 1073.4 1165.9 3.3091 100.00 0.010000 1073.4 1165.9 3.3091 2.6487 3.1140 313.96 0.030876 18.680 0.067469 100.00 0.010000 1073.4 1165.9 3.3091 2.6487 3.1140 313.96 0.030876 18.680 0.067469
295.38 1344.5 undefined 1076.1 1168.8 3.3137 100.00 0.010000 1076.1 1168.8 3.3137 2.6521 3.1161 314.50 0.030682 18.706 0.067665 100.00 0.010000 1076.1 1168.8 3.3137 2.6521 3.1161 314.50 0.030682 18.706 0.067665
296.38 1348.3 undefined 1078.7 1171.7 3.3184 100.00 0.010000 1078.7 1171.7 3.3184 2.6554 3.1183 315.04 0.030490 18.732 0.067862 100.00 0.010000 1078.7 1171.7 3.3184 2.6554 3.1183 315.04 0.030490 18.732 0.067862
297.38 1352.1 undefined 1081.4 1174.6 3.3231 100.00 0.010000 1081.4 1174.6 3.3231 2.6587 3.1204 315.57 0.030299 18.758 0.068059 100.00 0.010000 1081.4 1174.6 3.3231 2.6587 3.1204 315.57 0.030299 18.758 0.068059
298.38 1355.9 undefined 1084.0 1177.5 3.3277 100.00 0.010000 1084.0 1177.5 3.3277 2.6621 3.1225 316.11 0.030111 18.784 0.068256 100.00 0.010000 1084.0 1177.5 3.3277 2.6621 3.1225 316.11 0.030111 18.784 0.068256
299.38 1359.7 undefined 1086.7 1180.4 3.3324 100.00 0.010000 1086.7 1180.4 3.3324 2.6654 3.1246 316.64 0.029924 18.810 0.068454 100.00 0.010000 1086.7 1180.4 3.3324 2.6654 3.1246 316.64 0.029924 18.810 0.068454
300.38 1363.5 undefined 1089.4 1183.4 3.3370 100.00 0.010000 1089.4 1183.4 3.3370 2.6687 3.1268 317.17 0.029738 18.836 0.068651 100.00 0.010000 1089.4 1183.4 3.3370 2.6687 3.1268 317.17 0.029738 18.836 0.068651