Temperature (C) Pressure (psia) Quality (l+v) Internal Energy (l+v, kJ/kg) Enthalpy (l+v, kJ/kg) Entropy (l+v, J/g*K) Density (l, kg/m3) Volume (l, m3/kg) Internal Energy (l, kJ/kg) Enthalpy (l, kJ/kg) Entropy (l, J/g*K) Cv (l, J/g*K) Cp (l, J/g*K) Sound Spd. (l, m/s) Joule-Thomson (l, F/psia) Viscosity (l, uPa*s) Therm. Cond. (l, W/m*K) Density (v, kg/m3) Volume (v, m3/kg) Internal Energy (v, kJ/kg) Enthalpy (v, kJ/kg) Entropy (v, J/g*K) Cv (v, J/g*K) Cp (v, J/g*K) Sound Spd. (v, m/s) Joule-Thomson (v, F/psia) Viscosity (v, uPa*s) Therm. Cond. (v, W/m*K)
-187.62 2.4953e-08 7.4354e-11 -196.64 -196.64 -1.3959 733.13 0.0013640 -196.64 -196.64 -1.3959 1.3553 1.9158 2136.4 -0.0077592 10960. 0.20792 1.0669e-08 9.3732e+07 350.13 366.26 5.1858 0.69067 0.87923 143.28 6.1051 2.3259 0.0017061
-186.62 3.7339e-08 1.0995e-10 -194.73 -194.73 -1.3736 732.08 0.0013660 -194.73 -194.73 -1.3736 1.3539 1.9166 2129.6 -0.0077546 10073. 0.20765 1.5780e-08 6.3371e+07 350.82 367.14 5.1200 0.69462 0.88317 144.03 5.9178 2.3534 0.0017533
-185.62 5.5322e-08 1.6099e-10 -192.81 -192.81 -1.3516 731.04 0.0013679 -192.81 -192.81 -1.3516 1.3525 1.9174 2122.9 -0.0077498 9276.1 0.20737 2.3112e-08 4.3267e+07 351.52 368.02 5.0561 0.69857 0.88713 144.77 5.7383 2.3808 0.0018007
-184.62 8.1182e-08 2.3351e-10 -190.89 -190.89 -1.3298 730.00 0.0013699 -190.89 -190.89 -1.3298 1.3513 1.9182 2116.1 -0.0077448 8557.8 0.20708 3.3533e-08 2.9821e+07 352.22 368.91 4.9939 0.70253 0.89108 145.51 5.5662 2.4083 0.0018485
-183.62 1.1803e-07 3.3562e-10 -188.97 -188.97 -1.3083 728.96 0.0013718 -188.97 -188.97 -1.3083 1.3501 1.9191 2109.3 -0.0077395 7909.8 0.20678 4.8211e-08 2.0742e+07 352.92 369.81 4.9333 0.70648 0.89504 146.24 5.4011 2.4357 0.0018965
-182.62 1.7009e-07 4.7815e-10 -187.05 -187.05 -1.2869 727.92 0.0013738 -187.05 -187.05 -1.2869 1.3490 1.9201 2102.5 -0.0077340 7324.3 0.20647 6.8704e-08 1.4555e+07 353.63 370.70 4.8744 0.71043 0.89899 146.97 5.2426 2.4632 0.0019448
-181.62 2.4299e-07 6.7543e-10 -185.13 -185.13 -1.2658 726.88 0.0013757 -185.13 -185.13 -1.2658 1.3480 1.9210 2095.7 -0.0077283 6794.5 0.20616 9.7079e-08 1.0301e+07 354.35 371.60 4.8170 0.71438 0.90294 147.69 5.0904 2.4906 0.0019934
-180.62 3.4425e-07 9.4630e-10 -183.21 -183.21 -1.2450 725.85 0.0013777 -183.21 -183.21 -1.2450 1.3470 1.9220 2088.9 -0.0077225 6314.4 0.20584 1.3605e-07 7.3504e+06 355.06 372.51 4.7612 0.71833 0.90688 148.41 4.9442 2.5181 0.0020423
-179.62 4.8378e-07 1.3153e-09 -181.29 -181.29 -1.2243 724.81 0.0013797 -181.29 -181.29 -1.2243 1.3461 1.9231 2082.0 -0.0077164 5878.8 0.20551 1.8915e-07 5.2868e+06 355.78 373.42 4.7068 0.72227 0.91082 149.13 4.8038 2.5456 0.0020915
-178.62 6.7459e-07 1.8141e-09 -179.37 -179.37 -1.2038 723.78 0.0013816 -179.37 -179.37 -1.2038 1.3453 1.9241 2075.2 -0.0077102 5482.9 0.20517 2.6096e-07 3.8320e+06 356.51 374.33 4.6538 0.72620 0.91475 149.84 4.6688 2.5731 0.0021410
-177.62 9.3358e-07 2.4836e-09 -177.44 -177.44 -1.1836 722.75 0.0013836 -177.44 -177.44 -1.1836 1.3445 1.9252 2068.4 -0.0077039 5122.6 0.20483 3.5737e-07 2.7982e+06 357.23 375.25 4.6022 0.73012 0.91867 150.54 4.5390 2.6005 0.0021907
-176.62 1.2826e-06 3.3758e-09 -175.52 -175.52 -1.1635 721.72 0.0013856 -175.52 -175.52 -1.1635 1.3437 1.9263 2061.5 -0.0076973 4794.1 0.20447 4.8588e-07 2.0581e+06 357.97 376.17 4.5519 0.73403 0.92258 151.25 4.4142 2.6280 0.0022408
-175.62 1.7496e-06 4.5565e-09 -173.59 -173.59 -1.1437 720.69 0.0013876 -173.59 -173.59 -1.1437 1.3430 1.9274 2054.7 -0.0076907 4494.3 0.20411 6.5601e-07 1.5244e+06 358.70 377.09 4.5029 0.73792 0.92648 151.95 4.2941 2.6555 0.0022912
-174.62 2.3705e-06 6.1089e-09 -171.66 -171.66 -1.1240 719.66 0.0013895 -171.66 -171.66 -1.1240 1.3423 1.9286 2047.9 -0.0076838 4220.2 0.20375 8.7976e-07 1.1367e+06 359.44 378.02 4.4551 0.74181 0.93036 152.64 4.1784 2.6830 0.0023418
-173.62 3.1903e-06 8.1367e-09 -169.73 -169.73 -1.1045 718.64 0.0013915 -169.73 -169.73 -1.1045 1.3417 1.9298 2041.0 -0.0076769 3969.3 0.20338 1.1721e-06 8.5314e+05 360.19 378.95 4.4085 0.74568 0.93423 153.33 4.0671 2.7105 0.0023928
-172.62 4.2661e-06 1.0769e-08 -167.80 -167.80 -1.0852 717.61 0.0013935 -167.80 -167.80 -1.0852 1.3411 1.9310 2034.2 -0.0076698 3739.3 0.20300 1.5518e-06 6.4441e+05 360.93 379.89 4.3631 0.74953 0.93809 154.02 3.9599 2.7379 0.0024440
-171.62 5.6692e-06 1.4166e-08 -165.87 -165.87 -1.0661 716.58 0.0013955 -165.87 -165.87 -1.0661 1.3405 1.9322 2027.3 -0.0076625 3528.0 0.20261 2.0419e-06 4.8974e+05 361.69 380.83 4.3188 0.75337 0.94193 154.71 3.8566 2.7654 0.0024955
-170.62 7.4884e-06 1.8524e-08 -163.94 -163.94 -1.0472 715.56 0.0013975 -163.94 -163.94 -1.0472 1.3400 1.9334 2020.5 -0.0076552 3333.8 0.20222 2.6708e-06 3.7442e+05 362.44 381.77 4.2755 0.75720 0.94575 155.39 3.7570 2.7929 0.0025473
-169.62 9.8334e-06 2.4083e-08 -162.00 -162.00 -1.0284 714.54 0.0013995 -162.00 -162.00 -1.0284 1.3395 1.9347 2013.6 -0.0076477 3154.9 0.20182 3.4733e-06 2.8791e+05 363.20 382.72 4.2334 0.76100 0.94956 156.07 3.6609 2.8204 0.0025994
-168.62 1.2839e-05 3.1135e-08 -160.07 -160.07 -1.0098 713.52 0.0014015 -160.07 -160.07 -1.0098 1.3390 1.9359 2006.8 -0.0076401 2989.9 0.20141 4.4917e-06 2.2263e+05 363.96 383.67 4.1922 0.76479 0.95335 156.74 3.5683 2.8479 0.0026518
-167.62 1.6672e-05 4.0034e-08 -158.13 -158.13 -0.99134 712.49 0.0014035 -158.13 -158.13 -0.99134 1.3386 1.9372 2000.0 -0.0076323 2837.5 0.20100 5.7771e-06 1.7310e+05 364.73 384.63 4.1521 0.76856 0.95712 157.41 3.4790 2.8754 0.0027045
-166.62 2.1533e-05 5.1206e-08 -156.19 -156.19 -0.97306 711.47 0.0014055 -156.19 -156.19 -0.97306 1.3382 1.9385 1993.1 -0.0076245 2696.5 0.20058 7.3914e-06 1.3529e+05 365.50 385.59 4.1129 0.77232 0.96087 158.08 3.3927 2.9029 0.0027575
-165.62 2.7666e-05 6.5161e-08 -154.25 -154.25 -0.95494 710.45 0.0014075 -154.25 -154.25 -0.95494 1.3378 1.9398 1986.3 -0.0076165 2566.0 0.20016 9.4084e-06 1.0629e+05 366.27 386.55 4.0746 0.77605 0.96460 158.75 3.3095 2.9304 0.0028108
-164.62 3.5367e-05 8.2506e-08 -152.31 -152.31 -0.93698 709.44 0.0014096 -152.31 -152.31 -0.93698 1.3375 1.9411 1979.4 -0.0076084 2444.9 0.19973 1.1916e-05 83918. 367.05 387.52 4.0372 0.77976 0.96832 159.41 3.2291 2.9579 0.0028643
-163.62 4.4989e-05 1.0397e-07 -150.37 -150.37 -0.91917 708.42 0.0014116 -150.37 -150.37 -0.91917 1.3371 1.9424 1972.6 -0.0076002 2332.3 0.19930 1.5020e-05 66577. 367.83 388.49 4.0008 0.78346 0.97201 160.07 3.1514 2.9854 0.0029182
-162.62 5.6956e-05 1.3039e-07 -148.43 -148.43 -0.90151 707.40 0.0014136 -148.43 -148.43 -0.90151 1.3368 1.9437 1965.8 -0.0075919 2227.7 0.19886 1.8844e-05 53068. 368.62 389.46 3.9651 0.78713 0.97569 160.72 3.0764 3.0129 0.0029723
-161.62 7.1773e-05 1.6279e-07 -146.48 -146.48 -0.88400 706.38 0.0014157 -146.48 -146.48 -0.88400 1.3365 1.9451 1959.0 -0.0075834 2130.2 0.19841 2.3533e-05 42494. 369.41 390.44 3.9304 0.79079 0.97935 161.38 3.0038 3.0404 0.0030268
-160.62 9.0036e-05 2.0234e-07 -144.54 -144.54 -0.86663 705.37 0.0014177 -144.54 -144.54 -0.86663 1.3363 1.9465 1952.1 -0.0075748 2039.2 0.19796 2.9258e-05 34178. 370.20 391.42 3.8964 0.79443 0.98298 162.03 2.9337 3.0679 0.0030815
-159.62 0.00011245 2.5042e-07 -142.59 -142.59 -0.84940 704.35 0.0014197 -142.59 -142.59 -0.84940 1.3360 1.9478 1945.3 -0.0075661 1954.2 0.19751 3.6221e-05 27609. 371.00 392.40 3.8632 0.79805 0.98660 162.68 2.8658 3.0955 0.0031365
-158.62 0.00013985 3.0861e-07 -140.64 -140.64 -0.83231 703.34 0.0014218 -140.64 -140.64 -0.83231 1.3358 1.9492 1938.5 -0.0075573 1874.8 0.19705 4.4652e-05 22395. 371.80 393.39 3.8307 0.80164 0.99020 163.32 2.8002 3.1230 0.0031918
-157.62 0.00017320 3.7879e-07 -138.69 -138.69 -0.81536 702.32 0.0014238 -138.69 -138.69 -0.81536 1.3356 1.9506 1931.7 -0.0075484 1800.3 0.19658 5.4822e-05 18241. 372.60 394.38 3.7990 0.80522 0.99378 163.96 2.7367 3.1505 0.0032474
-156.62 0.00021364 4.6308e-07 -136.74 -136.74 -0.79854 701.31 0.0014259 -136.74 -136.74 -0.79854 1.3354 1.9520 1924.9 -0.0075393 1730.5 0.19611 6.7040e-05 14916. 373.41 395.38 3.7680 0.80878 0.99734 164.60 2.6752 3.1780 0.0033033
-155.62 0.00026248 5.6394e-07 -134.79 -134.79 -0.78185 700.30 0.0014280 -134.79 -134.79 -0.78185 1.3352 1.9534 1918.1 -0.0075302 1664.9 0.19564 8.1666e-05 12245. 374.22 396.38 3.7377 0.81232 1.0009 165.24 2.6157 3.2055 0.0033595
-154.62 0.00032125 6.8418e-07 -132.83 -132.83 -0.76529 699.29 0.0014300 -132.83 -132.83 -0.76530 1.3350 1.9548 1911.3 -0.0075209 1603.3 0.19516 9.9109e-05 10090. 375.03 397.38 3.7081 0.81585 1.0044 165.87 2.5580 3.2330 0.0034160
-153.62 0.00039171 8.2703e-07 -130.88 -130.88 -0.74886 698.27 0.0014321 -130.88 -130.88 -0.74887 1.3349 1.9563 1904.5 -0.0075114 1545.3 0.19468 0.00011984 8344.6 375.85 398.39 3.6792 0.81935 1.0079 166.50 2.5022 3.2606 0.0034727
-152.62 0.00047590 9.9614e-07 -128.92 -128.92 -0.73256 697.26 0.0014342 -128.92 -128.92 -0.73256 1.3348 1.9577 1897.8 -0.0075019 1490.6 0.19419 0.00014439 6925.9 376.67 399.40 3.6509 0.82284 1.0114 167.13 2.4481 3.2881 0.0035298
-151.62 0.00057613 1.1957e-06 -126.96 -126.96 -0.71638 696.25 0.0014363 -126.96 -126.96 -0.71638 1.3346 1.9592 1891.0 -0.0074922 1438.9 0.19370 0.00017336 5768.4 377.49 400.41 3.6232 0.82631 1.0149 167.76 2.3957 3.3156 0.0035872
-150.62 0.00069507 1.4303e-06 -125.00 -125.00 -0.70031 695.24 0.0014384 -125.00 -125.00 -0.70032 1.3345 1.9606 1884.2 -0.0074824 1390.2 0.19320 0.00020744 4820.7 378.32 401.42 3.5962 0.82976 1.0183 168.38 2.3448 3.3431 0.0036448
-149.62 0.00083574 1.7053e-06 -123.04 -123.04 -0.68437 694.23 0.0014404 -123.04 -123.04 -0.68438 1.3345 1.9621 1877.4 -0.0074724 1344.0 0.19270 0.00024740 4042.0 379.15 402.44 3.5697 0.83319 1.0218 169.00 2.2956 3.3706 0.0037027
-148.62 0.0010016 2.0267e-06 -121.08 -121.08 -0.66854 693.22 0.0014425 -121.08 -121.08 -0.66855 1.3344 1.9636 1870.7 -0.0074623 1300.3 0.19220 0.00029412 3400.0 379.99 403.47 3.5438 0.83661 1.0252 169.62 2.2478 3.3982 0.0037610
-147.62 0.0011965 2.4011e-06 -119.11 -119.11 -0.65283 692.21 0.0014447 -119.11 -119.11 -0.65284 1.3343 1.9651 1863.9 -0.0074521 1258.9 0.19169 0.00034856 2869.0 380.83 404.49 3.5185 0.84001 1.0286 170.24 2.2014 3.4257 0.0038195
-146.62 0.0014249 2.8360e-06 -117.15 -117.15 -0.63723 691.20 0.0014468 -117.15 -117.15 -0.63724 1.3343 1.9666 1857.2 -0.0074417 1219.6 0.19117 0.00041181 2428.3 381.67 405.52 3.4938 0.84340 1.0320 170.85 2.1565 3.4532 0.0038783
-145.62 0.0016917 3.3396e-06 -115.18 -115.18 -0.62174 690.19 0.0014489 -115.18 -115.18 -0.62175 1.3343 1.9682 1850.4 -0.0074312 1182.3 0.19066 0.00048510 2061.4 382.51 406.56 3.4695 0.84677 1.0353 171.46 2.1128 3.4807 0.0039374
-144.62 0.0020026 3.9213e-06 -113.21 -113.21 -0.60635 689.18 0.0014510 -113.21 -113.21 -0.60637 1.3343 1.9697 1843.7 -0.0074206 1146.8 0.19014 0.00056976 1755.1 383.36 407.59 3.4458 0.85012 1.0387 172.07 2.0705 3.5082 0.0039967
-143.62 0.0023637 4.5912e-06 -111.24 -111.24 -0.59108 688.17 0.0014531 -111.24 -111.24 -0.59110 1.3343 1.9713 1836.9 -0.0074098 1113.0 0.18962 0.00066731 1498.6 384.21 408.63 3.4226 0.85346 1.0420 172.68 2.0294 3.5358 0.0040564
-142.62 0.0027820 5.3607e-06 -109.27 -109.27 -0.57591 687.16 0.0014553 -109.27 -109.27 -0.57593 1.3343 1.9728 1830.2 -0.0073988 1080.8 0.18909 0.00077939 1283.1 385.07 409.68 3.3999 0.85679 1.0454 173.28 1.9896 3.5633 0.0041164
-141.62 0.0032653 6.2423e-06 -107.29 -107.29 -0.56084 686.15 0.0014574 -107.30 -107.30 -0.56087 1.3343 1.9744 1823.5 -0.0073878 1050.1 0.18856 0.00090784 1101.5 385.93 410.72 3.3777 0.86011 1.0487 173.88 1.9508 3.5908 0.0041766
-140.62 0.0038222 7.2496e-06 -105.32 -105.32 -0.54588 685.14 0.0014596 -105.32 -105.32 -0.54591 1.3344 1.9760 1816.7 -0.0073765 1020.7 0.18803 0.0010547 948.16 386.79 411.77 3.3560 0.86341 1.0520 174.48 1.9133 3.6183 0.0042372
-139.62 0.0044623 8.3978e-06 -103.34 -103.34 -0.53102 684.13 0.0014617 -103.34 -103.34 -0.53105 1.3344 1.9776 1810.0 -0.0073651 992.74 0.18749 0.0012221 818.26 387.65 412.83 3.3347 0.86670 1.0553 175.08 1.8768 3.6459 0.0042980
-138.62 0.0051963 9.7035e-06 -101.36 -101.36 -0.51625 683.12 0.0014639 -101.37 -101.37 -0.51629 1.3345 1.9792 1803.3 -0.0073536 965.97 0.18695 0.0014125 707.94 388.52 413.88 3.3139 0.86998 1.0586 175.67 1.8413 3.6734 0.0043592
-137.62 0.0060358 1.1185e-05 -99.381 -99.380 -0.50158 682.11 0.0014660 -99.386 -99.386 -0.50162 1.3346 1.9808 1796.6 -0.0073419 940.35 0.18641 0.0016287 614.00 389.39 414.94 3.2935 0.87325 1.0619 176.26 1.8069 3.7009 0.0044206
-136.62 0.0069938 1.2861e-05 -97.398 -97.398 -0.48701 681.10 0.0014682 -97.404 -97.404 -0.48705 1.3347 1.9825 1789.9 -0.0073301 915.81 0.18586 0.0018733 533.80 390.26 416.00 3.2735 0.87650 1.0651 176.85 1.7734 3.7284 0.0044823
-135.62 0.0080843 1.4754e-05 -95.414 -95.414 -0.47252 680.09 0.0014704 -95.421 -95.421 -0.47258 1.3348 1.9841 1783.2 -0.0073180 892.30 0.18531 0.0021497 465.17 391.14 417.07 3.2540 0.87975 1.0684 177.44 1.7409 3.7559 0.0045443
-134.62 0.0093230 1.6886e-05 -93.428 -93.427 -0.45814 679.08 0.0014726 -93.436 -93.436 -0.45820 1.3350 1.9858 1776.5 -0.0073059 869.75 0.18476 0.0024613 406.30 392.02 418.14 3.2348 0.88299 1.0716 178.02 1.7093 3.7834 0.0046066
-133.62 0.010727 1.9284e-05 -91.440 -91.440 -0.44384 678.07 0.0014748 -91.450 -91.449 -0.44391 1.3351 1.9875 1769.8 -0.0072935 848.11 0.18421 0.0028116 355.67 392.91 419.21 3.2161 0.88622 1.0749 178.61 1.6786 3.8109 0.0046691
-132.62 0.012315 2.1974e-05 -89.451 -89.450 -0.42963 677.06 0.0014770 -89.461 -89.461 -0.42971 1.3353 1.9892 1763.1 -0.0072810 827.32 0.18365 0.0032049 312.03 393.79 420.29 3.1977 0.88944 1.0781 179.19 1.6488 3.8385 0.0047320
-131.62 0.014106 2.4985e-05 -87.459 -87.458 -0.41551 676.04 0.0014792 -87.471 -87.471 -0.41560 1.3354 1.9909 1756.4 -0.0072684 807.34 0.18309 0.0036453 274.33 394.68 421.36 3.1798 0.89266 1.0813 179.76 1.6197 3.8660 0.0047951
-130.62 0.016124 2.8350e-05 -85.466 -85.465 -0.40147 675.03 0.0014814 -85.479 -85.479 -0.40157 1.3356 1.9926 1749.7 -0.0072555 788.12 0.18253 0.0041375 241.69 395.58 422.44 3.1622 0.89586 1.0846 180.34 1.5915 3.8935 0.0048586
-129.62 0.018392 3.2103e-05 -83.470 -83.469 -0.38752 674.02 0.0014836 -83.486 -83.486 -0.38763 1.3358 1.9944 1743.0 -0.0072425 769.63 0.18196 0.0046867 213.37 396.47 423.53 3.1450 0.89906 1.0878 180.91 1.5641 3.9210 0.0049223
-128.62 0.020935 3.6279e-05 -81.473 -81.472 -0.37365 673.01 0.0014859 -81.491 -81.490 -0.37378 1.3360 1.9961 1736.3 -0.0072294 751.83 0.18140 0.0052981 188.75 397.37 424.62 3.1281 0.90226 1.0910 181.48 1.5374 3.9485 0.0049863
-127.62 0.023783 4.0918e-05 -79.474 -79.473 -0.35987 672.00 0.0014881 -79.494 -79.493 -0.36001 1.3363 1.9979 1729.6 -0.0072160 734.67 0.18083 0.0059776 167.29 398.27 425.71 3.1116 0.90545 1.0942 182.05 1.5114 3.9760 0.0050506
-126.62 0.026966 4.6063e-05 -77.473 -77.471 -0.34616 670.98 0.0014904 -77.495 -77.495 -0.34632 1.3365 1.9997 1722.9 -0.0072025 718.14 0.18025 0.0067313 148.56 399.18 426.80 3.0954 0.90863 1.0974 182.62 1.4861 4.0035 0.0051152
-125.62 0.030515 5.1757e-05 -75.470 -75.468 -0.33254 669.97 0.0014926 -75.494 -75.494 -0.33272 1.3368 2.0015 1716.2 -0.0071888 702.18 0.17968 0.0075660 132.17 400.09 427.89 3.0795 0.91181 1.1006 183.18 1.4615 4.0310 0.0051800
-124.62 0.034467 5.8049e-05 -73.464 -73.462 -0.31899 668.95 0.0014949 -73.492 -73.492 -0.31919 1.3371 2.0033 1709.5 -0.0071749 686.79 0.17910 0.0084885 117.81 401.00 428.99 3.0640 0.91499 1.1038 183.74 1.4375 4.0584 0.0052452
-123.62 0.038859 6.4989e-05 -71.457 -71.455 -0.30552 667.94 0.0014971 -71.488 -71.487 -0.30574 1.3374 2.0051 1702.8 -0.0071609 671.93 0.17852 0.0095065 105.19 401.91 430.10 3.0488 0.91816 1.1070 184.30 1.4141 4.0859 0.0053106
-122.62 0.043731 7.2631e-05 -69.447 -69.445 -0.29213 666.92 0.0014994 -69.482 -69.481 -0.29237 1.3377 2.0070 1696.2 -0.0071466 657.57 0.17794 0.010628 94.092 402.83 431.20 3.0339 0.92134 1.1102 184.86 1.3913 4.1134 0.0053764
-121.62 0.049128 8.1033e-05 -67.436 -67.433 -0.27881 665.91 0.0015017 -67.474 -67.473 -0.27907 1.3380 2.0089 1689.5 -0.0071322 643.70 0.17736 0.011861 84.309 403.75 432.31 3.0193 0.92451 1.1134 185.41 1.3691 4.1409 0.0054424
-120.62 0.055096 9.0254e-05 -65.421 -65.418 -0.26556 664.89 0.0015040 -65.464 -65.463 -0.26585 1.3384 2.0107 1682.8 -0.0071176 630.28 0.17678 0.013215 75.669 404.67 433.42 3.0050 0.92767 1.1166 185.96 1.3475 4.1683 0.0055087
-119.62 0.061684 0.00010036 -63.405 -63.402 -0.25238 663.87 0.0015063 -63.452 -63.452 -0.25271 1.3387 2.0126 1676.1 -0.0071028 617.30 0.17619 0.014700 68.027 405.60 434.53 2.9909 0.93084 1.1198 186.51 1.3264 4.1958 0.0055752
-118.62 0.068946 0.00011142 -61.387 -61.383 -0.23927 662.86 0.0015086 -61.439 -61.438 -0.23963 1.3391 2.0146 1669.4 -0.0070878 604.74 0.17560 0.016325 61.255 406.53 435.64 2.9772 0.93401 1.1231 187.06 1.3058 4.2233 0.0056421
-117.62 0.076937 0.00012350 -59.365 -59.361 -0.22624 661.84 0.0015109 -59.423 -59.422 -0.22663 1.3395 2.0165 1662.8 -0.0070726 592.58 0.17501 0.018101 55.245 407.46 436.76 2.9638 0.93718 1.1263 187.60 1.2857 4.2507 0.0057092
-116.62 0.085718 0.00013668 -57.342 -57.337 -0.21327 660.82 0.0015133 -57.406 -57.405 -0.21370 1.3400 2.0184 1656.1 -0.0070573 580.80 0.17442 0.020040 49.901 408.39 437.88 2.9506 0.94035 1.1295 188.14 1.2660 4.2782 0.0057767
-115.62 0.095353 0.00015103 -55.316 -55.311 -0.20037 659.80 0.0015156 -55.386 -55.385 -0.20084 1.3404 2.0204 1649.4 -0.0070417 569.38 0.17383 0.022152 45.142 409.33 439.01 2.9377 0.94352 1.1327 188.68 1.2468 4.3056 0.0058444
-114.62 0.10591 0.00016665 -53.288 -53.282 -0.18753 658.78 0.0015180 -53.365 -53.364 -0.18805 1.3409 2.0224 1642.7 -0.0070260 558.32 0.17323 0.024451 40.898 410.27 440.13 2.9250 0.94669 1.1360 189.22 1.2281 4.3330 0.0059123
-113.62 0.11746 0.00018361 -51.257 -51.250 -0.17476 657.76 0.0015203 -51.342 -51.340 -0.17533 1.3413 2.0244 1636.0 -0.0070100 547.59 0.17264 0.026949 37.107 411.21 441.26 2.9126 0.94987 1.1392 189.75 1.2097 4.3604 0.0059806
-112.62 0.13008 0.00020202 -49.223 -49.215 -0.16205 656.73 0.0015227 -49.316 -49.315 -0.16267 1.3418 2.0264 1629.3 -0.0069938 537.18 0.17204 0.029661 33.715 412.16 442.39 2.9005 0.95305 1.1424 190.28 1.1918 4.3879 0.0060491
-111.62 0.14384 0.00022196 -47.187 -47.178 -0.14940 655.71 0.0015251 -47.289 -47.287 -0.15008 1.3424 2.0285 1622.7 -0.0069774 527.08 0.17144 0.032600 30.675 413.10 443.53 2.8885 0.95623 1.1457 190.81 1.1742 4.4153 0.0061180
-110.62 0.15884 0.00024353 -45.147 -45.138 -0.13682 654.69 0.0015274 -45.259 -45.258 -0.13755 1.3429 2.0305 1616.0 -0.0069609 517.28 0.17084 0.035781 27.948 414.06 444.66 2.8769 0.95942 1.1490 191.34 1.1570 4.4427 0.0061871
-109.62 0.17516 0.00026685 -43.105 -43.095 -0.12429 653.66 0.0015298 -43.228 -43.226 -0.12509 1.3435 2.0326 1609.3 -0.0069441 507.76 0.17024 0.039220 25.497 415.01 445.80 2.8654 0.96261 1.1522 191.86 1.1402 4.4701 0.0062564
-108.62 0.19290 0.00029201 -41.061 -41.050 -0.11183 652.64 0.0015322 -41.194 -41.192 -0.11269 1.3441 2.0347 1602.6 -0.0069271 498.51 0.16964 0.042933 23.292 415.96 446.94 2.8542 0.96581 1.1555 192.38 1.1236 4.4974 0.0063261
-107.62 0.21215 0.00031913 -39.013 -39.001 -0.099418 651.61 0.0015347 -39.158 -39.156 -0.10036 1.3447 2.0369 1595.9 -0.0069098 489.52 0.16903 0.046937 21.305 416.92 448.09 2.8433 0.96901 1.1588 192.90 1.1075 4.5248 0.0063960
-106.62 0.23301 0.00034834 -36.962 -36.949 -0.087065 650.58 0.0015371 -37.120 -37.118 -0.088082 1.3453 2.0390 1589.2 -0.0068924 480.79 0.16843 0.051250 19.512 417.88 449.23 2.8325 0.97222 1.1621 193.41 1.0916 4.5522 0.0064662
-105.62 0.25561 0.00037974 -34.908 -34.893 -0.074768 649.55 0.0015395 -35.080 -35.078 -0.075868 1.3460 2.0412 1582.6 -0.0068747 472.30 0.16782 0.055891 17.892 418.85 450.38 2.8220 0.97544 1.1655 193.93 1.0760 4.5795 0.0065367
-104.62 0.28004 0.00041348 -32.851 -32.835 -0.062525 648.52 0.0015420 -33.038 -33.035 -0.063714 1.3467 2.0434 1575.9 -0.0068569 464.04 0.16721 0.060878 16.426 419.81 451.53 2.8116 0.97867 1.1688 194.44 1.0608 4.6069 0.0066074
-103.62 0.30643 0.00044968 -30.791 -30.773 -0.050336 647.49 0.0015444 -30.994 -30.991 -0.051619 1.3474 2.0456 1569.2 -0.0068387 456.00 0.16660 0.066231 15.099 420.78 452.68 2.8015 0.98191 1.1722 194.94 1.0458 4.6342 0.0066785
-102.62 0.33490 0.00048848 -28.727 -28.708 -0.038199 646.46 0.0015469 -28.947 -28.944 -0.039582 1.3481 2.0478 1562.5 -0.0068204 448.18 0.16600 0.071971 13.894 421.75 453.84 2.7916 0.98516 1.1755 195.44 1.0310 4.6615 0.0067498
-101.62 0.36558 0.00053003 -26.660 -26.639 -0.026113 645.43 0.0015494 -26.898 -26.894 -0.027602 1.3489 2.0501 1555.8 -0.0068018 440.57 0.16539 0.078120 12.801 422.73 454.99 2.7818 0.98841 1.1789 195.95 1.0166 4.6888 0.0068213
-100.62 0.39862 0.00057446 -24.590 -24.567 -0.014077 644.39 0.0015519 -24.847 -24.843 -0.015678 1.3497 2.0524 1549.1 -0.0067830 433.16 0.16478 0.084699 11.807 423.70 456.15 2.7723 0.99168 1.1823 196.44 1.0024 4.7161 0.0068932
-99.625 0.43414 0.00062193 -22.515 -22.491 -0.0020895 643.36 0.0015544 -22.794 -22.789 -0.0038103 1.3505 2.0547 1542.4 -0.0067639 425.95 0.16416 0.091731 10.901 424.68 457.31 2.7630 0.99496 1.1858 196.94 0.98838 4.7434 0.0069653
-98.625 0.47230 0.00067260 -20.438 -20.411 0.0098496 642.32 0.0015569 -20.738 -20.733 0.0080027 1.3514 2.0570 1535.7 -0.0067447 418.92 0.16355 0.099240 10.077 425.66 458.48 2.7538 0.99825 1.1892 197.43 0.97464 4.7707 0.0070377
-97.625 0.51325 0.00072663 -18.356 -18.327 0.021742 641.28 0.0015594 -18.680 -18.674 0.019762 1.3522 2.0594 1529.0 -0.0067251 412.07 0.16294 0.10725 9.3239 426.65 459.64 2.7448 1.0016 1.1927 197.92 0.96112 4.7979 0.0071103
-96.625 0.55714 0.00078419 -16.271 -16.239 0.033588 640.24 0.0015619 -16.620 -16.614 0.031467 1.3531 2.0618 1522.3 -0.0067053 405.39 0.16233 0.11579 8.6365 427.63 460.81 2.7360 1.0049 1.1962 198.40 0.94783 4.8251 0.0071832
-95.625 0.60416 0.00084545 -14.182 -14.147 0.045389 639.20 0.0015645 -14.557 -14.550 0.043120 1.3540 2.0642 1515.7 -0.0066853 398.88 0.16171 0.12488 8.0078 428.62 461.98 2.7274 1.0082 1.1997 198.88 0.93475 4.8524 0.0072564
-94.625 0.65446 0.00091058 -12.089 -12.051 0.057147 638.16 0.0015670 -12.491 -12.484 0.054721 1.3550 2.0667 1509.0 -0.0066650 392.53 0.16110 0.13455 7.4323 429.61 463.15 2.7189 1.0116 1.2032 199.36 0.92188 4.8796 0.0073299
-93.625 0.70822 0.00097977 -9.9916 -9.9509 0.068862 637.12 0.0015696 -10.424 -10.416 0.066271 1.3560 2.0691 1502.3 -0.0066444 386.34 0.16048 0.14482 6.9050 430.60 464.32 2.7107 1.0149 1.2068 199.83 0.90921 4.9068 0.0074036
-92.625 0.76564 0.0010532 -7.8902 -7.8462 0.080535 636.07 0.0015722 -8.3535 -8.3452 0.077771 1.3570 2.0716 1495.6 -0.0066236 380.31 0.15987 0.15573 6.4212 431.60 465.49 2.7025 1.0183 1.2104 200.30 0.89673 4.9340 0.0074776
-91.625 0.82689 0.0011311 -5.7844 -5.7369 0.092167 635.02 0.0015747 -6.2808 -6.2719 0.089220 1.3580 2.0742 1488.9 -0.0066025 374.41 0.15925 0.16731 5.9769 432.59 466.67 2.6946 1.0217 1.2140 200.77 0.88445 4.9611 0.0075518
-90.625 0.89218 0.0012136 -3.6743 -3.6231 0.10376 633.98 0.0015773 -4.2056 -4.1959 0.10062 1.3591 2.0767 1482.2 -0.0065811 368.66 0.15864 0.17958 5.5685 433.59 467.84 2.6868 1.0251 1.2177 201.24 0.87236 4.9883 0.0076263
-89.625 0.96172 0.0013009 -1.5597 -1.5045 0.11531 632.93 0.0015800 -2.1279 -2.1174 0.11197 1.3602 2.0793 1475.5 -0.0065595 363.05 0.15802 0.19258 5.1928 434.59 469.02 2.6791 1.0285 1.2213 201.70 0.86045 5.0154 0.0077011
-88.625 1.0357 0.0013933 0.55947 0.61898 0.12683 631.88 0.0015826 -0.047516 -0.036215 0.12328 1.3613 2.0819 1468.8 -0.0065375 357.56 0.15740 0.20633 4.8466 435.59 470.20 2.6717 1.0320 1.2250 202.15 0.84873 5.0425 0.0077761
-87.625 1.1144 0.0014910 2.6834 2.7474 0.13831 630.83 0.0015852 2.0355 2.0476 0.13454 1.3625 2.0846 1462.1 -0.0065153 352.21 0.15679 0.22087 4.5276 436.60 471.39 2.6643 1.0354 1.2288 202.61 0.83718 5.0696 0.0078514
-86.625 1.1979 0.0015941 4.8121 4.8809 0.14975 629.77 0.0015879 4.1211 4.1342 0.14575 1.3637 2.0873 1455.4 -0.0064928 346.98 0.15617 0.23623 4.2331 437.61 472.57 2.6571 1.0389 1.2325 203.06 0.82580 5.0967 0.0079270
-85.625 1.2866 0.0017029 6.9457 7.0196 0.16116 628.72 0.0015905 6.2094 6.2235 0.15691 1.3649 2.0900 1448.8 -0.0064701 341.87 0.15555 0.25245 3.9612 438.61 473.75 2.6501 1.0424 1.2363 203.50 0.81460 5.1237 0.0080028
-84.625 1.3806 0.0018177 9.0844 9.1637 0.17253 627.66 0.0015932 8.3004 8.3155 0.16803 1.3661 2.0927 1442.1 -0.0064470 336.87 0.15494 0.26956 3.7097 439.63 474.94 2.6432 1.0460 1.2402 203.95 0.80356 5.1508 0.0080789
-83.625 1.4803 0.0019386 11.228 11.313 0.18388 626.60 0.0015959 10.394 10.410 0.17911 1.3674 2.0955 1435.4 -0.0064236 331.99 0.15432 0.28760 3.4771 440.64 476.13 2.6364 1.0495 1.2440 204.38 0.79269 5.1778 0.0081553
-82.625 1.5858 0.0020658 13.377 13.468 0.19518 625.54 0.0015986 12.491 12.508 0.19014 1.3687 2.0983 1428.7 -0.0063999 327.22 0.15370 0.30659 3.2616 441.65 477.31 2.6298 1.0531 1.2479 204.82 0.78199 5.2048 0.0082319
-81.625 1.6975 0.0021998 15.532 15.629 0.20646 624.48 0.0016013 14.590 14.609 0.20113 1.3700 2.1012 1422.0 -0.0063759 322.55 0.15309 0.32659 3.0619 442.67 478.50 2.6233 1.0567 1.2519 205.25 0.77144 5.2318 0.0083088
-80.625 1.8155 0.0023406 17.691 17.796 0.21771 623.42 0.0016041 16.692 16.712 0.21208 1.3714 2.1041 1415.4 -0.0063516 317.99 0.15247 0.34763 2.8766 443.69 479.70 2.6169 1.0603 1.2558 205.67 0.76106 5.2587 0.0083860
-79.625 1.9402 0.0024885 19.857 19.968 0.22893 622.36 0.0016068 18.797 18.819 0.22299 1.3728 2.1070 1408.7 -0.0063270 313.52 0.15186 0.36974 2.7046 444.71 480.89 2.6106 1.0639 1.2598 206.10 0.75083 5.2857 0.0084634
-78.625 2.0718 0.0026439 22.028 22.147 0.24012 621.29 0.0016096 20.905 20.928 0.23385 1.3742 2.1099 1402.0 -0.0063021 309.15 0.15124 0.39296 2.5448 445.73 482.08 2.6045 1.0676 1.2639 206.51 0.74076 5.3126 0.0085411
-77.625 2.2107 0.0028069 24.205 24.332 0.25128 620.22 0.0016123 23.016 23.040 0.24468 1.3757 2.1129 1395.3 -0.0062768 304.88 0.15062 0.41735 2.3961 446.75 483.27 2.5985 1.0712 1.2680 206.93 0.73084 5.3395 0.0086190
-76.625 2.3571 0.0029778 26.388 26.524 0.26242 619.15 0.0016151 25.130 25.156 0.25546 1.3772 2.1159 1388.7 -0.0062512 300.69 0.15001 0.44292 2.2577 447.78 484.47 2.5926 1.0749 1.2721 207.34 0.72107 5.3664 0.0086972
-75.625 2.5113 0.0031569 28.577 28.722 0.27353 618.08 0.0016179 27.247 27.275 0.26620 1.3787 2.1190 1382.0 -0.0062253 296.59 0.14939 0.46974 2.1288 448.81 485.67 2.5869 1.0787 1.2762 207.74 0.71146 5.3933 0.0087757
-74.625 2.6736 0.0033445 30.773 30.926 0.28462 617.01 0.0016207 29.366 29.396 0.27691 1.3802 2.1221 1375.4 -0.0061990 292.58 0.14878 0.49783 2.0087 449.83 486.86 2.5812 1.0824 1.2804 208.14 0.70200 5.4201 0.0088544
-73.625 2.8444 0.0035408 32.974 33.138 0.29568 615.93 0.0016236 31.489 31.521 0.28758 1.3818 2.1252 1368.7 -0.0061724 288.65 0.14816 0.52725 1.8966 450.86 488.06 2.5757 1.0862 1.2847 208.54 0.69268 5.4469 0.0089334
-72.625 3.0240 0.0037462 35.182 35.356 0.30672 614.85 0.0016264 33.615 33.649 0.29821 1.3834 2.1284 1362.0 -0.0061454 284.81 0.14755 0.55804 1.7920 451.90 489.26 2.5703 1.0900 1.2889 208.93 0.68351 5.4737 0.0090126
-71.625 3.2127 0.0039608 37.397 37.582 0.31773 613.78 0.0016293 35.745 35.781 0.30880 1.3851 2.1316 1355.4 -0.0061181 281.03 0.14694 0.59024 1.6942 452.93 490.46 2.5650 1.0938 1.2932 209.32 0.67448 5.5005 0.0090922
-70.625 3.4108 0.0041851 39.618 39.814 0.32873 612.69 0.0016321 37.877 37.915 0.31935 1.3867 2.1349 1348.7 -0.0060904 277.34 0.14632 0.62390 1.6028 453.96 491.66 2.5598 1.0976 1.2976 209.70 0.66560 5.5273 0.0091720
-69.625 3.6187 0.0044194 41.847 42.055 0.33970 611.61 0.0016350 40.013 40.053 0.32987 1.3884 2.1382 1342.1 -0.0060624 273.72 0.14571 0.65906 1.5173 455.00 492.86 2.5547 1.1015 1.3020 210.08 0.65687 5.5540 0.0092520
-68.625 3.8367 0.0046638 44.082 44.302 0.35066 610.53 0.0016379 42.152 42.195 0.34036 1.3902 2.1415 1335.5 -0.0060339 270.17 0.14510 0.69577 1.4372 456.04 494.06 2.5497 1.1054 1.3064 210.45 0.64827 5.5807 0.0093324
-67.625 4.0652 0.0049188 46.324 46.558 0.36160 609.44 0.0016409 44.294 44.340 0.35080 1.3919 2.1449 1328.8 -0.0060051 266.69 0.14449 0.73408 1.3622 457.08 495.26 2.5448 1.1093 1.3109 210.82 0.63981 5.6074 0.0094130
-66.625 4.3046 0.0051846 48.574 48.821 0.37252 608.35 0.0016438 46.439 46.488 0.36122 1.3937 2.1483 1322.2 -0.0059760 263.28 0.14388 0.77404 1.2919 458.12 496.46 2.5400 1.1133 1.3154 211.18 0.63150 5.6341 0.0094939
-65.625 4.5551 0.0054616 50.830 51.092 0.38342 607.26 0.0016467 48.588 48.640 0.37160 1.3955 2.1518 1315.6 -0.0059464 259.93 0.14327 0.81570 1.2259 459.16 497.67 2.5353 1.1172 1.3200 211.54 0.62332 5.6608 0.0095750
-64.625 4.8173 0.0057500 53.095 53.372 0.39430 606.16 0.0016497 50.740 50.795 0.38195 1.3974 2.1553 1308.9 -0.0059164 256.65 0.14266 0.85910 1.1640 460.21 498.87 2.5307 1.1212 1.3246 211.89 0.61527 5.6874 0.0096564
-63.625 5.0915 0.0060503 55.367 55.659 0.40517 605.07 0.0016527 52.896 52.954 0.39226 1.3993 2.1588 1302.3 -0.0058861 253.42 0.14205 0.90429 1.1058 461.25 500.07 2.5262 1.1252 1.3293 212.24 0.60736 5.7140 0.0097382
-62.625 5.3781 0.0063627 57.647 57.956 0.41603 603.97 0.0016557 55.055 55.117 0.40254 1.4012 2.1624 1295.7 -0.0058553 250.26 0.14144 0.95134 1.0511 462.30 501.28 2.5218 1.1293 1.3340 212.58 0.59958 5.7406 0.0098201
-61.625 5.6774 0.0066876 59.934 60.260 0.42687 602.87 0.0016587 57.218 57.283 0.41279 1.4031 2.1660 1289.1 -0.0058241 247.16 0.14084 1.0003 0.99972 463.35 502.48 2.5175 1.1333 1.3387 212.92 0.59194 5.7672 0.0099024
-60.625 5.9899 0.0070253 62.230 62.574 0.43769 601.77 0.0016618 59.385 59.453 0.42301 1.4051 2.1697 1282.5 -0.0057925 244.12 0.14023 1.0512 0.95131 464.40 503.68 2.5133 1.1374 1.3435 213.26 0.58442 5.7938 0.0099850
-59.625 6.3160 0.0073762 64.534 64.897 0.44851 600.66 0.0016648 61.554 61.627 0.43320 1.4071 2.1734 1275.9 -0.0057605 241.13 0.13962 1.1041 0.90573 465.45 504.89 2.5091 1.1415 1.3483 213.58 0.57704 5.8203 0.010068
-58.625 6.6561 0.0077406 66.846 67.228 0.45931 599.55 0.0016679 63.728 63.805 0.44335 1.4091 2.1772 1269.3 -0.0057280 238.19 0.13902 1.1591 0.86277 466.50 506.09 2.5051 1.1457 1.3532 213.90 0.56978 5.8468 0.010151
-57.625 7.0107 0.0081188 69.166 69.569 0.47010 598.44 0.0016710 65.905 65.986 0.45348 1.4111 2.1810 1262.7 -0.0056951 235.31 0.13842 1.2161 0.82228 467.55 507.30 2.5011 1.1498 1.3581 214.22 0.56265 5.8733 0.010234
-56.625 7.3801 0.0085113 71.495 71.919 0.48088 597.33 0.0016741 68.086 68.172 0.46358 1.4132 2.1848 1256.1 -0.0056617 232.48 0.13781 1.2754 0.78408 468.60 508.50 2.4972 1.1540 1.3631 214.53 0.55564 5.8998 0.010318
-55.625 7.7648 0.0089183 73.833 74.279 0.49166 596.22 0.0016772 70.271 70.361 0.47364 1.4153 2.1887 1249.5 -0.0056279 229.69 0.13721 1.3369 0.74802 469.66 509.71 2.4934 1.1582 1.3681 214.84 0.54875 5.9263 0.010402
-54.625 8.1652 0.0093403 76.180 76.649 0.50242 595.10 0.0016804 72.460 72.554 0.48368 1.4174 2.1927 1242.9 -0.0055937 226.96 0.13661 1.4006 0.71396 470.72 510.91 2.4897 1.1624 1.3731 215.14 0.54199 5.9527 0.010486
-53.625 8.5819 0.0097776 78.535 79.028 0.51317 593.98 0.0016836 74.652 74.752 0.49369 1.4196 2.1967 1236.3 -0.0055589 224.27 0.13601 1.4667 0.68178 471.77 512.11 2.4860 1.1667 1.3782 215.43 0.53535 5.9792 0.010571
-52.625 9.0151 0.010231 80.900 81.418 0.52392 592.86 0.0016867 76.849 76.954 0.50368 1.4218 2.2007 1229.8 -0.0055237 221.63 0.13541 1.5353 0.65136 472.83 513.32 2.4824 1.1710 1.3834 215.72 0.52882 6.0056 0.010656
-51.625 9.4655 0.010700 83.274 83.818 0.53466 591.73 0.0016900 79.049 79.159 0.51363 1.4240 2.2048 1223.2 -0.0054880 219.04 0.13482 1.6062 0.62258 473.89 514.52 2.4789 1.1752 1.3886 216.00 0.52241 6.0320 0.010741
-50.625 9.9335 0.011185 85.657 86.228 0.54540 590.60 0.0016932 81.253 81.369 0.52356 1.4262 2.2089 1216.6 -0.0054519 216.48 0.13422 1.6797 0.59534 474.95 515.73 2.4755 1.1796 1.3938 216.28 0.51612 6.0584 0.010827
-49.625 10.419 0.011688 88.050 88.648 0.55612 589.47 0.0016964 83.462 83.584 0.53347 1.4285 2.2131 1210.1 -0.0054152 213.98 0.13363 1.7558 0.56954 476.01 516.93 2.4722 1.1839 1.3991 216.55 0.50994 6.0848 0.010913
-48.625 10.924 0.012208 90.452 91.080 0.56685 588.34 0.0016997 85.674 85.802 0.54334 1.4308 2.2173 1203.5 -0.0053780 211.51 0.13303 1.8345 0.54510 477.07 518.13 2.4689 1.1883 1.4044 216.82 0.50387 6.1112 0.010999
-47.625 11.448 0.012745 92.864 93.522 0.57757 587.20 0.0017030 87.891 88.025 0.55319 1.4331 2.2216 1196.9 -0.0053403 209.08 0.13244 1.9159 0.52194 478.14 519.33 2.4657 1.1927 1.4098 217.08 0.49792 6.1375 0.011085
-46.625 11.991 0.013300 95.286 95.975 0.58828 586.06 0.0017063 90.111 90.252 0.56302 1.4354 2.2259 1190.4 -0.0053020 206.69 0.13185 2.0001 0.49997 479.20 520.53 2.4625 1.1971 1.4153 217.33 0.49207 6.1639 0.011172
-45.625 12.554 0.013874 97.718 98.440 0.59900 584.92 0.0017096 92.336 92.484 0.57282 1.4378 2.2303 1183.8 -0.0052633 204.34 0.13126 2.0872 0.47912 480.27 521.74 2.4594 1.2015 1.4207 217.58 0.48633 6.1902 0.011259
-44.625 13.137 0.014467 100.16 100.92 0.60971 583.77 0.0017130 94.565 94.720 0.58260 1.4402 2.2347 1177.3 -0.0052240 202.03 0.13067 2.1771 0.45933 481.33 522.94 2.4564 1.2060 1.4263 217.82 0.48069 6.2165 0.011347
-43.625 13.741 0.015079 102.61 103.40 0.62042 582.62 0.0017164 96.799 96.961 0.59235 1.4426 2.2392 1170.7 -0.0051841 199.75 0.13008 2.2700 0.44053 482.40 524.14 2.4535 1.2104 1.4319 218.05 0.47516 6.2429 0.011435
-42.625 14.367 0.015711 105.08 105.90 0.63112 581.47 0.0017198 99.036 99.207 0.60208 1.4450 2.2437 1164.2 -0.0051437 197.51 0.12949 2.3659 0.42267 483.46 525.33 2.4506 1.2149 1.4375 218.28 0.46973 6.2692 0.011523
-41.625 15.015 0.016363 107.55 108.41 0.64183 580.32 0.0017232 101.28 101.46 0.61179 1.4475 2.2483 1157.7 -0.0051027 195.30 0.12891 2.4649 0.40569 484.53 526.53 2.4478 1.2195 1.4432 218.50 0.46440 6.2955 0.011612
-40.625 15.686 0.017036 110.03 110.94 0.65254 579.16 0.0017266 103.52 103.71 0.62147 1.4500 2.2529 1151.1 -0.0050611 193.13 0.12832 2.5671 0.38954 485.60 527.73 2.4450 1.2240 1.4489 218.72 0.45917 6.3218 0.011701
-39.625 16.380 0.017729 112.53 113.47 0.66324 578.00 0.0017301 105.78 105.97 0.63113 1.4525 2.2576 1144.6 -0.0050189 190.99 0.12774 2.6725 0.37418 486.67 528.93 2.4423 1.2286 1.4547 218.93 0.45403 6.3481 0.011790
-38.625 17.097 0.018445 115.03 116.02 0.67395 576.83 0.0017336 108.03 108.24 0.64077 1.4550 2.2623 1138.0 -0.0049761 188.88 0.12716 2.7813 0.35955 487.74 530.12 2.4397 1.2332 1.4606 219.13 0.44900 6.3744 0.011880
-37.625 17.838 0.019182 117.55 118.58 0.68466 575.66 0.0017371 110.29 110.51 0.65039 1.4576 2.2671 1131.5 -0.0049327 186.81 0.12658 2.8934 0.34562 488.81 531.32 2.4371 1.2378 1.4665 219.33 0.44405 6.4007 0.011970
-36.625 18.604 0.019941 120.08 121.15 0.69537 574.49 0.0017407 112.56 112.78 0.65999 1.4602 2.2719 1125.0 -0.0048887 184.76 0.12600 3.0089 0.33235 489.88 532.51 2.4346 1.2424 1.4724 219.52 0.43920 6.4270 0.012060
-35.625 19.395 0.020724 122.62 123.73 0.70609 573.32 0.0017442 114.83 115.06 0.66956 1.4628 2.2768 1118.5 -0.0048440 182.75 0.12542 3.1280 0.31969 490.95 533.70 2.4321 1.2471 1.4784 219.70 0.43444 6.4533 0.012151
-34.625 20.212 0.021529 125.17 126.33 0.71681 572.14 0.0017478 117.10 117.34 0.67912 1.4654 2.2818 1111.9 -0.0047987 180.76 0.12485 3.2506 0.30763 492.02 534.89 2.4297 1.2517 1.4845 219.88 0.42977 6.4797 0.012243
-33.625 21.056 0.022359 127.73 128.94 0.72753 570.96 0.0017514 119.38 119.63 0.68865 1.4681 2.2868 1105.4 -0.0047527 178.80 0.12427 3.3770 0.29612 493.09 536.08 2.4273 1.2564 1.4906 220.05 0.42519 6.5060 0.012334
-32.625 21.926 0.023213 130.31 131.57 0.73825 569.77 0.0017551 121.66 121.93 0.69817 1.4708 2.2918 1098.9 -0.0047061 176.87 0.12370 3.5071 0.28514 494.17 537.27 2.4250 1.2611 1.4968 220.21 0.42070 6.5323 0.012426
-31.625 22.823 0.024092 132.89 134.21 0.74898 568.58 0.0017588 123.95 124.23 0.70767 1.4735 2.2970 1092.3 -0.0046587 174.97 0.12313 3.6410 0.27465 495.24 538.46 2.4227 1.2659 1.5031 220.36 0.41629 6.5587 0.012519
-30.625 23.749 0.024996 135.49 136.86 0.75972 567.39 0.0017625 126.24 126.53 0.71714 1.4762 2.3021 1085.8 -0.0046107 173.09 0.12256 3.7787 0.26464 496.31 539.64 2.4205 1.2706 1.5094 220.51 0.41196 6.5850 0.012612
-29.625 24.703 0.025926 138.10 139.52 0.77046 566.19 0.0017662 128.54 128.84 0.72660 1.4790 2.3074 1079.3 -0.0045619 171.24 0.12200 3.9205 0.25507 497.38 540.83 2.4184 1.2754 1.5157 220.65 0.40772 6.6114 0.012706
-28.625 25.687 0.026882 140.73 142.20 0.78121 564.99 0.0017699 130.84 131.16 0.73604 1.4818 2.3126 1072.8 -0.0045124 169.42 0.12143 4.0663 0.24592 498.46 542.01 2.4162 1.2802 1.5222 220.79 0.40356 6.6378 0.012800
-27.625 26.700 0.027866 143.36 144.90 0.79197 563.78 0.0017737 133.15 133.48 0.74547 1.4846 2.3180 1066.2 -0.0044621 167.62 0.12087 4.2163 0.23717 499.53 543.19 2.4142 1.2850 1.5286 220.91 0.39947 6.6642 0.012894
-26.625 27.743 0.028876 146.01 147.60 0.80273 562.57 0.0017775 135.47 135.81 0.75487 1.4874 2.3234 1059.7 -0.0044111 165.84 0.12031 4.3705 0.22881 500.60 544.37 2.4122 1.2899 1.5352 221.03 0.39547 6.6906 0.012989
-25.625 28.817 0.029915 148.67 150.33 0.81350 561.36 0.0017814 137.78 138.14 0.76426 1.4902 2.3289 1053.2 -0.0043593 164.09 0.11975 4.5290 0.22080 501.68 545.55 2.4102 1.2947 1.5418 221.14 0.39154 6.7171 0.013084
-24.625 29.923 0.030982 151.34 153.06 0.82427 560.14 0.0017853 140.11 140.48 0.77363 1.4931 2.3344 1046.7 -0.0043067 162.36 0.11919 4.6918 0.21314 502.75 546.72 2.4083 1.2996 1.5485 221.25 0.38768 6.7436 0.013180
-23.625 31.061 0.032078 154.03 155.81 0.83506 558.92 0.0017892 142.44 142.82 0.78298 1.4960 2.3400 1040.1 -0.0042533 160.65 0.11863 4.8592 0.20580 503.82 547.90 2.4064 1.3045 1.5552 221.35 0.38391 6.7701 0.013277
-22.625 32.232 0.033204 156.73 158.58 0.84585 557.69 0.0017931 144.77 145.17 0.79232 1.4990 2.3457 1033.6 -0.0041990 158.97 0.11807 5.0311 0.19877 504.90 549.07 2.4045 1.3095 1.5621 221.44 0.38020 6.7967 0.013374
-21.625 33.435 0.034360 159.44 161.36 0.85666 556.46 0.0017971 147.11 147.52 0.80164 1.5019 2.3514 1027.1 -0.0041439 157.30 0.11752 5.2076 0.19203 505.97 550.24 2.4027 1.3144 1.5690 221.52 0.37656 6.8232 0.013471
-20.625 34.673 0.035547 162.16 164.16 0.86747 555.23 0.0018011 149.45 149.88 0.81095 1.5049 2.3572 1020.6 -0.0040879 155.66 0.11697 5.3889 0.18557 507.04 551.40 2.4010 1.3194 1.5759 221.59 0.37300 6.8499 0.013569
-19.625 35.946 0.036765 164.90 166.97 0.87829 553.99 0.0018051 151.80 152.25 0.82024 1.5079 2.3630 1014.0 -0.0040311 154.04 0.11642 5.5750 0.17937 508.11 552.57 2.3992 1.3244 1.5829 221.66 0.36950 6.8765 0.013668
-18.625 37.253 0.038015 167.66 169.80 0.88913 552.74 0.0018092 154.16 154.62 0.82952 1.5109 2.3689 1007.5 -0.0039733 152.44 0.11587 5.7660 0.17343 509.19 553.73 2.3976 1.3294 1.5901 221.72 0.36608 6.9032 0.013767
-17.625 38.596 0.039298 170.42 172.64 0.89997 551.49 0.0018133 156.52 157.00 0.83878 1.5140 2.3749 1001.0 -0.0039145 150.86 0.11532 5.9621 0.16773 510.26 554.89 2.3959 1.3345 1.5972 221.77 0.36272 6.9300 0.013867
-16.625 39.976 0.040614 173.20 175.50 0.91083 550.24 0.0018174 158.89 159.39 0.84803 1.5171 2.3810 994.44 -0.0038549 149.29 0.11478 6.1632 0.16225 511.33 556.05 2.3943 1.3395 1.6045 221.81 0.35942 6.9568 0.013968
-15.625 41.392 0.041964 175.99 178.37 0.92170 548.98 0.0018216 161.26 161.78 0.85726 1.5202 2.3871 987.91 -0.0037942 147.75 0.11423 6.3696 0.15700 512.40 557.20 2.3927 1.3446 1.6119 221.85 0.35619 6.9836 0.014069
-14.625 42.846 0.043349 178.80 181.26 0.93258 547.71 0.0018258 163.64 164.18 0.86649 1.5233 2.3933 981.37 -0.0037325 146.22 0.11369 6.5812 0.15195 513.47 558.36 2.3912 1.3497 1.6193 221.87 0.35302 7.0105 0.014170
-13.625 44.338 0.044768 181.62 184.17 0.94347 546.44 0.0018300 166.02 166.58 0.87569 1.5264 2.3996 974.83 -0.0036698 144.72 0.11315 6.7983 0.14710 514.54 559.51 2.3897 1.3549 1.6268 221.89 0.34992 7.0375 0.014273
-12.625 45.870 0.046224 184.46 187.09 0.95438 545.17 0.0018343 168.41 168.99 0.88489 1.5296 2.4059 968.29 -0.0036061 143.23 0.11261 7.0208 0.14243 515.61 560.65 2.3883 1.3600 1.6344 221.90 0.34688 7.0646 0.014376
-11.625 47.440 0.047716 187.31 190.04 0.96530 543.89 0.0018386 170.81 171.41 0.89407 1.5328 2.4124 961.75 -0.0035413 141.76 0.11208 7.2490 0.13795 516.68 561.80 2.3868 1.3652 1.6421 221.91 0.34389 7.0917 0.014479
-10.625 49.051 0.049246 190.17 192.99 0.97623 542.60 0.0018430 173.21 173.83 0.90324 1.5360 2.4189 955.20 -0.0034753 140.30 0.11154 7.4829 0.13364 517.75 562.94 2.3854 1.3704 1.6498 221.90 0.34097 7.1188 0.014584
-9.6250 50.703 0.050814 193.05 195.97 0.98718 541.31 0.0018474 175.61 176.26 0.91240 1.5393 2.4255 948.65 -0.0034082 138.86 0.11101 7.7226 0.12949 518.81 564.08 2.3841 1.3757 1.6577 221.88 0.33810 7.1461 0.014689
-8.6250 52.396 0.052420 195.95 198.96 0.99814 540.02 0.0018518 178.03 178.70 0.92154 1.5426 2.4321 942.10 -0.0033400 137.44 0.11048 7.9683 0.12550 519.88 565.21 2.3827 1.3809 1.6657 221.86 0.33529 7.1734 0.014795
-7.6250 54.131 0.054067 198.86 201.97 1.0091 538.72 0.0018563 180.45 181.14 0.93068 1.5459 2.4389 935.55 -0.0032705 136.03 0.10995 8.2200 0.12165 520.94 566.35 2.3814 1.3862 1.6737 221.83 0.33254 7.2008 0.014902
-6.6250 55.909 0.055753 201.78 204.99 1.0201 537.41 0.0018608 182.87 183.59 0.93980 1.5492 2.4457 928.99 -0.0031998 134.64 0.10942 8.4779 0.11795 522.01 567.48 2.3801 1.3915 1.6819 221.79 0.32984 7.2284 0.015009
-5.6250 57.730 0.057481 204.72 208.04 1.0311 536.10 0.0018653 185.30 186.05 0.94892 1.5525 2.4526 922.43 -0.0031279 133.27 0.10889 8.7420 0.11439 523.07 568.60 2.3789 1.3969 1.6902 221.74 0.32720 7.2560 0.015117
-4.6250 59.595 0.059250 207.67 211.10 1.0421 534.78 0.0018699 187.74 188.51 0.95802 1.5559 2.4596 915.87 -0.0030546 131.91 0.10837 9.0126 0.11096 524.13 569.72 2.3777 1.4022 1.6985 221.68 0.32461 7.2837 0.015226
-3.6250 61.505 0.061063 210.64 214.18 1.0532 533.45 0.0018746 190.19 190.98 0.96711 1.5593 2.4667 909.30 -0.0029800 130.56 0.10785 9.2896 0.10765 525.19 570.84 2.3765 1.4076 1.7070 221.62 0.32207 7.3115 0.015336
-2.6250 63.461 0.062919 213.63 217.27 1.0642 532.12 0.0018793 192.64 193.46 0.97620 1.5627 2.4739 902.73 -0.0029041 129.23 0.10733 9.5733 0.10446 526.25 571.96 2.3753 1.4131 1.7156 221.54 0.31958 7.3394 0.015447
-1.6250 65.462 0.064819 216.63 220.39 1.0753 530.78 0.0018840 195.10 195.95 0.98527 1.5662 2.4811 896.16 -0.0028267 127.91 0.10681 9.8638 0.10138 527.31 573.07 2.3742 1.4185 1.7243 221.45 0.31715 7.3674 0.015559
-0.62500 67.510 0.066765 219.65 223.52 1.0864 529.44 0.0018888 197.56 198.44 0.99434 1.5696 2.4885 889.58 -0.0027478 126.61 0.10629 10.161 0.098414 528.37 574.18 2.3731 1.4240 1.7331 221.36 0.31476 7.3956 0.015671
0.37500 69.606 0.068757 222.68 226.68 1.0975 528.09 0.0018936 200.03 200.94 1.0034 1.5731 2.4960 883.00 -0.0026675 125.32 0.10578 10.466 0.095552 529.42 575.28 2.3720 1.4295 1.7421 221.26 0.31242 7.4239 0.015785
1.3750 71.749 0.070797 225.73 229.85 1.1086 526.73 0.0018985 202.51 203.45 1.0124 1.5767 2.5035 876.42 -0.0025856 124.04 0.10527 10.777 0.092790 530.48 576.38 2.3709 1.4350 1.7512 221.14 0.31013 7.4523 0.015899
2.3750 73.941 0.072885 228.79 233.04 1.1198 525.37 0.0019034 204.99 205.96 1.0215 1.5802 2.5112 869.83 -0.0025022 122.78 0.10476 11.096 0.090123 531.53 577.47 2.3699 1.4406 1.7604 221.02 0.30789 7.4808 0.016015
3.3750 76.183 0.075022 231.87 236.25 1.1309 523.99 0.0019084 207.48 208.48 1.0305 1.5838 2.5190 863.24 -0.0024171 121.53 0.10425 11.422 0.087549 532.58 578.56 2.3688 1.4462 1.7697 220.89 0.30569 7.5095 0.016131
4.3750 78.475 0.077209 234.97 239.48 1.1421 522.62 0.0019134 209.98 211.01 1.0395 1.5874 2.5268 856.64 -0.0023303 120.29 0.10374 11.756 0.085062 533.63 579.65 2.3678 1.4518 1.7792 220.75 0.30354 7.5384 0.016249
5.3750 80.817 0.079448 238.08 242.72 1.1533 521.23 0.0019185 212.48 213.55 1.0486 1.5910 2.5348 850.04 -0.0022417 119.06 0.10324 12.098 0.082660 534.67 580.73 2.3669 1.4575 1.7888 220.60 0.30144 7.5674 0.016368
6.3750 83.211 0.081739 241.21 245.99 1.1645 519.84 0.0019237 215.00 216.10 1.0576 1.5946 2.5429 843.43 -0.0021514 117.85 0.10273 12.447 0.080340 535.72 581.81 2.3659 1.4632 1.7986 220.44 0.29938 7.5966 0.016487
7.3750 85.657 0.084084 244.36 249.28 1.1758 518.44 0.0019289 217.51 218.65 1.0666 1.5983 2.5511 836.82 -0.0020593 116.65 0.10223 12.805 0.078096 536.76 582.88 2.3650 1.4689 1.8085 220.27 0.29736 7.6259 0.016608
8.3750 88.156 0.086484 247.52 252.59 1.1870 517.03 0.0019341 220.04 221.22 1.0756 1.6020 2.5595 830.20 -0.0019652 115.46 0.10173 13.170 0.075928 537.80 583.95 2.3640 1.4746 1.8186 220.08 0.29538 7.6555 0.016730
9.3750 90.708 0.088939 250.70 255.91 1.1983 515.62 0.0019394 222.57 223.79 1.0846 1.6057 2.5679 823.58 -0.0018691 114.28 0.10124 13.545 0.073830 538.84 585.01 2.3631 1.4804 1.8288 219.89 0.29345 7.6852 0.016853
10.375 93.315 0.091451 253.90 259.26 1.2096 514.19 0.0019448 225.11 226.37 1.0936 1.6095 2.5765 816.96 -0.0017710 113.11 0.10074 13.927 0.071802 539.87 586.07 2.3622 1.4863 1.8392 219.69 0.29156 7.7151 0.016978
11.375 95.977 0.094022 257.11 262.63 1.2209 512.76 0.0019502 227.66 228.95 1.1025 1.6132 2.5852 810.32 -0.0016708 111.95 0.10025 14.319 0.069840 540.90 587.12 2.3614 1.4921 1.8498 219.48 0.28971 7.7452 0.017103
12.375 98.694 0.096653 260.35 266.02 1.2322 511.32 0.0019557 230.22 231.55 1.1115 1.6170 2.5940 803.68 -0.0015685 110.80 0.099756 14.719 0.067941 541.93 588.17 2.3605 1.4980 1.8605 219.26 0.28790 7.7756 0.017230
13.375 101.47 0.099344 263.60 269.43 1.2436 509.87 0.0019613 232.78 234.15 1.1205 1.6208 2.6030 797.04 -0.0014639 109.67 0.099267 15.128 0.066103 542.96 589.21 2.3597 1.5040 1.8715 219.03 0.28612 7.8061 0.017359
14.375 104.30 0.10210 266.86 272.86 1.2550 508.42 0.0019669 235.35 236.77 1.1295 1.6247 2.6121 790.39 -0.0013569 108.54 0.098779 15.547 0.064323 543.99 590.24 2.3588 1.5099 1.8826 218.79 0.28439 7.8369 0.017488
15.375 107.19 0.10492 270.15 276.31 1.2664 506.95 0.0019726 237.93 239.39 1.1384 1.6286 2.6214 783.73 -0.0012476 107.43 0.098294 15.974 0.062600 545.01 591.27 2.3580 1.5159 1.8940 218.53 0.28270 7.8680 0.017619
16.375 110.13 0.10780 273.45 279.78 1.2778 505.48 0.0019783 240.52 242.02 1.1474 1.6324 2.6308 777.07 -0.0011357 106.32 0.097810 16.412 0.060931 546.03 592.29 2.3572 1.5220 1.9055 218.27 0.28104 7.8993 0.017752
17.375 113.14 0.11075 276.77 283.27 1.2893 504.00 0.0019841 243.11 244.66 1.1564 1.6364 2.6403 770.40 -0.0010213 105.22 0.097328 16.859 0.059314 547.04 593.31 2.3564 1.5281 1.9172 217.99 0.27942 7.9308 0.017886
18.375 116.21 0.11377 280.11 286.79 1.3007 502.50 0.0019900 245.72 247.31 1.1653 1.6403 2.6501 763.72 -0.00090422 104.14 0.096848 17.317 0.057747 548.05 594.32 2.3557 1.5342 1.9292 217.71 0.27783 7.9626 0.018021
19.375 119.33 0.11686 283.47 290.33 1.3122 501.00 0.0019960 248.33 249.97 1.1743 1.6443 2.6599 757.04 -0.00078435 103.06 0.096371 17.785 0.056228 549.06 595.33 2.3549 1.5404 1.9414 217.41 0.27628 7.9947 0.018159
20.375 122.52 0.12002 286.85 293.88 1.3238 499.49 0.0020020 250.95 252.64 1.1832 1.6483 2.6700 750.35 -0.00066161 101.99 0.095895 18.263 0.054756 550.07 596.32 2.3541 1.5466 1.9538 217.10 0.27477 8.0272 0.018297
21.375 125.77 0.12325 290.24 297.47 1.3353 497.97 0.0020082 253.57 255.32 1.1922 1.6523 2.6802 743.64 -0.00053589 100.93 0.095420 18.752 0.053328 551.07 597.31 2.3534 1.5528 1.9665 216.78 0.27329 8.0599 0.018438
22.375 129.08 0.12656 293.65 301.07 1.3469 496.43 0.0020144 256.21 258.00 1.2012 1.6563 2.6906 736.94 -0.00040708 99.877 0.094948 19.252 0.051943 552.07 598.30 2.3526 1.5591 1.9795 216.45 0.27184 8.0929 0.018580
23.375 132.46 0.12995 297.09 304.70 1.3585 494.89 0.0020206 258.86 260.70 1.2101 1.6604 2.7012 730.22 -0.00027505 98.834 0.094478 19.763 0.050600 553.06 599.27 2.3519 1.5655 1.9927 216.11 0.27043 8.1263 0.018724
24.375 135.90 0.13341 300.54 308.35 1.3701 493.34 0.0020270 261.51 263.41 1.2191 1.6645 2.7120 723.49 -0.00013968 97.800 0.094009 20.285 0.049297 554.05 600.24 2.3512 1.5718 2.0061 215.75 0.26906 8.1600 0.018870
25.375 139.41 0.13696 304.01 312.02 1.3817 491.77 0.0020335 264.17 266.13 1.2280 1.6686 2.7230 716.76 -8.3775e-07 96.773 0.093543 20.820 0.048032 555.03 601.20 2.3504 1.5783 2.0199 215.39 0.26771 8.1941 0.019017
26.375 142.98 0.14059 307.50 315.71 1.3934 490.20 0.0020400 266.84 268.85 1.2370 1.6728 2.7342 710.01 0.00014161 95.755 0.093078 21.366 0.046804 556.01 602.15 2.3497 1.5847 2.0340 215.01 0.26640 8.2286 0.019167
27.375 146.62 0.14431 311.01 319.43 1.4051 488.61 0.0020466 269.52 271.59 1.2459 1.6770 2.7456 703.26 0.00028782 94.745 0.092615 21.924 0.045612 556.99 603.10 2.3490 1.5913 2.0484 214.62 0.26512 8.2634 0.019319
28.375 150.33 0.14811 314.54 323.17 1.4168 487.01 0.0020533 272.21 274.34 1.2549 1.6812 2.7573 696.49 0.00043793 93.742 0.092154 22.495 0.044454 557.96 604.03 2.3483 1.5978 2.0631 214.21 0.26387 8.2987 0.019472
29.375 154.10 0.15201 318.09 326.94 1.4286 485.40 0.0020601 274.91 277.10 1.2638 1.6854 2.7691 689.72 0.00059212 92.747 0.091695 23.079 0.043329 558.92 604.96 2.3476 1.6044 2.0781 213.80 0.26265 8.3344 0.019628
30.375 157.94 0.15600 321.65 330.73 1.4404 483.78 0.0020671 277.62 279.87 1.2728 1.6897 2.7813 682.93 0.00075055 91.760 0.091238 23.676 0.042237 559.88 605.88 2.3469 1.6111 2.0935 213.37 0.26147 8.3705 0.019786
31.375 161.86 0.16008 325.24 334.54 1.4522 482.15 0.0020741 280.34 282.66 1.2818 1.6939 2.7936 676.13 0.00091340 90.779 0.090782 24.287 0.041175 560.84 606.79 2.3462 1.6178 2.1092 212.93 0.26031 8.4071 0.019947
32.375 165.84 0.16426 328.85 338.38 1.4640 480.50 0.0020812 283.07 285.45 1.2908 1.6983 2.8063 669.32 0.0010809 89.806 0.090328 24.911 0.040143 561.79 607.69 2.3455 1.6246 2.1254 212.48 0.25919 8.4442 0.020110
33.375 169.90 0.16855 332.48 342.25 1.4759 478.83 0.0020884 285.81 288.26 1.2997 1.7026 2.8192 662.50 0.0012532 88.840 0.089876 25.549 0.039140 562.73 608.58 2.3448 1.6314 2.1419 212.01 0.25809 8.4818 0.020275
34.375 174.02 0.17294 336.13 346.13 1.4878 477.16 0.0020957 288.56 291.07 1.3087 1.7070 2.8324 655.67 0.0014305 87.880 0.089426 26.202 0.038164 563.67 609.46 2.3440 1.6383 2.1589 211.53 0.25702 8.5199 0.020443
35.375 178.22 0.17743 339.81 350.05 1.4997 475.47 0.0021032 291.32 293.90 1.3177 1.7114 2.8459 648.82 0.0016131 86.927 0.088977 26.870 0.037216 564.60 610.33 2.3433 1.6452 2.1763 211.04 0.25599 8.5586 0.020613
36.375 182.50 0.18204 343.50 353.99 1.5116 473.77 0.0021107 294.09 296.74 1.3267 1.7158 2.8597 641.96 0.0018012 85.980 0.088531 27.553 0.036293 565.52 611.19 2.3426 1.6522 2.1942 210.53 0.25498 8.5978 0.020786
37.375 186.84 0.18676 347.21 357.95 1.5236 472.05 0.0021184 296.87 299.60 1.3357 1.7203 2.8739 635.08 0.0019950 85.040 0.088085 28.252 0.035395 566.44 612.04 2.3419 1.6592 2.2125 210.01 0.25400 8.6376 0.020962
38.375 191.27 0.19160 350.95 361.94 1.5356 470.31 0.0021262 299.66 302.46 1.3447 1.7248 2.8884 628.19 0.0021949 84.105 0.087642 28.967 0.034522 567.35 612.88 2.3411 1.6663 2.2314 209.47 0.25305 8.6780 0.021141
39.375 195.77 0.19657 354.71 365.96 1.5477 468.56 0.0021342 302.46 305.34 1.3537 1.7293 2.9033 621.29 0.0024011 83.177 0.087200 29.699 0.033671 568.26 613.70 2.3404 1.6734 2.2508 208.92 0.25213 8.7190 0.021323
40.375 200.34 0.20166 358.49 370.00 1.5597 466.80 0.0021423 305.27 308.23 1.3627 1.7339 2.9185 614.37 0.0026140 82.254 0.086760 30.447 0.032844 569.15 614.52 2.3396 1.6806 2.2708 208.36 0.25123 8.7608 0.021508
41.375 205.00 0.20687 362.29 374.07 1.5718 465.01 0.0021505 308.10 311.14 1.3718 1.7385 2.9342 607.43 0.0028338 81.338 0.086322 31.214 0.032037 570.04 615.32 2.3389 1.6879 2.2913 207.78 0.25037 8.8032 0.021696
42.375 209.73 0.21223 366.11 378.16 1.5840 463.21 0.0021588 310.94 314.06 1.3808 1.7432 2.9502 600.47 0.0030609 80.426 0.085885 31.998 0.031252 570.92 616.11 2.3381 1.6952 2.3125 207.19 0.24953 8.8463 0.021888
43.375 214.54 0.21772 369.96 382.29 1.5962 461.40 0.0021673 313.79 316.99 1.3899 1.7478 2.9667 593.50 0.0032957 79.520 0.085449 32.800 0.030488 571.79 616.88 2.3373 1.7027 2.3344 206.58 0.24871 8.8902 0.022084
44.375 219.43 0.22336 373.83 386.44 1.6084 459.56 0.0021760 316.65 319.94 1.3989 1.7525 2.9837 586.51 0.0035386 78.619 0.085015 33.622 0.029742 572.65 617.65 2.3365 1.7101 2.3569 205.96 0.24793 8.9349 0.022283
45.375 224.41 0.22915 377.72 390.62 1.6206 457.71 0.0021848 319.52 322.90 1.4080 1.7573 3.0012 579.50 0.0037900 77.723 0.084583 34.463 0.029016 573.50 618.40 2.3357 1.7177 2.3802 205.32 0.24717 8.9805 0.022485
46.375 229.46 0.23510 381.64 394.82 1.6329 455.83 0.0021938 322.41 325.88 1.4171 1.7621 3.0192 572.46 0.0040504 76.832 0.084152 35.325 0.028308 574.34 619.13 2.3349 1.7253 2.4042 204.67 0.24644 9.0269 0.022692
47.375 234.60 0.24121 385.58 399.06 1.6452 453.94 0.0022029 325.31 328.87 1.4262 1.7669 3.0377 565.41 0.0043202 75.946 0.083723 36.208 0.027618 575.17 619.85 2.3340 1.7329 2.4291 204.00 0.24573 9.0742 0.022903
48.375 239.83 0.24749 389.54 403.32 1.6575 452.03 0.0022123 328.22 331.88 1.4353 1.7718 3.0569 558.34 0.0046000 75.064 0.083295 37.112 0.026945 576.00 620.55 2.3332 1.7407 2.4548 203.31 0.24505 9.1224 0.023119
49.375 245.13 0.25394 393.53 407.61 1.6699 450.09 0.0022218 331.15 334.90 1.4445 1.7767 3.0766 551.24 0.0048904 74.186 0.082868 38.039 0.026289 576.81 621.24 2.3323 1.7485 2.4815 202.61 0.24440 9.1716 0.023339
50.375 250.53 0.26057 397.54 411.94 1.6823 448.13 0.0022315 334.09 337.94 1.4536 1.7817 3.0970 544.13 0.0051920 73.313 0.082442 38.989 0.025648 577.61 621.91 2.3314 1.7564 2.5092 201.89 0.24377 9.2219 0.023564
51.375 256.01 0.26740 401.58 416.29 1.6948 446.15 0.0022414 337.04 341.00 1.4628 1.7867 3.1181 536.98 0.0055054 72.443 0.082018 39.962 0.025024 578.39 622.56 2.3304 1.7644 2.5379 201.16 0.24317 9.2733 0.023794
52.375 261.57 0.27443 405.64 420.67 1.7073 444.15 0.0022515 340.01 344.07 1.4720 1.7918 3.1400 529.82 0.0058313 71.577 0.081595 40.961 0.024414 579.17 623.20 2.3295 1.7724 2.5677 200.41 0.24260 9.3258 0.024029
53.375 267.23 0.28166 409.73 425.09 1.7198 442.12 0.0022618 343.00 347.17 1.4812 1.7969 3.1627 522.62 0.0061705 70.715 0.081174 41.985 0.023818 579.93 623.81 2.3285 1.7805 2.5987 199.63 0.24205 9.3795 0.024270
54.375 272.97 0.28911 413.85 429.53 1.7324 440.06 0.0022724 346.00 350.28 1.4904 1.8021 3.1862 515.40 0.0065239 69.856 0.080753 43.036 0.023237 580.68 624.41 2.3274 1.7887 2.6310 198.85 0.24154 9.4344 0.024516
55.375 278.81 0.29679 417.99 434.01 1.7450 437.98 0.0022832 349.02 353.40 1.4997 1.8073 3.2106 508.15 0.0068923 69.001 0.080334 44.114 0.022669 581.41 624.99 2.3264 1.7969 2.6646 198.04 0.24105 9.4907 0.024769
56.375 284.74 0.30470 422.15 438.51 1.7577 435.87 0.0022943 352.05 356.55 1.5090 1.8126 3.2360 500.87 0.0072767 68.148 0.079915 45.221 0.022114 582.13 625.54 2.3253 1.8052 2.6998 197.22 0.24059 9.5484 0.025028
57.375 290.76 0.31287 426.35 443.06 1.7704 433.73 0.0023056 355.10 359.72 1.5183 1.8179 3.2624 493.56 0.0076782 67.299 0.079498 46.358 0.021571 582.83 626.07 2.3241 1.8136 2.7365 196.37 0.24016 9.6075 0.025294
58.375 296.87 0.32130 430.57 447.63 1.7832 431.56 0.0023172 358.17 362.91 1.5276 1.8233 3.2900 486.22 0.0080980 66.451 0.079082 47.525 0.021041 583.52 626.58 2.3230 1.8220 2.7749 195.51 0.23976 9.6682 0.025568
59.375 303.08 0.33001 434.82 452.24 1.7960 429.36 0.0023290 361.25 366.12 1.5370 1.8288 3.3188 478.84 0.0085373 65.606 0.078666 48.726 0.020523 584.18 627.07 2.3218 1.8305 2.8152 194.63 0.23939 9.7305 0.025849
60.375 309.38 0.33902 439.10 456.88 1.8088 427.13 0.0023412 364.36 369.35 1.5464 1.8343 3.3489 471.43 0.0089976 64.763 0.078251 49.960 0.020016 584.83 627.53 2.3205 1.8391 2.8576 193.73 0.23905 9.7945 0.026138
61.375 315.78 0.34833 443.41 461.55 1.8217 424.87 0.0023537 367.48 372.60 1.5558 1.8400 3.3805 463.99 0.0094803 63.922 0.077838 51.229 0.019520 585.46 627.96 2.3192 1.8479 2.9022 192.82 0.23873 9.8603 0.026436
62.375 322.28 0.35797 447.75 466.26 1.8347 422.56 0.0023665 370.62 375.88 1.5653 1.8457 3.4136 456.50 0.0099871 63.083 0.077425 52.535 0.019035 586.07 628.37 2.3178 1.8567 2.9492 191.88 0.23845 9.9281 0.026744
63.375 328.88 0.36796 452.12 471.01 1.8477 420.22 0.0023797 373.79 379.18 1.5748 1.8514 3.4483 448.97 0.010520 62.244 0.077012 53.879 0.018560 586.66 628.74 2.3164 1.8656 2.9989 190.92 0.23819 9.9979 0.027061
64.375 335.58 0.37831 456.51 475.79 1.8607 417.85 0.0023932 376.97 382.51 1.5844 1.8573 3.4850 441.40 0.011081 61.407 0.076600 55.265 0.018095 587.22 629.09 2.3149 1.8747 3.0517 189.95 0.23796 10.070 0.027389
65.375 342.38 0.38906 460.94 480.62 1.8738 415.42 0.0024072 380.18 385.86 1.5939 1.8633 3.5236 433.79 0.011672 60.570 0.076189 56.692 0.017639 587.76 629.40 2.3133 1.8839 3.1077 188.95 0.23775 10.144 0.027729
66.375 349.28 0.40023 465.41 485.47 1.8870 412.96 0.0024215 383.41 389.25 1.6036 1.8693 3.5645 426.12 0.012296 59.733 0.075779 58.165 0.017193 588.28 629.68 2.3117 1.8933 3.1674 187.93 0.23757 10.221 0.028080
67.375 356.28 0.41184 469.90 490.37 1.9002 410.45 0.0024363 386.67 392.65 1.6133 1.8755 3.6078 418.41 0.012956 58.897 0.075368 59.684 0.016755 588.76 629.92 2.3100 1.9030 3.2311 186.89 0.23740 10.300 0.028446
68.375 363.40 0.42393 474.43 495.31 1.9135 407.89 0.0024516 389.95 396.09 1.6230 1.8818 3.6537 410.64 0.013655 58.059 0.074959 61.253 0.016326 589.22 630.13 2.3082 1.9129 3.2994 185.83 0.23724 10.382 0.028825
69.375 370.61 0.43654 478.99 500.29 1.9268 405.28 0.0024674 393.26 399.57 1.6328 1.8882 3.7027 402.81 0.014396 57.221 0.074549 62.875 0.015905 589.65 630.29 2.3064 1.9231 3.3727 184.74 0.23710 10.467 0.029221
70.375 377.94 0.44970 483.59 505.31 1.9402 402.62 0.0024838 396.60 403.07 1.6426 1.8947 3.7550 394.92 0.015183 56.381 0.074141 64.552 0.015491 590.04 630.41 2.3044 1.9336 3.4518 183.63 0.23697 10.555 0.029633
71.375 385.37 0.46346 488.23 510.37 1.9537 399.89 0.0025007 399.96 406.61 1.6525 1.9014 3.8109 386.97 0.016021 55.540 0.073732 66.288 0.015086 590.40 630.49 2.3024 1.9444 3.5371 182.50 0.23684 10.647 0.030064
72.375 392.92 0.47787 492.90 515.47 1.9673 397.11 0.0025182 403.36 410.18 1.6625 1.9083 3.8711 378.95 0.016915 54.696 0.073324 68.087 0.014687 590.73 630.51 2.3002 1.9556 3.6297 181.34 0.23671 10.743 0.030515
73.375 400.57 0.49298 497.61 520.62 1.9809 394.26 0.0025364 406.79 413.80 1.6726 1.9153 3.9359 370.85 0.017871 53.848 0.072917 69.953 0.014295 591.01 630.49 2.2979 1.9673 3.7303 180.16 0.23658 10.842 0.030989
74.375 408.34 0.50886 502.36 525.82 1.9946 391.34 0.0025553 410.26 417.45 1.6827 1.9226 4.0060 362.67 0.018894 52.997 0.072510 71.890 0.013910 591.25 630.41 2.2955 1.9793 3.8401 178.95 0.23643 10.946 0.031488
75.375 416.23 0.52558 507.15 531.06 2.0083 388.34 0.0025751 413.76 421.15 1.6930 1.9301 4.0822 354.41 0.019993 52.142 0.072104 73.904 0.013531 591.44 630.27 2.2930 1.9919 3.9604 177.71 0.23627 11.054 0.032014
76.375 424.23 0.54323 511.98 536.36 2.0222 385.26 0.0025957 417.31 424.90 1.7033 1.9378 4.1654 346.06 0.021177 51.281 0.071699 76.001 0.013158 591.59 630.07 2.2903 2.0050 4.0927 176.44 0.23609 11.168 0.032570
77.375 432.35 0.56191 516.86 541.70 2.0361 382.09 0.0026172 420.89 428.70 1.7137 1.9459 4.2565 337.60 0.022455 50.414 0.071295 78.187 0.012790 591.68 629.80 2.2874 2.0186 4.2389 175.15 0.23588 11.287 0.033161
78.375 440.59 0.58173 521.78 547.10 2.0501 378.83 0.0026397 424.53 432.54 1.7243 1.9543 4.3570 329.05 0.023838 49.539 0.070893 80.469 0.012427 591.71 629.46 2.2844 2.0328 4.4012 173.82 0.23563 11.412 0.033789
79.375 448.95 0.60282 526.75 552.55 2.0642 375.46 0.0026634 428.21 436.45 1.7349 1.9631 4.4684 320.38 0.025341 48.657 0.070494 82.856 0.012069 591.68 629.04 2.2812 2.0475 4.5824 172.46 0.23535 11.544 0.034461
80.375 457.44 0.62535 531.77 558.05 2.0785 371.97 0.0026884 431.94 440.42 1.7457 1.9723 4.5928 311.58 0.026980 47.764 0.070099 85.359 0.011715 591.58 628.53 2.2778 2.0630 4.7859 171.07 0.23501 11.684 0.035181
81.375 466.05 0.64951 536.84 563.62 2.0928 368.36 0.0027147 435.74 444.46 1.7567 1.9820 4.7327 302.66 0.028773 46.860 0.069708 87.988 0.011365 591.40 627.92 2.2742 2.0791 5.0161 169.64 0.23461 11.832 0.035957
82.375 474.79 0.67554 541.97 569.25 2.1072 364.61 0.0027427 439.60 448.58 1.7678 1.9924 4.8914 293.60 0.030744 45.942 0.069323 90.757 0.011018 591.14 627.21 2.2703 2.0959 5.2786 168.17 0.23413 11.989 0.036797
83.375 483.66 0.70373 547.16 574.95 2.1218 360.70 0.0027724 443.53 452.78 1.7791 2.0034 5.0731 284.38 0.032920 45.010 0.068948 93.681 0.010674 590.79 626.38 2.2661 2.1136 5.5807 166.67 0.23357 12.157 0.037711
84.375 492.67 0.73444 552.41 580.72 2.1365 356.61 0.0028041 447.54 457.07 1.7907 2.0153 5.2834 275.00 0.035335 44.059 0.068586 96.781 0.010333 590.33 625.42 2.2616 2.1321 5.9321 165.13 0.23290 12.338 0.038713
85.375 501.81 0.76814 557.72 586.56 2.1514 352.33 0.0028382 451.65 461.47 1.8025 2.0281 5.5302 265.44 0.038030 43.088 0.068241 100.08 0.0099920 589.74 624.31 2.2567 2.1517 6.3459 163.54 0.23209 12.532 0.039819
86.375 511.09 0.80542 563.11 592.48 2.1664 347.82 0.0028751 455.85 465.98 1.8145 2.0420 5.8240 255.69 0.041058 42.092 0.067923 103.61 0.0096520 589.03 623.04 2.2514 2.1723 6.8405 161.91 0.23112 12.743 0.041051
87.375 520.51 0.84709 568.58 598.49 2.1815 343.04 0.0029151 460.18 470.64 1.8269 2.0574 6.1803 245.72 0.044485 41.066 0.067640 107.40 0.0093114 588.15 621.56 2.2456 2.1943 7.4422 160.23 0.22995 12.973 0.042436
88.375 530.07 0.89425 574.13 604.59 2.1969 337.95 0.0029590 464.64 475.45 1.8397 2.0745 6.6221 235.52 0.048397 40.005 0.067412 111.50 0.0089689 587.08 619.86 2.2392 2.2178 8.1900 158.49 0.22854 13.226 0.044014
89.375 539.79 0.94845 579.78 610.79 2.2125 332.48 0.0030077 469.27 480.46 1.8530 2.0936 7.1851 225.04 0.052906 38.901 0.067265 115.97 0.0086228 585.79 617.88 2.2321 2.2433 9.1445 156.69 0.22681 13.508 0.045839
90.375 548.95 undefined 584.91 616.45 2.2267 120.00 0.0083333 584.91 616.45 2.2267 2.2627 10.005 155.36 0.22438 13.772 0.047442 120.00 0.0083333 584.91 616.45 2.2267 2.2627 10.005 155.36 0.22438 13.772 0.047442
91.375 554.86 undefined 587.17 619.05 2.2329 120.00 0.0083333 587.17 619.05 2.2329 2.2452 9.2521 156.55 0.22048 13.806 0.046720 120.00 0.0083333 587.17 619.05 2.2329 2.2452 9.2521 156.55 0.22048 13.806 0.046720
92.375 560.72 undefined 589.40 621.62 2.2390 120.00 0.0083333 589.40 621.62 2.2390 2.2295 8.6355 157.73 0.21669 13.841 0.046122 120.00 0.0083333 589.40 621.62 2.2390 2.2295 8.6355 157.73 0.21669 13.841 0.046122
93.375 566.54 undefined 591.63 624.18 2.2451 120.00 0.0083333 591.63 624.18 2.2451 2.2154 8.1213 158.91 0.21300 13.876 0.045622 120.00 0.0083333 591.63 624.18 2.2451 2.2154 8.1213 158.91 0.21300 13.876 0.045622
94.375 572.32 undefined 593.84 626.72 2.2511 120.00 0.0083333 593.84 626.72 2.2511 2.2030 7.6860 160.09 0.20941 13.912 0.045199 120.00 0.0083333 593.84 626.72 2.2511 2.2030 7.6860 160.09 0.20941 13.912 0.045199
95.375 578.07 undefined 596.03 629.25 2.2571 120.00 0.0083333 596.03 629.25 2.2571 2.1920 7.3126 161.26 0.20590 13.951 0.044839 120.00 0.0083333 596.03 629.25 2.2571 2.1920 7.3126 161.26 0.20590 13.951 0.044839
96.375 583.78 undefined 598.22 631.76 2.2630 120.00 0.0083333 598.22 631.76 2.2630 2.1824 6.9889 162.42 0.20248 13.995 0.044529 120.00 0.0083333 598.22 631.76 2.2630 2.1824 6.9889 162.42 0.20248 13.995 0.044529
97.375 589.46 undefined 600.40 634.27 2.2689 120.00 0.0083333 600.40 634.27 2.2689 2.1741 6.7054 163.57 0.19914 14.025 0.044272 120.00 0.0083333 600.40 634.27 2.2689 2.1741 6.7054 163.57 0.19914 14.025 0.044272
98.375 595.12 undefined 602.57 636.76 2.2747 120.00 0.0083333 602.57 636.76 2.2747 2.1668 6.4550 164.72 0.19588 14.049 0.044055 120.00 0.0083333 602.57 636.76 2.2747 2.1668 6.4550 164.72 0.19588 14.049 0.044055
99.375 600.75 undefined 604.73 639.25 2.2805 120.00 0.0083333 604.73 639.25 2.2805 2.1605 6.2322 165.85 0.19270 14.078 0.043867 120.00 0.0083333 604.73 639.25 2.2805 2.1605 6.2322 165.85 0.19270 14.078 0.043867
100.38 606.36 undefined 606.89 641.73 2.2863 120.00 0.0083333 606.89 641.73 2.2863 2.1551 6.0325 166.97 0.18959 14.109 0.043706 120.00 0.0083333 606.89 641.73 2.2863 2.1551 6.0325 166.97 0.18959 14.109 0.043706
101.38 611.94 undefined 609.04 644.20 2.2921 120.00 0.0083333 609.04 644.20 2.2921 2.1504 5.8526 168.09 0.18656 14.141 0.043567 120.00 0.0083333 609.04 644.20 2.2921 2.1504 5.8526 168.09 0.18656 14.141 0.043567
102.38 617.51 undefined 611.19 646.67 2.2978 120.00 0.0083333 611.19 646.67 2.2978 2.1463 5.6895 169.19 0.18359 14.174 0.043450 120.00 0.0083333 611.19 646.67 2.2978 2.1463 5.6895 169.19 0.18359 14.174 0.043450
103.38 623.05 undefined 613.34 649.13 2.3035 120.00 0.0083333 613.34 649.13 2.3035 2.1429 5.5409 170.29 0.18070 14.207 0.043351 120.00 0.0083333 613.34 649.13 2.3035 2.1429 5.5409 170.29 0.18070 14.207 0.043351
104.38 628.58 undefined 615.48 651.59 2.3092 120.00 0.0083333 615.48 651.59 2.3092 2.1399 5.4051 171.38 0.17787 14.240 0.043269 120.00 0.0083333 615.48 651.59 2.3092 2.1399 5.4051 171.38 0.17787 14.240 0.043269
105.38 634.09 undefined 617.62 654.05 2.3148 120.00 0.0083333 617.62 654.05 2.3148 2.1374 5.2803 172.46 0.17511 14.273 0.043201 120.00 0.0083333 617.62 654.05 2.3148 2.1374 5.2803 172.46 0.17511 14.273 0.043201
106.38 639.59 undefined 619.75 656.50 2.3205 120.00 0.0083333 619.75 656.50 2.3205 2.1353 5.1653 173.54 0.17242 14.306 0.043146 120.00 0.0083333 619.75 656.50 2.3205 2.1353 5.1653 173.54 0.17242 14.306 0.043146
107.38 645.07 undefined 621.89 658.95 2.3261 120.00 0.0083333 621.89 658.95 2.3261 2.1335 5.0590 174.60 0.16978 14.338 0.043104 120.00 0.0083333 621.89 658.95 2.3261 2.1335 5.0590 174.60 0.16978 14.338 0.043104
108.38 650.53 undefined 624.02 661.40 2.3317 120.00 0.0083333 624.02 661.40 2.3317 2.1320 4.9605 175.66 0.16721 14.371 0.043072 120.00 0.0083333 624.02 661.40 2.3317 2.1320 4.9605 175.66 0.16721 14.371 0.043072
109.38 655.98 undefined 626.15 663.84 2.3373 120.00 0.0083333 626.15 663.84 2.3373 2.1309 4.8688 176.72 0.16470 14.404 0.043051 120.00 0.0083333 626.15 663.84 2.3373 2.1309 4.8688 176.72 0.16470 14.404 0.043051
110.38 661.42 undefined 628.28 666.28 2.3428 120.00 0.0083333 628.28 666.28 2.3428 2.1300 4.7835 177.77 0.16225 14.437 0.043038 120.00 0.0083333 628.28 666.28 2.3428 2.1300 4.7835 177.77 0.16225 14.437 0.043038
111.38 666.84 undefined 630.41 668.73 2.3484 120.00 0.0083333 630.41 668.73 2.3484 2.1293 4.7037 178.81 0.15985 14.470 0.043034 120.00 0.0083333 630.41 668.73 2.3484 2.1293 4.7037 178.81 0.15985 14.470 0.043034
112.38 672.25 undefined 632.54 671.16 2.3539 120.00 0.0083333 632.54 671.16 2.3539 2.1288 4.6291 179.84 0.15751 14.503 0.043038 120.00 0.0083333 632.54 671.16 2.3539 2.1288 4.6291 179.84 0.15751 14.503 0.043038
113.38 677.65 undefined 634.67 673.60 2.3594 120.00 0.0083333 634.67 673.60 2.3594 2.1286 4.5591 180.87 0.15522 14.535 0.043049 120.00 0.0083333 634.67 673.60 2.3594 2.1286 4.5591 180.87 0.15522 14.535 0.043049
114.38 683.04 undefined 636.80 676.04 2.3649 120.00 0.0083333 636.80 676.04 2.3649 2.1285 4.4933 181.89 0.15299 14.568 0.043066 120.00 0.0083333 636.80 676.04 2.3649 2.1285 4.4933 181.89 0.15299 14.568 0.043066
115.38 688.42 undefined 638.93 678.48 2.3704 120.00 0.0083333 638.93 678.48 2.3704 2.1286 4.4314 182.91 0.15080 14.601 0.043090 120.00 0.0083333 638.93 678.48 2.3704 2.1286 4.4314 182.91 0.15080 14.601 0.043090
116.38 693.79 undefined 641.05 680.92 2.3759 120.00 0.0083333 641.05 680.92 2.3759 2.1288 4.3731 183.92 0.14866 14.633 0.043119 120.00 0.0083333 641.05 680.92 2.3759 2.1288 4.3731 183.92 0.14866 14.633 0.043119
117.38 699.14 undefined 643.18 683.35 2.3813 120.00 0.0083333 643.18 683.35 2.3813 2.1292 4.3181 184.93 0.14657 14.666 0.043154 120.00 0.0083333 643.18 683.35 2.3813 2.1292 4.3181 184.93 0.14657 14.666 0.043154
118.38 704.49 undefined 645.31 685.79 2.3868 120.00 0.0083333 645.31 685.79 2.3868 2.1298 4.2661 185.93 0.14453 14.698 0.043194 120.00 0.0083333 645.31 685.79 2.3868 2.1298 4.2661 185.93 0.14453 14.698 0.043194
119.38 709.82 undefined 647.44 688.23 2.3922 120.00 0.0083333 647.44 688.23 2.3922 2.1304 4.2170 186.93 0.14252 14.731 0.043238 120.00 0.0083333 647.44 688.23 2.3922 2.1304 4.2170 186.93 0.14252 14.731 0.043238
120.38 715.15 undefined 649.57 690.66 2.3976 120.00 0.0083333 649.57 690.66 2.3976 2.1312 4.1704 187.92 0.14057 14.763 0.043287 120.00 0.0083333 649.57 690.66 2.3976 2.1312 4.1704 187.92 0.14057 14.763 0.043287
121.38 720.47 undefined 651.71 693.10 2.4030 120.00 0.0083333 651.71 693.10 2.4030 2.1322 4.1262 188.91 0.13865 14.796 0.043340 120.00 0.0083333 651.71 693.10 2.4030 2.1322 4.1262 188.91 0.13865 14.796 0.043340
122.38 725.78 undefined 653.84 695.54 2.4084 120.00 0.0083333 653.84 695.54 2.4084 2.1332 4.0842 189.89 0.13677 14.828 0.043397 120.00 0.0083333 653.84 695.54 2.4084 2.1332 4.0842 189.89 0.13677 14.828 0.043397
123.38 731.08 undefined 655.97 697.98 2.4138 120.00 0.0083333 655.97 697.98 2.4138 2.1343 4.0444 190.86 0.13493 14.860 0.043458 120.00 0.0083333 655.97 697.98 2.4138 2.1343 4.0444 190.86 0.13493 14.860 0.043458
124.38 736.37 undefined 658.11 700.42 2.4192 120.00 0.0083333 658.11 700.42 2.4192 2.1356 4.0065 191.83 0.13313 14.892 0.043522 120.00 0.0083333 658.11 700.42 2.4192 2.1356 4.0065 191.83 0.13313 14.892 0.043522
125.38 741.65 undefined 660.24 702.86 2.4246 120.00 0.0083333 660.24 702.86 2.4246 2.1369 3.9704 192.80 0.13137 14.925 0.043590 120.00 0.0083333 660.24 702.86 2.4246 2.1369 3.9704 192.80 0.13137 14.925 0.043590
126.38 746.93 undefined 662.38 705.30 2.4299 120.00 0.0083333 662.38 705.30 2.4299 2.1383 3.9360 193.76 0.12964 14.957 0.043661 120.00 0.0083333 662.38 705.30 2.4299 2.1383 3.9360 193.76 0.12964 14.957 0.043661
127.38 752.20 undefined 664.52 707.74 2.4353 120.00 0.0083333 664.52 707.74 2.4353 2.1398 3.9032 194.72 0.12795 14.989 0.043734 120.00 0.0083333 664.52 707.74 2.4353 2.1398 3.9032 194.72 0.12795 14.989 0.043734
128.38 757.46 undefined 666.66 710.18 2.4406 120.00 0.0083333 666.66 710.18 2.4406 2.1414 3.8719 195.67 0.12630 15.021 0.043811 120.00 0.0083333 666.66 710.18 2.4406 2.1414 3.8719 195.67 0.12630 15.021 0.043811
129.38 762.72 undefined 668.80 712.63 2.4459 120.00 0.0083333 668.80 712.63 2.4459 2.1431 3.8420 196.62 0.12467 15.053 0.043890 120.00 0.0083333 668.80 712.63 2.4459 2.1431 3.8420 196.62 0.12467 15.053 0.043890
130.38 767.96 undefined 670.95 715.07 2.4513 120.00 0.0083333 670.95 715.07 2.4513 2.1448 3.8134 197.56 0.12308 15.085 0.043972 120.00 0.0083333 670.95 715.07 2.4513 2.1448 3.8134 197.56 0.12308 15.085 0.043972
131.38 773.20 undefined 673.09 717.52 2.4566 120.00 0.0083333 673.09 717.52 2.4566 2.1466 3.7861 198.50 0.12151 15.117 0.044056 120.00 0.0083333 673.09 717.52 2.4566 2.1466 3.7861 198.50 0.12151 15.117 0.044056
132.38 778.44 undefined 675.24 719.97 2.4619 120.00 0.0083333 675.24 719.97 2.4619 2.1485 3.7599 199.44 0.11998 15.149 0.044142 120.00 0.0083333 675.24 719.97 2.4619 2.1485 3.7599 199.44 0.11998 15.149 0.044142
133.38 783.66 undefined 677.39 722.42 2.4672 120.00 0.0083333 677.39 722.42 2.4672 2.1504 3.7348 200.37 0.11848 15.181 0.044231 120.00 0.0083333 677.39 722.42 2.4672 2.1504 3.7348 200.37 0.11848 15.181 0.044231
134.38 788.89 undefined 679.54 724.87 2.4725 120.00 0.0083333 679.54 724.87 2.4725 2.1524 3.7108 201.30 0.11701 15.213 0.044322 120.00 0.0083333 679.54 724.87 2.4725 2.1524 3.7108 201.30 0.11701 15.213 0.044322
135.38 794.10 undefined 681.69 727.32 2.4777 120.00 0.0083333 681.69 727.32 2.4777 2.1544 3.6878 202.22 0.11556 15.244 0.044415 120.00 0.0083333 681.69 727.32 2.4777 2.1544 3.6878 202.22 0.11556 15.244 0.044415
136.38 799.31 undefined 683.85 729.77 2.4830 120.00 0.0083333 683.85 729.77 2.4830 2.1565 3.6657 203.14 0.11414 15.276 0.044510 120.00 0.0083333 683.85 729.77 2.4830 2.1565 3.6657 203.14 0.11414 15.276 0.044510
137.38 804.51 undefined 686.01 732.23 2.4883 120.00 0.0083333 686.01 732.23 2.4883 2.1587 3.6445 204.05 0.11275 15.308 0.044607 120.00 0.0083333 686.01 732.23 2.4883 2.1587 3.6445 204.05 0.11275 15.308 0.044607
138.38 809.71 undefined 688.17 734.69 2.4935 120.00 0.0083333 688.17 734.69 2.4935 2.1609 3.6242 204.96 0.11138 15.339 0.044705 120.00 0.0083333 688.17 734.69 2.4935 2.1609 3.6242 204.96 0.11138 15.339 0.044705
139.38 814.90 undefined 690.33 737.15 2.4988 120.00 0.0083333 690.33 737.15 2.4988 2.1631 3.6046 205.87 0.11004 15.371 0.044806 120.00 0.0083333 690.33 737.15 2.4988 2.1631 3.6046 205.87 0.11004 15.371 0.044806
140.38 820.09 undefined 692.49 739.61 2.5040 120.00 0.0083333 692.49 739.61 2.5040 2.1654 3.5859 206.77 0.10873 15.403 0.044908 120.00 0.0083333 692.49 739.61 2.5040 2.1654 3.5859 206.77 0.10873 15.403 0.044908
141.38 825.27 undefined 694.66 742.08 2.5092 120.00 0.0083333 694.66 742.08 2.5092 2.1678 3.5678 207.67 0.10743 15.434 0.045011 120.00 0.0083333 694.66 742.08 2.5092 2.1678 3.5678 207.67 0.10743 15.434 0.045011
142.38 830.44 undefined 696.83 744.54 2.5145 120.00 0.0083333 696.83 744.54 2.5145 2.1701 3.5504 208.56 0.10616 15.466 0.045117 120.00 0.0083333 696.83 744.54 2.5145 2.1701 3.5504 208.56 0.10616 15.466 0.045117
143.38 835.61 undefined 699.00 747.01 2.5197 120.00 0.0083333 699.00 747.01 2.5197 2.1725 3.5337 209.45 0.10492 15.497 0.045223 120.00 0.0083333 699.00 747.01 2.5197 2.1725 3.5337 209.45 0.10492 15.497 0.045223
144.38 840.78 undefined 701.17 749.48 2.5249 120.00 0.0083333 701.17 749.48 2.5249 2.1750 3.5176 210.34 0.10369 15.529 0.045331 120.00 0.0083333 701.17 749.48 2.5249 2.1750 3.5176 210.34 0.10369 15.529 0.045331
145.38 845.93 undefined 703.35 751.95 2.5301 120.00 0.0083333 703.35 751.95 2.5301 2.1775 3.5021 211.22 0.10249 15.560 0.045441 120.00 0.0083333 703.35 751.95 2.5301 2.1775 3.5021 211.22 0.10249 15.560 0.045441
146.38 851.09 undefined 705.53 754.43 2.5353 120.00 0.0083333 705.53 754.43 2.5353 2.1800 3.4872 212.10 0.10131 15.591 0.045552 120.00 0.0083333 705.53 754.43 2.5353 2.1800 3.4872 212.10 0.10131 15.591 0.045552
147.38 856.24 undefined 707.71 756.91 2.5405 120.00 0.0083333 707.71 756.91 2.5405 2.1825 3.4728 212.98 0.10014 15.623 0.045664 120.00 0.0083333 707.71 756.91 2.5405 2.1825 3.4728 212.98 0.10014 15.623 0.045664
148.38 861.38 undefined 709.89 759.39 2.5457 120.00 0.0083333 709.89 759.39 2.5457 2.1851 3.4589 213.85 0.099003 15.654 0.045777 120.00 0.0083333 709.89 759.39 2.5457 2.1851 3.4589 213.85 0.099003 15.654 0.045777
149.38 866.52 undefined 712.08 761.87 2.5509 120.00 0.0083333 712.08 761.87 2.5509 2.1877 3.4456 214.72 0.097881 15.685 0.045892 120.00 0.0083333 712.08 761.87 2.5509 2.1877 3.4456 214.72 0.097881 15.685 0.045892
150.38 871.66 undefined 714.27 764.35 2.5560 120.00 0.0083333 714.27 764.35 2.5560 2.1903 3.4327 215.59 0.096778 15.716 0.046008 120.00 0.0083333 714.27 764.35 2.5560 2.1903 3.4327 215.59 0.096778 15.716 0.046008
151.38 876.79 undefined 716.46 766.84 2.5612 120.00 0.0083333 716.46 766.84 2.5612 2.1930 3.4203 216.45 0.095693 15.747 0.046125 120.00 0.0083333 716.46 766.84 2.5612 2.1930 3.4203 216.45 0.095693 15.747 0.046125
152.38 881.92 undefined 718.65 769.33 2.5664 120.00 0.0083333 718.65 769.33 2.5664 2.1957 3.4083 217.31 0.094627 15.779 0.046243 120.00 0.0083333 718.65 769.33 2.5664 2.1957 3.4083 217.31 0.094627 15.779 0.046243
153.38 887.04 undefined 720.85 771.82 2.5715 120.00 0.0083333 720.85 771.82 2.5715 2.1984 3.3967 218.16 0.093578 15.810 0.046362 120.00 0.0083333 720.85 771.82 2.5715 2.1984 3.3967 218.16 0.093578 15.810 0.046362
154.38 892.16 undefined 723.05 774.31 2.5767 120.00 0.0083333 723.05 774.31 2.5767 2.2011 3.3856 219.02 0.092547 15.841 0.046483 120.00 0.0083333 723.05 774.31 2.5767 2.2011 3.3856 219.02 0.092547 15.841 0.046483
155.38 897.27 undefined 725.25 776.81 2.5818 120.00 0.0083333 725.25 776.81 2.5818 2.2039 3.3748 219.86 0.091533 15.872 0.046604 120.00 0.0083333 725.25 776.81 2.5818 2.2039 3.3748 219.86 0.091533 15.872 0.046604
156.38 902.38 undefined 727.46 779.31 2.5870 120.00 0.0083333 727.46 779.31 2.5870 2.2066 3.3644 220.71 0.090535 15.903 0.046726 120.00 0.0083333 727.46 779.31 2.5870 2.2066 3.3644 220.71 0.090535 15.903 0.046726
157.38 907.49 undefined 729.67 781.81 2.5921 120.00 0.0083333 729.67 781.81 2.5921 2.2094 3.3543 221.55 0.089553 15.934 0.046850 120.00 0.0083333 729.67 781.81 2.5921 2.2094 3.3543 221.55 0.089553 15.934 0.046850
158.38 912.59 undefined 731.88 784.31 2.5972 120.00 0.0083333 731.88 784.31 2.5972 2.2122 3.3446 222.39 0.088588 15.964 0.046974 120.00 0.0083333 731.88 784.31 2.5972 2.2122 3.3446 222.39 0.088588 15.964 0.046974
159.38 917.69 undefined 734.09 786.82 2.6024 120.00 0.0083333 734.09 786.82 2.6024 2.2151 3.3353 223.23 0.087637 15.995 0.047099 120.00 0.0083333 734.09 786.82 2.6024 2.2151 3.3353 223.23 0.087637 15.995 0.047099
160.38 922.78 undefined 736.31 789.33 2.6075 120.00 0.0083333 736.31 789.33 2.6075 2.2179 3.3262 224.06 0.086702 16.026 0.047225 120.00 0.0083333 736.31 789.33 2.6075 2.2179 3.3262 224.06 0.086702 16.026 0.047225
161.38 927.87 undefined 738.53 791.84 2.6126 120.00 0.0083333 738.53 791.84 2.6126 2.2208 3.3175 224.89 0.085782 16.057 0.047352 120.00 0.0083333 738.53 791.84 2.6126 2.2208 3.3175 224.89 0.085782 16.057 0.047352
162.38 932.95 undefined 740.75 794.35 2.6177 120.00 0.0083333 740.75 794.35 2.6177 2.2237 3.3091 225.72 0.084876 16.088 0.047480 120.00 0.0083333 740.75 794.35 2.6177 2.2237 3.3091 225.72 0.084876 16.088 0.047480
163.38 938.04 undefined 742.98 796.87 2.6228 120.00 0.0083333 742.98 796.87 2.6228 2.2266 3.3009 226.54 0.083985 16.118 0.047608 120.00 0.0083333 742.98 796.87 2.6228 2.2266 3.3009 226.54 0.083985 16.118 0.047608
164.38 943.12 undefined 745.20 799.39 2.6279 120.00 0.0083333 745.20 799.39 2.6279 2.2295 3.2930 227.36 0.083107 16.149 0.047738 120.00 0.0083333 745.20 799.39 2.6279 2.2295 3.2930 227.36 0.083107 16.149 0.047738
165.38 948.19 undefined 747.43 801.91 2.6330 120.00 0.0083333 747.43 801.91 2.6330 2.2325 3.2854 228.18 0.082243 16.179 0.047868 120.00 0.0083333 747.43 801.91 2.6330 2.2325 3.2854 228.18 0.082243 16.179 0.047868
166.38 953.26 undefined 749.67 804.44 2.6381 120.00 0.0083333 749.67 804.44 2.6381 2.2354 3.2781 229.00 0.081392 16.210 0.047999 120.00 0.0083333 749.67 804.44 2.6381 2.2354 3.2781 229.00 0.081392 16.210 0.047999
167.38 958.33 undefined 751.90 806.97 2.6432 120.00 0.0083333 751.90 806.97 2.6432 2.2384 3.2710 229.81 0.080554 16.241 0.048131 120.00 0.0083333 751.90 806.97 2.6432 2.2384 3.2710 229.81 0.080554 16.241 0.048131
168.38 963.39 undefined 754.14 809.50 2.6482 120.00 0.0083333 754.14 809.50 2.6482 2.2413 3.2641 230.62 0.079729 16.271 0.048264 120.00 0.0083333 754.14 809.50 2.6482 2.2413 3.2641 230.62 0.079729 16.271 0.048264
169.38 968.45 undefined 756.39 812.03 2.6533 120.00 0.0083333 756.39 812.03 2.6533 2.2443 3.2575 231.43 0.078917 16.302 0.048397 120.00 0.0083333 756.39 812.03 2.6533 2.2443 3.2575 231.43 0.078917 16.302 0.048397
170.38 973.51 undefined 758.63 814.57 2.6584 120.00 0.0083333 758.63 814.57 2.6584 2.2473 3.2511 232.23 0.078116 16.332 0.048531 120.00 0.0083333 758.63 814.57 2.6584 2.2473 3.2511 232.23 0.078116 16.332 0.048531
171.38 978.56 undefined 760.88 817.11 2.6635 120.00 0.0083333 760.88 817.11 2.6635 2.2504 3.2449 233.03 0.077328 16.362 0.048666 120.00 0.0083333 760.88 817.11 2.6635 2.2504 3.2449 233.03 0.077328 16.362 0.048666
172.38 983.61 undefined 763.13 819.65 2.6685 120.00 0.0083333 763.13 819.65 2.6685 2.2534 3.2389 233.83 0.076551 16.393 0.048801 120.00 0.0083333 763.13 819.65 2.6685 2.2534 3.2389 233.83 0.076551 16.393 0.048801
173.38 988.66 undefined 765.39 822.19 2.6736 120.00 0.0083333 765.39 822.19 2.6736 2.2564 3.2331 234.63 0.075786 16.423 0.048937 120.00 0.0083333 765.39 822.19 2.6736 2.2564 3.2331 234.63 0.075786 16.423 0.048937
174.38 993.70 undefined 767.65 824.74 2.6786 120.00 0.0083333 767.65 824.74 2.6786 2.2595 3.2275 235.42 0.075032 16.453 0.049074 120.00 0.0083333 767.65 824.74 2.6786 2.2595 3.2275 235.42 0.075032 16.453 0.049074
175.38 998.75 undefined 769.91 827.29 2.6837 120.00 0.0083333 769.91 827.29 2.6837 2.2625 3.2222 236.21 0.074289 16.484 0.049212 120.00 0.0083333 769.91 827.29 2.6837 2.2625 3.2222 236.21 0.074289 16.484 0.049212
176.38 1003.8 undefined 772.17 829.85 2.6887 120.00 0.0083333 772.17 829.85 2.6887 2.2656 3.2170 237.00 0.073557 16.514 0.049350 120.00 0.0083333 772.17 829.85 2.6887 2.2656 3.2170 237.00 0.073557 16.514 0.049350
177.38 1008.8 undefined 774.44 832.40 2.6937 120.00 0.0083333 774.44 832.40 2.6937 2.2687 3.2119 237.78 0.072835 16.544 0.049488 120.00 0.0083333 774.44 832.40 2.6937 2.2687 3.2119 237.78 0.072835 16.544 0.049488
178.38 1013.8 undefined 776.71 834.96 2.6988 120.00 0.0083333 776.71 834.96 2.6988 2.2718 3.2071 238.56 0.072124 16.574 0.049628 120.00 0.0083333 776.71 834.96 2.6988 2.2718 3.2071 238.56 0.072124 16.574 0.049628
179.38 1018.9 undefined 778.98 837.52 2.7038 120.00 0.0083333 778.98 837.52 2.7038 2.2749 3.2024 239.34 0.071423 16.604 0.049768 120.00 0.0083333 778.98 837.52 2.7038 2.2749 3.2024 239.34 0.071423 16.604 0.049768
180.38 1023.9 undefined 781.26 840.09 2.7088 120.00 0.0083333 781.26 840.09 2.7088 2.2780 3.1979 240.12 0.070732 16.634 0.049908 120.00 0.0083333 781.26 840.09 2.7088 2.2780 3.1979 240.12 0.070732 16.634 0.049908
181.38 1028.9 undefined 783.54 842.66 2.7139 120.00 0.0083333 783.54 842.66 2.7139 2.2811 3.1936 240.90 0.070051 16.664 0.050050 120.00 0.0083333 783.54 842.66 2.7139 2.2811 3.1936 240.90 0.070051 16.664 0.050050
182.38 1033.9 undefined 785.82 845.23 2.7189 120.00 0.0083333 785.82 845.23 2.7189 2.2842 3.1894 241.67 0.069379 16.694 0.050191 120.00 0.0083333 785.82 845.23 2.7189 2.2842 3.1894 241.67 0.069379 16.694 0.050191
183.38 1039.0 undefined 788.11 847.80 2.7239 120.00 0.0083333 788.11 847.80 2.7239 2.2874 3.1853 242.44 0.068717 16.724 0.050334 120.00 0.0083333 788.11 847.80 2.7239 2.2874 3.1853 242.44 0.068717 16.724 0.050334
184.38 1044.0 undefined 790.40 850.38 2.7289 120.00 0.0083333 790.40 850.38 2.7289 2.2905 3.1814 243.21 0.068064 16.754 0.050477 120.00 0.0083333 790.40 850.38 2.7289 2.2905 3.1814 243.21 0.068064 16.754 0.050477
185.38 1049.0 undefined 792.69 852.96 2.7339 120.00 0.0083333 792.69 852.96 2.7339 2.2937 3.1777 243.97 0.067420 16.784 0.050620 120.00 0.0083333 792.69 852.96 2.7339 2.2937 3.1777 243.97 0.067420 16.784 0.050620
186.38 1054.0 undefined 794.98 855.54 2.7389 120.00 0.0083333 794.98 855.54 2.7389 2.2968 3.1740 244.73 0.066784 16.814 0.050764 120.00 0.0083333 794.98 855.54 2.7389 2.2968 3.1740 244.73 0.066784 16.814 0.050764
187.38 1059.0 undefined 797.28 858.13 2.7439 120.00 0.0083333 797.28 858.13 2.7439 2.3000 3.1706 245.49 0.066158 16.844 0.050909 120.00 0.0083333 797.28 858.13 2.7439 2.3000 3.1706 245.49 0.066158 16.844 0.050909
188.38 1064.0 undefined 799.58 860.72 2.7489 120.00 0.0083333 799.58 860.72 2.7489 2.3032 3.1672 246.25 0.065540 16.873 0.051054 120.00 0.0083333 799.58 860.72 2.7489 2.3032 3.1672 246.25 0.065540 16.873 0.051054
189.38 1069.0 undefined 801.89 863.31 2.7539 120.00 0.0083333 801.89 863.31 2.7539 2.3064 3.1640 247.01 0.064931 16.903 0.051199 120.00 0.0083333 801.89 863.31 2.7539 2.3064 3.1640 247.01 0.064931 16.903 0.051199
190.38 1074.0 undefined 804.20 865.90 2.7589 120.00 0.0083333 804.20 865.90 2.7589 2.3096 3.1609 247.76 0.064330 16.933 0.051345 120.00 0.0083333 804.20 865.90 2.7589 2.3096 3.1609 247.76 0.064330 16.933 0.051345
191.38 1079.0 undefined 806.51 868.50 2.7638 120.00 0.0083333 806.51 868.50 2.7638 2.3128 3.1579 248.51 0.063736 16.962 0.051492 120.00 0.0083333 806.51 868.50 2.7638 2.3128 3.1579 248.51 0.063736 16.962 0.051492
192.38 1084.0 undefined 808.82 871.10 2.7688 120.00 0.0083333 808.82 871.10 2.7688 2.3160 3.1550 249.26 0.063151 16.992 0.051639 120.00 0.0083333 808.82 871.10 2.7688 2.3160 3.1550 249.26 0.063151 16.992 0.051639
193.38 1089.0 undefined 811.14 873.71 2.7738 120.00 0.0083333 811.14 873.71 2.7738 2.3192 3.1523 250.01 0.062574 17.022 0.051787 120.00 0.0083333 811.14 873.71 2.7738 2.3192 3.1523 250.01 0.062574 17.022 0.051787
194.38 1094.0 undefined 813.46 876.31 2.7788 120.00 0.0083333 813.46 876.31 2.7788 2.3224 3.1496 250.75 0.062004 17.051 0.051935 120.00 0.0083333 813.46 876.31 2.7788 2.3224 3.1496 250.75 0.062004 17.051 0.051935
195.38 1098.9 undefined 815.78 878.93 2.7837 120.00 0.0083333 815.78 878.93 2.7837 2.3256 3.1471 251.49 0.061442 17.081 0.052083 120.00 0.0083333 815.78 878.93 2.7837 2.3256 3.1471 251.49 0.061442 17.081 0.052083
196.38 1103.9 undefined 818.11 881.54 2.7887 120.00 0.0083333 818.11 881.54 2.7887 2.3288 3.1447 252.23 0.060887 17.110 0.052233 120.00 0.0083333 818.11 881.54 2.7887 2.3288 3.1447 252.23 0.060887 17.110 0.052233
197.38 1108.9 undefined 820.44 884.16 2.7936 120.00 0.0083333 820.44 884.16 2.7936 2.3321 3.1424 252.97 0.060340 17.140 0.052382 120.00 0.0083333 820.44 884.16 2.7936 2.3321 3.1424 252.97 0.060340 17.140 0.052382
198.38 1113.9 undefined 822.78 886.77 2.7986 120.00 0.0083333 822.78 886.77 2.7986 2.3353 3.1401 253.71 0.059799 17.169 0.052532 120.00 0.0083333 822.78 886.77 2.7986 2.3353 3.1401 253.71 0.059799 17.169 0.052532
199.38 1118.8 undefined 825.11 889.40 2.8035 120.00 0.0083333 825.11 889.40 2.8035 2.3385 3.1380 254.44 0.059266 17.198 0.052683 120.00 0.0083333 825.11 889.40 2.8035 2.3385 3.1380 254.44 0.059266 17.198 0.052683
200.38 1123.8 undefined 827.45 892.02 2.8085 120.00 0.0083333 827.45 892.02 2.8085 2.3418 3.1360 255.17 0.058739 17.228 0.052834 120.00 0.0083333 827.45 892.02 2.8085 2.3418 3.1360 255.17 0.058739 17.228 0.052834
201.38 1128.8 undefined 829.80 894.65 2.8134 120.00 0.0083333 829.80 894.65 2.8134 2.3450 3.1340 255.90 0.058219 17.257 0.052985 120.00 0.0083333 829.80 894.65 2.8134 2.3450 3.1340 255.90 0.058219 17.257 0.052985
202.38 1133.8 undefined 832.14 897.28 2.8184 120.00 0.0083333 832.14 897.28 2.8184 2.3483 3.1322 256.63 0.057706 17.286 0.053137 120.00 0.0083333 832.14 897.28 2.8184 2.3483 3.1322 256.63 0.057706 17.286 0.053137
203.38 1138.7 undefined 834.49 899.92 2.8233 120.00 0.0083333 834.49 899.92 2.8233 2.3515 3.1304 257.35 0.057200 17.316 0.053289 120.00 0.0083333 834.49 899.92 2.8233 2.3515 3.1304 257.35 0.057200 17.316 0.053289
204.38 1143.7 undefined 836.85 902.56 2.8282 120.00 0.0083333 836.85 902.56 2.8282 2.3548 3.1288 258.07 0.056699 17.345 0.053442 120.00 0.0083333 836.85 902.56 2.8282 2.3548 3.1288 258.07 0.056699 17.345 0.053442
205.38 1148.6 undefined 839.20 905.20 2.8332 120.00 0.0083333 839.20 905.20 2.8332 2.3581 3.1272 258.79 0.056206 17.374 0.053595 120.00 0.0083333 839.20 905.20 2.8332 2.3581 3.1272 258.79 0.056206 17.374 0.053595
206.38 1153.6 undefined 841.56 907.84 2.8381 120.00 0.0083333 841.56 907.84 2.8381 2.3614 3.1257 259.51 0.055718 17.403 0.053749 120.00 0.0083333 841.56 907.84 2.8381 2.3614 3.1257 259.51 0.055718 17.403 0.053749
207.38 1158.6 undefined 843.93 910.49 2.8430 120.00 0.0083333 843.93 910.49 2.8430 2.3646 3.1242 260.23 0.055236 17.432 0.053903 120.00 0.0083333 843.93 910.49 2.8430 2.3646 3.1242 260.23 0.055236 17.432 0.053903
208.38 1163.5 undefined 846.29 913.14 2.8479 120.00 0.0083333 846.29 913.14 2.8479 2.3679 3.1229 260.94 0.054761 17.461 0.054057 120.00 0.0083333 846.29 913.14 2.8479 2.3679 3.1229 260.94 0.054761 17.461 0.054057
209.38 1168.5 undefined 848.66 915.80 2.8529 120.00 0.0083333 848.66 915.80 2.8529 2.3712 3.1216 261.66 0.054291 17.490 0.054212 120.00 0.0083333 848.66 915.80 2.8529 2.3712 3.1216 261.66 0.054291 17.490 0.054212
210.38 1173.4 undefined 851.03 918.45 2.8578 120.00 0.0083333 851.03 918.45 2.8578 2.3745 3.1204 262.37 0.053827 17.519 0.054368 120.00 0.0083333 851.03 918.45 2.8578 2.3745 3.1204 262.37 0.053827 17.519 0.054368
211.38 1178.4 undefined 853.41 921.11 2.8627 120.00 0.0083333 853.41 921.11 2.8627 2.3778 3.1193 263.08 0.053369 17.548 0.054523 120.00 0.0083333 853.41 921.11 2.8627 2.3778 3.1193 263.08 0.053369 17.548 0.054523
212.38 1183.3 undefined 855.79 923.78 2.8676 120.00 0.0083333 855.79 923.78 2.8676 2.3811 3.1183 263.78 0.052916 17.577 0.054679 120.00 0.0083333 855.79 923.78 2.8676 2.3811 3.1183 263.78 0.052916 17.577 0.054679
213.38 1188.2 undefined 858.17 926.44 2.8725 120.00 0.0083333 858.17 926.44 2.8725 2.3844 3.1173 264.49 0.052469 17.606 0.054836 120.00 0.0083333 858.17 926.44 2.8725 2.3844 3.1173 264.49 0.052469 17.606 0.054836
214.38 1193.2 undefined 860.56 929.11 2.8774 120.00 0.0083333 860.56 929.11 2.8774 2.3877 3.1164 265.19 0.052027 17.635 0.054993 120.00 0.0083333 860.56 929.11 2.8774 2.3877 3.1164 265.19 0.052027 17.635 0.054993
215.38 1198.1 undefined 862.95 931.79 2.8823 120.00 0.0083333 862.95 931.79 2.8823 2.3910 3.1155 265.89 0.051591 17.664 0.055150 120.00 0.0083333 862.95 931.79 2.8823 2.3910 3.1155 265.89 0.051591 17.664 0.055150
216.38 1203.1 undefined 865.34 934.46 2.8872 120.00 0.0083333 865.34 934.46 2.8872 2.3943 3.1147 266.59 0.051160 17.693 0.055308 120.00 0.0083333 865.34 934.46 2.8872 2.3943 3.1147 266.59 0.051160 17.693 0.055308
217.38 1208.0 undefined 867.74 937.14 2.8921 120.00 0.0083333 867.74 937.14 2.8921 2.3976 3.1140 267.29 0.050734 17.721 0.055466 120.00 0.0083333 867.74 937.14 2.8921 2.3976 3.1140 267.29 0.050734 17.721 0.055466
218.38 1212.9 undefined 870.14 939.83 2.8970 120.00 0.0083333 870.14 939.83 2.8970 2.4009 3.1134 267.98 0.050313 17.750 0.055624 120.00 0.0083333 870.14 939.83 2.8970 2.4009 3.1134 267.98 0.050313 17.750 0.055624
219.38 1217.8 undefined 872.54 942.51 2.9018 120.00 0.0083333 872.54 942.51 2.9018 2.4042 3.1128 268.68 0.049897 17.779 0.055783 120.00 0.0083333 872.54 942.51 2.9018 2.4042 3.1128 268.68 0.049897 17.779 0.055783
220.38 1222.8 undefined 874.94 945.20 2.9067 120.00 0.0083333 874.94 945.20 2.9067 2.4076 3.1122 269.37 0.049486 17.807 0.055942 120.00 0.0083333 874.94 945.20 2.9067 2.4076 3.1122 269.37 0.049486 17.807 0.055942
221.38 1227.7 undefined 877.35 947.89 2.9116 120.00 0.0083333 877.35 947.89 2.9116 2.4109 3.1118 270.06 0.049080 17.836 0.056102 120.00 0.0083333 877.35 947.89 2.9116 2.4109 3.1118 270.06 0.049080 17.836 0.056102
222.38 1232.6 undefined 879.77 950.59 2.9165 120.00 0.0083333 879.77 950.59 2.9165 2.4142 3.1113 270.75 0.048679 17.865 0.056262 120.00 0.0083333 879.77 950.59 2.9165 2.4142 3.1113 270.75 0.048679 17.865 0.056262
223.38 1237.6 undefined 882.18 953.29 2.9213 120.00 0.0083333 882.18 953.29 2.9213 2.4175 3.1110 271.43 0.048282 17.893 0.056422 120.00 0.0083333 882.18 953.29 2.9213 2.4175 3.1110 271.43 0.048282 17.893 0.056422
224.38 1242.5 undefined 884.60 955.99 2.9262 120.00 0.0083333 884.60 955.99 2.9262 2.4208 3.1107 272.12 0.047890 17.922 0.056583 120.00 0.0083333 884.60 955.99 2.9262 2.4208 3.1107 272.12 0.047890 17.922 0.056583
225.38 1247.4 undefined 887.02 958.69 2.9311 120.00 0.0083333 887.02 958.69 2.9311 2.4242 3.1104 272.80 0.047502 17.950 0.056744 120.00 0.0083333 887.02 958.69 2.9311 2.4242 3.1104 272.80 0.047502 17.950 0.056744
226.38 1252.3 undefined 889.45 961.40 2.9359 120.00 0.0083333 889.45 961.40 2.9359 2.4275 3.1102 273.48 0.047119 17.979 0.056905 120.00 0.0083333 889.45 961.40 2.9359 2.4275 3.1102 273.48 0.047119 17.979 0.056905
227.38 1257.2 undefined 891.88 964.11 2.9408 120.00 0.0083333 891.88 964.11 2.9408 2.4308 3.1101 274.16 0.046741 18.007 0.057067 120.00 0.0083333 891.88 964.11 2.9408 2.4308 3.1101 274.16 0.046741 18.007 0.057067
228.38 1262.1 undefined 894.31 966.83 2.9456 120.00 0.0083333 894.31 966.83 2.9456 2.4342 3.1100 274.84 0.046366 18.035 0.057229 120.00 0.0083333 894.31 966.83 2.9456 2.4342 3.1100 274.84 0.046366 18.035 0.057229
229.38 1267.0 undefined 896.75 969.55 2.9505 120.00 0.0083333 896.75 969.55 2.9505 2.4375 3.1099 275.52 0.045996 18.064 0.057391 120.00 0.0083333 896.75 969.55 2.9505 2.4375 3.1099 275.52 0.045996 18.064 0.057391
230.38 1272.0 undefined 899.19 972.27 2.9553 120.00 0.0083333 899.19 972.27 2.9553 2.4409 3.1099 276.19 0.045630 18.092 0.057554 120.00 0.0083333 899.19 972.27 2.9553 2.4409 3.1099 276.19 0.045630 18.092 0.057554
231.38 1276.9 undefined 901.63 974.99 2.9602 120.00 0.0083333 901.63 974.99 2.9602 2.4442 3.1099 276.86 0.045269 18.120 0.057717 120.00 0.0083333 901.63 974.99 2.9602 2.4442 3.1099 276.86 0.045269 18.120 0.057717
232.38 1281.8 undefined 904.07 977.72 2.9650 120.00 0.0083333 904.07 977.72 2.9650 2.4475 3.1100 277.53 0.044911 18.149 0.057881 120.00 0.0083333 904.07 977.72 2.9650 2.4475 3.1100 277.53 0.044911 18.149 0.057881
233.38 1286.7 undefined 906.52 980.45 2.9699 120.00 0.0083333 906.52 980.45 2.9699 2.4509 3.1102 278.20 0.044557 18.177 0.058044 120.00 0.0083333 906.52 980.45 2.9699 2.4509 3.1102 278.20 0.044557 18.177 0.058044
234.38 1291.6 undefined 908.98 983.19 2.9747 120.00 0.0083333 908.98 983.19 2.9747 2.4542 3.1103 278.87 0.044207 18.205 0.058209 120.00 0.0083333 908.98 983.19 2.9747 2.4542 3.1103 278.87 0.044207 18.205 0.058209
235.38 1296.5 undefined 911.43 985.92 2.9795 120.00 0.0083333 911.43 985.92 2.9795 2.4576 3.1106 279.54 0.043862 18.233 0.058373 120.00 0.0083333 911.43 985.92 2.9795 2.4576 3.1106 279.54 0.043862 18.233 0.058373
236.38 1301.4 undefined 913.89 988.66 2.9844 120.00 0.0083333 913.89 988.66 2.9844 2.4609 3.1108 280.20 0.043520 18.261 0.058538 120.00 0.0083333 913.89 988.66 2.9844 2.4609 3.1108 280.20 0.043520 18.261 0.058538
237.38 1306.3 undefined 916.35 991.41 2.9892 120.00 0.0083333 916.35 991.41 2.9892 2.4643 3.1111 280.86 0.043181 18.289 0.058703 120.00 0.0083333 916.35 991.41 2.9892 2.4643 3.1111 280.86 0.043181 18.289 0.058703
238.38 1311.2 undefined 918.82 994.15 2.9940 120.00 0.0083333 918.82 994.15 2.9940 2.4676 3.1115 281.52 0.042847 18.317 0.058868 120.00 0.0083333 918.82 994.15 2.9940 2.4676 3.1115 281.52 0.042847 18.317 0.058868
239.38 1316.1 undefined 921.29 996.91 2.9989 120.00 0.0083333 921.29 996.91 2.9989 2.4710 3.1118 282.18 0.042516 18.345 0.059034 120.00 0.0083333 921.29 996.91 2.9989 2.4710 3.1118 282.18 0.042516 18.345 0.059034
240.38 1321.0 undefined 923.76 999.66 3.0037 120.00 0.0083333 923.76 999.66 3.0037 2.4743 3.1123 282.84 0.042189 18.373 0.059200 120.00 0.0083333 923.76 999.66 3.0037 2.4743 3.1123 282.84 0.042189 18.373 0.059200
241.38 1325.9 undefined 926.24 1002.4 3.0085 120.00 0.0083333 926.24 1002.4 3.0085 2.4777 3.1127 283.50 0.041865 18.401 0.059366 120.00 0.0083333 926.24 1002.4 3.0085 2.4777 3.1127 283.50 0.041865 18.401 0.059366
242.38 1330.7 undefined 928.72 1005.2 3.0133 120.00 0.0083333 928.72 1005.2 3.0133 2.4810 3.1132 284.15 0.041545 18.429 0.059532 120.00 0.0083333 928.72 1005.2 3.0133 2.4810 3.1132 284.15 0.041545 18.429 0.059532
243.38 1335.6 undefined 931.20 1007.9 3.0181 120.00 0.0083333 931.20 1007.9 3.0181 2.4844 3.1138 284.81 0.041229 18.457 0.059699 120.00 0.0083333 931.20 1007.9 3.0181 2.4844 3.1138 284.81 0.041229 18.457 0.059699
244.38 1340.5 undefined 933.69 1010.7 3.0229 120.00 0.0083333 933.69 1010.7 3.0229 2.4877 3.1143 285.46 0.040915 18.485 0.059866 120.00 0.0083333 933.69 1010.7 3.0229 2.4877 3.1143 285.46 0.040915 18.485 0.059866
245.38 1345.4 undefined 936.17 1013.5 3.0277 120.00 0.0083333 936.17 1013.5 3.0277 2.4911 3.1149 286.11 0.040605 18.513 0.060034 120.00 0.0083333 936.17 1013.5 3.0277 2.4911 3.1149 286.11 0.040605 18.513 0.060034
246.38 1350.3 undefined 938.67 1016.2 3.0325 120.00 0.0083333 938.67 1016.2 3.0325 2.4944 3.1156 286.76 0.040299 18.541 0.060202 120.00 0.0083333 938.67 1016.2 3.0325 2.4944 3.1156 286.76 0.040299 18.541 0.060202
247.38 1355.2 undefined 941.16 1019.0 3.0373 120.00 0.0083333 941.16 1019.0 3.0373 2.4978 3.1162 287.40 0.039995 18.568 0.060369 120.00 0.0083333 941.16 1019.0 3.0373 2.4978 3.1162 287.40 0.039995 18.568 0.060369
248.38 1360.1 undefined 943.66 1021.8 3.0421 120.00 0.0083333 943.66 1021.8 3.0421 2.5011 3.1170 288.05 0.039695 18.596 0.060538 120.00 0.0083333 943.66 1021.8 3.0421 2.5011 3.1170 288.05 0.039695 18.596 0.060538
249.38 1364.9 undefined 946.17 1024.6 3.0469 120.00 0.0083333 946.17 1024.6 3.0469 2.5045 3.1177 288.69 0.039398 18.624 0.060706 120.00 0.0083333 946.17 1024.6 3.0469 2.5045 3.1177 288.69 0.039398 18.624 0.060706
250.38 1369.8 undefined 948.67 1027.4 3.0517 120.00 0.0083333 948.67 1027.4 3.0517 2.5078 3.1185 289.34 0.039104 18.652 0.060875 120.00 0.0083333 948.67 1027.4 3.0517 2.5078 3.1185 289.34 0.039104 18.652 0.060875
251.38 1374.7 undefined 951.18 1030.2 3.0565 120.00 0.0083333 951.18 1030.2 3.0565 2.5112 3.1193 289.98 0.038814 18.679 0.061044 120.00 0.0083333 951.18 1030.2 3.0565 2.5112 3.1193 289.98 0.038814 18.679 0.061044
252.38 1379.6 undefined 953.69 1033.0 3.0613 120.00 0.0083333 953.69 1033.0 3.0613 2.5145 3.1201 290.62 0.038526 18.707 0.061213 120.00 0.0083333 953.69 1033.0 3.0613 2.5145 3.1201 290.62 0.038526 18.707 0.061213
253.38 1384.4 undefined 956.21 1035.8 3.0661 120.00 0.0083333 956.21 1035.8 3.0661 2.5179 3.1210 291.26 0.038241 18.734 0.061383 120.00 0.0083333 956.21 1035.8 3.0661 2.5179 3.1210 291.26 0.038241 18.734 0.061383
254.38 1389.3 undefined 958.73 1038.6 3.0709 120.00 0.0083333 958.73 1038.6 3.0709 2.5212 3.1218 291.89 0.037959 18.762 0.061552 120.00 0.0083333 958.73 1038.6 3.0709 2.5212 3.1218 291.89 0.037959 18.762 0.061552
255.38 1394.2 undefined 961.25 1041.4 3.0756 120.00 0.0083333 961.25 1041.4 3.0756 2.5246 3.1228 292.53 0.037680 18.789 0.061722 120.00 0.0083333 961.25 1041.4 3.0756 2.5246 3.1228 292.53 0.037680 18.789 0.061722
256.38 1399.0 undefined 963.78 1044.2 3.0804 120.00 0.0083333 963.78 1044.2 3.0804 2.5279 3.1237 293.16 0.037404 18.817 0.061892 120.00 0.0083333 963.78 1044.2 3.0804 2.5279 3.1237 293.16 0.037404 18.817 0.061892
257.38 1403.9 undefined 966.31 1047.0 3.0852 120.00 0.0083333 966.31 1047.0 3.0852 2.5313 3.1247 293.80 0.037131 18.844 0.062063 120.00 0.0083333 966.31 1047.0 3.0852 2.5313 3.1247 293.80 0.037131 18.844 0.062063
258.38 1408.8 undefined 968.84 1049.8 3.0900 120.00 0.0083333 968.84 1049.8 3.0900 2.5346 3.1257 294.43 0.036861 18.872 0.062233 120.00 0.0083333 968.84 1049.8 3.0900 2.5346 3.1257 294.43 0.036861 18.872 0.062233
259.38 1413.6 undefined 971.38 1052.6 3.0947 120.00 0.0083333 971.38 1052.6 3.0947 2.5380 3.1267 295.06 0.036593 18.899 0.062404 120.00 0.0083333 971.38 1052.6 3.0947 2.5380 3.1267 295.06 0.036593 18.899 0.062404
260.38 1418.5 undefined 973.92 1055.4 3.0995 120.00 0.0083333 973.92 1055.4 3.0995 2.5413 3.1278 295.69 0.036328 18.927 0.062575 120.00 0.0083333 973.92 1055.4 3.0995 2.5413 3.1278 295.69 0.036328 18.927 0.062575
261.38 1423.4 undefined 976.46 1058.2 3.1042 120.00 0.0083333 976.46 1058.2 3.1042 2.5447 3.1289 296.31 0.036066 18.954 0.062746 120.00 0.0083333 976.46 1058.2 3.1042 2.5447 3.1289 296.31 0.036066 18.954 0.062746
262.38 1428.2 undefined 979.01 1061.1 3.1090 120.00 0.0083333 979.01 1061.1 3.1090 2.5480 3.1300 296.94 0.035807 18.981 0.062917 120.00 0.0083333 979.01 1061.1 3.1090 2.5480 3.1300 296.94 0.035807 18.981 0.062917
263.38 1433.1 undefined 981.56 1063.9 3.1138 120.00 0.0083333 981.56 1063.9 3.1138 2.5514 3.1311 297.56 0.035550 19.008 0.063088 120.00 0.0083333 981.56 1063.9 3.1138 2.5514 3.1311 297.56 0.035550 19.008 0.063088
264.38 1438.0 undefined 984.11 1066.7 3.1185 120.00 0.0083333 984.11 1066.7 3.1185 2.5547 3.1322 298.19 0.035295 19.036 0.063259 120.00 0.0083333 984.11 1066.7 3.1185 2.5547 3.1322 298.19 0.035295 19.036 0.063259
265.38 1442.8 undefined 986.67 1069.6 3.1233 120.00 0.0083333 986.67 1069.6 3.1233 2.5581 3.1334 298.81 0.035043 19.063 0.063431 120.00 0.0083333 986.67 1069.6 3.1233 2.5581 3.1334 298.81 0.035043 19.063 0.063431
266.38 1447.7 undefined 989.23 1072.4 3.1280 120.00 0.0083333 989.23 1072.4 3.1280 2.5614 3.1346 299.43 0.034794 19.090 0.063602 120.00 0.0083333 989.23 1072.4 3.1280 2.5614 3.1346 299.43 0.034794 19.090 0.063602
267.38 1452.5 undefined 991.79 1075.2 3.1328 120.00 0.0083333 991.79 1075.2 3.1328 2.5648 3.1358 300.05 0.034547 19.117 0.063773 120.00 0.0083333 991.79 1075.2 3.1328 2.5648 3.1358 300.05 0.034547 19.117 0.063773
268.38 1457.4 undefined 994.36 1078.1 3.1375 120.00 0.0083333 994.36 1078.1 3.1375 2.5681 3.1371 300.66 0.034302 19.144 0.063945 120.00 0.0083333 994.36 1078.1 3.1375 2.5681 3.1371 300.66 0.034302 19.144 0.063945
269.38 1462.2 undefined 996.93 1080.9 3.1422 120.00 0.0083333 996.93 1080.9 3.1422 2.5714 3.1384 301.28 0.034060 19.171 0.064116 120.00 0.0083333 996.93 1080.9 3.1422 2.5714 3.1384 301.28 0.034060 19.171 0.064116
270.38 1467.1 undefined 999.50 1083.8 3.1470 120.00 0.0083333 999.50 1083.8 3.1470 2.5748 3.1397 301.90 0.033821 19.198 0.064287 120.00 0.0083333 999.50 1083.8 3.1470 2.5748 3.1397 301.90 0.033821 19.198 0.064287
271.38 1471.9 undefined 1002.1 1086.6 3.1517 120.00 0.0083333 1002.1 1086.6 3.1517 2.5781 3.1410 302.51 0.033583 19.225 0.064459 120.00 0.0083333 1002.1 1086.6 3.1517 2.5781 3.1410 302.51 0.033583 19.225 0.064459
272.38 1476.8 undefined 1004.7 1089.5 3.1565 120.00 0.0083333 1004.7 1089.5 3.1565 2.5815 3.1423 303.12 0.033348 19.252 0.064629 120.00 0.0083333 1004.7 1089.5 3.1565 2.5815 3.1423 303.12 0.033348 19.252 0.064629
273.38 1481.6 undefined 1007.2 1092.4 3.1612 120.00 0.0083333 1007.2 1092.4 3.1612 2.5848 3.1436 303.73 0.033116 19.279 0.064800 120.00 0.0083333 1007.2 1092.4 3.1612 2.5848 3.1436 303.73 0.033116 19.279 0.064800
274.38 1486.5 undefined 1009.8 1095.2 3.1659 120.00 0.0083333 1009.8 1095.2 3.1659 2.5881 3.1450 304.34 0.032885 19.306 0.064970 120.00 0.0083333 1009.8 1095.2 3.1659 2.5881 3.1450 304.34 0.032885 19.306 0.064970
275.38 1491.3 undefined 1012.4 1098.1 3.1706 120.00 0.0083333 1012.4 1098.1 3.1706 2.5915 3.1464 304.95 0.032657 19.333 0.065139 120.00 0.0083333 1012.4 1098.1 3.1706 2.5915 3.1464 304.95 0.032657 19.333 0.065139
276.38 1496.2 undefined 1015.0 1101.0 3.1754 120.00 0.0083333 1015.0 1101.0 3.1754 2.5948 3.1478 305.56 0.032431 19.360 0.065307 120.00 0.0083333 1015.0 1101.0 3.1754 2.5948 3.1478 305.56 0.032431 19.360 0.065307
277.38 1501.0 undefined 1017.6 1103.8 3.1801 120.00 0.0083333 1017.6 1103.8 3.1801 2.5981 3.1492 306.17 0.032207 19.387 0.065474 120.00 0.0083333 1017.6 1103.8 3.1801 2.5981 3.1492 306.17 0.032207 19.387 0.065474
278.38 1505.8 undefined 1020.2 1106.7 3.1848 120.00 0.0083333 1020.2 1106.7 3.1848 2.6015 3.1507 306.77 0.031985 19.413 0.065638 120.00 0.0083333 1020.2 1106.7 3.1848 2.6015 3.1507 306.77 0.031985 19.413 0.065638
279.38 1510.7 undefined 1022.8 1109.6 3.1895 120.00 0.0083333 1022.8 1109.6 3.1895 2.6048 3.1522 307.37 0.031765 19.440 0.065800 120.00 0.0083333 1022.8 1109.6 3.1895 2.6048 3.1522 307.37 0.031765 19.440 0.065800
280.38 1515.5 undefined 1025.4 1112.5 3.1942 120.00 0.0083333 1025.4 1112.5 3.1942 2.6081 3.1536 307.98 0.031548 19.467 0.065955 120.00 0.0083333 1025.4 1112.5 3.1942 2.6081 3.1536 307.98 0.031548 19.467 0.065955
281.38 1520.4 undefined 1028.0 1115.4 3.1989 120.00 0.0083333 1028.0 1115.4 3.1989 2.6115 3.1551 308.58 0.031332 19.494 0.066089 120.00 0.0083333 1028.0 1115.4 3.1989 2.6115 3.1551 308.58 0.031332 19.494 0.066089
282.38 1525.2 undefined 1030.6 1118.3 3.2036 120.00 0.0083333 1030.6 1118.3 3.2036 2.6148 3.1567 309.18 0.031118 19.520 0.066241 120.00 0.0083333 1030.6 1118.3 3.2036 2.6148 3.1567 309.18 0.031118 19.520 0.066241
283.38 1530.0 undefined 1033.3 1121.2 3.2084 120.00 0.0083333 1033.3 1121.2 3.2084 2.6181 3.1582 309.78 0.030907 19.547 0.066429 120.00 0.0083333 1033.3 1121.2 3.2084 2.6181 3.1582 309.78 0.030907 19.547 0.066429
284.38 1534.9 undefined 1035.9 1124.1 3.2131 120.00 0.0083333 1035.9 1124.1 3.2131 2.6214 3.1597 310.37 0.030697 19.574 0.066617 120.00 0.0083333 1035.9 1124.1 3.2131 2.6214 3.1597 310.37 0.030697 19.574 0.066617
285.38 1539.7 undefined 1038.5 1127.0 3.2178 120.00 0.0083333 1038.5 1127.0 3.2178 2.6247 3.1613 310.97 0.030490 19.600 0.066806 120.00 0.0083333 1038.5 1127.0 3.2178 2.6247 3.1613 310.97 0.030490 19.600 0.066806
286.38 1544.5 undefined 1041.1 1129.9 3.2225 120.00 0.0083333 1041.1 1129.9 3.2225 2.6281 3.1629 311.57 0.030284 19.627 0.066995 120.00 0.0083333 1041.1 1129.9 3.2225 2.6281 3.1629 311.57 0.030284 19.627 0.066995
287.38 1549.4 undefined 1043.8 1132.8 3.2272 120.00 0.0083333 1043.8 1132.8 3.2272 2.6314 3.1645 312.16 0.030080 19.653 0.067185 120.00 0.0083333 1043.8 1132.8 3.2272 2.6314 3.1645 312.16 0.030080 19.653 0.067185
288.38 1554.2 undefined 1046.4 1135.7 3.2318 120.00 0.0083333 1046.4 1135.7 3.2318 2.6347 3.1661 312.75 0.029879 19.680 0.067374 120.00 0.0083333 1046.4 1135.7 3.2318 2.6347 3.1661 312.75 0.029879 19.680 0.067374
289.38 1559.0 undefined 1049.0 1138.6 3.2365 120.00 0.0083333 1049.0 1138.6 3.2365 2.6380 3.1677 313.34 0.029678 19.706 0.067564 120.00 0.0083333 1049.0 1138.6 3.2365 2.6380 3.1677 313.34 0.029678 19.706 0.067564
290.38 1563.9 undefined 1051.7 1141.5 3.2412 120.00 0.0083333 1051.7 1141.5 3.2412 2.6413 3.1694 313.94 0.029480 19.733 0.067755 120.00 0.0083333 1051.7 1141.5 3.2412 2.6413 3.1694 313.94 0.029480 19.733 0.067755
291.38 1568.7 undefined 1054.3 1144.4 3.2459 120.00 0.0083333 1054.3 1144.4 3.2459 2.6446 3.1710 314.52 0.029284 19.759 0.067945 120.00 0.0083333 1054.3 1144.4 3.2459 2.6446 3.1710 314.52 0.029284 19.759 0.067945
292.38 1573.5 undefined 1056.9 1147.4 3.2506 120.00 0.0083333 1056.9 1147.4 3.2506 2.6479 3.1727 315.11 0.029089 19.785 0.068136 120.00 0.0083333 1056.9 1147.4 3.2506 2.6479 3.1727 315.11 0.029089 19.785 0.068136
293.38 1578.3 undefined 1059.6 1150.3 3.2553 120.00 0.0083333 1059.6 1150.3 3.2553 2.6512 3.1744 315.70 0.028897 19.812 0.068327 120.00 0.0083333 1059.6 1150.3 3.2553 2.6512 3.1744 315.70 0.028897 19.812 0.068327
294.38 1583.2 undefined 1062.3 1153.2 3.2600 120.00 0.0083333 1062.3 1153.2 3.2600 2.6545 3.1761 316.29 0.028705 19.838 0.068519 120.00 0.0083333 1062.3 1153.2 3.2600 2.6545 3.1761 316.29 0.028705 19.838 0.068519
295.38 1588.0 undefined 1064.9 1156.1 3.2646 120.00 0.0083333 1064.9 1156.1 3.2646 2.6578 3.1778 316.87 0.028516 19.864 0.068711 120.00 0.0083333 1064.9 1156.1 3.2646 2.6578 3.1778 316.87 0.028516 19.864 0.068711
296.38 1592.8 undefined 1067.6 1159.1 3.2693 120.00 0.0083333 1067.6 1159.1 3.2693 2.6611 3.1795 317.45 0.028328 19.890 0.068903 120.00 0.0083333 1067.6 1159.1 3.2693 2.6611 3.1795 317.45 0.028328 19.890 0.068903
297.38 1597.6 undefined 1070.2 1162.0 3.2740 120.00 0.0083333 1070.2 1162.0 3.2740 2.6644 3.1813 318.04 0.028142 19.917 0.069095 120.00 0.0083333 1070.2 1162.0 3.2740 2.6644 3.1813 318.04 0.028142 19.917 0.069095
298.38 1602.5 undefined 1072.9 1165.0 3.2786 120.00 0.0083333 1072.9 1165.0 3.2786 2.6677 3.1830 318.62 0.027958 19.943 0.069288 120.00 0.0083333 1072.9 1165.0 3.2786 2.6677 3.1830 318.62 0.027958 19.943 0.069288
299.38 1607.3 undefined 1075.6 1167.9 3.2833 120.00 0.0083333 1075.6 1167.9 3.2833 2.6710 3.1848 319.20 0.027775 19.969 0.069481 120.00 0.0083333 1075.6 1167.9 3.2833 2.6710 3.1848 319.20 0.027775 19.969 0.069481
300.38 1612.1 undefined 1078.2 1170.9 3.2880 120.00 0.0083333 1078.2 1170.9 3.2880 2.6743 3.1866 319.78 0.027594 19.995 0.069674 120.00 0.0083333 1078.2 1170.9 3.2880 2.6743 3.1866 319.78 0.027594 19.995 0.069674