Temperature (C) Pressure (psia) Quality (l+v) Internal Energy (l+v, kJ/kg) Enthalpy (l+v, kJ/kg) Entropy (l+v, J/g*K) Density (l, kg/m3) Volume (l, m3/kg) Internal Energy (l, kJ/kg) Enthalpy (l, kJ/kg) Entropy (l, J/g*K) Cv (l, J/g*K) Cp (l, J/g*K) Sound Spd. (l, m/s) Joule-Thomson (l, F/psia) Viscosity (l, uPa*s) Therm. Cond. (l, W/m*K) Density (v, kg/m3) Volume (v, m3/kg) Internal Energy (v, kJ/kg) Enthalpy (v, kJ/kg) Entropy (v, J/g*K) Cv (v, J/g*K) Cp (v, J/g*K) Sound Spd. (v, m/s) Joule-Thomson (v, F/psia) Viscosity (v, uPa*s) Therm. Cond. (v, W/m*K)
-187.62 2.4953e-08 6.7515e-11 -196.64 -196.64 -1.3959 733.13 0.0013640 -196.64 -196.64 -1.3959 1.3553 1.9158 2136.4 -0.0077592 10960. 0.20792 1.0669e-08 9.3732e+07 350.13 366.26 5.1858 0.69067 0.87923 143.28 6.1051 2.3259 0.0017061
-186.62 3.7339e-08 9.9830e-11 -194.73 -194.73 -1.3736 732.08 0.0013660 -194.73 -194.73 -1.3736 1.3539 1.9166 2129.6 -0.0077546 10073. 0.20765 1.5780e-08 6.3371e+07 350.82 367.14 5.1200 0.69462 0.88317 144.03 5.9178 2.3534 0.0017533
-185.62 5.5322e-08 1.4617e-10 -192.81 -192.81 -1.3516 731.04 0.0013679 -192.81 -192.81 -1.3516 1.3525 1.9174 2122.9 -0.0077498 9276.1 0.20737 2.3112e-08 4.3267e+07 351.52 368.02 5.0561 0.69857 0.88713 144.77 5.7383 2.3808 0.0018007
-184.62 8.1182e-08 2.1201e-10 -190.89 -190.89 -1.3298 730.00 0.0013699 -190.89 -190.89 -1.3298 1.3513 1.9182 2116.1 -0.0077448 8557.8 0.20708 3.3533e-08 2.9821e+07 352.22 368.91 4.9939 0.70253 0.89108 145.51 5.5662 2.4083 0.0018485
-183.62 1.1803e-07 3.0472e-10 -188.97 -188.97 -1.3083 728.96 0.0013718 -188.97 -188.97 -1.3083 1.3501 1.9191 2109.3 -0.0077395 7909.8 0.20678 4.8211e-08 2.0742e+07 352.92 369.81 4.9333 0.70648 0.89504 146.24 5.4011 2.4357 0.0018965
-182.62 1.7009e-07 4.3411e-10 -187.05 -187.05 -1.2869 727.92 0.0013738 -187.05 -187.05 -1.2869 1.3490 1.9201 2102.5 -0.0077340 7324.3 0.20647 6.8704e-08 1.4555e+07 353.63 370.70 4.8744 0.71043 0.89899 146.97 5.2426 2.4632 0.0019448
-181.62 2.4299e-07 6.1320e-10 -185.13 -185.13 -1.2658 726.88 0.0013757 -185.13 -185.13 -1.2658 1.3480 1.9210 2095.7 -0.0077283 6794.5 0.20616 9.7079e-08 1.0301e+07 354.35 371.60 4.8170 0.71438 0.90294 147.69 5.0904 2.4906 0.0019934
-180.62 3.4425e-07 8.5909e-10 -183.21 -183.21 -1.2450 725.85 0.0013777 -183.21 -183.21 -1.2450 1.3470 1.9220 2088.9 -0.0077225 6314.4 0.20584 1.3605e-07 7.3504e+06 355.06 372.51 4.7612 0.71833 0.90688 148.41 4.9442 2.5181 0.0020423
-179.62 4.8378e-07 1.1940e-09 -181.29 -181.29 -1.2243 724.81 0.0013797 -181.29 -181.29 -1.2243 1.3461 1.9231 2082.0 -0.0077164 5878.8 0.20551 1.8915e-07 5.2868e+06 355.78 373.42 4.7068 0.72227 0.91082 149.13 4.8038 2.5456 0.0020915
-178.62 6.7459e-07 1.6468e-09 -179.37 -179.37 -1.2038 723.78 0.0013816 -179.37 -179.37 -1.2038 1.3453 1.9241 2075.2 -0.0077102 5482.9 0.20517 2.6096e-07 3.8320e+06 356.51 374.33 4.6538 0.72620 0.91475 149.84 4.6688 2.5731 0.0021410
-177.62 9.3358e-07 2.2545e-09 -177.44 -177.44 -1.1836 722.75 0.0013836 -177.44 -177.44 -1.1836 1.3445 1.9252 2068.4 -0.0077039 5122.6 0.20483 3.5737e-07 2.7982e+06 357.23 375.25 4.6022 0.73012 0.91867 150.54 4.5390 2.6005 0.0021907
-176.62 1.2826e-06 3.0643e-09 -175.52 -175.52 -1.1635 721.72 0.0013856 -175.52 -175.52 -1.1635 1.3437 1.9263 2061.5 -0.0076973 4794.1 0.20447 4.8588e-07 2.0581e+06 357.97 376.17 4.5519 0.73403 0.92258 151.25 4.4142 2.6280 0.0022408
-175.62 1.7496e-06 4.1360e-09 -173.59 -173.59 -1.1437 720.69 0.0013876 -173.59 -173.59 -1.1437 1.3430 1.9274 2054.7 -0.0076907 4494.3 0.20411 6.5601e-07 1.5244e+06 358.70 377.09 4.5029 0.73792 0.92648 151.95 4.2941 2.6555 0.0022912
-174.62 2.3705e-06 5.5449e-09 -171.66 -171.66 -1.1240 719.66 0.0013895 -171.66 -171.66 -1.1240 1.3423 1.9286 2047.9 -0.0076838 4220.2 0.20375 8.7976e-07 1.1367e+06 359.44 378.02 4.4551 0.74181 0.93036 152.64 4.1784 2.6830 0.0023418
-173.62 3.1903e-06 7.3854e-09 -169.73 -169.73 -1.1045 718.64 0.0013915 -169.73 -169.73 -1.1045 1.3417 1.9298 2041.0 -0.0076769 3969.3 0.20338 1.1721e-06 8.5314e+05 360.19 378.95 4.4085 0.74568 0.93423 153.33 4.0671 2.7105 0.0023928
-172.62 4.2661e-06 9.7745e-09 -167.80 -167.80 -1.0852 717.61 0.0013935 -167.80 -167.80 -1.0852 1.3411 1.9310 2034.2 -0.0076698 3739.3 0.20300 1.5518e-06 6.4441e+05 360.93 379.89 4.3631 0.74953 0.93809 154.02 3.9599 2.7379 0.0024440
-171.62 5.6692e-06 1.2857e-08 -165.87 -165.87 -1.0661 716.58 0.0013955 -165.87 -165.87 -1.0661 1.3405 1.9322 2027.3 -0.0076625 3528.0 0.20261 2.0419e-06 4.8974e+05 361.69 380.83 4.3188 0.75337 0.94193 154.71 3.8566 2.7654 0.0024955
-170.62 7.4884e-06 1.6812e-08 -163.94 -163.94 -1.0472 715.56 0.0013975 -163.94 -163.94 -1.0472 1.3400 1.9334 2020.5 -0.0076552 3333.8 0.20222 2.6708e-06 3.7442e+05 362.44 381.77 4.2755 0.75720 0.94575 155.39 3.7570 2.7929 0.0025473
-169.62 9.8334e-06 2.1857e-08 -162.00 -162.00 -1.0284 714.54 0.0013995 -162.00 -162.00 -1.0284 1.3395 1.9347 2013.6 -0.0076477 3154.9 0.20182 3.4733e-06 2.8791e+05 363.20 382.72 4.2334 0.76100 0.94956 156.07 3.6609 2.8204 0.0025994
-168.62 1.2839e-05 2.8256e-08 -160.07 -160.07 -1.0098 713.52 0.0014015 -160.07 -160.07 -1.0098 1.3390 1.9359 2006.8 -0.0076401 2989.9 0.20141 4.4917e-06 2.2263e+05 363.96 383.67 4.1922 0.76479 0.95335 156.74 3.5683 2.8479 0.0026518
-167.62 1.6672e-05 3.6331e-08 -158.13 -158.13 -0.99134 712.49 0.0014035 -158.13 -158.13 -0.99134 1.3386 1.9372 2000.0 -0.0076323 2837.5 0.20100 5.7771e-06 1.7310e+05 364.73 384.63 4.1521 0.76856 0.95712 157.41 3.4790 2.8754 0.0027045
-166.62 2.1533e-05 4.6468e-08 -156.19 -156.19 -0.97306 711.47 0.0014055 -156.19 -156.19 -0.97306 1.3382 1.9385 1993.1 -0.0076245 2696.5 0.20058 7.3914e-06 1.3529e+05 365.50 385.59 4.1129 0.77232 0.96087 158.08 3.3927 2.9029 0.0027575
-165.62 2.7666e-05 5.9130e-08 -154.25 -154.25 -0.95494 710.45 0.0014075 -154.25 -154.25 -0.95494 1.3378 1.9398 1986.3 -0.0076165 2566.0 0.20016 9.4084e-06 1.0629e+05 366.27 386.55 4.0746 0.77605 0.96460 158.75 3.3095 2.9304 0.0028108
-164.62 3.5367e-05 7.4867e-08 -152.31 -152.31 -0.93698 709.44 0.0014096 -152.31 -152.31 -0.93698 1.3375 1.9411 1979.4 -0.0076084 2444.9 0.19973 1.1916e-05 83918. 367.05 387.52 4.0372 0.77976 0.96832 159.41 3.2291 2.9579 0.0028643
-163.62 4.4989e-05 9.4337e-08 -150.37 -150.37 -0.91917 708.42 0.0014116 -150.37 -150.37 -0.91917 1.3371 1.9424 1972.6 -0.0076002 2332.3 0.19930 1.5020e-05 66577. 367.83 388.49 4.0008 0.78346 0.97201 160.07 3.1514 2.9854 0.0029182
-162.62 5.6956e-05 1.1831e-07 -148.43 -148.43 -0.90151 707.40 0.0014136 -148.43 -148.43 -0.90151 1.3368 1.9437 1965.8 -0.0075919 2227.7 0.19886 1.8844e-05 53068. 368.62 389.46 3.9651 0.78713 0.97569 160.72 3.0764 3.0129 0.0029723
-161.62 7.1773e-05 1.4771e-07 -146.48 -146.48 -0.88400 706.38 0.0014157 -146.48 -146.48 -0.88400 1.3365 1.9451 1959.0 -0.0075834 2130.2 0.19841 2.3533e-05 42494. 369.41 390.44 3.9304 0.79079 0.97935 161.38 3.0038 3.0404 0.0030268
-160.62 9.0036e-05 1.8359e-07 -144.54 -144.54 -0.86663 705.37 0.0014177 -144.54 -144.54 -0.86663 1.3363 1.9465 1952.1 -0.0075748 2039.2 0.19796 2.9258e-05 34178. 370.20 391.42 3.8964 0.79443 0.98298 162.03 2.9337 3.0679 0.0030815
-159.62 0.00011245 2.2720e-07 -142.59 -142.59 -0.84940 704.35 0.0014197 -142.59 -142.59 -0.84940 1.3360 1.9478 1945.3 -0.0075661 1954.2 0.19751 3.6221e-05 27609. 371.00 392.40 3.8632 0.79805 0.98660 162.68 2.8658 3.0955 0.0031365
-158.62 0.00013985 2.7999e-07 -140.64 -140.64 -0.83231 703.34 0.0014218 -140.64 -140.64 -0.83231 1.3358 1.9492 1938.5 -0.0075573 1874.8 0.19705 4.4652e-05 22395. 371.80 393.39 3.8307 0.80164 0.99020 163.32 2.8002 3.1230 0.0031918
-157.62 0.00017320 3.4365e-07 -138.69 -138.69 -0.81536 702.32 0.0014238 -138.69 -138.69 -0.81536 1.3356 1.9506 1931.7 -0.0075484 1800.3 0.19658 5.4822e-05 18241. 372.60 394.38 3.7990 0.80522 0.99378 163.96 2.7367 3.1505 0.0032474
-156.62 0.00021364 4.2010e-07 -136.74 -136.74 -0.79854 701.31 0.0014259 -136.74 -136.74 -0.79854 1.3354 1.9520 1924.9 -0.0075393 1730.5 0.19611 6.7040e-05 14916. 373.41 395.38 3.7680 0.80878 0.99734 164.60 2.6752 3.1780 0.0033033
-155.62 0.00026248 5.1159e-07 -134.79 -134.79 -0.78185 700.30 0.0014280 -134.79 -134.79 -0.78185 1.3352 1.9534 1918.1 -0.0075302 1664.9 0.19564 8.1666e-05 12245. 374.22 396.38 3.7377 0.81232 1.0009 165.24 2.6157 3.2055 0.0033595
-154.62 0.00032125 6.2065e-07 -132.83 -132.83 -0.76530 699.29 0.0014300 -132.83 -132.83 -0.76530 1.3350 1.9548 1911.3 -0.0075209 1603.3 0.19516 9.9109e-05 10090. 375.03 397.38 3.7081 0.81585 1.0044 165.87 2.5580 3.2330 0.0034160
-153.62 0.00039171 7.5021e-07 -130.88 -130.88 -0.74886 698.27 0.0014321 -130.88 -130.88 -0.74887 1.3349 1.9563 1904.5 -0.0075114 1545.3 0.19468 0.00011984 8344.6 375.85 398.39 3.6792 0.81935 1.0079 166.50 2.5022 3.2606 0.0034727
-152.62 0.00047590 9.0358e-07 -128.92 -128.92 -0.73256 697.26 0.0014342 -128.92 -128.92 -0.73256 1.3348 1.9577 1897.8 -0.0075019 1490.6 0.19419 0.00014439 6925.9 376.67 399.40 3.6509 0.82284 1.0114 167.13 2.4481 3.2881 0.0035298
-151.62 0.00057613 1.0845e-06 -126.96 -126.96 -0.71638 696.25 0.0014363 -126.96 -126.96 -0.71638 1.3346 1.9592 1891.0 -0.0074922 1438.9 0.19370 0.00017336 5768.4 377.49 400.41 3.6232 0.82631 1.0149 167.76 2.3957 3.3156 0.0035872
-150.62 0.00069507 1.2973e-06 -125.00 -125.00 -0.70031 695.24 0.0014384 -125.00 -125.00 -0.70032 1.3345 1.9606 1884.2 -0.0074824 1390.2 0.19320 0.00020744 4820.7 378.32 401.42 3.5962 0.82976 1.0183 168.38 2.3448 3.3431 0.0036448
-149.62 0.00083574 1.5467e-06 -123.04 -123.04 -0.68437 694.23 0.0014404 -123.04 -123.04 -0.68438 1.3345 1.9621 1877.4 -0.0074724 1344.0 0.19270 0.00024740 4042.0 379.15 402.44 3.5697 0.83319 1.0218 169.00 2.2956 3.3706 0.0037027
-148.62 0.0010016 1.8382e-06 -121.08 -121.08 -0.66854 693.22 0.0014425 -121.08 -121.08 -0.66855 1.3344 1.9636 1870.7 -0.0074623 1300.3 0.19220 0.00029412 3400.0 379.99 403.47 3.5438 0.83661 1.0252 169.62 2.2478 3.3982 0.0037610
-147.62 0.0011965 2.1777e-06 -119.11 -119.11 -0.65283 692.21 0.0014447 -119.11 -119.11 -0.65284 1.3343 1.9651 1863.9 -0.0074521 1258.9 0.19169 0.00034856 2869.0 380.83 404.49 3.5185 0.84001 1.0286 170.24 2.2014 3.4257 0.0038195
-146.62 0.0014249 2.5720e-06 -117.15 -117.15 -0.63723 691.20 0.0014468 -117.15 -117.15 -0.63724 1.3343 1.9666 1857.2 -0.0074417 1219.6 0.19117 0.00041181 2428.3 381.67 405.52 3.4938 0.84340 1.0320 170.85 2.1565 3.4532 0.0038783
-145.62 0.0016917 3.0287e-06 -115.18 -115.18 -0.62174 690.19 0.0014489 -115.18 -115.18 -0.62175 1.3343 1.9682 1850.4 -0.0074312 1182.3 0.19066 0.00048510 2061.4 382.51 406.56 3.4695 0.84677 1.0353 171.46 2.1128 3.4807 0.0039374
-144.62 0.0020026 3.5561e-06 -113.21 -113.21 -0.60636 689.18 0.0014510 -113.21 -113.21 -0.60637 1.3343 1.9697 1843.7 -0.0074206 1146.8 0.19014 0.00056976 1755.1 383.36 407.59 3.4458 0.85012 1.0387 172.07 2.0705 3.5082 0.0039967
-143.62 0.0023637 4.1635e-06 -111.24 -111.24 -0.59108 688.17 0.0014531 -111.24 -111.24 -0.59110 1.3343 1.9713 1836.9 -0.0074098 1113.0 0.18962 0.00066731 1498.6 384.21 408.63 3.4226 0.85346 1.0420 172.68 2.0294 3.5358 0.0040564
-142.62 0.0027820 4.8611e-06 -109.27 -109.27 -0.57591 687.16 0.0014553 -109.27 -109.27 -0.57593 1.3343 1.9728 1830.2 -0.0073988 1080.8 0.18909 0.00077939 1283.1 385.07 409.68 3.3999 0.85679 1.0454 173.28 1.9896 3.5633 0.0041164
-141.62 0.0032653 5.6603e-06 -107.29 -107.29 -0.56085 686.15 0.0014574 -107.30 -107.30 -0.56087 1.3343 1.9744 1823.5 -0.0073878 1050.1 0.18856 0.00090784 1101.5 385.93 410.72 3.3777 0.86011 1.0487 173.88 1.9508 3.5908 0.0041766
-140.62 0.0038222 6.5735e-06 -105.32 -105.32 -0.54588 685.14 0.0014596 -105.32 -105.32 -0.54591 1.3344 1.9760 1816.7 -0.0073765 1020.7 0.18803 0.0010547 948.16 386.79 411.77 3.3560 0.86341 1.0520 174.48 1.9133 3.6183 0.0042372
-139.62 0.0044623 7.6144e-06 -103.34 -103.34 -0.53102 684.13 0.0014617 -103.34 -103.34 -0.53105 1.3344 1.9776 1810.0 -0.0073651 992.74 0.18749 0.0012221 818.26 387.65 412.83 3.3347 0.86670 1.0553 175.08 1.8768 3.6459 0.0042980
-138.62 0.0051963 8.7980e-06 -101.36 -101.36 -0.51625 683.12 0.0014639 -101.37 -101.37 -0.51629 1.3345 1.9792 1803.3 -0.0073536 965.97 0.18695 0.0014125 707.94 388.52 413.88 3.3139 0.86998 1.0586 175.67 1.8413 3.6734 0.0043592
-137.62 0.0060358 1.0141e-05 -99.381 -99.381 -0.50158 682.11 0.0014660 -99.386 -99.386 -0.50162 1.3346 1.9808 1796.6 -0.0073419 940.35 0.18641 0.0016287 614.00 389.39 414.94 3.2935 0.87325 1.0619 176.26 1.8069 3.7009 0.0044206
-136.62 0.0069938 1.1660e-05 -97.399 -97.398 -0.48701 681.10 0.0014682 -97.404 -97.404 -0.48705 1.3347 1.9825 1789.9 -0.0073301 915.81 0.18586 0.0018733 533.80 390.26 416.00 3.2735 0.87650 1.0651 176.85 1.7734 3.7284 0.0044823
-135.62 0.0080843 1.3376e-05 -95.415 -95.414 -0.47253 680.09 0.0014704 -95.421 -95.421 -0.47258 1.3348 1.9841 1783.2 -0.0073180 892.30 0.18531 0.0021497 465.17 391.14 417.07 3.2540 0.87975 1.0684 177.44 1.7409 3.7559 0.0045443
-134.62 0.0093230 1.5308e-05 -93.429 -93.428 -0.45814 679.08 0.0014726 -93.436 -93.436 -0.45820 1.3350 1.9858 1776.5 -0.0073059 869.75 0.18476 0.0024613 406.30 392.02 418.14 3.2348 0.88299 1.0716 178.02 1.7093 3.7834 0.0046066
-133.62 0.010727 1.7481e-05 -91.441 -91.440 -0.44384 678.07 0.0014748 -91.450 -91.449 -0.44391 1.3351 1.9875 1769.8 -0.0072935 848.11 0.18421 0.0028116 355.67 392.91 419.21 3.2161 0.88622 1.0749 178.61 1.6786 3.8109 0.0046691
-132.62 0.012315 1.9919e-05 -89.452 -89.451 -0.42964 677.06 0.0014770 -89.461 -89.461 -0.42971 1.3353 1.9892 1763.1 -0.0072810 827.32 0.18365 0.0032049 312.03 393.79 420.29 3.1977 0.88944 1.0781 179.19 1.6488 3.8385 0.0047320
-131.62 0.014106 2.2649e-05 -87.460 -87.459 -0.41552 676.04 0.0014792 -87.471 -87.471 -0.41560 1.3354 1.9909 1756.4 -0.0072684 807.34 0.18309 0.0036453 274.33 394.68 421.36 3.1798 0.89266 1.0813 179.76 1.6197 3.8660 0.0047951
-130.62 0.016124 2.5698e-05 -85.467 -85.466 -0.40148 675.03 0.0014814 -85.479 -85.479 -0.40157 1.3356 1.9926 1749.7 -0.0072555 788.12 0.18253 0.0041375 241.69 395.58 422.44 3.1622 0.89586 1.0846 180.34 1.5915 3.8935 0.0048586
-129.62 0.018392 2.9098e-05 -83.472 -83.471 -0.38753 674.02 0.0014836 -83.486 -83.486 -0.38763 1.3358 1.9944 1743.0 -0.0072425 769.63 0.18196 0.0046867 213.37 396.47 423.53 3.1450 0.89906 1.0878 180.91 1.5641 3.9210 0.0049223
-128.62 0.020935 3.2883e-05 -81.475 -81.474 -0.37367 673.01 0.0014859 -81.491 -81.490 -0.37378 1.3360 1.9961 1736.3 -0.0072294 751.83 0.18140 0.0052981 188.75 397.37 424.62 3.1281 0.90226 1.0910 181.48 1.5374 3.9485 0.0049863
-127.62 0.023783 3.7087e-05 -79.476 -79.475 -0.35988 672.00 0.0014881 -79.494 -79.493 -0.36001 1.3363 1.9979 1729.6 -0.0072160 734.67 0.18083 0.0059776 167.29 398.27 425.71 3.1116 0.90545 1.0942 182.05 1.5114 3.9760 0.0050506
-126.62 0.026966 4.1748e-05 -77.475 -77.474 -0.34618 670.98 0.0014904 -77.495 -77.495 -0.34632 1.3365 1.9997 1722.9 -0.0072025 718.14 0.18025 0.0067313 148.56 399.18 426.80 3.0954 0.90863 1.0974 182.62 1.4861 4.0035 0.0051152
-125.62 0.030515 4.6907e-05 -75.472 -75.470 -0.33256 669.97 0.0014926 -75.494 -75.494 -0.33272 1.3368 2.0015 1716.2 -0.0071888 702.18 0.17968 0.0075660 132.17 400.09 427.89 3.0795 0.91181 1.1006 183.18 1.4615 4.0310 0.0051800
-124.62 0.034467 5.2608e-05 -73.467 -73.465 -0.31901 668.95 0.0014949 -73.492 -73.492 -0.31919 1.3371 2.0033 1709.5 -0.0071749 686.79 0.17910 0.0084885 117.81 401.00 428.99 3.0640 0.91499 1.1038 183.74 1.4375 4.0584 0.0052452
-123.62 0.038859 5.8895e-05 -71.460 -71.458 -0.30554 667.94 0.0014971 -71.488 -71.487 -0.30574 1.3374 2.0051 1702.8 -0.0071609 671.93 0.17852 0.0095065 105.19 401.91 430.10 3.0488 0.91816 1.1070 184.30 1.4141 4.0859 0.0053106
-122.62 0.043731 6.5818e-05 -69.451 -69.448 -0.29215 666.92 0.0014994 -69.482 -69.481 -0.29237 1.3377 2.0070 1696.2 -0.0071466 657.57 0.17794 0.010628 94.092 402.83 431.20 3.0339 0.92134 1.1102 184.86 1.3913 4.1134 0.0053764
-121.62 0.049128 7.3429e-05 -67.439 -67.436 -0.27883 665.91 0.0015017 -67.474 -67.473 -0.27907 1.3380 2.0089 1689.5 -0.0071322 643.70 0.17736 0.011861 84.309 403.75 432.31 3.0193 0.92451 1.1134 185.41 1.3691 4.1409 0.0054424
-120.62 0.055096 8.1782e-05 -65.425 -65.423 -0.26559 664.89 0.0015040 -65.464 -65.463 -0.26585 1.3384 2.0107 1682.8 -0.0071176 630.28 0.17678 0.013215 75.669 404.67 433.42 3.0050 0.92767 1.1166 185.96 1.3475 4.1683 0.0055087
-119.62 0.061684 9.0936e-05 -63.410 -63.406 -0.25241 663.87 0.0015063 -63.452 -63.452 -0.25271 1.3387 2.0126 1676.1 -0.0071028 617.30 0.17619 0.014700 68.027 405.60 434.53 2.9909 0.93084 1.1198 186.51 1.3264 4.1958 0.0055752
-118.62 0.068946 0.00010095 -61.391 -61.388 -0.23931 662.86 0.0015086 -61.439 -61.438 -0.23963 1.3391 2.0146 1669.4 -0.0070878 604.74 0.17560 0.016325 61.255 406.53 435.64 2.9772 0.93401 1.1231 187.06 1.3058 4.2233 0.0056421
-117.62 0.076937 0.00011189 -59.371 -59.367 -0.22628 661.84 0.0015109 -59.423 -59.422 -0.22663 1.3395 2.0165 1662.8 -0.0070726 592.58 0.17501 0.018101 55.245 407.46 436.76 2.9638 0.93718 1.1263 187.60 1.2857 4.2507 0.0057092
-116.62 0.085718 0.00012383 -57.348 -57.343 -0.21331 660.82 0.0015133 -57.406 -57.405 -0.21370 1.3400 2.0184 1656.1 -0.0070573 580.80 0.17442 0.020040 49.901 408.39 437.88 2.9506 0.94035 1.1295 188.14 1.2660 4.2782 0.0057767
-115.62 0.095353 0.00013683 -55.323 -55.318 -0.20041 659.80 0.0015156 -55.386 -55.385 -0.20084 1.3404 2.0204 1649.4 -0.0070417 569.38 0.17383 0.022152 45.142 409.33 439.01 2.9377 0.94352 1.1327 188.68 1.2468 4.3056 0.0058444
-114.62 0.10591 0.00015097 -53.295 -53.289 -0.18758 658.78 0.0015180 -53.365 -53.364 -0.18805 1.3409 2.0224 1642.7 -0.0070260 558.32 0.17323 0.024451 40.898 410.27 440.13 2.9250 0.94669 1.1360 189.22 1.2281 4.3330 0.0059123
-113.62 0.11746 0.00016634 -51.265 -51.258 -0.17481 657.76 0.0015203 -51.342 -51.340 -0.17533 1.3413 2.0244 1636.0 -0.0070100 547.59 0.17264 0.026949 37.107 411.21 441.26 2.9126 0.94987 1.1392 189.75 1.2097 4.3604 0.0059806
-112.62 0.13008 0.00018300 -49.232 -49.225 -0.16211 656.73 0.0015227 -49.316 -49.315 -0.16267 1.3418 2.0264 1629.3 -0.0069938 537.18 0.17204 0.029661 33.715 412.16 442.39 2.9005 0.95305 1.1424 190.28 1.1918 4.3879 0.0060491
-111.62 0.14384 0.00020106 -47.196 -47.189 -0.14947 655.71 0.0015251 -47.289 -47.287 -0.15008 1.3424 2.0285 1622.7 -0.0069774 527.08 0.17144 0.032600 30.675 413.10 443.53 2.8885 0.95623 1.1457 190.81 1.1742 4.4153 0.0061180
-110.62 0.15884 0.00022059 -45.158 -45.150 -0.13689 654.69 0.0015274 -45.259 -45.258 -0.13755 1.3429 2.0305 1616.0 -0.0069609 517.28 0.17084 0.035781 27.948 414.06 444.66 2.8769 0.95942 1.1490 191.34 1.1570 4.4427 0.0061871
-109.62 0.17516 0.00024170 -43.117 -43.108 -0.12437 653.66 0.0015298 -43.228 -43.226 -0.12509 1.3435 2.0326 1609.3 -0.0069441 507.76 0.17024 0.039220 25.497 415.01 445.80 2.8654 0.96261 1.1522 191.86 1.1402 4.4701 0.0062564
-108.62 0.19290 0.00026449 -41.073 -41.063 -0.11191 652.64 0.0015322 -41.194 -41.192 -0.11269 1.3441 2.0347 1602.6 -0.0069271 498.51 0.16964 0.042933 23.292 415.96 446.94 2.8542 0.96581 1.1555 192.38 1.1236 4.4974 0.0063261
-107.62 0.21215 0.00028904 -39.027 -39.015 -0.099506 651.61 0.0015347 -39.158 -39.156 -0.10036 1.3447 2.0369 1595.9 -0.0069098 489.52 0.16903 0.046937 21.305 416.92 448.09 2.8433 0.96901 1.1588 192.90 1.1075 4.5248 0.0063960
-106.62 0.23301 0.00031548 -36.977 -36.965 -0.087161 650.58 0.0015371 -37.120 -37.118 -0.088082 1.3453 2.0390 1589.2 -0.0068924 480.79 0.16843 0.051250 19.512 417.88 449.23 2.8325 0.97222 1.1621 193.41 1.0916 4.5522 0.0064662
-105.62 0.25561 0.00034391 -34.924 -34.911 -0.074872 649.55 0.0015395 -35.080 -35.078 -0.075868 1.3460 2.0412 1582.6 -0.0068747 472.30 0.16782 0.055891 17.892 418.85 450.38 2.8220 0.97544 1.1655 193.93 1.0760 4.5795 0.0065367
-104.62 0.28004 0.00037445 -32.869 -32.854 -0.062638 648.52 0.0015420 -33.038 -33.035 -0.063714 1.3467 2.0434 1575.9 -0.0068569 464.04 0.16721 0.060878 16.426 419.81 451.53 2.8116 0.97867 1.1688 194.44 1.0608 4.6069 0.0066074
-103.62 0.30643 0.00040722 -30.810 -30.794 -0.050457 647.49 0.0015444 -30.994 -30.991 -0.051619 1.3474 2.0456 1569.2 -0.0068387 456.00 0.16660 0.066231 15.099 420.78 452.68 2.8015 0.98191 1.1722 194.94 1.0458 4.6342 0.0066785
-102.62 0.33490 0.00044234 -28.748 -28.730 -0.038329 646.46 0.0015469 -28.947 -28.944 -0.039582 1.3481 2.0478 1562.5 -0.0068204 448.18 0.16600 0.071971 13.894 421.75 453.84 2.7916 0.98516 1.1755 195.44 1.0310 4.6615 0.0067498
-101.62 0.36558 0.00047994 -26.683 -26.663 -0.026253 645.43 0.0015494 -26.898 -26.894 -0.027602 1.3489 2.0501 1555.8 -0.0068018 440.57 0.16539 0.078120 12.801 422.73 454.99 2.7818 0.98841 1.1789 195.95 1.0166 4.6888 0.0068213
-100.62 0.39862 0.00052016 -24.614 -24.593 -0.014228 644.39 0.0015519 -24.847 -24.843 -0.015678 1.3497 2.0524 1549.1 -0.0067830 433.16 0.16478 0.084699 11.807 423.70 456.15 2.7723 0.99168 1.1823 196.44 1.0024 4.7161 0.0068932
-99.625 0.43414 0.00056312 -22.542 -22.519 -0.0022522 643.36 0.0015544 -22.794 -22.789 -0.0038103 1.3505 2.0547 1542.4 -0.0067639 425.95 0.16416 0.091731 10.901 424.68 457.31 2.7630 0.99496 1.1858 196.94 0.98838 4.7434 0.0069653
-98.625 0.47230 0.00060898 -20.466 -20.441 0.0096749 642.32 0.0015569 -20.738 -20.733 0.0080027 1.3514 2.0570 1535.7 -0.0067447 418.92 0.16355 0.099240 10.077 425.66 458.48 2.7538 0.99825 1.1892 197.43 0.97464 4.7707 0.0070377
-97.625 0.51325 0.00065787 -18.387 -18.360 0.021554 641.28 0.0015594 -18.680 -18.674 0.019762 1.3522 2.0594 1529.0 -0.0067251 412.07 0.16294 0.10725 9.3239 426.65 459.64 2.7448 1.0016 1.1927 197.92 0.96112 4.7979 0.0071103
-96.625 0.55714 0.00070996 -16.304 -16.275 0.033387 640.24 0.0015619 -16.620 -16.614 0.031467 1.3531 2.0618 1522.3 -0.0067053 405.39 0.16233 0.11579 8.6365 427.63 460.81 2.7360 1.0049 1.1962 198.40 0.94783 4.8251 0.0071832
-95.625 0.60416 0.00076538 -14.217 -14.185 0.045175 639.20 0.0015645 -14.557 -14.550 0.043120 1.3540 2.0642 1515.7 -0.0066853 398.88 0.16171 0.12488 8.0078 428.62 461.98 2.7274 1.0082 1.1997 198.88 0.93475 4.8524 0.0072564
-94.625 0.65446 0.00082431 -12.127 -12.092 0.056917 638.16 0.0015670 -12.491 -12.484 0.054721 1.3550 2.0667 1509.0 -0.0066650 392.53 0.16110 0.13455 7.4323 429.61 463.15 2.7189 1.0116 1.2032 199.36 0.92188 4.8796 0.0073299
-93.625 0.70822 0.00088692 -10.033 -9.9950 0.068616 637.12 0.0015696 -10.424 -10.416 0.066271 1.3560 2.0691 1502.3 -0.0066444 386.34 0.16048 0.14482 6.9050 430.60 464.32 2.7107 1.0149 1.2068 199.83 0.90921 4.9068 0.0074036
-92.625 0.76564 0.00095335 -7.9341 -7.8935 0.080273 636.07 0.0015722 -8.3535 -8.3452 0.077771 1.3570 2.0716 1495.6 -0.0066236 380.31 0.15987 0.15573 6.4212 431.60 465.49 2.7025 1.0183 1.2104 200.30 0.89673 4.9340 0.0074776
-91.625 0.82689 0.0010238 -5.8315 -5.7877 0.091888 635.02 0.0015747 -6.2808 -6.2719 0.089220 1.3580 2.0742 1488.9 -0.0066025 374.41 0.15925 0.16731 5.9769 432.59 466.67 2.6946 1.0217 1.2140 200.77 0.88445 4.9611 0.0075518
-90.625 0.89218 0.0010984 -3.7247 -3.6774 0.10346 633.98 0.0015773 -4.2056 -4.1959 0.10062 1.3591 2.0767 1482.2 -0.0065811 368.66 0.15864 0.17958 5.5685 433.59 467.84 2.6868 1.0251 1.2177 201.24 0.87236 4.9883 0.0076263
-89.625 0.96172 0.0011775 -1.6137 -1.5626 0.11500 632.93 0.0015800 -2.1279 -2.1174 0.11197 1.3602 2.0793 1475.5 -0.0065595 363.05 0.15802 0.19258 5.1928 434.59 469.02 2.6791 1.0285 1.2213 201.70 0.86045 5.0154 0.0077011
-88.625 1.0357 0.0012610 0.50184 0.55677 0.12649 631.88 0.0015826 -0.047516 -0.036215 0.12328 1.3613 2.0819 1468.8 -0.0065375 357.56 0.15740 0.20633 4.8466 435.59 470.20 2.6717 1.0320 1.2250 202.15 0.84873 5.0425 0.0077761
-87.625 1.1144 0.0013493 2.6218 2.6809 0.13795 630.83 0.0015852 2.0355 2.0476 0.13454 1.3625 2.0846 1462.1 -0.0065153 352.21 0.15679 0.22087 4.5276 436.60 471.39 2.6643 1.0354 1.2288 202.61 0.83718 5.0696 0.0078514
-86.625 1.1979 0.0014426 4.7464 4.8099 0.14937 629.77 0.0015879 4.1211 4.1342 0.14575 1.3637 2.0873 1455.4 -0.0064928 346.98 0.15617 0.23623 4.2331 437.61 472.57 2.6571 1.0389 1.2325 203.06 0.82580 5.0967 0.0079270
-85.625 1.2866 0.0015410 6.8757 6.9439 0.16076 628.72 0.0015905 6.2094 6.2235 0.15691 1.3649 2.0900 1448.8 -0.0064701 341.87 0.15555 0.25245 3.9612 438.61 473.75 2.6501 1.0424 1.2363 203.50 0.81460 5.1237 0.0080028
-84.625 1.3806 0.0016448 9.0098 9.0830 0.17211 627.66 0.0015932 8.3004 8.3155 0.16803 1.3661 2.0927 1442.1 -0.0064470 336.87 0.15494 0.26956 3.7097 439.63 474.94 2.6432 1.0460 1.2402 203.95 0.80356 5.1508 0.0080789
-83.625 1.4803 0.0017541 11.149 11.227 0.18342 626.60 0.0015959 10.394 10.410 0.17911 1.3674 2.0955 1435.4 -0.0064236 331.99 0.15432 0.28760 3.4771 440.64 476.13 2.6364 1.0495 1.2440 204.38 0.79269 5.1778 0.0081553
-82.625 1.5858 0.0018692 13.293 13.377 0.19470 625.54 0.0015986 12.491 12.508 0.19014 1.3687 2.0983 1428.7 -0.0063999 327.22 0.15370 0.30659 3.2616 441.65 477.31 2.6298 1.0531 1.2479 204.82 0.78199 5.2048 0.0082319
-81.625 1.6975 0.0019903 15.442 15.532 0.20596 624.48 0.0016013 14.590 14.609 0.20113 1.3700 2.1012 1422.0 -0.0063759 322.55 0.15309 0.32659 3.0619 442.67 478.50 2.6233 1.0567 1.2519 205.25 0.77144 5.2318 0.0083088
-80.625 1.8155 0.0021176 17.596 17.693 0.21717 623.42 0.0016041 16.692 16.712 0.21208 1.3714 2.1041 1415.4 -0.0063516 317.99 0.15247 0.34763 2.8766 443.69 479.70 2.6169 1.0603 1.2558 205.67 0.76106 5.2587 0.0083860
-79.625 1.9402 0.0022514 19.756 19.859 0.22836 622.36 0.0016068 18.797 18.819 0.22299 1.3728 2.1070 1408.7 -0.0063270 313.52 0.15186 0.36974 2.7046 444.71 480.89 2.6106 1.0639 1.2598 206.10 0.75083 5.2857 0.0084634
-78.625 2.0718 0.0023918 21.921 22.031 0.23952 621.29 0.0016096 20.905 20.928 0.23385 1.3742 2.1099 1402.0 -0.0063021 309.15 0.15124 0.39296 2.5448 445.73 482.08 2.6045 1.0676 1.2639 206.51 0.74076 5.3126 0.0085411
-77.625 2.2107 0.0025392 24.092 24.209 0.25065 620.22 0.0016123 23.016 23.040 0.24468 1.3757 2.1129 1395.3 -0.0062768 304.88 0.15062 0.41735 2.3961 446.75 483.27 2.5985 1.0712 1.2680 206.93 0.73084 5.3395 0.0086190
-76.625 2.3571 0.0026937 26.268 26.393 0.26175 619.15 0.0016151 25.130 25.156 0.25546 1.3772 2.1159 1388.7 -0.0062512 300.69 0.15001 0.44292 2.2577 447.78 484.47 2.5926 1.0749 1.2721 207.34 0.72107 5.3664 0.0086972
-75.625 2.5113 0.0028555 28.450 28.583 0.27283 618.08 0.0016179 27.247 27.275 0.26620 1.3787 2.1190 1382.0 -0.0062253 296.59 0.14939 0.46974 2.1288 448.81 485.67 2.5869 1.0787 1.2762 207.74 0.71146 5.3933 0.0087757
-74.625 2.6736 0.0030251 30.638 30.780 0.28388 617.01 0.0016207 29.366 29.396 0.27691 1.3802 2.1221 1375.4 -0.0061990 292.58 0.14878 0.49783 2.0087 449.83 486.86 2.5812 1.0824 1.2804 208.14 0.70200 5.4201 0.0088544
-73.625 2.8444 0.0032025 32.832 32.983 0.29490 615.93 0.0016236 31.489 31.521 0.28758 1.3818 2.1252 1368.7 -0.0061724 288.65 0.14816 0.52725 1.8966 450.86 488.06 2.5757 1.0862 1.2847 208.54 0.69268 5.4469 0.0089334
-72.625 3.0240 0.0033881 35.033 35.193 0.30590 614.85 0.0016264 33.615 33.649 0.29821 1.3834 2.1284 1362.0 -0.0061454 284.81 0.14755 0.55804 1.7920 451.90 489.26 2.5703 1.0900 1.2889 208.93 0.68351 5.4737 0.0090126
-71.625 3.2127 0.0035821 37.239 37.409 0.31688 613.78 0.0016293 35.745 35.781 0.30880 1.3851 2.1316 1355.4 -0.0061181 281.03 0.14694 0.59024 1.6942 452.93 490.46 2.5650 1.0938 1.2932 209.32 0.67448 5.5005 0.0090922
-70.625 3.4108 0.0037848 39.452 39.633 0.32783 612.69 0.0016321 37.877 37.915 0.31935 1.3867 2.1349 1348.7 -0.0060904 277.34 0.14632 0.62390 1.6028 453.96 491.66 2.5598 1.0976 1.2976 209.70 0.66560 5.5273 0.0091720
-69.625 3.6187 0.0039964 41.671 41.863 0.33876 611.61 0.0016350 40.013 40.053 0.32987 1.3884 2.1382 1342.1 -0.0060624 273.72 0.14571 0.65906 1.5173 455.00 492.86 2.5547 1.1015 1.3020 210.08 0.65687 5.5540 0.0092520
-68.625 3.8367 0.0042173 43.897 44.100 0.34967 610.53 0.0016379 42.152 42.195 0.34036 1.3902 2.1415 1335.5 -0.0060339 270.17 0.14510 0.69577 1.4372 456.04 494.06 2.5497 1.1054 1.3064 210.45 0.64827 5.5807 0.0093324
-67.625 4.0652 0.0044476 46.130 46.345 0.36056 609.44 0.0016409 44.294 44.340 0.35080 1.3919 2.1449 1328.8 -0.0060051 266.69 0.14449 0.73408 1.3622 457.08 495.26 2.5448 1.1093 1.3109 210.82 0.63981 5.6074 0.0094130
-66.625 4.3046 0.0046878 48.369 48.597 0.37143 608.35 0.0016438 46.439 46.488 0.36122 1.3937 2.1483 1322.2 -0.0059760 263.28 0.14388 0.77404 1.2919 458.12 496.46 2.5400 1.1133 1.3154 211.18 0.63150 5.6341 0.0094939
-65.625 4.5551 0.0049380 50.616 50.857 0.38228 607.26 0.0016467 48.588 48.640 0.37160 1.3955 2.1518 1315.6 -0.0059464 259.93 0.14327 0.81570 1.2259 459.16 497.67 2.5353 1.1172 1.3200 211.54 0.62332 5.6608 0.0095750
-64.625 4.8173 0.0051985 52.869 53.125 0.39312 606.16 0.0016497 50.740 50.795 0.38195 1.3974 2.1553 1308.9 -0.0059164 256.65 0.14266 0.85910 1.1640 460.21 498.87 2.5307 1.1212 1.3246 211.89 0.61527 5.6874 0.0096564
-63.625 5.0915 0.0054698 55.130 55.400 0.40393 605.07 0.0016527 52.896 52.954 0.39226 1.3993 2.1588 1302.3 -0.0058861 253.42 0.14205 0.90429 1.1058 461.25 500.07 2.5262 1.1252 1.3293 212.24 0.60736 5.7140 0.0097382
-62.625 5.3781 0.0057519 57.398 57.683 0.41473 603.97 0.0016557 55.055 55.117 0.40254 1.4012 2.1624 1295.7 -0.0058553 250.26 0.14144 0.95134 1.0511 462.30 501.28 2.5218 1.1293 1.3340 212.58 0.59958 5.7406 0.0098201
-61.625 5.6774 0.0060453 59.673 59.974 0.42551 602.87 0.0016587 57.218 57.283 0.41279 1.4031 2.1660 1289.1 -0.0058241 247.16 0.14084 1.0003 0.99972 463.35 502.48 2.5175 1.1333 1.3387 212.92 0.59194 5.7672 0.0099024
-60.625 5.9899 0.0063503 61.956 62.274 0.43628 601.77 0.0016618 59.385 59.453 0.42301 1.4051 2.1697 1282.5 -0.0057925 244.12 0.14023 1.0512 0.95131 464.40 503.68 2.5133 1.1374 1.3435 213.26 0.58442 5.7938 0.0099850
-59.625 6.3160 0.0066671 64.247 64.582 0.44704 600.66 0.0016648 61.554 61.627 0.43320 1.4071 2.1734 1275.9 -0.0057605 241.13 0.13962 1.1041 0.90573 465.45 504.89 2.5091 1.1415 1.3483 213.58 0.57704 5.8203 0.010068
-58.625 6.6561 0.0069961 66.546 66.899 0.45778 599.55 0.0016679 63.728 63.805 0.44335 1.4091 2.1772 1269.3 -0.0057280 238.19 0.13902 1.1591 0.86277 466.50 506.09 2.5051 1.1457 1.3532 213.90 0.56978 5.8468 0.010151
-57.625 7.0107 0.0073376 68.853 69.224 0.46850 598.44 0.0016710 65.905 65.986 0.45348 1.4111 2.1810 1262.7 -0.0056951 235.31 0.13842 1.2161 0.82228 467.55 507.30 2.5011 1.1498 1.3581 214.22 0.56265 5.8733 0.010234
-56.625 7.3801 0.0076920 71.167 71.559 0.47922 597.33 0.0016741 68.086 68.172 0.46358 1.4132 2.1848 1256.1 -0.0056617 232.48 0.13781 1.2754 0.78408 468.60 508.50 2.4972 1.1540 1.3631 214.53 0.55564 5.8998 0.010318
-55.625 7.7648 0.0080594 73.490 73.902 0.48992 596.22 0.0016772 70.271 70.361 0.47364 1.4153 2.1887 1249.5 -0.0056279 229.69 0.13721 1.3369 0.74802 469.66 509.71 2.4934 1.1582 1.3681 214.84 0.54875 5.9263 0.010402
-54.625 8.1652 0.0084404 75.821 76.254 0.50061 595.10 0.0016804 72.460 72.554 0.48368 1.4174 2.1927 1242.9 -0.0055937 226.96 0.13661 1.4006 0.71396 470.72 510.91 2.4897 1.1624 1.3731 215.14 0.54199 5.9527 0.010486
-53.625 8.5819 0.0088351 78.161 78.616 0.51130 593.98 0.0016836 74.652 74.752 0.49369 1.4196 2.1967 1236.3 -0.0055589 224.27 0.13601 1.4667 0.68178 471.77 512.11 2.4860 1.1667 1.3782 215.43 0.53535 5.9792 0.010571
-52.625 9.0151 0.0092440 80.509 80.987 0.52197 592.86 0.0016867 76.849 76.954 0.50368 1.4218 2.2007 1229.8 -0.0055237 221.63 0.13541 1.5353 0.65136 472.83 513.32 2.4824 1.1710 1.3834 215.72 0.52882 6.0056 0.010656
-51.625 9.4655 0.0096674 82.866 83.368 0.53263 591.73 0.0016900 79.049 79.159 0.51363 1.4240 2.2048 1223.2 -0.0054880 219.04 0.13482 1.6062 0.62258 473.89 514.52 2.4789 1.1752 1.3886 216.00 0.52241 6.0320 0.010741
-50.625 9.9335 0.010106 85.232 85.759 0.54329 590.60 0.0016932 81.253 81.369 0.52356 1.4262 2.2089 1216.6 -0.0054519 216.48 0.13422 1.6797 0.59534 474.95 515.73 2.4755 1.1796 1.3938 216.28 0.51612 6.0584 0.010827
-49.625 10.419 0.010559 87.607 88.159 0.55394 589.47 0.0016964 83.462 83.584 0.53347 1.4285 2.2131 1210.1 -0.0054152 213.98 0.13363 1.7558 0.56954 476.01 516.93 2.4722 1.1839 1.3991 216.55 0.50994 6.0848 0.010913
-48.625 10.924 0.011028 89.990 90.570 0.56458 588.34 0.0016997 85.674 85.802 0.54334 1.4308 2.2173 1203.5 -0.0053780 211.51 0.13303 1.8345 0.54510 477.07 518.13 2.4689 1.1883 1.4044 216.82 0.50387 6.1112 0.010999
-47.625 11.448 0.011513 92.383 92.991 0.57521 587.20 0.0017030 87.891 88.025 0.55319 1.4331 2.2216 1196.9 -0.0053403 209.08 0.13244 1.9159 0.52194 478.14 519.33 2.4657 1.1927 1.4098 217.08 0.49792 6.1375 0.011085
-46.625 11.991 0.012014 94.786 95.422 0.58584 586.06 0.0017063 90.111 90.252 0.56302 1.4354 2.2259 1190.4 -0.0053020 206.69 0.13185 2.0001 0.49997 479.20 520.53 2.4625 1.1971 1.4153 217.33 0.49207 6.1639 0.011172
-45.625 12.554 0.012532 97.198 97.863 0.59646 584.92 0.0017096 92.336 92.484 0.57282 1.4378 2.2303 1183.8 -0.0052633 204.34 0.13126 2.0872 0.47912 480.27 521.74 2.4594 1.2015 1.4207 217.58 0.48633 6.1902 0.011259
-44.625 13.137 0.013066 99.619 100.32 0.60708 583.77 0.0017130 94.565 94.720 0.58260 1.4402 2.2347 1177.3 -0.0052240 202.03 0.13067 2.1771 0.45933 481.33 522.94 2.4564 1.2060 1.4263 217.82 0.48069 6.2165 0.011347
-43.625 13.741 0.013618 102.05 102.78 0.61770 582.62 0.0017164 96.799 96.961 0.59235 1.4426 2.2392 1170.7 -0.0051841 199.75 0.13008 2.2700 0.44053 482.40 524.14 2.4535 1.2104 1.4319 218.05 0.47516 6.2429 0.011435
-42.625 14.367 0.014188 104.49 105.25 0.62831 581.47 0.0017198 99.036 99.207 0.60208 1.4450 2.2437 1164.2 -0.0051437 197.51 0.12949 2.3659 0.42267 483.46 525.33 2.4506 1.2149 1.4375 218.28 0.46973 6.2692 0.011523
-41.625 15.015 0.014776 106.94 107.74 0.63892 580.32 0.0017232 101.28 101.46 0.61179 1.4475 2.2483 1157.7 -0.0051027 195.30 0.12891 2.4649 0.40569 484.53 526.53 2.4478 1.2195 1.4432 218.50 0.46440 6.2955 0.011612
-40.625 15.686 0.015383 109.40 110.23 0.64952 579.16 0.0017266 103.52 103.71 0.62147 1.4500 2.2529 1151.1 -0.0050611 193.13 0.12832 2.5671 0.38954 485.60 527.73 2.4450 1.2240 1.4489 218.72 0.45917 6.3218 0.011701
-39.625 16.380 0.016008 111.87 112.74 0.66013 578.00 0.0017301 105.78 105.97 0.63113 1.4525 2.2576 1144.6 -0.0050189 190.99 0.12774 2.6725 0.37418 486.67 528.93 2.4423 1.2286 1.4547 218.93 0.45403 6.3481 0.011790
-38.625 17.097 0.016653 114.35 115.26 0.67073 576.83 0.0017336 108.03 108.24 0.64077 1.4550 2.2623 1138.0 -0.0049761 188.88 0.12716 2.7813 0.35955 487.74 530.12 2.4397 1.2332 1.4606 219.13 0.44900 6.3744 0.011880
-37.625 17.838 0.017318 116.85 117.79 0.68133 575.66 0.0017371 110.29 110.51 0.65039 1.4576 2.2671 1131.5 -0.0049327 186.81 0.12658 2.8934 0.34562 488.81 531.32 2.4371 1.2378 1.4665 219.33 0.44405 6.4007 0.011970
-36.625 18.604 0.018002 119.35 120.34 0.69193 574.49 0.0017407 112.56 112.78 0.65999 1.4602 2.2719 1125.0 -0.0048887 184.76 0.12600 3.0089 0.33235 489.88 532.51 2.4346 1.2424 1.4724 219.52 0.43920 6.4270 0.012060
-35.625 19.395 0.018708 121.86 122.89 0.70253 573.32 0.0017442 114.83 115.06 0.66956 1.4628 2.2768 1118.5 -0.0048440 182.75 0.12542 3.1280 0.31969 490.95 533.70 2.4321 1.2471 1.4784 219.70 0.43444 6.4533 0.012151
-34.625 20.212 0.019434 124.39 125.46 0.71314 572.14 0.0017478 117.10 117.34 0.67912 1.4654 2.2818 1111.9 -0.0047987 180.76 0.12485 3.2506 0.30763 492.02 534.89 2.4297 1.2517 1.4845 219.88 0.42977 6.4797 0.012243
-33.625 21.056 0.020182 126.92 128.04 0.72374 570.96 0.0017514 119.38 119.63 0.68865 1.4681 2.2868 1105.4 -0.0047527 178.80 0.12427 3.3770 0.29612 493.09 536.08 2.4273 1.2564 1.4906 220.05 0.42519 6.5060 0.012334
-32.625 21.926 0.020951 129.47 130.63 0.73435 569.77 0.0017551 121.66 121.93 0.69817 1.4708 2.2918 1098.9 -0.0047061 176.87 0.12370 3.5071 0.28514 494.17 537.27 2.4250 1.2611 1.4968 220.21 0.42070 6.5323 0.012426
-31.625 22.823 0.021743 132.02 133.23 0.74496 568.58 0.0017588 123.95 124.23 0.70767 1.4735 2.2970 1092.3 -0.0046587 174.97 0.12313 3.6410 0.27465 495.24 538.46 2.4227 1.2659 1.5031 220.36 0.41629 6.5587 0.012519
-30.625 23.749 0.022558 134.59 135.85 0.75557 567.39 0.0017625 126.24 126.53 0.71714 1.4762 2.3021 1085.8 -0.0046107 173.09 0.12256 3.7787 0.26464 496.31 539.64 2.4205 1.2706 1.5094 220.51 0.41196 6.5850 0.012612
-29.625 24.703 0.023395 137.17 138.48 0.76618 566.19 0.0017662 128.54 128.84 0.72660 1.4790 2.3074 1079.3 -0.0045619 171.24 0.12200 3.9205 0.25507 497.38 540.83 2.4184 1.2754 1.5157 220.65 0.40772 6.6114 0.012706
-28.625 25.687 0.024257 139.76 141.12 0.77680 564.99 0.0017699 130.84 131.16 0.73604 1.4818 2.3126 1072.8 -0.0045124 169.42 0.12143 4.0663 0.24592 498.46 542.01 2.4162 1.2802 1.5222 220.79 0.40356 6.6378 0.012800
-27.625 26.700 0.025142 142.36 143.78 0.78742 563.78 0.0017737 133.15 133.48 0.74547 1.4846 2.3180 1066.2 -0.0044621 167.62 0.12087 4.2163 0.23717 499.53 543.19 2.4142 1.2850 1.5286 220.91 0.39947 6.6642 0.012894
-26.625 27.743 0.026053 144.98 146.45 0.79805 562.57 0.0017775 135.47 135.81 0.75487 1.4874 2.3234 1059.7 -0.0044111 165.84 0.12031 4.3705 0.22881 500.60 544.37 2.4122 1.2899 1.5352 221.03 0.39547 6.6906 0.012989
-25.625 28.817 0.026988 147.60 149.13 0.80868 561.36 0.0017814 137.78 138.14 0.76426 1.4902 2.3289 1053.2 -0.0043593 164.09 0.11975 4.5290 0.22080 501.68 545.55 2.4102 1.2947 1.5418 221.14 0.39154 6.7171 0.013084
-24.625 29.923 0.027949 150.24 151.83 0.81932 560.14 0.0017853 140.11 140.48 0.77363 1.4931 2.3344 1046.7 -0.0043067 162.36 0.11919 4.6918 0.21314 502.75 546.72 2.4083 1.2996 1.5485 221.25 0.38768 6.7436 0.013180
-23.625 31.061 0.028936 152.89 154.54 0.82996 558.92 0.0017892 142.44 142.82 0.78298 1.4960 2.3400 1040.1 -0.0042533 160.65 0.11863 4.8592 0.20580 503.82 547.90 2.4064 1.3045 1.5552 221.35 0.38391 6.7701 0.013277
-22.625 32.232 0.029949 155.56 157.26 0.84061 557.69 0.0017931 144.77 145.17 0.79232 1.4990 2.3457 1033.6 -0.0041990 158.97 0.11807 5.0311 0.19877 504.90 549.07 2.4045 1.3095 1.5621 221.44 0.38020 6.7967 0.013374
-21.625 33.435 0.030990 158.23 160.00 0.85126 556.46 0.0017971 147.11 147.52 0.80164 1.5019 2.3514 1027.1 -0.0041439 157.30 0.11752 5.2076 0.19203 505.97 550.24 2.4027 1.3144 1.5690 221.52 0.37656 6.8232 0.013471
-20.625 34.673 0.032058 160.92 162.76 0.86192 555.23 0.0018011 149.45 149.88 0.81095 1.5049 2.3572 1020.6 -0.0040879 155.66 0.11697 5.3889 0.18557 507.04 551.40 2.4010 1.3194 1.5759 221.59 0.37300 6.8499 0.013569
-19.625 35.946 0.033155 163.62 165.52 0.87259 553.99 0.0018051 151.80 152.25 0.82024 1.5079 2.3630 1014.0 -0.0040311 154.04 0.11642 5.5750 0.17937 508.11 552.57 2.3992 1.3244 1.5829 221.66 0.36950 6.8765 0.013668
-18.625 37.253 0.034280 166.33 168.31 0.88327 552.74 0.0018092 154.16 154.62 0.82952 1.5109 2.3689 1007.5 -0.0039733 152.44 0.11587 5.7660 0.17343 509.19 553.73 2.3976 1.3294 1.5901 221.72 0.36608 6.9032 0.013767
-17.625 38.596 0.035434 169.05 171.10 0.89396 551.49 0.0018133 156.52 157.00 0.83878 1.5140 2.3749 1001.0 -0.0039145 150.86 0.11532 5.9621 0.16773 510.26 554.89 2.3959 1.3345 1.5972 221.77 0.36272 6.9300 0.013867
-16.625 39.976 0.036618 171.79 173.91 0.90465 550.24 0.0018174 158.89 159.39 0.84803 1.5171 2.3810 994.44 -0.0038549 149.29 0.11478 6.1632 0.16225 511.33 556.05 2.3943 1.3395 1.6045 221.81 0.35942 6.9568 0.013968
-15.625 41.392 0.037833 174.54 176.74 0.91536 548.98 0.0018216 161.26 161.78 0.85726 1.5202 2.3871 987.91 -0.0037942 147.75 0.11423 6.3696 0.15700 512.40 557.20 2.3927 1.3446 1.6119 221.85 0.35619 6.9836 0.014069
-14.625 42.846 0.039078 177.31 179.58 0.92607 547.71 0.0018258 163.64 164.18 0.86649 1.5233 2.3933 981.37 -0.0037325 146.22 0.11369 6.5812 0.15195 513.47 558.36 2.3912 1.3497 1.6193 221.87 0.35302 7.0105 0.014170
-13.625 44.338 0.040356 180.09 182.44 0.93679 546.44 0.0018300 166.02 166.58 0.87569 1.5264 2.3996 974.83 -0.0036698 144.72 0.11315 6.7983 0.14710 514.54 559.51 2.3897 1.3549 1.6268 221.89 0.34992 7.0375 0.014273
-12.625 45.870 0.041665 182.88 185.31 0.94753 545.17 0.0018343 168.41 168.99 0.88489 1.5296 2.4059 968.29 -0.0036061 143.23 0.11261 7.0208 0.14243 515.61 560.65 2.3883 1.3600 1.6344 221.90 0.34688 7.0646 0.014376
-11.625 47.440 0.043007 185.68 188.20 0.95827 543.89 0.0018386 170.81 171.41 0.89407 1.5328 2.4124 961.75 -0.0035413 141.76 0.11208 7.2490 0.13795 516.68 561.80 2.3868 1.3652 1.6421 221.91 0.34389 7.0917 0.014479
-10.625 49.051 0.044382 188.50 191.10 0.96902 542.60 0.0018430 173.21 173.83 0.90324 1.5360 2.4189 955.20 -0.0034753 140.30 0.11154 7.4829 0.13364 517.75 562.94 2.3854 1.3704 1.6498 221.90 0.34097 7.1188 0.014584
-9.6250 50.703 0.045792 191.33 194.02 0.97979 541.31 0.0018474 175.61 176.26 0.91240 1.5393 2.4255 948.65 -0.0034082 138.86 0.11101 7.7226 0.12949 518.81 564.08 2.3841 1.3757 1.6577 221.88 0.33810 7.1461 0.014689
-8.6250 52.396 0.047236 194.18 196.95 0.99056 540.02 0.0018518 178.03 178.70 0.92154 1.5426 2.4321 942.10 -0.0033400 137.44 0.11048 7.9683 0.12550 519.88 565.21 2.3827 1.3809 1.6657 221.86 0.33529 7.1734 0.014795
-7.6250 54.131 0.048716 197.03 199.91 1.0014 538.72 0.0018563 180.45 181.14 0.93068 1.5459 2.4389 935.55 -0.0032705 136.03 0.10995 8.2200 0.12165 520.94 566.35 2.3814 1.3862 1.6737 221.83 0.33254 7.2008 0.014902
-6.6250 55.909 0.050231 199.91 202.87 1.0122 537.41 0.0018608 182.87 183.59 0.93980 1.5492 2.4457 928.99 -0.0031998 134.64 0.10942 8.4779 0.11795 522.01 567.48 2.3801 1.3915 1.6819 221.79 0.32984 7.2284 0.015009
-5.6250 57.730 0.051784 202.80 205.86 1.0230 536.10 0.0018653 185.30 186.05 0.94892 1.5525 2.4526 922.43 -0.0031279 133.27 0.10889 8.7420 0.11439 523.07 568.60 2.3789 1.3969 1.6902 221.74 0.32720 7.2560 0.015117
-4.6250 59.595 0.053374 205.70 208.86 1.0338 534.78 0.0018699 187.74 188.51 0.95802 1.5559 2.4596 915.87 -0.0030546 131.91 0.10837 9.0126 0.11096 524.13 569.72 2.3777 1.4022 1.6985 221.68 0.32461 7.2837 0.015226
-3.6250 61.505 0.055002 208.61 211.88 1.0446 533.45 0.0018746 190.19 190.98 0.96711 1.5593 2.4667 909.30 -0.0029800 130.56 0.10785 9.2896 0.10765 525.19 570.84 2.3765 1.4076 1.7070 221.62 0.32207 7.3115 0.015336
-2.6250 63.461 0.056669 211.54 214.91 1.0555 532.12 0.0018793 192.64 193.46 0.97620 1.5627 2.4739 902.73 -0.0029041 129.23 0.10733 9.5733 0.10446 526.25 571.96 2.3753 1.4131 1.7156 221.54 0.31958 7.3394 0.015447
-1.6250 65.462 0.058376 214.49 217.96 1.0664 530.78 0.0018840 195.10 195.95 0.98527 1.5662 2.4811 896.16 -0.0028267 127.91 0.10681 9.8638 0.10138 527.31 573.07 2.3742 1.4185 1.7243 221.45 0.31715 7.3674 0.015559
-0.62500 67.510 0.060124 217.45 221.03 1.0772 529.44 0.0018888 197.56 198.44 0.99434 1.5696 2.4885 889.58 -0.0027478 126.61 0.10629 10.161 0.098414 528.37 574.18 2.3731 1.4240 1.7331 221.36 0.31476 7.3956 0.015671
0.37500 69.606 0.061913 220.42 224.11 1.0881 528.09 0.0018936 200.03 200.94 1.0034 1.5731 2.4960 883.00 -0.0026675 125.32 0.10578 10.466 0.095552 529.42 575.28 2.3720 1.4295 1.7421 221.26 0.31242 7.4239 0.015785
1.3750 71.749 0.063744 223.41 227.22 1.0990 526.73 0.0018985 202.51 203.45 1.0124 1.5767 2.5035 876.42 -0.0025856 124.04 0.10527 10.777 0.092790 530.48 576.38 2.3709 1.4350 1.7512 221.14 0.31013 7.4523 0.015899
2.3750 73.941 0.065619 226.42 230.34 1.1100 525.37 0.0019034 204.99 205.96 1.0215 1.5802 2.5112 869.83 -0.0025022 122.78 0.10476 11.096 0.090123 531.53 577.47 2.3699 1.4406 1.7604 221.02 0.30789 7.4808 0.016015
3.3750 76.183 0.067537 229.44 233.48 1.1209 523.99 0.0019084 207.48 208.48 1.0305 1.5838 2.5190 863.24 -0.0024171 121.53 0.10425 11.422 0.087549 532.58 578.56 2.3688 1.4462 1.7697 220.89 0.30569 7.5095 0.016131
4.3750 78.475 0.069500 232.47 236.63 1.1319 522.62 0.0019134 209.98 211.01 1.0395 1.5874 2.5268 856.64 -0.0023303 120.29 0.10374 11.756 0.085062 533.63 579.65 2.3678 1.4518 1.7792 220.75 0.30354 7.5384 0.016249
5.3750 80.817 0.071509 235.52 239.81 1.1428 521.23 0.0019185 212.48 213.55 1.0486 1.5910 2.5348 850.04 -0.0022417 119.06 0.10324 12.098 0.082660 534.67 580.73 2.3669 1.4575 1.7888 220.60 0.30144 7.5674 0.016368
6.3750 83.211 0.073565 238.59 243.00 1.1538 519.84 0.0019237 215.00 216.10 1.0576 1.5946 2.5429 843.43 -0.0021514 117.85 0.10273 12.447 0.080340 535.72 581.81 2.3659 1.4632 1.7986 220.44 0.29938 7.5966 0.016487
7.3750 85.657 0.075668 241.67 246.21 1.1648 518.44 0.0019289 217.51 218.65 1.0666 1.5983 2.5511 836.82 -0.0020593 116.65 0.10223 12.805 0.078096 536.76 582.88 2.3650 1.4689 1.8085 220.27 0.29736 7.6259 0.016608
8.3750 88.156 0.077820 244.77 249.44 1.1758 517.03 0.0019341 220.04 221.22 1.0756 1.6020 2.5595 830.20 -0.0019652 115.46 0.10173 13.170 0.075928 537.80 583.95 2.3640 1.4746 1.8186 220.08 0.29538 7.6555 0.016730
9.3750 90.708 0.080022 247.88 252.69 1.1869 515.62 0.0019394 222.57 223.79 1.0846 1.6057 2.5679 823.58 -0.0018691 114.28 0.10124 13.545 0.073830 538.84 585.01 2.3631 1.4804 1.8288 219.89 0.29345 7.6852 0.016853
10.375 93.315 0.082275 251.01 255.96 1.1979 514.19 0.0019448 225.11 226.37 1.0936 1.6095 2.5765 816.96 -0.0017710 113.11 0.10074 13.927 0.071802 539.87 586.07 2.3622 1.4863 1.8392 219.69 0.29156 7.7151 0.016978
11.375 95.977 0.084580 254.16 259.25 1.2090 512.76 0.0019502 227.66 228.95 1.1025 1.6132 2.5852 810.32 -0.0016708 111.95 0.10025 14.319 0.069840 540.90 587.12 2.3614 1.4921 1.8498 219.48 0.28971 7.7452 0.017103
12.375 98.694 0.086938 257.32 262.55 1.2201 511.32 0.0019557 230.22 231.55 1.1115 1.6170 2.5940 803.68 -0.0015685 110.80 0.099756 14.719 0.067941 541.93 588.17 2.3605 1.4980 1.8605 219.26 0.28790 7.7756 0.017230
13.375 101.47 0.089350 260.50 265.88 1.2312 509.87 0.0019613 232.78 234.15 1.1205 1.6208 2.6030 797.04 -0.0014639 109.67 0.099267 15.128 0.066103 542.96 589.21 2.3597 1.5040 1.8715 219.03 0.28612 7.8061 0.017359
14.375 104.30 0.091818 263.69 269.22 1.2424 508.42 0.0019669 235.35 236.77 1.1295 1.6247 2.6121 790.39 -0.0013569 108.54 0.098779 15.547 0.064323 543.99 590.24 2.3588 1.5099 1.8826 218.79 0.28439 7.8369 0.017488
15.375 107.19 0.094343 266.90 272.59 1.2535 506.95 0.0019726 237.93 239.39 1.1384 1.6286 2.6214 783.73 -0.0012476 107.43 0.098294 15.974 0.062600 545.01 591.27 2.3580 1.5159 1.8940 218.53 0.28270 7.8680 0.017619
16.375 110.13 0.096925 270.13 275.97 1.2647 505.48 0.0019783 240.52 242.02 1.1474 1.6324 2.6308 777.07 -0.0011357 106.32 0.097810 16.412 0.060931 546.03 592.29 2.3572 1.5220 1.9055 218.27 0.28104 7.8993 0.017752
17.375 113.14 0.099567 273.37 279.37 1.2759 504.00 0.0019841 243.11 244.66 1.1564 1.6364 2.6403 770.40 -0.0010213 105.22 0.097328 16.859 0.059314 547.04 593.31 2.3564 1.5281 1.9172 217.99 0.27942 7.9308 0.017886
18.375 116.21 0.10227 276.64 282.80 1.2871 502.50 0.0019900 245.72 247.31 1.1653 1.6403 2.6501 763.72 -0.00090422 104.14 0.096848 17.317 0.057747 548.05 594.32 2.3557 1.5342 1.9292 217.71 0.27783 7.9626 0.018021
19.375 119.33 0.10504 279.91 286.24 1.2983 501.00 0.0019960 248.33 249.97 1.1743 1.6443 2.6599 757.04 -0.00078435 103.06 0.096371 17.785 0.056228 549.06 595.33 2.3549 1.5404 1.9414 217.41 0.27628 7.9947 0.018159
20.375 122.52 0.10786 283.21 289.71 1.3095 499.49 0.0020020 250.95 252.64 1.1832 1.6483 2.6700 750.35 -0.00066161 101.99 0.095895 18.263 0.054756 550.07 596.32 2.3541 1.5466 1.9538 217.10 0.27477 8.0272 0.018297
21.375 125.77 0.11076 286.52 293.19 1.3208 497.97 0.0020082 253.57 255.32 1.1922 1.6523 2.6802 743.64 -0.00053589 100.93 0.095420 18.752 0.053328 551.07 597.31 2.3534 1.5528 1.9665 216.78 0.27329 8.0599 0.018438
22.375 129.08 0.11372 289.85 296.70 1.3321 496.43 0.0020144 256.21 258.00 1.2012 1.6563 2.6906 736.94 -0.00040708 99.877 0.094948 19.252 0.051943 552.07 598.30 2.3526 1.5591 1.9795 216.45 0.27184 8.0929 0.018580
23.375 132.46 0.11675 293.20 300.23 1.3434 494.89 0.0020206 258.86 260.70 1.2101 1.6604 2.7012 730.22 -0.00027505 98.834 0.094478 19.763 0.050600 553.06 599.27 2.3519 1.5655 1.9927 216.11 0.27043 8.1263 0.018724
24.375 135.90 0.11985 296.57 303.78 1.3547 493.34 0.0020270 261.51 263.41 1.2191 1.6645 2.7120 723.49 -0.00013968 97.800 0.094009 20.285 0.049297 554.05 600.24 2.3512 1.5718 2.0061 215.75 0.26906 8.1600 0.018870
25.375 139.41 0.12302 299.95 307.35 1.3661 491.77 0.0020335 264.17 266.13 1.2280 1.6686 2.7230 716.76 -8.3775e-07 96.773 0.093543 20.820 0.048032 555.03 601.20 2.3504 1.5783 2.0199 215.39 0.26771 8.1941 0.019017
26.375 142.98 0.12627 303.36 310.94 1.3775 490.20 0.0020400 266.84 268.85 1.2370 1.6728 2.7342 710.01 0.00014161 95.755 0.093078 21.366 0.046804 556.01 602.15 2.3497 1.5847 2.0340 215.01 0.26640 8.2286 0.019167
27.375 146.62 0.12959 306.78 314.55 1.3889 488.61 0.0020466 269.52 271.59 1.2459 1.6770 2.7456 703.26 0.00028782 94.745 0.092615 21.924 0.045612 556.99 603.10 2.3490 1.5913 2.0484 214.62 0.26512 8.2634 0.019319
28.375 150.33 0.13299 310.22 318.19 1.4003 487.01 0.0020533 272.21 274.34 1.2549 1.6812 2.7573 696.49 0.00043793 93.742 0.092154 22.495 0.044454 557.96 604.03 2.3483 1.5978 2.0631 214.21 0.26387 8.2987 0.019472
29.375 154.10 0.13647 313.67 321.85 1.4118 485.40 0.0020601 274.91 277.10 1.2638 1.6854 2.7691 689.72 0.00059212 92.747 0.091695 23.079 0.043329 558.92 604.96 2.3476 1.6044 2.0781 213.80 0.26265 8.3344 0.019628
30.375 157.94 0.14004 317.15 325.53 1.4232 483.78 0.0020671 277.62 279.87 1.2728 1.6897 2.7813 682.93 0.00075055 91.760 0.091238 23.676 0.042237 559.88 605.88 2.3469 1.6111 2.0935 213.37 0.26147 8.3705 0.019786
31.375 161.86 0.14369 320.65 329.23 1.4347 482.15 0.0020741 280.34 282.66 1.2818 1.6939 2.7936 676.13 0.00091340 90.779 0.090782 24.287 0.041175 560.84 606.79 2.3462 1.6178 2.1092 212.93 0.26031 8.4071 0.019947
32.375 165.84 0.14742 324.16 332.95 1.4462 480.50 0.0020812 283.07 285.45 1.2908 1.6983 2.8063 669.32 0.0010809 89.806 0.090328 24.911 0.040143 561.79 607.69 2.3455 1.6246 2.1254 212.48 0.25919 8.4442 0.020110
33.375 169.90 0.15125 327.69 336.70 1.4578 478.83 0.0020884 285.81 288.26 1.2997 1.7026 2.8192 662.50 0.0012532 88.840 0.089876 25.549 0.039140 562.73 608.58 2.3448 1.6314 2.1419 212.01 0.25809 8.4818 0.020275
34.375 174.02 0.15516 331.25 340.47 1.4694 477.16 0.0020957 288.56 291.07 1.3087 1.7070 2.8324 655.67 0.0014305 87.880 0.089426 26.202 0.038164 563.67 609.46 2.3440 1.6383 2.1589 211.53 0.25702 8.5199 0.020443
35.375 178.22 0.15918 334.82 344.27 1.4810 475.47 0.0021032 291.32 293.90 1.3177 1.7114 2.8459 648.82 0.0016131 86.927 0.088977 26.870 0.037216 564.60 610.33 2.3433 1.6452 2.1763 211.04 0.25599 8.5586 0.020613
36.375 182.50 0.16329 338.41 348.09 1.4926 473.77 0.0021107 294.09 296.74 1.3267 1.7158 2.8597 641.96 0.0018012 85.980 0.088531 27.553 0.036293 565.52 611.19 2.3426 1.6522 2.1942 210.53 0.25498 8.5978 0.020786
37.375 186.84 0.16750 342.02 351.93 1.5042 472.05 0.0021184 296.87 299.60 1.3357 1.7203 2.8739 635.08 0.0019950 85.040 0.088085 28.252 0.035395 566.44 612.04 2.3419 1.6592 2.2125 210.01 0.25400 8.6376 0.020962
38.375 191.27 0.17182 345.65 355.80 1.5159 470.31 0.0021262 299.66 302.46 1.3447 1.7248 2.8884 628.19 0.0021949 84.105 0.087642 28.967 0.034522 567.35 612.88 2.3411 1.6663 2.2314 209.47 0.25305 8.6780 0.021141
39.375 195.77 0.17624 349.30 359.69 1.5276 468.56 0.0021342 302.46 305.34 1.3537 1.7293 2.9033 621.29 0.0024011 83.177 0.087200 29.699 0.033671 568.26 613.70 2.3404 1.6734 2.2508 208.92 0.25213 8.7190 0.021323
40.375 200.34 0.18078 352.98 363.60 1.5393 466.80 0.0021423 305.27 308.23 1.3627 1.7339 2.9185 614.37 0.0026140 82.254 0.086760 30.447 0.032844 569.15 614.52 2.3396 1.6806 2.2708 208.36 0.25123 8.7608 0.021508
41.375 205.00 0.18543 356.67 367.54 1.5511 465.01 0.0021505 308.10 311.14 1.3718 1.7385 2.9342 607.43 0.0028338 81.338 0.086322 31.214 0.032037 570.04 615.32 2.3389 1.6879 2.2913 207.78 0.25037 8.8032 0.021696
42.375 209.73 0.19020 360.38 371.51 1.5629 463.21 0.0021588 310.94 314.06 1.3808 1.7432 2.9502 600.47 0.0030609 80.426 0.085885 31.998 0.031252 570.92 616.11 2.3381 1.6952 2.3125 207.19 0.24953 8.8463 0.021888
43.375 214.54 0.19509 364.12 375.50 1.5747 461.40 0.0021673 313.79 316.99 1.3899 1.7478 2.9667 593.50 0.0032957 79.520 0.085449 32.800 0.030488 571.79 616.88 2.3373 1.7027 2.3344 206.58 0.24871 8.8902 0.022084
44.375 219.43 0.20011 367.88 379.51 1.5866 459.56 0.0021760 316.65 319.94 1.3989 1.7525 2.9837 586.51 0.0035386 78.619 0.085015 33.622 0.029742 572.65 617.65 2.3365 1.7101 2.3569 205.96 0.24793 8.9349 0.022283
45.375 224.41 0.20526 371.65 383.56 1.5984 457.71 0.0021848 319.52 322.90 1.4080 1.7573 3.0012 579.50 0.0037900 77.723 0.084583 34.463 0.029016 573.50 618.40 2.3357 1.7177 2.3802 205.32 0.24717 8.9805 0.022485
46.375 229.46 0.21055 375.45 387.62 1.6103 455.83 0.0021938 322.41 325.88 1.4171 1.7621 3.0192 572.46 0.0040504 76.832 0.084152 35.325 0.028308 574.34 619.13 2.3349 1.7253 2.4042 204.67 0.24644 9.0269 0.022692
47.375 234.60 0.21599 379.28 391.72 1.6223 453.94 0.0022029 325.31 328.87 1.4262 1.7669 3.0377 565.41 0.0043202 75.946 0.083723 36.208 0.027618 575.17 619.85 2.3340 1.7329 2.4291 204.00 0.24573 9.0742 0.022903
48.375 239.83 0.22157 383.12 395.84 1.6343 452.03 0.0022123 328.22 331.88 1.4353 1.7718 3.0569 558.34 0.0046000 75.064 0.083295 37.112 0.026945 576.00 620.55 2.3332 1.7407 2.4548 203.31 0.24505 9.1224 0.023119
49.375 245.13 0.22730 386.99 399.99 1.6463 450.09 0.0022218 331.15 334.90 1.4445 1.7767 3.0766 551.24 0.0048904 74.186 0.082868 38.039 0.026289 576.81 621.24 2.3323 1.7485 2.4815 202.61 0.24440 9.1716 0.023339
50.375 250.53 0.23320 390.88 404.16 1.6583 448.13 0.0022315 334.09 337.94 1.4536 1.7817 3.0970 544.13 0.0051920 73.313 0.082442 38.989 0.025648 577.61 621.91 2.3314 1.7564 2.5092 201.89 0.24377 9.2219 0.023564
51.375 256.01 0.23926 394.79 408.37 1.6704 446.15 0.0022414 337.04 341.00 1.4628 1.7867 3.1181 536.98 0.0055054 72.443 0.082018 39.962 0.025024 578.39 622.56 2.3304 1.7644 2.5379 201.16 0.24317 9.2733 0.023794
52.375 261.57 0.24550 398.73 412.60 1.6825 444.15 0.0022515 340.01 344.07 1.4720 1.7918 3.1400 529.82 0.0058313 71.577 0.081595 40.961 0.024414 579.17 623.20 2.3295 1.7724 2.5677 200.41 0.24260 9.3258 0.024029
53.375 267.23 0.25192 402.69 416.86 1.6946 442.12 0.0022618 343.00 347.17 1.4812 1.7969 3.1627 522.62 0.0061705 70.715 0.081174 41.985 0.023818 579.93 623.81 2.3285 1.7805 2.5987 199.63 0.24205 9.3795 0.024270
54.375 272.97 0.25853 406.67 421.15 1.7068 440.06 0.0022724 346.00 350.28 1.4904 1.8021 3.1862 515.40 0.0065239 69.856 0.080753 43.036 0.023237 580.68 624.41 2.3274 1.7887 2.6310 198.85 0.24154 9.4344 0.024516
55.375 278.81 0.26534 410.68 425.47 1.7191 437.98 0.0022832 349.02 353.40 1.4997 1.8073 3.2106 508.15 0.0068923 69.001 0.080334 44.114 0.022669 581.41 624.99 2.3264 1.7969 2.6646 198.04 0.24105 9.4907 0.024769
56.375 284.74 0.27236 414.71 429.81 1.7313 435.87 0.0022943 352.05 356.55 1.5090 1.8126 3.2360 500.87 0.0072767 68.148 0.079915 45.221 0.022114 582.13 625.54 2.3253 1.8052 2.6998 197.22 0.24059 9.5484 0.025028
57.375 290.76 0.27960 418.77 434.19 1.7436 433.73 0.0023056 355.10 359.72 1.5183 1.8179 3.2624 493.56 0.0076782 67.299 0.079498 46.358 0.021571 582.83 626.07 2.3241 1.8136 2.7365 196.37 0.24016 9.6075 0.025294
58.375 296.87 0.28707 422.86 438.60 1.7560 431.56 0.0023172 358.17 362.91 1.5276 1.8233 3.2900 486.22 0.0080980 66.451 0.079082 47.525 0.021041 583.52 626.58 2.3230 1.8220 2.7749 195.51 0.23976 9.6682 0.025568
59.375 303.08 0.29478 426.97 443.04 1.7683 429.36 0.0023290 361.25 366.12 1.5370 1.8288 3.3188 478.84 0.0085373 65.606 0.078666 48.726 0.020523 584.18 627.07 2.3218 1.8305 2.8152 194.63 0.23939 9.7305 0.025849
60.375 309.38 0.30275 431.11 447.51 1.7808 427.13 0.0023412 364.36 369.35 1.5464 1.8343 3.3489 471.43 0.0089976 64.763 0.078251 49.960 0.020016 584.83 627.53 2.3205 1.8391 2.8576 193.73 0.23905 9.7945 0.026138
61.375 315.78 0.31099 435.27 452.02 1.7932 424.87 0.0023537 367.48 372.60 1.5558 1.8400 3.3805 463.99 0.0094803 63.922 0.077838 51.229 0.019520 585.46 627.96 2.3192 1.8479 2.9022 192.82 0.23873 9.8603 0.026436
62.375 322.28 0.31951 439.46 456.55 1.8057 422.56 0.0023665 370.62 375.88 1.5653 1.8457 3.4136 456.50 0.0099871 63.083 0.077425 52.535 0.019035 586.07 628.37 2.3178 1.8567 2.9492 191.88 0.23845 9.9281 0.026744
63.375 328.88 0.32834 443.68 461.12 1.8183 420.22 0.0023797 373.79 379.18 1.5748 1.8514 3.4483 448.97 0.010520 62.244 0.077012 53.879 0.018560 586.66 628.74 2.3164 1.8656 2.9989 190.92 0.23819 9.9979 0.027061
64.375 335.58 0.33749 447.93 465.73 1.8309 417.85 0.0023932 376.97 382.51 1.5844 1.8573 3.4850 441.40 0.011081 61.407 0.076600 55.265 0.018095 587.22 629.09 2.3149 1.8747 3.0517 189.95 0.23796 10.070 0.027389
65.375 342.38 0.34698 452.21 470.37 1.8436 415.42 0.0024072 380.18 385.86 1.5939 1.8633 3.5236 433.79 0.011672 60.570 0.076189 56.692 0.017639 587.76 629.40 2.3133 1.8839 3.1077 188.95 0.23775 10.144 0.027729
66.375 349.28 0.35683 456.52 475.04 1.8563 412.96 0.0024215 383.41 389.25 1.6036 1.8693 3.5645 426.12 0.012296 59.733 0.075779 58.165 0.017193 588.28 629.68 2.3117 1.8933 3.1674 187.93 0.23757 10.221 0.028080
67.375 356.28 0.36707 460.85 479.75 1.8690 410.45 0.0024363 386.67 392.65 1.6133 1.8755 3.6078 418.41 0.012956 58.897 0.075368 59.684 0.016755 588.76 629.92 2.3100 1.9030 3.2311 186.89 0.23740 10.300 0.028446
68.375 363.40 0.37773 465.22 484.50 1.8818 407.89 0.0024516 389.95 396.09 1.6230 1.8818 3.6537 410.64 0.013655 58.059 0.074959 61.253 0.016326 589.22 630.13 2.3082 1.9129 3.2994 185.83 0.23724 10.382 0.028825
69.375 370.61 0.38884 469.62 489.28 1.8947 405.28 0.0024674 393.26 399.57 1.6328 1.8882 3.7027 402.81 0.014396 57.221 0.074549 62.875 0.015905 589.65 630.29 2.3064 1.9231 3.3727 184.74 0.23710 10.467 0.029221
70.375 377.94 0.40042 474.06 494.10 1.9076 402.62 0.0024838 396.60 403.07 1.6426 1.8947 3.7550 394.92 0.015183 56.381 0.074141 64.552 0.015491 590.04 630.41 2.3044 1.9336 3.4518 183.63 0.23697 10.555 0.029633
71.375 385.37 0.41253 478.53 498.96 1.9206 399.89 0.0025007 399.96 406.61 1.6525 1.9014 3.8109 386.97 0.016021 55.540 0.073732 66.288 0.015086 590.40 630.49 2.3024 1.9444 3.5371 182.50 0.23684 10.647 0.030064
72.375 392.92 0.42519 483.03 503.87 1.9337 397.11 0.0025182 403.36 410.18 1.6625 1.9083 3.8711 378.95 0.016915 54.696 0.073324 68.087 0.014687 590.73 630.51 2.3002 1.9556 3.6297 181.34 0.23671 10.743 0.030515
73.375 400.57 0.43847 487.57 508.81 1.9468 394.26 0.0025364 406.79 413.80 1.6726 1.9153 3.9359 370.85 0.017871 53.848 0.072917 69.953 0.014295 591.01 630.49 2.2979 1.9673 3.7303 180.16 0.23658 10.842 0.030989
74.375 408.34 0.45241 492.14 513.80 1.9600 391.34 0.0025553 410.26 417.45 1.6827 1.9226 4.0060 362.67 0.018894 52.997 0.072510 71.890 0.013910 591.25 630.41 2.2955 1.9793 3.8401 178.95 0.23643 10.946 0.031488
75.375 416.23 0.46707 496.75 518.83 1.9732 388.34 0.0025751 413.76 421.15 1.6930 1.9301 4.0822 354.41 0.019993 52.142 0.072104 73.904 0.013531 591.44 630.27 2.2930 1.9919 3.9604 177.71 0.23627 11.054 0.032014
76.375 424.23 0.48254 501.40 523.90 1.9865 385.26 0.0025957 417.31 424.90 1.7033 1.9378 4.1654 346.06 0.021177 51.281 0.071699 76.001 0.013158 591.59 630.07 2.2903 2.0050 4.0927 176.44 0.23609 11.168 0.032570
77.375 432.35 0.49889 506.10 529.03 1.9999 382.09 0.0026172 420.89 428.70 1.7137 1.9459 4.2565 337.60 0.022455 50.414 0.071295 78.187 0.012790 591.68 629.80 2.2874 2.0186 4.2389 175.15 0.23588 11.287 0.033161
78.375 440.59 0.51623 510.83 534.20 2.0134 378.83 0.0026397 424.53 432.54 1.7243 1.9543 4.3570 329.05 0.023838 49.539 0.070893 80.469 0.012427 591.71 629.46 2.2844 2.0328 4.4012 173.82 0.23563 11.412 0.033789
79.375 448.95 0.53467 515.61 539.42 2.0270 375.46 0.0026634 428.21 436.45 1.7349 1.9631 4.4684 320.38 0.025341 48.657 0.070494 82.856 0.012069 591.68 629.04 2.2812 2.0475 4.5824 172.46 0.23535 11.544 0.034461
80.375 457.44 0.55434 520.44 544.70 2.0407 371.97 0.0026884 431.94 440.42 1.7457 1.9723 4.5928 311.58 0.026980 47.764 0.070099 85.359 0.011715 591.58 628.53 2.2778 2.0630 4.7859 171.07 0.23501 11.684 0.035181
81.375 466.05 0.57541 525.31 550.03 2.0544 368.36 0.0027147 435.74 444.46 1.7567 1.9820 4.7327 302.66 0.028773 46.860 0.069708 87.988 0.011365 591.40 627.92 2.2742 2.0791 5.0161 169.64 0.23461 11.832 0.035957
82.375 474.79 0.59809 530.23 555.42 2.0683 364.61 0.0027427 439.60 448.58 1.7678 1.9924 4.8914 293.60 0.030744 45.942 0.069323 90.757 0.011018 591.14 627.21 2.2703 2.0959 5.2786 168.17 0.23413 11.989 0.036797
83.375 483.66 0.62261 535.21 560.87 2.0823 360.70 0.0027724 443.53 452.78 1.7791 2.0034 5.0731 284.38 0.032920 45.010 0.068948 93.681 0.010674 590.79 626.38 2.2661 2.1136 5.5807 166.67 0.23357 12.157 0.037711
84.375 492.67 0.64929 540.25 566.38 2.0964 356.61 0.0028041 447.54 457.07 1.7907 2.0153 5.2834 275.00 0.035335 44.059 0.068586 96.781 0.010333 590.33 625.42 2.2616 2.1321 5.9321 165.13 0.23290 12.338 0.038713
85.375 501.81 0.67853 545.35 571.96 2.1107 352.33 0.0028382 451.65 461.47 1.8025 2.0281 5.5302 265.44 0.038030 43.088 0.068241 100.08 0.0099920 589.74 624.31 2.2567 2.1517 6.3459 163.54 0.23209 12.532 0.039819
86.375 511.09 0.71083 550.52 577.62 2.1250 347.82 0.0028751 455.85 465.98 1.8145 2.0420 5.8240 255.69 0.041058 42.092 0.067923 103.61 0.0096520 589.03 623.04 2.2514 2.1723 6.8405 161.91 0.23112 12.743 0.041051
87.375 520.51 0.74687 555.75 583.36 2.1396 343.04 0.0029151 460.18 470.64 1.8269 2.0574 6.1803 245.72 0.044485 41.066 0.067640 107.40 0.0093114 588.15 621.56 2.2456 2.1943 7.4422 160.23 0.22995 12.973 0.042436
88.375 530.07 0.78759 561.07 589.18 2.1543 337.95 0.0029590 464.64 475.45 1.8397 2.0745 6.6221 235.52 0.048397 40.005 0.067412 111.50 0.0089689 587.08 619.86 2.2392 2.2178 8.1900 158.49 0.22854 13.226 0.044014
89.375 539.79 0.83429 566.48 595.11 2.1693 332.48 0.0030077 469.27 480.46 1.8530 2.0936 7.1851 225.04 0.052906 38.901 0.067265 115.97 0.0086228 585.79 617.88 2.2321 2.2433 9.1445 156.69 0.22681 13.508 0.045839
90.375 549.66 0.88892 571.98 601.14 2.1844 326.55 0.0030623 474.10 485.71 1.8669 2.1156 7.9284 214.26 0.058166 37.742 0.067243 120.91 0.0082708 584.22 615.56 2.2241 2.2711 10.405 154.82 0.22467 13.825 0.047992
91.375 559.68 0.95456 577.61 607.29 2.1999 320.03 0.0031247 479.19 491.25 1.8815 2.1412 8.9568 203.11 0.064389 36.514 0.067421 126.43 0.0079097 582.29 612.82 2.2150 2.3019 12.146 152.85 0.22200 14.189 0.050600
92.375 568.34 undefined 581.92 612.07 2.2117 130.00 0.0076923 581.92 612.07 2.2117 2.3118 12.881 152.16 0.21857 14.446 0.051873 130.00 0.0076923 581.92 612.07 2.2117 2.3118 12.881 152.16 0.21857 14.446 0.051873
93.375 574.85 undefined 584.22 614.71 2.2180 130.00 0.0076923 584.22 614.71 2.2180 2.2895 11.621 153.42 0.21488 14.483 0.050751 130.00 0.0076923 584.22 614.71 2.2180 2.2895 11.621 153.42 0.21488 14.483 0.050751
94.375 581.30 undefined 586.50 617.33 2.2242 130.00 0.0076923 586.50 617.33 2.2242 2.2699 10.633 154.68 0.21127 14.523 0.049839 130.00 0.0076923 586.50 617.33 2.2242 2.2699 10.633 154.68 0.21127 14.523 0.049839
95.375 587.71 undefined 588.76 619.93 2.2303 130.00 0.0076923 588.76 619.93 2.2303 2.2526 9.8368 155.93 0.20774 14.570 0.049082 130.00 0.0076923 588.76 619.93 2.2303 2.2526 9.8368 155.93 0.20774 14.570 0.049082
96.375 594.07 undefined 591.01 622.52 2.2364 130.00 0.0076923 591.01 622.52 2.2364 2.2376 9.1821 157.17 0.20427 14.629 0.048441 130.00 0.0076923 591.01 622.52 2.2364 2.2376 9.1821 157.17 0.20427 14.629 0.048441
97.375 600.39 undefined 593.24 625.08 2.2424 130.00 0.0076923 593.24 625.08 2.2424 2.2245 8.6339 158.40 0.20088 14.654 0.047923 130.00 0.0076923 593.24 625.08 2.2424 2.2245 8.6339 158.40 0.20088 14.654 0.047923
98.375 606.68 undefined 595.46 627.63 2.2484 130.00 0.0076923 595.46 627.63 2.2484 2.2131 8.1679 159.62 0.19755 14.666 0.047492 130.00 0.0076923 595.46 627.63 2.2484 2.2131 8.1679 159.62 0.19755 14.666 0.047492
99.375 612.94 undefined 597.67 630.17 2.2544 130.00 0.0076923 597.67 630.17 2.2544 2.2033 7.7669 160.82 0.19429 14.689 0.047116 130.00 0.0076923 597.67 630.17 2.2544 2.2033 7.7669 160.82 0.19429 14.689 0.047116
100.38 619.16 undefined 599.87 632.70 2.2603 130.00 0.0076923 599.87 632.70 2.2603 2.1948 7.4179 162.02 0.19110 14.717 0.046790 130.00 0.0076923 599.87 632.70 2.2603 2.1948 7.4179 162.02 0.19110 14.717 0.046790
101.38 625.36 undefined 602.06 635.22 2.2661 130.00 0.0076923 602.06 635.22 2.2661 2.1874 7.1113 163.20 0.18798 14.748 0.046506 130.00 0.0076923 602.06 635.22 2.2661 2.1874 7.1113 163.20 0.18798 14.748 0.046506
102.38 631.54 undefined 604.24 637.74 2.2719 130.00 0.0076923 604.24 637.74 2.2719 2.1811 6.8397 164.38 0.18493 14.780 0.046260 130.00 0.0076923 604.24 637.74 2.2719 2.1811 6.8397 164.38 0.18493 14.780 0.046260
103.38 637.69 undefined 606.42 640.24 2.2777 130.00 0.0076923 606.42 640.24 2.2777 2.1756 6.5973 165.54 0.18194 14.812 0.046046 130.00 0.0076923 606.42 640.24 2.2777 2.1756 6.5973 165.54 0.18194 14.812 0.046046
104.38 643.82 undefined 608.59 642.74 2.2835 130.00 0.0076923 608.59 642.74 2.2835 2.1708 6.3797 166.69 0.17902 14.845 0.045860 130.00 0.0076923 608.59 642.74 2.2835 2.1708 6.3797 166.69 0.17902 14.845 0.045860
105.38 649.94 undefined 610.76 645.23 2.2892 130.00 0.0076923 610.76 645.23 2.2892 2.1667 6.1831 167.84 0.17617 14.878 0.045699 130.00 0.0076923 610.76 645.23 2.2892 2.1667 6.1831 167.84 0.17617 14.878 0.045699
106.38 656.03 undefined 612.93 647.72 2.2949 130.00 0.0076923 612.93 647.72 2.2949 2.1632 6.0046 168.97 0.17338 14.911 0.045560 130.00 0.0076923 612.93 647.72 2.2949 2.1632 6.0046 168.97 0.17338 14.911 0.045560
107.38 662.10 undefined 615.09 650.20 2.3006 130.00 0.0076923 615.09 650.20 2.3006 2.1601 5.8419 170.10 0.17066 14.944 0.045440 130.00 0.0076923 615.09 650.20 2.3006 2.1601 5.8419 170.10 0.17066 14.944 0.045440
108.38 668.16 undefined 617.25 652.68 2.3063 130.00 0.0076923 617.25 652.68 2.3063 2.1575 5.6929 171.22 0.16800 14.978 0.045338 130.00 0.0076923 617.25 652.68 2.3063 2.1575 5.6929 171.22 0.16800 14.978 0.045338
109.38 674.20 undefined 619.40 655.16 2.3119 130.00 0.0076923 619.40 655.16 2.3119 2.1553 5.5559 172.33 0.16540 15.011 0.045252 130.00 0.0076923 619.40 655.16 2.3119 2.1553 5.5559 172.33 0.16540 15.011 0.045252
110.38 680.23 undefined 621.56 657.63 2.3176 130.00 0.0076923 621.56 657.63 2.3176 2.1534 5.4296 173.44 0.16286 15.044 0.045179 130.00 0.0076923 621.56 657.63 2.3176 2.1534 5.4296 173.44 0.16286 15.044 0.045179
111.38 686.24 undefined 623.71 660.11 2.3232 130.00 0.0076923 623.71 660.11 2.3232 2.1518 5.3128 174.54 0.16038 15.077 0.045120 130.00 0.0076923 623.71 660.11 2.3232 2.1518 5.3128 174.54 0.16038 15.077 0.045120
112.38 692.24 undefined 625.86 662.57 2.3288 130.00 0.0076923 625.86 662.57 2.3288 2.1505 5.2045 175.63 0.15796 15.109 0.045072 130.00 0.0076923 625.86 662.57 2.3288 2.1505 5.2045 175.63 0.15796 15.109 0.045072
113.38 698.23 undefined 628.01 665.04 2.3343 130.00 0.0076923 628.01 665.04 2.3343 2.1494 5.1037 176.71 0.15559 15.142 0.045035 130.00 0.0076923 628.01 665.04 2.3343 2.1494 5.1037 176.71 0.15559 15.142 0.045035
114.38 704.20 undefined 630.16 667.51 2.3399 130.00 0.0076923 630.16 667.51 2.3399 2.1486 5.0098 177.79 0.15328 15.175 0.045007 130.00 0.0076923 630.16 667.51 2.3399 2.1486 5.0098 177.79 0.15328 15.175 0.045007
115.38 710.16 undefined 632.31 669.97 2.3454 130.00 0.0076923 632.31 669.97 2.3454 2.1480 4.9221 178.87 0.15101 15.208 0.044989 130.00 0.0076923 632.31 669.97 2.3454 2.1480 4.9221 178.87 0.15101 15.208 0.044989
116.38 716.10 undefined 634.46 672.43 2.3509 130.00 0.0076923 634.46 672.43 2.3509 2.1476 4.8401 179.93 0.14880 15.241 0.044979 130.00 0.0076923 634.46 672.43 2.3509 2.1476 4.8401 179.93 0.14880 15.241 0.044979
117.38 722.04 undefined 636.60 674.90 2.3564 130.00 0.0076923 636.60 674.90 2.3564 2.1474 4.7631 181.00 0.14664 15.273 0.044977 130.00 0.0076923 636.60 674.90 2.3564 2.1474 4.7631 181.00 0.14664 15.273 0.044977
118.38 727.96 undefined 638.75 677.36 2.3619 130.00 0.0076923 638.75 677.36 2.3619 2.1474 4.6908 182.05 0.14453 15.306 0.044982 130.00 0.0076923 638.75 677.36 2.3619 2.1474 4.6908 182.05 0.14453 15.306 0.044982
119.38 733.88 undefined 640.90 679.82 2.3674 130.00 0.0076923 640.90 679.82 2.3674 2.1475 4.6228 183.10 0.14246 15.339 0.044994 130.00 0.0076923 640.90 679.82 2.3674 2.1475 4.6228 183.10 0.14246 15.339 0.044994
120.38 739.78 undefined 643.05 682.28 2.3729 130.00 0.0076923 643.05 682.28 2.3729 2.1478 4.5588 184.15 0.14044 15.371 0.045012 130.00 0.0076923 643.05 682.28 2.3729 2.1478 4.5588 184.15 0.14044 15.371 0.045012
121.38 745.68 undefined 645.19 684.74 2.3783 130.00 0.0076923 645.19 684.74 2.3783 2.1482 4.4983 185.19 0.13846 15.404 0.045036 130.00 0.0076923 645.19 684.74 2.3783 2.1482 4.4983 185.19 0.13846 15.404 0.045036
122.38 751.56 undefined 647.34 687.20 2.3838 130.00 0.0076923 647.34 687.20 2.3838 2.1488 4.4412 186.22 0.13653 15.436 0.045065 130.00 0.0076923 647.34 687.20 2.3838 2.1488 4.4412 186.22 0.13653 15.436 0.045065
123.38 757.44 undefined 649.49 689.66 2.3892 130.00 0.0076923 649.49 689.66 2.3892 2.1495 4.3872 187.25 0.13463 15.469 0.045100 130.00 0.0076923 649.49 689.66 2.3892 2.1495 4.3872 187.25 0.13463 15.469 0.045100
124.38 763.30 undefined 651.64 692.12 2.3946 130.00 0.0076923 651.64 692.12 2.3946 2.1503 4.3360 188.27 0.13278 15.501 0.045139 130.00 0.0076923 651.64 692.12 2.3946 2.1503 4.3360 188.27 0.13278 15.501 0.045139
125.38 769.16 undefined 653.79 694.58 2.4000 130.00 0.0076923 653.79 694.58 2.4000 2.1512 4.2875 189.29 0.13096 15.534 0.045183 130.00 0.0076923 653.79 694.58 2.4000 2.1512 4.2875 189.29 0.13096 15.534 0.045183
126.38 775.01 undefined 655.94 697.05 2.4054 130.00 0.0076923 655.94 697.05 2.4054 2.1523 4.2414 190.30 0.12918 15.566 0.045231 130.00 0.0076923 655.94 697.05 2.4054 2.1523 4.2414 190.30 0.12918 15.566 0.045231
127.38 780.85 undefined 658.10 699.51 2.4108 130.00 0.0076923 658.10 699.51 2.4108 2.1534 4.1977 191.31 0.12744 15.598 0.045283 130.00 0.0076923 658.10 699.51 2.4108 2.1534 4.1977 191.31 0.12744 15.598 0.045283
128.38 786.68 undefined 660.25 701.97 2.4162 130.00 0.0076923 660.25 701.97 2.4162 2.1547 4.1560 192.31 0.12574 15.630 0.045339 130.00 0.0076923 660.25 701.97 2.4162 2.1547 4.1560 192.31 0.12574 15.630 0.045339
129.38 792.51 undefined 662.41 704.44 2.4215 130.00 0.0076923 662.41 704.44 2.4215 2.1560 4.1164 193.31 0.12407 15.663 0.045398 130.00 0.0076923 662.41 704.44 2.4215 2.1560 4.1164 193.31 0.12407 15.663 0.045398
130.38 798.32 undefined 664.56 706.90 2.4269 130.00 0.0076923 664.56 706.90 2.4269 2.1574 4.0786 194.30 0.12243 15.695 0.045461 130.00 0.0076923 664.56 706.90 2.4269 2.1574 4.0786 194.30 0.12243 15.695 0.045461
131.38 804.13 undefined 666.72 709.37 2.4322 130.00 0.0076923 666.72 709.37 2.4322 2.1589 4.0426 195.29 0.12083 15.727 0.045527 130.00 0.0076923 666.72 709.37 2.4322 2.1589 4.0426 195.29 0.12083 15.727 0.045527
132.38 809.94 undefined 668.88 711.84 2.4375 130.00 0.0076923 668.88 711.84 2.4375 2.1605 4.0083 196.28 0.11925 15.759 0.045596 130.00 0.0076923 668.88 711.84 2.4375 2.1605 4.0083 196.28 0.11925 15.759 0.045596
133.38 815.73 undefined 671.04 714.30 2.4429 130.00 0.0076923 671.04 714.30 2.4429 2.1622 3.9754 197.26 0.11771 15.791 0.045668 130.00 0.0076923 671.04 714.30 2.4429 2.1622 3.9754 197.26 0.11771 15.791 0.045668
134.38 821.52 undefined 673.20 716.77 2.4482 130.00 0.0076923 673.20 716.77 2.4482 2.1639 3.9441 198.23 0.11620 15.823 0.045743 130.00 0.0076923 673.20 716.77 2.4482 2.1639 3.9441 198.23 0.11620 15.823 0.045743
135.38 827.31 undefined 675.37 719.25 2.4535 130.00 0.0076923 675.37 719.25 2.4535 2.1657 3.9140 199.20 0.11472 15.855 0.045821 130.00 0.0076923 675.37 719.25 2.4535 2.1657 3.9140 199.20 0.11472 15.855 0.045821
136.38 833.08 undefined 677.54 721.72 2.4588 130.00 0.0076923 677.54 721.72 2.4588 2.1676 3.8853 200.17 0.11327 15.887 0.045901 130.00 0.0076923 677.54 721.72 2.4588 2.1676 3.8853 200.17 0.11327 15.887 0.045901
137.38 838.85 undefined 679.70 724.19 2.4641 130.00 0.0076923 679.70 724.19 2.4641 2.1695 3.8578 201.13 0.11184 15.919 0.045983 130.00 0.0076923 679.70 724.19 2.4641 2.1695 3.8578 201.13 0.11184 15.919 0.045983
138.38 844.62 undefined 681.87 726.67 2.4694 130.00 0.0076923 681.87 726.67 2.4694 2.1715 3.8314 202.08 0.11044 15.951 0.046068 130.00 0.0076923 681.87 726.67 2.4694 2.1715 3.8314 202.08 0.11044 15.951 0.046068
139.38 850.38 undefined 684.05 729.15 2.4746 130.00 0.0076923 684.05 729.15 2.4746 2.1736 3.8061 203.04 0.10907 15.982 0.046155 130.00 0.0076923 684.05 729.15 2.4746 2.1736 3.8061 203.04 0.10907 15.982 0.046155
140.38 856.13 undefined 686.22 731.63 2.4799 130.00 0.0076923 686.22 731.63 2.4799 2.1757 3.7819 203.99 0.10773 16.014 0.046244 130.00 0.0076923 686.22 731.63 2.4799 2.1757 3.7819 203.99 0.10773 16.014 0.046244
141.38 861.87 undefined 688.40 734.11 2.4852 130.00 0.0076923 688.40 734.11 2.4852 2.1778 3.7586 204.93 0.10641 16.046 0.046335 130.00 0.0076923 688.40 734.11 2.4852 2.1778 3.7586 204.93 0.10641 16.046 0.046335
142.38 867.62 undefined 690.58 736.59 2.4904 130.00 0.0076923 690.58 736.59 2.4904 2.1800 3.7362 205.87 0.10511 16.077 0.046428 130.00 0.0076923 690.58 736.59 2.4904 2.1800 3.7362 205.87 0.10511 16.077 0.046428
143.38 873.35 undefined 692.76 739.08 2.4956 130.00 0.0076923 692.76 739.08 2.4956 2.1822 3.7147 206.81 0.10384 16.109 0.046523 130.00 0.0076923 692.76 739.08 2.4956 2.1822 3.7147 206.81 0.10384 16.109 0.046523
144.38 879.08 undefined 694.94 741.57 2.5009 130.00 0.0076923 694.94 741.57 2.5009 2.1845 3.6941 207.74 0.10259 16.141 0.046620 130.00 0.0076923 694.94 741.57 2.5009 2.1845 3.6941 207.74 0.10259 16.141 0.046620
145.38 884.81 undefined 697.13 744.05 2.5061 130.00 0.0076923 697.13 744.05 2.5061 2.1868 3.6742 208.67 0.10136 16.172 0.046718 130.00 0.0076923 697.13 744.05 2.5061 2.1868 3.6742 208.67 0.10136 16.172 0.046718
146.38 890.52 undefined 699.32 746.55 2.5113 130.00 0.0076923 699.32 746.55 2.5113 2.1892 3.6551 209.59 0.10015 16.204 0.046818 130.00 0.0076923 699.32 746.55 2.5113 2.1892 3.6551 209.59 0.10015 16.204 0.046818
147.38 896.24 undefined 701.51 749.04 2.5165 130.00 0.0076923 701.51 749.04 2.5165 2.1916 3.6367 210.51 0.098971 16.235 0.046920 130.00 0.0076923 701.51 749.04 2.5165 2.1916 3.6367 210.51 0.098971 16.235 0.046920
148.38 901.95 undefined 703.70 751.54 2.5218 130.00 0.0076923 703.70 751.54 2.5218 2.1940 3.6190 211.43 0.097808 16.266 0.047023 130.00 0.0076923 703.70 751.54 2.5218 2.1940 3.6190 211.43 0.097808 16.266 0.047023
149.38 907.65 undefined 705.89 754.03 2.5270 130.00 0.0076923 705.89 754.03 2.5270 2.1965 3.6019 212.34 0.096666 16.298 0.047128 130.00 0.0076923 705.89 754.03 2.5270 2.1965 3.6019 212.34 0.096666 16.298 0.047128
150.38 913.35 undefined 708.09 756.53 2.5321 130.00 0.0076923 708.09 756.53 2.5321 2.1990 3.5855 213.25 0.095544 16.329 0.047234 130.00 0.0076923 708.09 756.53 2.5321 2.1990 3.5855 213.25 0.095544 16.329 0.047234
151.38 919.05 undefined 710.29 759.04 2.5373 130.00 0.0076923 710.29 759.04 2.5373 2.2015 3.5696 214.16 0.094441 16.361 0.047342 130.00 0.0076923 710.29 759.04 2.5373 2.2015 3.5696 214.16 0.094441 16.361 0.047342
152.38 924.74 undefined 712.49 761.54 2.5425 130.00 0.0076923 712.49 761.54 2.5425 2.2041 3.5544 215.06 0.093358 16.392 0.047451 130.00 0.0076923 712.49 761.54 2.5425 2.2041 3.5544 215.06 0.093358 16.392 0.047451
153.38 930.42 undefined 714.70 764.05 2.5477 130.00 0.0076923 714.70 764.05 2.5477 2.2067 3.5396 215.96 0.092293 16.423 0.047561 130.00 0.0076923 714.70 764.05 2.5477 2.2067 3.5396 215.96 0.092293 16.423 0.047561
154.38 936.11 undefined 716.91 766.56 2.5529 130.00 0.0076923 716.91 766.56 2.5529 2.2093 3.5254 216.85 0.091246 16.454 0.047672 130.00 0.0076923 716.91 766.56 2.5529 2.2093 3.5254 216.85 0.091246 16.454 0.047672
155.38 941.78 undefined 719.12 769.07 2.5580 130.00 0.0076923 719.12 769.07 2.5580 2.2120 3.5117 217.74 0.090216 16.485 0.047785 130.00 0.0076923 719.12 769.07 2.5580 2.2120 3.5117 217.74 0.090216 16.485 0.047785
156.38 947.45 undefined 721.33 771.58 2.5632 130.00 0.0076923 721.33 771.58 2.5632 2.2146 3.4985 218.63 0.089204 16.516 0.047899 130.00 0.0076923 721.33 771.58 2.5632 2.2146 3.4985 218.63 0.089204 16.516 0.047899
157.38 953.12 undefined 723.55 774.10 2.5683 130.00 0.0076923 723.55 774.10 2.5683 2.2173 3.4857 219.52 0.088209 16.547 0.048014 130.00 0.0076923 723.55 774.10 2.5683 2.2173 3.4857 219.52 0.088209 16.547 0.048014
158.38 958.79 undefined 725.77 776.62 2.5735 130.00 0.0076923 725.77 776.62 2.5735 2.2200 3.4734 220.40 0.087230 16.578 0.048130 130.00 0.0076923 725.77 776.62 2.5735 2.2200 3.4734 220.40 0.087230 16.578 0.048130
159.38 964.45 undefined 727.99 779.14 2.5786 130.00 0.0076923 727.99 779.14 2.5786 2.2228 3.4614 221.27 0.086268 16.609 0.048248 130.00 0.0076923 727.99 779.14 2.5786 2.2228 3.4614 221.27 0.086268 16.609 0.048248
160.38 970.10 undefined 730.21 781.66 2.5838 130.00 0.0076923 730.21 781.66 2.5838 2.2255 3.4499 222.15 0.085321 16.640 0.048366 130.00 0.0076923 730.21 781.66 2.5838 2.2255 3.4499 222.15 0.085321 16.640 0.048366
161.38 975.75 undefined 732.44 784.19 2.5889 130.00 0.0076923 732.44 784.19 2.5889 2.2283 3.4388 223.02 0.084390 16.671 0.048485 130.00 0.0076923 732.44 784.19 2.5889 2.2283 3.4388 223.02 0.084390 16.671 0.048485
162.38 981.40 undefined 734.67 786.72 2.5940 130.00 0.0076923 734.67 786.72 2.5940 2.2311 3.4281 223.89 0.083474 16.702 0.048606 130.00 0.0076923 734.67 786.72 2.5940 2.2311 3.4281 223.89 0.083474 16.702 0.048606
163.38 987.05 undefined 736.90 789.25 2.5991 130.00 0.0076923 736.90 789.25 2.5991 2.2339 3.4177 224.75 0.082572 16.733 0.048727 130.00 0.0076923 736.90 789.25 2.5991 2.2339 3.4177 224.75 0.082572 16.733 0.048727
164.38 992.69 undefined 739.14 791.79 2.6043 130.00 0.0076923 739.14 791.79 2.6043 2.2368 3.4077 225.61 0.081685 16.764 0.048850 130.00 0.0076923 739.14 791.79 2.6043 2.2368 3.4077 225.61 0.081685 16.764 0.048850
165.38 998.32 undefined 741.38 794.32 2.6094 130.00 0.0076923 741.38 794.32 2.6094 2.2396 3.3980 226.47 0.080812 16.795 0.048973 130.00 0.0076923 741.38 794.32 2.6094 2.2396 3.3980 226.47 0.080812 16.795 0.048973
166.38 1004.0 undefined 743.62 796.86 2.6145 130.00 0.0076923 743.62 796.86 2.6145 2.2425 3.3886 227.33 0.079952 16.825 0.049097 130.00 0.0076923 743.62 796.86 2.6145 2.2425 3.3886 227.33 0.079952 16.825 0.049097
167.38 1009.6 undefined 745.86 799.40 2.6196 130.00 0.0076923 745.86 799.40 2.6196 2.2454 3.3795 228.18 0.079107 16.856 0.049222 130.00 0.0076923 745.86 799.40 2.6196 2.2454 3.3795 228.18 0.079107 16.856 0.049222
168.38 1015.2 undefined 748.11 801.95 2.6247 130.00 0.0076923 748.11 801.95 2.6247 2.2483 3.3708 229.03 0.078274 16.887 0.049348 130.00 0.0076923 748.11 801.95 2.6247 2.2483 3.3708 229.03 0.078274 16.887 0.049348
169.38 1020.8 undefined 750.36 804.50 2.6298 130.00 0.0076923 750.36 804.50 2.6298 2.2512 3.3623 229.87 0.077454 16.917 0.049475 130.00 0.0076923 750.36 804.50 2.6298 2.2512 3.3623 229.87 0.077454 16.917 0.049475
170.38 1026.4 undefined 752.61 807.05 2.6348 130.00 0.0076923 752.61 807.05 2.6348 2.2541 3.3541 230.72 0.076647 16.948 0.049602 130.00 0.0076923 752.61 807.05 2.6348 2.2541 3.3541 230.72 0.076647 16.948 0.049602
171.38 1032.1 undefined 754.86 809.60 2.6399 130.00 0.0076923 754.86 809.60 2.6399 2.2571 3.3462 231.56 0.075852 16.978 0.049731 130.00 0.0076923 754.86 809.60 2.6399 2.2571 3.3462 231.56 0.075852 16.978 0.049731
172.38 1037.7 undefined 757.12 812.16 2.6450 130.00 0.0076923 757.12 812.16 2.6450 2.2600 3.3385 232.39 0.075070 17.009 0.049860 130.00 0.0076923 757.12 812.16 2.6450 2.2600 3.3385 232.39 0.075070 17.009 0.049860
173.38 1043.3 undefined 759.38 814.72 2.6501 130.00 0.0076923 759.38 814.72 2.6501 2.2630 3.3311 233.23 0.074299 17.039 0.049990 130.00 0.0076923 759.38 814.72 2.6501 2.2630 3.3311 233.23 0.074299 17.039 0.049990
174.38 1048.9 undefined 761.65 817.28 2.6551 130.00 0.0076923 761.65 817.28 2.6551 2.2660 3.3239 234.06 0.073540 17.070 0.050121 130.00 0.0076923 761.65 817.28 2.6551 2.2660 3.3239 234.06 0.073540 17.070 0.050121
175.38 1054.5 undefined 763.92 819.84 2.6602 130.00 0.0076923 763.92 819.84 2.6602 2.2690 3.3170 234.89 0.072792 17.100 0.050252 130.00 0.0076923 763.92 819.84 2.6602 2.2690 3.3170 234.89 0.072792 17.100 0.050252
176.38 1060.1 undefined 766.19 822.41 2.6653 130.00 0.0076923 766.19 822.41 2.6653 2.2720 3.3103 235.71 0.072056 17.130 0.050384 130.00 0.0076923 766.19 822.41 2.6653 2.2720 3.3103 235.71 0.072056 17.130 0.050384
177.38 1065.7 undefined 768.46 824.98 2.6703 130.00 0.0076923 768.46 824.98 2.6703 2.2750 3.3038 236.53 0.071330 17.161 0.050517 130.00 0.0076923 768.46 824.98 2.6703 2.2750 3.3038 236.53 0.071330 17.161 0.050517
178.38 1071.3 undefined 770.74 827.55 2.6754 130.00 0.0076923 770.74 827.55 2.6754 2.2780 3.2975 237.35 0.070615 17.191 0.050651 130.00 0.0076923 770.74 827.55 2.6754 2.2780 3.2975 237.35 0.070615 17.191 0.050651
179.38 1076.9 undefined 773.02 830.13 2.6804 130.00 0.0076923 773.02 830.13 2.6804 2.2811 3.2915 238.17 0.069910 17.221 0.050785 130.00 0.0076923 773.02 830.13 2.6804 2.2811 3.2915 238.17 0.069910 17.221 0.050785
180.38 1082.4 undefined 775.30 832.71 2.6854 130.00 0.0076923 775.30 832.71 2.6854 2.2841 3.2856 238.98 0.069216 17.251 0.050920 130.00 0.0076923 775.30 832.71 2.6854 2.2841 3.2856 238.98 0.069216 17.251 0.050920
181.38 1088.0 undefined 777.59 835.29 2.6905 130.00 0.0076923 777.59 835.29 2.6905 2.2872 3.2799 239.80 0.068532 17.282 0.051056 130.00 0.0076923 777.59 835.29 2.6905 2.2872 3.2799 239.80 0.068532 17.282 0.051056
182.38 1093.6 undefined 779.87 837.87 2.6955 130.00 0.0076923 779.87 837.87 2.6955 2.2903 3.2745 240.61 0.067857 17.312 0.051192 130.00 0.0076923 779.87 837.87 2.6955 2.2903 3.2745 240.61 0.067857 17.312 0.051192
183.38 1099.2 undefined 782.17 840.46 2.7005 130.00 0.0076923 782.17 840.46 2.7005 2.2933 3.2692 241.41 0.067193 17.342 0.051329 130.00 0.0076923 782.17 840.46 2.7005 2.2933 3.2692 241.41 0.067193 17.342 0.051329
184.38 1104.7 undefined 784.46 843.05 2.7055 130.00 0.0076923 784.46 843.05 2.7055 2.2964 3.2640 242.22 0.066538 17.372 0.051467 130.00 0.0076923 784.46 843.05 2.7055 2.2964 3.2640 242.22 0.066538 17.372 0.051467
185.38 1110.3 undefined 786.76 845.65 2.7106 130.00 0.0076923 786.76 845.65 2.7106 2.2995 3.2591 243.02 0.065892 17.402 0.051605 130.00 0.0076923 786.76 845.65 2.7106 2.2995 3.2591 243.02 0.065892 17.402 0.051605
186.38 1115.9 undefined 789.06 848.24 2.7156 130.00 0.0076923 789.06 848.24 2.7156 2.3026 3.2543 243.81 0.065255 17.432 0.051744 130.00 0.0076923 789.06 848.24 2.7156 2.3026 3.2543 243.81 0.065255 17.432 0.051744
187.38 1121.4 undefined 791.36 850.84 2.7206 130.00 0.0076923 791.36 850.84 2.7206 2.3058 3.2497 244.61 0.064627 17.462 0.051883 130.00 0.0076923 791.36 850.84 2.7206 2.3058 3.2497 244.61 0.064627 17.462 0.051883
188.38 1127.0 undefined 793.67 853.44 2.7256 130.00 0.0076923 793.67 853.44 2.7256 2.3089 3.2452 245.40 0.064008 17.492 0.052023 130.00 0.0076923 793.67 853.44 2.7256 2.3089 3.2452 245.40 0.064008 17.492 0.052023
189.38 1132.6 undefined 795.98 856.05 2.7306 130.00 0.0076923 795.98 856.05 2.7306 2.3120 3.2409 246.19 0.063398 17.521 0.052164 130.00 0.0076923 795.98 856.05 2.7306 2.3120 3.2409 246.19 0.063398 17.521 0.052164
190.38 1138.1 undefined 798.30 858.66 2.7356 130.00 0.0076923 798.30 858.66 2.7356 2.3151 3.2368 246.98 0.062796 17.551 0.052305 130.00 0.0076923 798.30 858.66 2.7356 2.3151 3.2368 246.98 0.062796 17.551 0.052305
191.38 1143.7 undefined 800.61 861.27 2.7406 130.00 0.0076923 800.61 861.27 2.7406 2.3183 3.2328 247.77 0.062202 17.581 0.052446 130.00 0.0076923 800.61 861.27 2.7406 2.3183 3.2328 247.77 0.062202 17.581 0.052446
192.38 1149.2 undefined 802.93 863.88 2.7456 130.00 0.0076923 802.93 863.88 2.7456 2.3214 3.2289 248.55 0.061616 17.611 0.052589 130.00 0.0076923 802.93 863.88 2.7456 2.3214 3.2289 248.55 0.061616 17.611 0.052589
193.38 1154.8 undefined 805.25 866.50 2.7506 130.00 0.0076923 805.25 866.50 2.7506 2.3246 3.2252 249.33 0.061039 17.640 0.052731 130.00 0.0076923 805.25 866.50 2.7506 2.3246 3.2252 249.33 0.061039 17.640 0.052731
194.38 1160.3 undefined 807.58 869.12 2.7555 130.00 0.0076923 807.58 869.12 2.7555 2.3278 3.2216 250.11 0.060469 17.670 0.052875 130.00 0.0076923 807.58 869.12 2.7555 2.3278 3.2216 250.11 0.060469 17.670 0.052875
195.38 1165.9 undefined 809.91 871.74 2.7605 130.00 0.0076923 809.91 871.74 2.7605 2.3309 3.2181 250.89 0.059907 17.700 0.053019 130.00 0.0076923 809.91 871.74 2.7605 2.3309 3.2181 250.89 0.059907 17.700 0.053019
196.38 1171.4 undefined 812.24 874.37 2.7655 130.00 0.0076923 812.24 874.37 2.7655 2.3341 3.2148 251.66 0.059352 17.729 0.053163 130.00 0.0076923 812.24 874.37 2.7655 2.3341 3.2148 251.66 0.059352 17.729 0.053163
197.38 1176.9 undefined 814.58 877.00 2.7705 130.00 0.0076923 814.58 877.00 2.7705 2.3373 3.2116 252.43 0.058805 17.759 0.053308 130.00 0.0076923 814.58 877.00 2.7705 2.3373 3.2116 252.43 0.058805 17.759 0.053308
198.38 1182.5 undefined 816.92 879.63 2.7754 130.00 0.0076923 816.92 879.63 2.7754 2.3405 3.2085 253.20 0.058265 17.789 0.053453 130.00 0.0076923 816.92 879.63 2.7754 2.3405 3.2085 253.20 0.058265 17.789 0.053453
199.38 1188.0 undefined 819.26 882.27 2.7804 130.00 0.0076923 819.26 882.27 2.7804 2.3437 3.2055 253.97 0.057733 17.818 0.053599 130.00 0.0076923 819.26 882.27 2.7804 2.3437 3.2055 253.97 0.057733 17.818 0.053599
200.38 1193.5 undefined 821.60 884.91 2.7853 130.00 0.0076923 821.60 884.91 2.7853 2.3469 3.2026 254.73 0.057207 17.848 0.053745 130.00 0.0076923 821.60 884.91 2.7853 2.3469 3.2026 254.73 0.057207 17.848 0.053745
201.38 1199.0 undefined 823.95 887.55 2.7903 130.00 0.0076923 823.95 887.55 2.7903 2.3501 3.1999 255.50 0.056688 17.877 0.053892 130.00 0.0076923 823.95 887.55 2.7903 2.3501 3.1999 255.50 0.056688 17.877 0.053892
202.38 1204.6 undefined 826.31 890.19 2.7952 130.00 0.0076923 826.31 890.19 2.7952 2.3533 3.1972 256.26 0.056176 17.906 0.054040 130.00 0.0076923 826.31 890.19 2.7952 2.3533 3.1972 256.26 0.056176 17.906 0.054040
203.38 1210.1 undefined 828.66 892.84 2.8002 130.00 0.0076923 828.66 892.84 2.8002 2.3565 3.1947 257.01 0.055671 17.936 0.054187 130.00 0.0076923 828.66 892.84 2.8002 2.3565 3.1947 257.01 0.055671 17.936 0.054187
204.38 1215.6 undefined 831.02 895.49 2.8051 130.00 0.0076923 831.02 895.49 2.8051 2.3598 3.1922 257.77 0.055172 17.965 0.054336 130.00 0.0076923 831.02 895.49 2.8051 2.3598 3.1922 257.77 0.055172 17.965 0.054336
205.38 1221.1 undefined 833.38 898.14 2.8101 130.00 0.0076923 833.38 898.14 2.8101 2.3630 3.1899 258.52 0.054679 17.994 0.054484 130.00 0.0076923 833.38 898.14 2.8101 2.3630 3.1899 258.52 0.054679 17.994 0.054484
206.38 1226.6 undefined 835.74 900.80 2.8150 130.00 0.0076923 835.74 900.80 2.8150 2.3662 3.1876 259.28 0.054193 18.024 0.054634 130.00 0.0076923 835.74 900.80 2.8150 2.3662 3.1876 259.28 0.054193 18.024 0.054634
207.38 1232.2 undefined 838.11 903.46 2.8199 130.00 0.0076923 838.11 903.46 2.8199 2.3695 3.1855 260.02 0.053713 18.053 0.054783 130.00 0.0076923 838.11 903.46 2.8199 2.3695 3.1855 260.02 0.053713 18.053 0.054783
208.38 1237.7 undefined 840.48 906.12 2.8249 130.00 0.0076923 840.48 906.12 2.8249 2.3727 3.1834 260.77 0.053240 18.082 0.054933 130.00 0.0076923 840.48 906.12 2.8249 2.3727 3.1834 260.77 0.053240 18.082 0.054933
209.38 1243.2 undefined 842.86 908.79 2.8298 130.00 0.0076923 842.86 908.79 2.8298 2.3759 3.1815 261.52 0.052772 18.111 0.055084 130.00 0.0076923 842.86 908.79 2.8298 2.3759 3.1815 261.52 0.052772 18.111 0.055084
210.38 1248.7 undefined 845.24 911.46 2.8347 130.00 0.0076923 845.24 911.46 2.8347 2.3792 3.1796 262.26 0.052310 18.140 0.055235 130.00 0.0076923 845.24 911.46 2.8347 2.3792 3.1796 262.26 0.052310 18.140 0.055235
211.38 1254.2 undefined 847.62 914.13 2.8396 130.00 0.0076923 847.62 914.13 2.8396 2.3824 3.1778 263.00 0.051854 18.169 0.055386 130.00 0.0076923 847.62 914.13 2.8396 2.3824 3.1778 263.00 0.051854 18.169 0.055386
212.38 1259.7 undefined 850.00 916.81 2.8446 130.00 0.0076923 850.00 916.81 2.8446 2.3857 3.1761 263.74 0.051403 18.198 0.055538 130.00 0.0076923 850.00 916.81 2.8446 2.3857 3.1761 263.74 0.051403 18.198 0.055538
213.38 1265.2 undefined 852.39 919.49 2.8495 130.00 0.0076923 852.39 919.49 2.8495 2.3890 3.1745 264.47 0.050958 18.227 0.055690 130.00 0.0076923 852.39 919.49 2.8495 2.3890 3.1745 264.47 0.050958 18.227 0.055690
214.38 1270.7 undefined 854.78 922.17 2.8544 130.00 0.0076923 854.78 922.17 2.8544 2.3922 3.1729 265.21 0.050519 18.256 0.055843 130.00 0.0076923 854.78 922.17 2.8544 2.3922 3.1729 265.21 0.050519 18.256 0.055843
215.38 1276.2 undefined 857.17 924.85 2.8593 130.00 0.0076923 857.17 924.85 2.8593 2.3955 3.1715 265.94 0.050085 18.285 0.055996 130.00 0.0076923 857.17 924.85 2.8593 2.3955 3.1715 265.94 0.050085 18.285 0.055996
216.38 1281.7 undefined 859.57 927.54 2.8642 130.00 0.0076923 859.57 927.54 2.8642 2.3988 3.1701 266.67 0.049656 18.314 0.056150 130.00 0.0076923 859.57 927.54 2.8642 2.3988 3.1701 266.67 0.049656 18.314 0.056150
217.38 1287.1 undefined 861.97 930.23 2.8691 130.00 0.0076923 861.97 930.23 2.8691 2.4020 3.1688 267.40 0.049233 18.343 0.056303 130.00 0.0076923 861.97 930.23 2.8691 2.4020 3.1688 267.40 0.049233 18.343 0.056303
218.38 1292.6 undefined 864.37 932.93 2.8740 130.00 0.0076923 864.37 932.93 2.8740 2.4053 3.1675 268.13 0.048815 18.372 0.056458 130.00 0.0076923 864.37 932.93 2.8740 2.4053 3.1675 268.13 0.048815 18.372 0.056458
219.38 1298.1 undefined 866.78 935.63 2.8789 130.00 0.0076923 866.78 935.63 2.8789 2.4086 3.1664 268.85 0.048401 18.401 0.056612 130.00 0.0076923 866.78 935.63 2.8789 2.4086 3.1664 268.85 0.048401 18.401 0.056612
220.38 1303.6 undefined 869.19 938.33 2.8838 130.00 0.0076923 869.19 938.33 2.8838 2.4119 3.1653 269.57 0.047993 18.430 0.056768 130.00 0.0076923 869.19 938.33 2.8838 2.4119 3.1653 269.57 0.047993 18.430 0.056768
221.38 1309.1 undefined 871.60 941.03 2.8886 130.00 0.0076923 871.60 941.03 2.8886 2.4152 3.1642 270.29 0.047590 18.458 0.056923 130.00 0.0076923 871.60 941.03 2.8886 2.4152 3.1642 270.29 0.047590 18.458 0.056923
222.38 1314.6 undefined 874.02 943.74 2.8935 130.00 0.0076923 874.02 943.74 2.8935 2.4185 3.1633 271.01 0.047191 18.487 0.057079 130.00 0.0076923 874.02 943.74 2.8935 2.4185 3.1633 271.01 0.047191 18.487 0.057079
223.38 1320.0 undefined 876.44 946.45 2.8984 130.00 0.0076923 876.44 946.45 2.8984 2.4218 3.1624 271.73 0.046798 18.516 0.057235 130.00 0.0076923 876.44 946.45 2.8984 2.4218 3.1624 271.73 0.046798 18.516 0.057235
224.38 1325.5 undefined 878.86 949.16 2.9033 130.00 0.0076923 878.86 949.16 2.9033 2.4251 3.1616 272.45 0.046409 18.544 0.057392 130.00 0.0076923 878.86 949.16 2.9033 2.4251 3.1616 272.45 0.046409 18.544 0.057392
225.38 1331.0 undefined 881.29 951.88 2.9082 130.00 0.0076923 881.29 951.88 2.9082 2.4283 3.1608 273.16 0.046024 18.573 0.057549 130.00 0.0076923 881.29 951.88 2.9082 2.4283 3.1608 273.16 0.046024 18.573 0.057549
226.38 1336.5 undefined 883.72 954.60 2.9130 130.00 0.0076923 883.72 954.60 2.9130 2.4316 3.1601 273.87 0.045644 18.601 0.057706 130.00 0.0076923 883.72 954.60 2.9130 2.4316 3.1601 273.87 0.045644 18.601 0.057706
227.38 1341.9 undefined 886.15 957.32 2.9179 130.00 0.0076923 886.15 957.32 2.9179 2.4349 3.1594 274.58 0.045268 18.630 0.057864 130.00 0.0076923 886.15 957.32 2.9179 2.4349 3.1594 274.58 0.045268 18.630 0.057864
228.38 1347.4 undefined 888.59 960.05 2.9228 130.00 0.0076923 888.59 960.05 2.9228 2.4383 3.1588 275.29 0.044897 18.658 0.058022 130.00 0.0076923 888.59 960.05 2.9228 2.4383 3.1588 275.29 0.044897 18.658 0.058022
229.38 1352.9 undefined 891.03 962.78 2.9276 130.00 0.0076923 891.03 962.78 2.9276 2.4416 3.1583 275.99 0.044530 18.687 0.058180 130.00 0.0076923 891.03 962.78 2.9276 2.4416 3.1583 275.99 0.044530 18.687 0.058180
230.38 1358.3 undefined 893.47 965.51 2.9325 130.00 0.0076923 893.47 965.51 2.9325 2.4449 3.1578 276.70 0.044168 18.715 0.058339 130.00 0.0076923 893.47 965.51 2.9325 2.4449 3.1578 276.70 0.044168 18.715 0.058339
231.38 1363.8 undefined 895.92 968.25 2.9373 130.00 0.0076923 895.92 968.25 2.9373 2.4482 3.1574 277.40 0.043809 18.744 0.058498 130.00 0.0076923 895.92 968.25 2.9373 2.4482 3.1574 277.40 0.043809 18.744 0.058498
232.38 1369.2 undefined 898.37 970.99 2.9422 130.00 0.0076923 898.37 970.99 2.9422 2.4515 3.1570 278.10 0.043455 18.772 0.058657 130.00 0.0076923 898.37 970.99 2.9422 2.4515 3.1570 278.10 0.043455 18.772 0.058657
233.38 1374.7 undefined 900.82 973.73 2.9470 130.00 0.0076923 900.82 973.73 2.9470 2.4548 3.1567 278.80 0.043105 18.801 0.058817 130.00 0.0076923 900.82 973.73 2.9470 2.4548 3.1567 278.80 0.043105 18.801 0.058817
234.38 1380.2 undefined 903.28 976.48 2.9519 130.00 0.0076923 903.28 976.48 2.9519 2.4581 3.1565 279.49 0.042758 18.829 0.058977 130.00 0.0076923 903.28 976.48 2.9519 2.4581 3.1565 279.49 0.042758 18.829 0.058977
235.38 1385.6 undefined 905.74 979.23 2.9567 130.00 0.0076923 905.74 979.23 2.9567 2.4614 3.1562 280.19 0.042416 18.857 0.059138 130.00 0.0076923 905.74 979.23 2.9567 2.4614 3.1562 280.19 0.042416 18.857 0.059138
236.38 1391.1 undefined 908.20 981.98 2.9615 130.00 0.0076923 908.20 981.98 2.9615 2.4647 3.1561 280.88 0.042077 18.885 0.059299 130.00 0.0076923 908.20 981.98 2.9615 2.4647 3.1561 280.88 0.042077 18.885 0.059299
237.38 1396.5 undefined 910.67 984.73 2.9664 130.00 0.0076923 910.67 984.73 2.9664 2.4681 3.1560 281.57 0.041743 18.914 0.059460 130.00 0.0076923 910.67 984.73 2.9664 2.4681 3.1560 281.57 0.041743 18.914 0.059460
238.38 1402.0 undefined 913.14 987.49 2.9712 130.00 0.0076923 913.14 987.49 2.9712 2.4714 3.1559 282.26 0.041412 18.942 0.059621 130.00 0.0076923 913.14 987.49 2.9712 2.4714 3.1559 282.26 0.041412 18.942 0.059621
239.38 1407.4 undefined 915.61 990.26 2.9760 130.00 0.0076923 915.61 990.26 2.9760 2.4747 3.1559 282.95 0.041084 18.970 0.059783 130.00 0.0076923 915.61 990.26 2.9760 2.4747 3.1559 282.95 0.041084 18.970 0.059783
240.38 1412.8 undefined 918.09 993.02 2.9809 130.00 0.0076923 918.09 993.02 2.9809 2.4780 3.1559 283.64 0.040761 18.998 0.059945 130.00 0.0076923 918.09 993.02 2.9809 2.4780 3.1559 283.64 0.040761 18.998 0.059945
241.38 1418.3 undefined 920.57 995.79 2.9857 130.00 0.0076923 920.57 995.79 2.9857 2.4813 3.1560 284.32 0.040441 19.026 0.060107 130.00 0.0076923 920.57 995.79 2.9857 2.4813 3.1560 284.32 0.040441 19.026 0.060107
242.38 1423.7 undefined 923.05 998.56 2.9905 130.00 0.0076923 923.05 998.56 2.9905 2.4847 3.1561 285.01 0.040124 19.054 0.060270 130.00 0.0076923 923.05 998.56 2.9905 2.4847 3.1561 285.01 0.040124 19.054 0.060270
243.38 1429.2 undefined 925.54 1001.3 2.9953 130.00 0.0076923 925.54 1001.3 2.9953 2.4880 3.1562 285.69 0.039811 19.082 0.060433 130.00 0.0076923 925.54 1001.3 2.9953 2.4880 3.1562 285.69 0.039811 19.082 0.060433
244.38 1434.6 undefined 928.03 1004.1 3.0002 130.00 0.0076923 928.03 1004.1 3.0002 2.4913 3.1564 286.37 0.039501 19.110 0.060596 130.00 0.0076923 928.03 1004.1 3.0002 2.4913 3.1564 286.37 0.039501 19.110 0.060596
245.38 1440.1 undefined 930.52 1006.9 3.0050 130.00 0.0076923 930.52 1006.9 3.0050 2.4946 3.1566 287.04 0.039195 19.138 0.060759 130.00 0.0076923 930.52 1006.9 3.0050 2.4946 3.1566 287.04 0.039195 19.138 0.060759
246.38 1445.5 undefined 933.02 1009.7 3.0098 130.00 0.0076923 933.02 1009.7 3.0098 2.4980 3.1569 287.72 0.038892 19.166 0.060923 130.00 0.0076923 933.02 1009.7 3.0098 2.4980 3.1569 287.72 0.038892 19.166 0.060923
247.38 1450.9 undefined 935.52 1012.5 3.0146 130.00 0.0076923 935.52 1012.5 3.0146 2.5013 3.1572 288.40 0.038593 19.194 0.061087 130.00 0.0076923 935.52 1012.5 3.0146 2.5013 3.1572 288.40 0.038593 19.194 0.061087
248.38 1456.4 undefined 938.02 1015.3 3.0194 130.00 0.0076923 938.02 1015.3 3.0194 2.5046 3.1576 289.07 0.038296 19.222 0.061252 130.00 0.0076923 938.02 1015.3 3.0194 2.5046 3.1576 289.07 0.038296 19.222 0.061252
249.38 1461.8 undefined 940.52 1018.1 3.0242 130.00 0.0076923 940.52 1018.1 3.0242 2.5080 3.1580 289.74 0.038003 19.249 0.061416 130.00 0.0076923 940.52 1018.1 3.0242 2.5080 3.1580 289.74 0.038003 19.249 0.061416
250.38 1467.2 undefined 943.03 1020.9 3.0290 130.00 0.0076923 943.03 1020.9 3.0290 2.5113 3.1584 290.41 0.037713 19.277 0.061581 130.00 0.0076923 943.03 1020.9 3.0290 2.5113 3.1584 290.41 0.037713 19.277 0.061581
251.38 1472.6 undefined 945.55 1023.7 3.0338 130.00 0.0076923 945.55 1023.7 3.0338 2.5146 3.1589 291.08 0.037426 19.305 0.061746 130.00 0.0076923 945.55 1023.7 3.0338 2.5146 3.1589 291.08 0.037426 19.305 0.061746
252.38 1478.1 undefined 948.06 1026.5 3.0386 130.00 0.0076923 948.06 1026.5 3.0386 2.5179 3.1594 291.75 0.037142 19.333 0.061911 130.00 0.0076923 948.06 1026.5 3.0386 2.5179 3.1594 291.75 0.037142 19.333 0.061911
253.38 1483.5 undefined 950.58 1029.3 3.0434 130.00 0.0076923 950.58 1029.3 3.0434 2.5213 3.1599 292.41 0.036861 19.360 0.062077 130.00 0.0076923 950.58 1029.3 3.0434 2.5213 3.1599 292.41 0.036861 19.360 0.062077
254.38 1488.9 undefined 953.11 1032.1 3.0481 130.00 0.0076923 953.11 1032.1 3.0481 2.5246 3.1605 293.08 0.036583 19.388 0.062243 130.00 0.0076923 953.11 1032.1 3.0481 2.5246 3.1605 293.08 0.036583 19.388 0.062243
255.38 1494.3 undefined 955.63 1034.9 3.0529 130.00 0.0076923 955.63 1034.9 3.0529 2.5279 3.1611 293.74 0.036308 19.416 0.062408 130.00 0.0076923 955.63 1034.9 3.0529 2.5279 3.1611 293.74 0.036308 19.416 0.062408
256.38 1499.8 undefined 958.16 1037.7 3.0577 130.00 0.0076923 958.16 1037.7 3.0577 2.5312 3.1617 294.40 0.036036 19.443 0.062575 130.00 0.0076923 958.16 1037.7 3.0577 2.5312 3.1617 294.40 0.036036 19.443 0.062575
257.38 1505.2 undefined 960.70 1040.5 3.0625 130.00 0.0076923 960.70 1040.5 3.0625 2.5346 3.1624 295.06 0.035766 19.471 0.062741 130.00 0.0076923 960.70 1040.5 3.0625 2.5346 3.1624 295.06 0.035766 19.471 0.062741
258.38 1510.6 undefined 963.23 1043.3 3.0673 130.00 0.0076923 963.23 1043.3 3.0673 2.5379 3.1631 295.72 0.035500 19.498 0.062907 130.00 0.0076923 963.23 1043.3 3.0673 2.5379 3.1631 295.72 0.035500 19.498 0.062907
259.38 1516.0 undefined 965.77 1046.2 3.0720 130.00 0.0076923 965.77 1046.2 3.0720 2.5412 3.1638 296.37 0.035236 19.526 0.063074 130.00 0.0076923 965.77 1046.2 3.0720 2.5412 3.1638 296.37 0.035236 19.526 0.063074
260.38 1521.4 undefined 968.31 1049.0 3.0768 130.00 0.0076923 968.31 1049.0 3.0768 2.5446 3.1646 297.03 0.034975 19.553 0.063241 130.00 0.0076923 968.31 1049.0 3.0768 2.5446 3.1646 297.03 0.034975 19.553 0.063241
261.38 1526.8 undefined 970.86 1051.8 3.0816 130.00 0.0076923 970.86 1051.8 3.0816 2.5479 3.1654 297.68 0.034717 19.581 0.063408 130.00 0.0076923 970.86 1051.8 3.0816 2.5479 3.1654 297.68 0.034717 19.581 0.063408
262.38 1532.2 undefined 973.41 1054.7 3.0863 130.00 0.0076923 973.41 1054.7 3.0863 2.5512 3.1662 298.33 0.034461 19.608 0.063575 130.00 0.0076923 973.41 1054.7 3.0863 2.5512 3.1662 298.33 0.034461 19.608 0.063575
263.38 1537.7 undefined 975.96 1057.5 3.0911 130.00 0.0076923 975.96 1057.5 3.0911 2.5545 3.1670 298.98 0.034208 19.635 0.063742 130.00 0.0076923 975.96 1057.5 3.0911 2.5545 3.1670 298.98 0.034208 19.635 0.063742
264.38 1543.1 undefined 978.52 1060.4 3.0959 130.00 0.0076923 978.52 1060.4 3.0959 2.5579 3.1679 299.63 0.033957 19.663 0.063909 130.00 0.0076923 978.52 1060.4 3.0959 2.5579 3.1679 299.63 0.033957 19.663 0.063909
265.38 1548.5 undefined 981.08 1063.2 3.1006 130.00 0.0076923 981.08 1063.2 3.1006 2.5612 3.1688 300.28 0.033709 19.690 0.064077 130.00 0.0076923 981.08 1063.2 3.1006 2.5612 3.1688 300.28 0.033709 19.690 0.064077
266.38 1553.9 undefined 983.64 1066.1 3.1054 130.00 0.0076923 983.64 1066.1 3.1054 2.5645 3.1697 300.93 0.033464 19.717 0.064244 130.00 0.0076923 983.64 1066.1 3.1054 2.5645 3.1697 300.93 0.033464 19.717 0.064244
267.38 1559.3 undefined 986.21 1068.9 3.1101 130.00 0.0076923 986.21 1068.9 3.1101 2.5678 3.1707 301.57 0.033221 19.744 0.064411 130.00 0.0076923 986.21 1068.9 3.1101 2.5678 3.1707 301.57 0.033221 19.744 0.064411
268.38 1564.7 undefined 988.78 1071.8 3.1149 130.00 0.0076923 988.78 1071.8 3.1149 2.5712 3.1717 302.21 0.032980 19.772 0.064578 130.00 0.0076923 988.78 1071.8 3.1149 2.5712 3.1717 302.21 0.032980 19.772 0.064578
269.38 1570.1 undefined 991.35 1074.6 3.1196 130.00 0.0076923 991.35 1074.6 3.1196 2.5745 3.1727 302.86 0.032742 19.799 0.064745 130.00 0.0076923 991.35 1074.6 3.1196 2.5745 3.1727 302.86 0.032742 19.799 0.064745
270.38 1575.5 undefined 993.93 1077.5 3.1244 130.00 0.0076923 993.93 1077.5 3.1244 2.5778 3.1737 303.50 0.032506 19.826 0.064912 130.00 0.0076923 993.93 1077.5 3.1244 2.5778 3.1737 303.50 0.032506 19.826 0.064912
271.38 1580.9 undefined 996.51 1080.4 3.1291 130.00 0.0076923 996.51 1080.4 3.1291 2.5811 3.1748 304.14 0.032272 19.853 0.065079 130.00 0.0076923 996.51 1080.4 3.1291 2.5811 3.1748 304.14 0.032272 19.853 0.065079
272.38 1586.3 undefined 999.09 1083.2 3.1339 130.00 0.0076923 999.09 1083.2 3.1339 2.5844 3.1758 304.77 0.032041 19.880 0.065245 130.00 0.0076923 999.09 1083.2 3.1339 2.5844 3.1758 304.77 0.032041 19.880 0.065245
273.38 1591.7 undefined 1001.7 1086.1 3.1386 130.00 0.0076923 1001.7 1086.1 3.1386 2.5878 3.1769 305.41 0.031812 19.907 0.065411 130.00 0.0076923 1001.7 1086.1 3.1386 2.5878 3.1769 305.41 0.031812 19.907 0.065411
274.38 1597.1 undefined 1004.3 1089.0 3.1433 130.00 0.0076923 1004.3 1089.0 3.1433 2.5911 3.1781 306.05 0.031586 19.934 0.065576 130.00 0.0076923 1004.3 1089.0 3.1433 2.5911 3.1781 306.05 0.031586 19.934 0.065576
275.38 1602.5 undefined 1006.9 1091.8 3.1481 130.00 0.0076923 1006.9 1091.8 3.1481 2.5944 3.1792 306.68 0.031361 19.961 0.065740 130.00 0.0076923 1006.9 1091.8 3.1481 2.5944 3.1792 306.68 0.031361 19.961 0.065740
276.38 1607.9 undefined 1009.5 1094.7 3.1528 130.00 0.0076923 1009.5 1094.7 3.1528 2.5977 3.1804 307.31 0.031139 19.988 0.065903 130.00 0.0076923 1009.5 1094.7 3.1528 2.5977 3.1804 307.31 0.031139 19.988 0.065903
277.38 1613.3 undefined 1012.1 1097.6 3.1575 130.00 0.0076923 1012.1 1097.6 3.1575 2.6010 3.1816 307.94 0.030919 20.015 0.066065 130.00 0.0076923 1012.1 1097.6 3.1575 2.6010 3.1816 307.94 0.030919 20.015 0.066065
278.38 1618.7 undefined 1014.7 1100.5 3.1622 130.00 0.0076923 1014.7 1100.5 3.1622 2.6043 3.1828 308.57 0.030701 20.042 0.066224 130.00 0.0076923 1014.7 1100.5 3.1622 2.6043 3.1828 308.57 0.030701 20.042 0.066224
279.38 1624.0 undefined 1017.3 1103.4 3.1670 130.00 0.0076923 1017.3 1103.4 3.1670 2.6077 3.1840 309.20 0.030485 20.069 0.066379 130.00 0.0076923 1017.3 1103.4 3.1670 2.6077 3.1840 309.20 0.030485 20.069 0.066379
280.38 1629.4 undefined 1019.9 1106.3 3.1717 130.00 0.0076923 1019.9 1106.3 3.1717 2.6110 3.1853 309.83 0.030271 20.096 0.066527 130.00 0.0076923 1019.9 1106.3 3.1717 2.6110 3.1853 309.83 0.030271 20.096 0.066527
281.38 1634.8 undefined 1022.5 1109.2 3.1764 130.00 0.0076923 1022.5 1109.2 3.1764 2.6143 3.1866 310.45 0.030060 20.122 0.066652 130.00 0.0076923 1022.5 1109.2 3.1764 2.6143 3.1866 310.45 0.030060 20.122 0.066652
282.38 1640.2 undefined 1025.1 1112.1 3.1811 130.00 0.0076923 1025.1 1112.1 3.1811 2.6176 3.1879 311.08 0.029850 20.149 0.066795 130.00 0.0076923 1025.1 1112.1 3.1811 2.6176 3.1879 311.08 0.029850 20.149 0.066795
283.38 1645.6 undefined 1027.7 1115.0 3.1858 130.00 0.0076923 1027.7 1115.0 3.1858 2.6209 3.1892 311.70 0.029642 20.176 0.066981 130.00 0.0076923 1027.7 1115.0 3.1858 2.6209 3.1892 311.70 0.029642 20.176 0.066981
284.38 1651.0 undefined 1030.3 1117.9 3.1905 130.00 0.0076923 1030.3 1117.9 3.1905 2.6242 3.1905 312.32 0.029437 20.203 0.067167 130.00 0.0076923 1030.3 1117.9 3.1905 2.6242 3.1905 312.32 0.029437 20.203 0.067167
285.38 1656.3 undefined 1033.0 1120.8 3.1952 130.00 0.0076923 1033.0 1120.8 3.1952 2.6275 3.1919 312.94 0.029233 20.229 0.067353 130.00 0.0076923 1033.0 1120.8 3.1952 2.6275 3.1919 312.94 0.029233 20.229 0.067353
286.38 1661.7 undefined 1035.6 1123.7 3.1999 130.00 0.0076923 1035.6 1123.7 3.1999 2.6308 3.1933 313.56 0.029031 20.256 0.067540 130.00 0.0076923 1035.6 1123.7 3.1999 2.6308 3.1933 313.56 0.029031 20.256 0.067540
287.38 1667.1 undefined 1038.2 1126.6 3.2046 130.00 0.0076923 1038.2 1126.6 3.2046 2.6341 3.1946 314.18 0.028831 20.283 0.067727 130.00 0.0076923 1038.2 1126.6 3.2046 2.6341 3.1946 314.18 0.028831 20.283 0.067727
288.38 1672.5 undefined 1040.9 1129.6 3.2093 130.00 0.0076923 1040.9 1129.6 3.2093 2.6374 3.1961 314.80 0.028633 20.309 0.067914 130.00 0.0076923 1040.9 1129.6 3.2093 2.6374 3.1961 314.80 0.028633 20.309 0.067914
289.38 1677.9 undefined 1043.5 1132.5 3.2140 130.00 0.0076923 1043.5 1132.5 3.2140 2.6407 3.1975 315.41 0.028437 20.336 0.068102 130.00 0.0076923 1043.5 1132.5 3.2140 2.6407 3.1975 315.41 0.028437 20.336 0.068102
290.38 1683.2 undefined 1046.1 1135.4 3.2187 130.00 0.0076923 1046.1 1135.4 3.2187 2.6440 3.1989 316.03 0.028242 20.362 0.068289 130.00 0.0076923 1046.1 1135.4 3.2187 2.6440 3.1989 316.03 0.028242 20.362 0.068289
291.38 1688.6 undefined 1048.8 1138.3 3.2234 130.00 0.0076923 1048.8 1138.3 3.2234 2.6473 3.2004 316.64 0.028050 20.389 0.068477 130.00 0.0076923 1048.8 1138.3 3.2234 2.6473 3.2004 316.64 0.028050 20.389 0.068477
292.38 1694.0 undefined 1051.4 1141.3 3.2281 130.00 0.0076923 1051.4 1141.3 3.2281 2.6506 3.2019 317.25 0.027859 20.415 0.068666 130.00 0.0076923 1051.4 1141.3 3.2281 2.6506 3.2019 317.25 0.027859 20.415 0.068666
293.38 1699.4 undefined 1054.1 1144.2 3.2328 130.00 0.0076923 1054.1 1144.2 3.2328 2.6539 3.2034 317.87 0.027670 20.442 0.068854 130.00 0.0076923 1054.1 1144.2 3.2328 2.6539 3.2034 317.87 0.027670 20.442 0.068854
294.38 1704.7 undefined 1056.7 1147.2 3.2375 130.00 0.0076923 1056.7 1147.2 3.2375 2.6571 3.2049 318.47 0.027483 20.468 0.069043 130.00 0.0076923 1056.7 1147.2 3.2375 2.6571 3.2049 318.47 0.027483 20.468 0.069043
295.38 1710.1 undefined 1059.4 1150.1 3.2421 130.00 0.0076923 1059.4 1150.1 3.2421 2.6604 3.2064 319.08 0.027297 20.494 0.069232 130.00 0.0076923 1059.4 1150.1 3.2421 2.6604 3.2064 319.08 0.027297 20.494 0.069232
296.38 1715.5 undefined 1062.1 1153.1 3.2468 130.00 0.0076923 1062.1 1153.1 3.2468 2.6637 3.2079 319.69 0.027113 20.521 0.069422 130.00 0.0076923 1062.1 1153.1 3.2468 2.6637 3.2079 319.69 0.027113 20.521 0.069422
297.38 1720.8 undefined 1064.7 1156.0 3.2515 130.00 0.0076923 1064.7 1156.0 3.2515 2.6670 3.2095 320.30 0.026931 20.547 0.069612 130.00 0.0076923 1064.7 1156.0 3.2515 2.6670 3.2095 320.30 0.026931 20.547 0.069612
298.38 1726.2 undefined 1067.4 1159.0 3.2562 130.00 0.0076923 1067.4 1159.0 3.2562 2.6703 3.2111 320.90 0.026751 20.573 0.069802 130.00 0.0076923 1067.4 1159.0 3.2562 2.6703 3.2111 320.90 0.026751 20.573 0.069802
299.38 1731.6 undefined 1070.1 1161.9 3.2608 130.00 0.0076923 1070.1 1161.9 3.2608 2.6736 3.2126 321.50 0.026572 20.599 0.069992 130.00 0.0076923 1070.1 1161.9 3.2608 2.6736 3.2126 321.50 0.026572 20.599 0.069992
300.38 1736.9 undefined 1072.7 1164.9 3.2655 130.00 0.0076923 1072.7 1164.9 3.2655 2.6768 3.2142 322.11 0.026394 20.626 0.070183 130.00 0.0076923 1072.7 1164.9 3.2655 2.6768 3.2142 322.11 0.026394 20.626 0.070183