Temperature (C) Pressure (psia) Quality (l+v) Internal Energy (l+v, kJ/kg) Enthalpy (l+v, kJ/kg) Entropy (l+v, J/g*K) Density (l, kg/m3) Volume (l, m3/kg) Internal Energy (l, kJ/kg) Enthalpy (l, kJ/kg) Entropy (l, J/g*K) Cv (l, J/g*K) Cp (l, J/g*K) Sound Spd. (l, m/s) Joule-Thomson (l, F/psia) Viscosity (l, uPa*s) Therm. Cond. (l, W/m*K) Density (v, kg/m3) Volume (v, m3/kg) Internal Energy (v, kJ/kg) Enthalpy (v, kJ/kg) Entropy (v, J/g*K) Cv (v, J/g*K) Cp (v, J/g*K) Sound Spd. (v, m/s) Joule-Thomson (v, F/psia) Viscosity (v, uPa*s) Therm. Cond. (v, W/m*K)
-187.62 2.4953e-08 6.1653e-11 -196.64 -196.64 -1.3959 733.13 0.0013640 -196.64 -196.64 -1.3959 1.3553 1.9158 2136.4 -0.0077592 10960. 0.20792 1.0669e-08 9.3732e+07 350.13 366.26 5.1858 0.69067 0.87923 143.28 6.1051 2.3259 0.0017061
-186.62 3.7339e-08 9.1159e-11 -194.73 -194.73 -1.3736 732.08 0.0013660 -194.73 -194.73 -1.3736 1.3539 1.9166 2129.6 -0.0077546 10073. 0.20765 1.5780e-08 6.3371e+07 350.82 367.14 5.1200 0.69462 0.88317 144.03 5.9178 2.3534 0.0017533
-185.62 5.5322e-08 1.3347e-10 -192.81 -192.81 -1.3516 731.04 0.0013679 -192.81 -192.81 -1.3516 1.3525 1.9174 2122.9 -0.0077498 9276.1 0.20737 2.3112e-08 4.3267e+07 351.52 368.02 5.0561 0.69857 0.88713 144.77 5.7383 2.3808 0.0018007
-184.62 8.1182e-08 1.9359e-10 -190.89 -190.89 -1.3298 730.00 0.0013699 -190.89 -190.89 -1.3298 1.3513 1.9182 2116.1 -0.0077448 8557.8 0.20708 3.3533e-08 2.9821e+07 352.22 368.91 4.9939 0.70253 0.89108 145.51 5.5662 2.4083 0.0018485
-183.62 1.1803e-07 2.7823e-10 -188.97 -188.97 -1.3083 728.96 0.0013718 -188.97 -188.97 -1.3083 1.3501 1.9191 2109.3 -0.0077395 7909.8 0.20678 4.8211e-08 2.0742e+07 352.92 369.81 4.9333 0.70648 0.89504 146.24 5.4011 2.4357 0.0018965
-182.62 1.7009e-07 3.9636e-10 -187.05 -187.05 -1.2869 727.92 0.0013738 -187.05 -187.05 -1.2869 1.3490 1.9201 2102.5 -0.0077340 7324.3 0.20647 6.8704e-08 1.4555e+07 353.63 370.70 4.8744 0.71043 0.89899 146.97 5.2426 2.4632 0.0019448
-181.62 2.4299e-07 5.5986e-10 -185.13 -185.13 -1.2658 726.88 0.0013757 -185.13 -185.13 -1.2658 1.3480 1.9210 2095.7 -0.0077283 6794.5 0.20616 9.7079e-08 1.0301e+07 354.35 371.60 4.8170 0.71438 0.90294 147.69 5.0904 2.4906 0.0019934
-180.62 3.4425e-07 7.8434e-10 -183.21 -183.21 -1.2450 725.85 0.0013777 -183.21 -183.21 -1.2450 1.3470 1.9220 2088.9 -0.0077225 6314.4 0.20584 1.3605e-07 7.3504e+06 355.06 372.51 4.7612 0.71833 0.90688 148.41 4.9442 2.5181 0.0020423
-179.62 4.8378e-07 1.0901e-09 -181.29 -181.29 -1.2243 724.81 0.0013797 -181.29 -181.29 -1.2243 1.3461 1.9231 2082.0 -0.0077164 5878.8 0.20551 1.8915e-07 5.2868e+06 355.78 373.42 4.7068 0.72227 0.91082 149.13 4.8038 2.5456 0.0020915
-178.62 6.7459e-07 1.5035e-09 -179.37 -179.37 -1.2038 723.78 0.0013816 -179.37 -179.37 -1.2038 1.3453 1.9241 2075.2 -0.0077102 5482.9 0.20517 2.6096e-07 3.8320e+06 356.51 374.33 4.6538 0.72620 0.91475 149.84 4.6688 2.5731 0.0021410
-177.62 9.3358e-07 2.0582e-09 -177.44 -177.44 -1.1836 722.75 0.0013836 -177.44 -177.44 -1.1836 1.3445 1.9252 2068.4 -0.0077039 5122.6 0.20483 3.5737e-07 2.7982e+06 357.23 375.25 4.6022 0.73012 0.91867 150.54 4.5390 2.6005 0.0021907
-176.62 1.2826e-06 2.7973e-09 -175.52 -175.52 -1.1635 721.72 0.0013856 -175.52 -175.52 -1.1635 1.3437 1.9263 2061.5 -0.0076973 4794.1 0.20447 4.8588e-07 2.0581e+06 357.97 376.17 4.5519 0.73403 0.92258 151.25 4.4142 2.6280 0.0022408
-175.62 1.7496e-06 3.7756e-09 -173.59 -173.59 -1.1437 720.69 0.0013876 -173.59 -173.59 -1.1437 1.3430 1.9274 2054.7 -0.0076907 4494.3 0.20411 6.5601e-07 1.5244e+06 358.70 377.09 4.5029 0.73792 0.92648 151.95 4.2941 2.6555 0.0022912
-174.62 2.3705e-06 5.0616e-09 -171.66 -171.66 -1.1240 719.66 0.0013895 -171.66 -171.66 -1.1240 1.3423 1.9286 2047.9 -0.0076838 4220.2 0.20375 8.7976e-07 1.1367e+06 359.44 378.02 4.4551 0.74181 0.93036 152.64 4.1784 2.6830 0.0023418
-173.62 3.1903e-06 6.7413e-09 -169.73 -169.73 -1.1045 718.64 0.0013915 -169.73 -169.73 -1.1045 1.3417 1.9298 2041.0 -0.0076769 3969.3 0.20338 1.1721e-06 8.5314e+05 360.19 378.95 4.4085 0.74568 0.93423 153.33 4.0671 2.7105 0.0023928
-172.62 4.2661e-06 8.9219e-09 -167.80 -167.80 -1.0852 717.61 0.0013935 -167.80 -167.80 -1.0852 1.3411 1.9310 2034.2 -0.0076698 3739.3 0.20300 1.5518e-06 6.4441e+05 360.93 379.89 4.3631 0.74953 0.93809 154.02 3.9599 2.7379 0.0024440
-171.62 5.6692e-06 1.1735e-08 -165.87 -165.87 -1.0661 716.58 0.0013955 -165.87 -165.87 -1.0661 1.3405 1.9322 2027.3 -0.0076625 3528.0 0.20261 2.0419e-06 4.8974e+05 361.69 380.83 4.3188 0.75337 0.94193 154.71 3.8566 2.7654 0.0024955
-170.62 7.4884e-06 1.5345e-08 -163.94 -163.94 -1.0472 715.56 0.0013975 -163.94 -163.94 -1.0472 1.3400 1.9334 2020.5 -0.0076552 3333.8 0.20222 2.6708e-06 3.7442e+05 362.44 381.77 4.2755 0.75720 0.94575 155.39 3.7570 2.7929 0.0025473
-169.62 9.8334e-06 1.9948e-08 -162.00 -162.00 -1.0284 714.54 0.0013995 -162.00 -162.00 -1.0284 1.3395 1.9347 2013.6 -0.0076477 3154.9 0.20182 3.4733e-06 2.8791e+05 363.20 382.72 4.2334 0.76100 0.94956 156.07 3.6609 2.8204 0.0025994
-168.62 1.2839e-05 2.5788e-08 -160.07 -160.07 -1.0098 713.52 0.0014015 -160.07 -160.07 -1.0098 1.3390 1.9359 2006.8 -0.0076401 2989.9 0.20141 4.4917e-06 2.2263e+05 363.96 383.67 4.1922 0.76479 0.95335 156.74 3.5683 2.8479 0.0026518
-167.62 1.6672e-05 3.3157e-08 -158.13 -158.13 -0.99134 712.49 0.0014035 -158.13 -158.13 -0.99134 1.3386 1.9372 2000.0 -0.0076323 2837.5 0.20100 5.7771e-06 1.7310e+05 364.73 384.63 4.1521 0.76856 0.95712 157.41 3.4790 2.8754 0.0027045
-166.62 2.1533e-05 4.2407e-08 -156.19 -156.19 -0.97306 711.47 0.0014055 -156.19 -156.19 -0.97306 1.3382 1.9385 1993.1 -0.0076245 2696.5 0.20058 7.3914e-06 1.3529e+05 365.50 385.59 4.1129 0.77232 0.96087 158.08 3.3927 2.9029 0.0027575
-165.62 2.7666e-05 5.3960e-08 -154.25 -154.25 -0.95494 710.45 0.0014075 -154.25 -154.25 -0.95494 1.3378 1.9398 1986.3 -0.0076165 2566.0 0.20016 9.4084e-06 1.0629e+05 366.27 386.55 4.0746 0.77605 0.96460 158.75 3.3095 2.9304 0.0028108
-164.62 3.5367e-05 6.8320e-08 -152.31 -152.31 -0.93698 709.44 0.0014096 -152.31 -152.31 -0.93698 1.3375 1.9411 1979.4 -0.0076084 2444.9 0.19973 1.1916e-05 83918. 367.05 387.52 4.0372 0.77976 0.96832 159.41 3.2291 2.9579 0.0028643
-163.62 4.4989e-05 8.6084e-08 -150.37 -150.37 -0.91917 708.42 0.0014116 -150.37 -150.37 -0.91917 1.3371 1.9424 1972.6 -0.0076002 2332.3 0.19930 1.5020e-05 66577. 367.83 388.49 4.0008 0.78346 0.97201 160.07 3.1514 2.9854 0.0029182
-162.62 5.6956e-05 1.0796e-07 -148.43 -148.43 -0.90151 707.40 0.0014136 -148.43 -148.43 -0.90151 1.3368 1.9437 1965.8 -0.0075919 2227.7 0.19886 1.8844e-05 53068. 368.62 389.46 3.9651 0.78713 0.97569 160.72 3.0764 3.0129 0.0029723
-161.62 7.1773e-05 1.3478e-07 -146.48 -146.48 -0.88400 706.38 0.0014157 -146.48 -146.48 -0.88400 1.3365 1.9451 1959.0 -0.0075834 2130.2 0.19841 2.3533e-05 42494. 369.41 390.44 3.9304 0.79079 0.97935 161.38 3.0038 3.0404 0.0030268
-160.62 9.0036e-05 1.6751e-07 -144.54 -144.54 -0.86663 705.37 0.0014177 -144.54 -144.54 -0.86663 1.3363 1.9465 1952.1 -0.0075748 2039.2 0.19796 2.9258e-05 34178. 370.20 391.42 3.8964 0.79443 0.98298 162.03 2.9337 3.0679 0.0030815
-159.62 0.00011245 2.0730e-07 -142.59 -142.59 -0.84940 704.35 0.0014197 -142.59 -142.59 -0.84940 1.3360 1.9478 1945.3 -0.0075661 1954.2 0.19751 3.6221e-05 27609. 371.00 392.40 3.8632 0.79805 0.98660 162.68 2.8658 3.0955 0.0031365
-158.62 0.00013985 2.5546e-07 -140.64 -140.64 -0.83231 703.34 0.0014218 -140.64 -140.64 -0.83231 1.3358 1.9492 1938.5 -0.0075573 1874.8 0.19705 4.4652e-05 22395. 371.80 393.39 3.8307 0.80164 0.99020 163.32 2.8002 3.1230 0.0031918
-157.62 0.00017320 3.1353e-07 -138.69 -138.69 -0.81536 702.32 0.0014238 -138.69 -138.69 -0.81536 1.3356 1.9506 1931.7 -0.0075484 1800.3 0.19658 5.4822e-05 18241. 372.60 394.38 3.7990 0.80522 0.99378 163.96 2.7367 3.1505 0.0032474
-156.62 0.00021364 3.8327e-07 -136.74 -136.74 -0.79854 701.31 0.0014259 -136.74 -136.74 -0.79854 1.3354 1.9520 1924.9 -0.0075393 1730.5 0.19611 6.7040e-05 14916. 373.41 395.38 3.7680 0.80878 0.99734 164.60 2.6752 3.1780 0.0033033
-155.62 0.00026248 4.6671e-07 -134.79 -134.79 -0.78185 700.30 0.0014280 -134.79 -134.79 -0.78185 1.3352 1.9534 1918.1 -0.0075302 1664.9 0.19564 8.1666e-05 12245. 374.22 396.38 3.7377 0.81232 1.0009 165.24 2.6157 3.2055 0.0033595
-154.62 0.00032125 5.6619e-07 -132.83 -132.83 -0.76530 699.29 0.0014300 -132.83 -132.83 -0.76530 1.3350 1.9548 1911.3 -0.0075209 1603.3 0.19516 9.9109e-05 10090. 375.03 397.38 3.7081 0.81585 1.0044 165.87 2.5580 3.2330 0.0034160
-153.62 0.00039171 6.8436e-07 -130.88 -130.88 -0.74886 698.27 0.0014321 -130.88 -130.88 -0.74887 1.3349 1.9563 1904.5 -0.0075114 1545.3 0.19468 0.00011984 8344.6 375.85 398.39 3.6792 0.81935 1.0079 166.50 2.5022 3.2606 0.0034727
-152.62 0.00047590 8.2425e-07 -128.92 -128.92 -0.73256 697.26 0.0014342 -128.92 -128.92 -0.73256 1.3348 1.9577 1897.8 -0.0075019 1490.6 0.19419 0.00014439 6925.9 376.67 399.40 3.6509 0.82284 1.0114 167.13 2.4481 3.2881 0.0035298
-151.62 0.00057613 9.8928e-07 -126.96 -126.96 -0.71638 696.25 0.0014363 -126.96 -126.96 -0.71638 1.3346 1.9592 1891.0 -0.0074922 1438.9 0.19370 0.00017336 5768.4 377.49 400.41 3.6232 0.82631 1.0149 167.76 2.3957 3.3156 0.0035872
-150.62 0.00069507 1.1833e-06 -125.00 -125.00 -0.70031 695.24 0.0014384 -125.00 -125.00 -0.70032 1.3345 1.9606 1884.2 -0.0074824 1390.2 0.19320 0.00020744 4820.7 378.32 401.42 3.5962 0.82976 1.0183 168.38 2.3448 3.3431 0.0036448
-149.62 0.00083574 1.4108e-06 -123.04 -123.04 -0.68437 694.23 0.0014404 -123.04 -123.04 -0.68438 1.3345 1.9621 1877.4 -0.0074724 1344.0 0.19270 0.00024740 4042.0 379.15 402.44 3.5697 0.83319 1.0218 169.00 2.2956 3.3706 0.0037027
-148.62 0.0010016 1.6766e-06 -121.08 -121.08 -0.66854 693.22 0.0014425 -121.08 -121.08 -0.66855 1.3344 1.9636 1870.7 -0.0074623 1300.3 0.19220 0.00029412 3400.0 379.99 403.47 3.5438 0.83661 1.0252 169.62 2.2478 3.3982 0.0037610
-147.62 0.0011965 1.9862e-06 -119.11 -119.11 -0.65283 692.21 0.0014447 -119.11 -119.11 -0.65284 1.3343 1.9651 1863.9 -0.0074521 1258.9 0.19169 0.00034856 2869.0 380.83 404.49 3.5185 0.84001 1.0286 170.24 2.2014 3.4257 0.0038195
-146.62 0.0014249 2.3457e-06 -117.15 -117.15 -0.63723 691.20 0.0014468 -117.15 -117.15 -0.63724 1.3343 1.9666 1857.2 -0.0074417 1219.6 0.19117 0.00041181 2428.3 381.67 405.52 3.4938 0.84340 1.0320 170.85 2.1565 3.4532 0.0038783
-145.62 0.0016917 2.7621e-06 -115.18 -115.18 -0.62174 690.19 0.0014489 -115.18 -115.18 -0.62175 1.3343 1.9682 1850.4 -0.0074312 1182.3 0.19066 0.00048510 2061.4 382.51 406.56 3.4695 0.84677 1.0353 171.46 2.1128 3.4807 0.0039374
-144.62 0.0020026 3.2430e-06 -113.21 -113.21 -0.60636 689.18 0.0014510 -113.21 -113.21 -0.60637 1.3343 1.9697 1843.7 -0.0074206 1146.8 0.19014 0.00056976 1755.1 383.36 407.59 3.4458 0.85012 1.0387 172.07 2.0705 3.5082 0.0039967
-143.62 0.0023637 3.7968e-06 -111.24 -111.24 -0.59108 688.17 0.0014531 -111.24 -111.24 -0.59110 1.3343 1.9713 1836.9 -0.0074098 1113.0 0.18962 0.00066731 1498.6 384.21 408.63 3.4226 0.85346 1.0420 172.68 2.0294 3.5358 0.0040564
-142.62 0.0027820 4.4329e-06 -109.27 -109.27 -0.57591 687.16 0.0014553 -109.27 -109.27 -0.57593 1.3343 1.9728 1830.2 -0.0073988 1080.8 0.18909 0.00077939 1283.1 385.07 409.68 3.3999 0.85679 1.0454 173.28 1.9896 3.5633 0.0041164
-141.62 0.0032653 5.1615e-06 -107.29 -107.29 -0.56085 686.15 0.0014574 -107.30 -107.30 -0.56087 1.3343 1.9744 1823.5 -0.0073878 1050.1 0.18856 0.00090784 1101.5 385.93 410.72 3.3777 0.86011 1.0487 173.88 1.9508 3.5908 0.0041766
-140.62 0.0038222 5.9940e-06 -105.32 -105.32 -0.54588 685.14 0.0014596 -105.32 -105.32 -0.54591 1.3344 1.9760 1816.7 -0.0073765 1020.7 0.18803 0.0010547 948.16 386.79 411.77 3.3560 0.86341 1.0520 174.48 1.9133 3.6183 0.0042372
-139.62 0.0044623 6.9429e-06 -103.34 -103.34 -0.53102 684.13 0.0014617 -103.34 -103.34 -0.53105 1.3344 1.9776 1810.0 -0.0073651 992.74 0.18749 0.0012221 818.26 387.65 412.83 3.3347 0.86670 1.0553 175.08 1.8768 3.6459 0.0042980
-138.62 0.0051963 8.0218e-06 -101.36 -101.36 -0.51626 683.12 0.0014639 -101.37 -101.37 -0.51629 1.3345 1.9792 1803.3 -0.0073536 965.97 0.18695 0.0014125 707.94 388.52 413.88 3.3139 0.86998 1.0586 175.67 1.8413 3.6734 0.0043592
-137.62 0.0060358 9.2457e-06 -99.382 -99.381 -0.50159 682.11 0.0014660 -99.386 -99.386 -0.50162 1.3346 1.9808 1796.6 -0.0073419 940.35 0.18641 0.0016287 614.00 389.39 414.94 3.2935 0.87325 1.0619 176.26 1.8069 3.7009 0.0044206
-136.62 0.0069938 1.0631e-05 -97.399 -97.399 -0.48701 681.10 0.0014682 -97.404 -97.404 -0.48705 1.3347 1.9825 1789.9 -0.0073301 915.81 0.18586 0.0018733 533.80 390.26 416.00 3.2735 0.87650 1.0651 176.85 1.7734 3.7284 0.0044823
-135.62 0.0080843 1.2194e-05 -95.415 -95.415 -0.47253 680.09 0.0014704 -95.421 -95.421 -0.47258 1.3348 1.9841 1783.2 -0.0073180 892.30 0.18531 0.0021497 465.17 391.14 417.07 3.2540 0.87975 1.0684 177.44 1.7409 3.7559 0.0045443
-134.62 0.0093230 1.3956e-05 -93.429 -93.429 -0.45815 679.08 0.0014726 -93.436 -93.436 -0.45820 1.3350 1.9858 1776.5 -0.0073059 869.75 0.18476 0.0024613 406.30 392.02 418.14 3.2348 0.88299 1.0716 178.02 1.7093 3.7834 0.0046066
-133.62 0.010727 1.5937e-05 -91.442 -91.441 -0.44385 678.07 0.0014748 -91.450 -91.449 -0.44391 1.3351 1.9875 1769.8 -0.0072935 848.11 0.18421 0.0028116 355.67 392.91 419.21 3.2161 0.88622 1.0749 178.61 1.6786 3.8109 0.0046691
-132.62 0.012315 1.8158e-05 -89.452 -89.452 -0.42964 677.06 0.0014770 -89.461 -89.461 -0.42971 1.3353 1.9892 1763.1 -0.0072810 827.32 0.18365 0.0032049 312.03 393.79 420.29 3.1977 0.88944 1.0781 179.19 1.6488 3.8385 0.0047320
-131.62 0.014106 2.0646e-05 -87.461 -87.461 -0.41552 676.04 0.0014792 -87.471 -87.471 -0.41560 1.3354 1.9909 1756.4 -0.0072684 807.34 0.18309 0.0036453 274.33 394.68 421.36 3.1798 0.89266 1.0813 179.76 1.6197 3.8660 0.0047951
-130.62 0.016124 2.3425e-05 -85.468 -85.467 -0.40149 675.03 0.0014814 -85.479 -85.479 -0.40157 1.3356 1.9926 1749.7 -0.0072555 788.12 0.18253 0.0041375 241.69 395.58 422.44 3.1622 0.89586 1.0846 180.34 1.5915 3.8935 0.0048586
-129.62 0.018392 2.6523e-05 -83.473 -83.472 -0.38754 674.02 0.0014836 -83.486 -83.486 -0.38763 1.3358 1.9944 1743.0 -0.0072425 769.63 0.18196 0.0046867 213.37 396.47 423.53 3.1450 0.89906 1.0878 180.91 1.5641 3.9210 0.0049223
-128.62 0.020935 2.9972e-05 -81.476 -81.475 -0.37368 673.01 0.0014859 -81.491 -81.490 -0.37378 1.3360 1.9961 1736.3 -0.0072294 751.83 0.18140 0.0052981 188.75 397.37 424.62 3.1281 0.90226 1.0910 181.48 1.5374 3.9485 0.0049863
-127.62 0.023783 3.3802e-05 -79.477 -79.476 -0.35989 672.00 0.0014881 -79.494 -79.493 -0.36001 1.3363 1.9979 1729.6 -0.0072160 734.67 0.18083 0.0059776 167.29 398.27 425.71 3.1116 0.90545 1.0942 182.05 1.5114 3.9760 0.0050506
-126.62 0.026966 3.8049e-05 -77.477 -77.475 -0.34619 670.98 0.0014904 -77.495 -77.495 -0.34632 1.3365 1.9997 1722.9 -0.0072025 718.14 0.18025 0.0067313 148.56 399.18 426.80 3.0954 0.90863 1.0974 182.62 1.4861 4.0035 0.0051152
-125.62 0.030515 4.2750e-05 -75.474 -75.472 -0.33257 669.97 0.0014926 -75.494 -75.494 -0.33272 1.3368 2.0015 1716.2 -0.0071888 702.18 0.17968 0.0075660 132.17 400.09 427.89 3.0795 0.91181 1.1006 183.18 1.4615 4.0310 0.0051800
-124.62 0.034467 4.7944e-05 -73.469 -73.467 -0.31903 668.95 0.0014949 -73.492 -73.492 -0.31919 1.3371 2.0033 1709.5 -0.0071749 686.79 0.17910 0.0084885 117.81 401.00 428.99 3.0640 0.91499 1.1038 183.74 1.4375 4.0584 0.0052452
-123.62 0.038859 5.3672e-05 -71.462 -71.460 -0.30556 667.94 0.0014971 -71.488 -71.487 -0.30574 1.3374 2.0051 1702.8 -0.0071609 671.93 0.17852 0.0095065 105.19 401.91 430.10 3.0488 0.91816 1.1070 184.30 1.4141 4.0859 0.0053106
-122.62 0.043731 5.9979e-05 -69.453 -69.451 -0.29217 666.92 0.0014994 -69.482 -69.481 -0.29237 1.3377 2.0070 1696.2 -0.0071466 657.57 0.17794 0.010628 94.092 402.83 431.20 3.0339 0.92134 1.1102 184.86 1.3913 4.1134 0.0053764
-121.62 0.049128 6.6912e-05 -67.442 -67.440 -0.27885 665.91 0.0015017 -67.474 -67.473 -0.27907 1.3380 2.0089 1689.5 -0.0071322 643.70 0.17736 0.011861 84.309 403.75 432.31 3.0193 0.92451 1.1134 185.41 1.3691 4.1409 0.0054424
-120.62 0.055096 7.4521e-05 -65.429 -65.426 -0.26561 664.89 0.0015040 -65.464 -65.463 -0.26585 1.3384 2.0107 1682.8 -0.0071176 630.28 0.17678 0.013215 75.669 404.67 433.42 3.0050 0.92767 1.1166 185.96 1.3475 4.1683 0.0055087
-119.62 0.061684 8.2859e-05 -63.413 -63.410 -0.25244 663.87 0.0015063 -63.452 -63.452 -0.25271 1.3387 2.0126 1676.1 -0.0071028 617.30 0.17619 0.014700 68.027 405.60 434.53 2.9909 0.93084 1.1198 186.51 1.3264 4.1958 0.0055752
-118.62 0.068946 9.1982e-05 -61.396 -61.392 -0.23934 662.86 0.0015086 -61.439 -61.438 -0.23963 1.3391 2.0146 1669.4 -0.0070878 604.74 0.17560 0.016325 61.255 406.53 435.64 2.9772 0.93401 1.1231 187.06 1.3058 4.2233 0.0056421
-117.62 0.076937 0.00010195 -59.376 -59.372 -0.22631 661.84 0.0015109 -59.423 -59.422 -0.22663 1.3395 2.0165 1662.8 -0.0070726 592.58 0.17501 0.018101 55.245 407.46 436.76 2.9638 0.93718 1.1263 187.60 1.2857 4.2507 0.0057092
-116.62 0.085718 0.00011282 -57.353 -57.349 -0.21334 660.82 0.0015133 -57.406 -57.405 -0.21370 1.3400 2.0184 1656.1 -0.0070573 580.80 0.17442 0.020040 49.901 408.39 437.88 2.9506 0.94035 1.1295 188.14 1.2660 4.2782 0.0057767
-115.62 0.095353 0.00012466 -55.328 -55.324 -0.20045 659.80 0.0015156 -55.386 -55.385 -0.20084 1.3404 2.0204 1649.4 -0.0070417 569.38 0.17383 0.022152 45.142 409.33 439.01 2.9377 0.94352 1.1327 188.68 1.2468 4.3056 0.0058444
-114.62 0.10591 0.00013754 -53.301 -53.296 -0.18762 658.78 0.0015180 -53.365 -53.364 -0.18805 1.3409 2.0224 1642.7 -0.0070260 558.32 0.17323 0.024451 40.898 410.27 440.13 2.9250 0.94669 1.1360 189.22 1.2281 4.3330 0.0059123
-113.62 0.11746 0.00015153 -51.271 -51.266 -0.17486 657.76 0.0015203 -51.342 -51.340 -0.17533 1.3413 2.0244 1636.0 -0.0070100 547.59 0.17264 0.026949 37.107 411.21 441.26 2.9126 0.94987 1.1392 189.75 1.2097 4.3604 0.0059806
-112.62 0.13008 0.00016671 -49.239 -49.233 -0.16216 656.73 0.0015227 -49.316 -49.315 -0.16267 1.3418 2.0264 1629.3 -0.0069938 537.18 0.17204 0.029661 33.715 412.16 442.39 2.9005 0.95305 1.1424 190.28 1.1918 4.3879 0.0060491
-111.62 0.14384 0.00018315 -47.204 -47.197 -0.14952 655.71 0.0015251 -47.289 -47.287 -0.15008 1.3424 2.0285 1622.7 -0.0069774 527.08 0.17144 0.032600 30.675 413.10 443.53 2.8885 0.95623 1.1457 190.81 1.1742 4.4153 0.0061180
-110.62 0.15884 0.00020093 -45.167 -45.159 -0.13695 654.69 0.0015274 -45.259 -45.258 -0.13755 1.3429 2.0305 1616.0 -0.0069609 517.28 0.17084 0.035781 27.948 414.06 444.66 2.8769 0.95942 1.1490 191.34 1.1570 4.4427 0.0061871
-109.62 0.17516 0.00022015 -43.127 -43.118 -0.12443 653.66 0.0015298 -43.228 -43.226 -0.12509 1.3435 2.0326 1609.3 -0.0069441 507.76 0.17024 0.039220 25.497 415.01 445.80 2.8654 0.96261 1.1522 191.86 1.1402 4.4701 0.0062564
-108.62 0.19290 0.00024089 -41.084 -41.074 -0.11198 652.64 0.0015322 -41.194 -41.192 -0.11269 1.3441 2.0347 1602.6 -0.0069271 498.51 0.16964 0.042933 23.292 415.96 446.94 2.8542 0.96581 1.1555 192.38 1.1236 4.4974 0.0063261
-107.62 0.21215 0.00026325 -39.038 -39.028 -0.099582 651.61 0.0015347 -39.158 -39.156 -0.10036 1.3447 2.0369 1595.9 -0.0069098 489.52 0.16903 0.046937 21.305 416.92 448.09 2.8433 0.96901 1.1588 192.90 1.1075 4.5248 0.0063960
-106.62 0.23301 0.00028732 -36.990 -36.978 -0.087243 650.58 0.0015371 -37.120 -37.118 -0.088082 1.3453 2.0390 1589.2 -0.0068924 480.79 0.16843 0.051250 19.512 417.88 449.23 2.8325 0.97222 1.1621 193.41 1.0916 4.5522 0.0064662
-105.62 0.25561 0.00031320 -34.938 -34.926 -0.074961 649.55 0.0015395 -35.080 -35.078 -0.075868 1.3460 2.0412 1582.6 -0.0068747 472.30 0.16782 0.055891 17.892 418.85 450.38 2.8220 0.97544 1.1655 193.93 1.0760 4.5795 0.0065367
-104.62 0.28004 0.00034100 -32.884 -32.870 -0.062734 648.52 0.0015420 -33.038 -33.035 -0.063714 1.3467 2.0434 1575.9 -0.0068569 464.04 0.16721 0.060878 16.426 419.81 451.53 2.8116 0.97867 1.1688 194.44 1.0608 4.6069 0.0066074
-103.62 0.30643 0.00037083 -30.826 -30.811 -0.050561 647.49 0.0015444 -30.994 -30.991 -0.051619 1.3474 2.0456 1569.2 -0.0068387 456.00 0.16660 0.066231 15.099 420.78 452.68 2.8015 0.98191 1.1722 194.94 1.0458 4.6342 0.0066785
-102.62 0.33490 0.00040279 -28.766 -28.749 -0.038441 646.46 0.0015469 -28.947 -28.944 -0.039582 1.3481 2.0478 1562.5 -0.0068204 448.18 0.16600 0.071971 13.894 421.75 453.84 2.7916 0.98516 1.1755 195.44 1.0310 4.6615 0.0067498
-101.62 0.36558 0.00043702 -26.702 -26.684 -0.026374 645.43 0.0015494 -26.898 -26.894 -0.027602 1.3489 2.0501 1555.8 -0.0068018 440.57 0.16539 0.078120 12.801 422.73 454.99 2.7818 0.98841 1.1789 195.95 1.0166 4.6888 0.0068213
-100.62 0.39862 0.00047361 -24.635 -24.615 -0.014358 644.39 0.0015519 -24.847 -24.843 -0.015678 1.3497 2.0524 1549.1 -0.0067830 433.16 0.16478 0.084699 11.807 423.70 456.15 2.7723 0.99168 1.1823 196.44 1.0024 4.7161 0.0068932
-99.625 0.43414 0.00051271 -22.564 -22.543 -0.0023917 643.36 0.0015544 -22.794 -22.789 -0.0038103 1.3505 2.0547 1542.4 -0.0067639 425.95 0.16416 0.091731 10.901 424.68 457.31 2.7630 0.99496 1.1858 196.94 0.98838 4.7434 0.0069653
-98.625 0.47230 0.00055444 -20.491 -20.467 0.0095251 642.32 0.0015569 -20.738 -20.733 0.0080027 1.3514 2.0570 1535.7 -0.0067447 418.92 0.16355 0.099240 10.077 425.66 458.48 2.7538 0.99825 1.1892 197.43 0.97464 4.7707 0.0070377
-97.625 0.51325 0.00059893 -18.413 -18.388 0.021394 641.28 0.0015594 -18.680 -18.674 0.019762 1.3522 2.0594 1529.0 -0.0067251 412.07 0.16294 0.10725 9.3239 426.65 459.64 2.7448 1.0016 1.1927 197.92 0.96112 4.7979 0.0071103
-96.625 0.55714 0.00064632 -16.332 -16.305 0.033215 640.24 0.0015619 -16.620 -16.614 0.031467 1.3531 2.0618 1522.3 -0.0067053 405.39 0.16233 0.11579 8.6365 427.63 460.81 2.7360 1.0049 1.1962 198.40 0.94783 4.8251 0.0071832
-95.625 0.60416 0.00069676 -14.248 -14.218 0.044990 639.20 0.0015645 -14.557 -14.550 0.043120 1.3540 2.0642 1515.7 -0.0066853 398.88 0.16171 0.12488 8.0078 428.62 461.98 2.7274 1.0082 1.1997 198.88 0.93475 4.8524 0.0072564
-94.625 0.65446 0.00075037 -12.160 -12.127 0.056720 638.16 0.0015670 -12.491 -12.484 0.054721 1.3550 2.0667 1509.0 -0.0066650 392.53 0.16110 0.13455 7.4323 429.61 463.15 2.7189 1.0116 1.2032 199.36 0.92188 4.8796 0.0073299
-93.625 0.70822 0.00080732 -10.068 -10.033 0.068406 637.12 0.0015696 -10.424 -10.416 0.066271 1.3560 2.0691 1502.3 -0.0066444 386.34 0.16048 0.14482 6.9050 430.60 464.32 2.7107 1.0149 1.2068 199.83 0.90921 4.9068 0.0074036
-92.625 0.76564 0.00086776 -7.9718 -7.9340 0.080048 636.07 0.0015722 -8.3535 -8.3452 0.077771 1.3570 2.0716 1495.6 -0.0066236 380.31 0.15987 0.15573 6.4212 431.60 465.49 2.7025 1.0183 1.2104 200.30 0.89673 4.9340 0.0074776
-91.625 0.82689 0.00093185 -5.8719 -5.8312 0.091648 635.02 0.0015747 -6.2808 -6.2719 0.089220 1.3580 2.0742 1488.9 -0.0066025 374.41 0.15925 0.16731 5.9769 432.59 466.67 2.6946 1.0217 1.2140 200.77 0.88445 4.9611 0.0075518
-90.625 0.89218 0.00099974 -3.7680 -3.7240 0.10321 633.98 0.0015773 -4.2056 -4.1959 0.10062 1.3591 2.0767 1482.2 -0.0065811 368.66 0.15864 0.17958 5.5685 433.59 467.84 2.6868 1.0251 1.2177 201.24 0.87236 4.9883 0.0076263
-89.625 0.96172 0.0010716 -1.6599 -1.6125 0.11472 632.93 0.0015800 -2.1279 -2.1174 0.11197 1.3602 2.0793 1475.5 -0.0065595 363.05 0.15802 0.19258 5.1928 434.59 469.02 2.6791 1.0285 1.2213 201.70 0.86045 5.0154 0.0077011
-88.625 1.0357 0.0011476 0.45243 0.50344 0.12620 631.88 0.0015826 -0.047516 -0.036215 0.12328 1.3613 2.0819 1468.8 -0.0065375 357.56 0.15740 0.20633 4.8466 435.59 470.20 2.6717 1.0320 1.2250 202.15 0.84873 5.0425 0.0077761
-87.625 1.1144 0.0012279 2.5691 2.6239 0.13764 630.83 0.0015852 2.0355 2.0476 0.13454 1.3625 2.0846 1462.1 -0.0065153 352.21 0.15679 0.22087 4.5276 436.60 471.39 2.6643 1.0354 1.2288 202.61 0.83718 5.0696 0.0078514
-86.625 1.1979 0.0013128 4.6901 4.7491 0.14904 629.77 0.0015879 4.1211 4.1342 0.14575 1.3637 2.0873 1455.4 -0.0064928 346.98 0.15617 0.23623 4.2331 437.61 472.57 2.6571 1.0389 1.2325 203.06 0.82580 5.0967 0.0079270
-85.625 1.2866 0.0014023 6.8157 6.8791 0.16041 628.72 0.0015905 6.2094 6.2235 0.15691 1.3649 2.0900 1448.8 -0.0064701 341.87 0.15555 0.25245 3.9612 438.61 473.75 2.6501 1.0424 1.2363 203.50 0.81460 5.1237 0.0080028
-84.625 1.3806 0.0014966 8.9459 9.0139 0.17174 627.66 0.0015932 8.3004 8.3155 0.16803 1.3661 2.0927 1442.1 -0.0064470 336.87 0.15494 0.26956 3.7097 439.63 474.94 2.6432 1.0460 1.2402 203.95 0.80356 5.1508 0.0080789
-83.625 1.4803 0.0015960 11.081 11.154 0.18303 626.60 0.0015959 10.394 10.410 0.17911 1.3674 2.0955 1435.4 -0.0064236 331.99 0.15432 0.28760 3.4771 440.64 476.13 2.6364 1.0495 1.2440 204.38 0.79269 5.1778 0.0081553
-82.625 1.5858 0.0017007 13.220 13.299 0.19429 625.54 0.0015986 12.491 12.508 0.19014 1.3687 2.0983 1428.7 -0.0063999 327.22 0.15370 0.30659 3.2616 441.65 477.31 2.6298 1.0531 1.2479 204.82 0.78199 5.2048 0.0082319
-81.625 1.6975 0.0018108 15.365 15.449 0.20552 624.48 0.0016013 14.590 14.609 0.20113 1.3700 2.1012 1422.0 -0.0063759 322.55 0.15309 0.32659 3.0619 442.67 478.50 2.6233 1.0567 1.2519 205.25 0.77144 5.2318 0.0083088
-80.625 1.8155 0.0019265 17.515 17.604 0.21671 623.42 0.0016041 16.692 16.712 0.21208 1.3714 2.1041 1415.4 -0.0063516 317.99 0.15247 0.34763 2.8766 443.69 479.70 2.6169 1.0603 1.2558 205.67 0.76106 5.2587 0.0083860
-79.625 1.9402 0.0020481 19.669 19.765 0.22788 622.36 0.0016068 18.797 18.819 0.22299 1.3728 2.1070 1408.7 -0.0063270 313.52 0.15186 0.36974 2.7046 444.71 480.89 2.6106 1.0639 1.2598 206.10 0.75083 5.2857 0.0084634
-78.625 2.0718 0.0021758 21.829 21.931 0.23901 621.29 0.0016096 20.905 20.928 0.23385 1.3742 2.1099 1402.0 -0.0063021 309.15 0.15124 0.39296 2.5448 445.73 482.08 2.6045 1.0676 1.2639 206.51 0.74076 5.3126 0.0085411
-77.625 2.2107 0.0023097 23.995 24.103 0.25011 620.22 0.0016123 23.016 23.040 0.24468 1.3757 2.1129 1395.3 -0.0062768 304.88 0.15062 0.41735 2.3961 446.75 483.27 2.5985 1.0712 1.2680 206.93 0.73084 5.3395 0.0086190
-76.625 2.3571 0.0024501 26.165 26.281 0.26119 619.15 0.0016151 25.130 25.156 0.25546 1.3772 2.1159 1388.7 -0.0062512 300.69 0.15001 0.44292 2.2577 447.78 484.47 2.5926 1.0749 1.2721 207.34 0.72107 5.3664 0.0086972
-75.625 2.5113 0.0025973 28.341 28.465 0.27223 618.08 0.0016179 27.247 27.275 0.26620 1.3787 2.1190 1382.0 -0.0062253 296.59 0.14939 0.46974 2.1288 448.81 485.67 2.5869 1.0787 1.2762 207.74 0.71146 5.3933 0.0087757
-74.625 2.6736 0.0027513 30.523 30.655 0.28325 617.01 0.0016207 29.366 29.396 0.27691 1.3802 2.1221 1375.4 -0.0061990 292.58 0.14878 0.49783 2.0087 449.83 486.86 2.5812 1.0824 1.2804 208.14 0.70200 5.4201 0.0088544
-73.625 2.8444 0.0029126 32.711 32.851 0.29424 615.93 0.0016236 31.489 31.521 0.28758 1.3818 2.1252 1368.7 -0.0061724 288.65 0.14816 0.52725 1.8966 450.86 488.06 2.5757 1.0862 1.2847 208.54 0.69268 5.4469 0.0089334
-72.625 3.0240 0.0030812 34.904 35.053 0.30521 614.85 0.0016264 33.615 33.649 0.29821 1.3834 2.1284 1362.0 -0.0061454 284.81 0.14755 0.55804 1.7920 451.90 489.26 2.5703 1.0900 1.2889 208.93 0.68351 5.4737 0.0090126
-71.625 3.2127 0.0032575 37.104 37.262 0.31615 613.78 0.0016293 35.745 35.781 0.30880 1.3851 2.1316 1355.4 -0.0061181 281.03 0.14694 0.59024 1.6942 452.93 490.46 2.5650 1.0938 1.2932 209.32 0.67448 5.5005 0.0090922
-70.625 3.4108 0.0034416 39.309 39.477 0.32706 612.69 0.0016321 37.877 37.915 0.31935 1.3867 2.1349 1348.7 -0.0060904 277.34 0.14632 0.62390 1.6028 453.96 491.66 2.5598 1.0976 1.2976 209.70 0.66560 5.5273 0.0091720
-69.625 3.6187 0.0036339 41.521 41.699 0.33796 611.61 0.0016350 40.013 40.053 0.32987 1.3884 2.1382 1342.1 -0.0060624 273.72 0.14571 0.65906 1.5173 455.00 492.86 2.5547 1.1015 1.3020 210.08 0.65687 5.5540 0.0092520
-68.625 3.8367 0.0038346 43.739 43.928 0.34883 610.53 0.0016379 42.152 42.195 0.34036 1.3902 2.1415 1335.5 -0.0060339 270.17 0.14510 0.69577 1.4372 456.04 494.06 2.5497 1.1054 1.3064 210.45 0.64827 5.5807 0.0093324
-67.625 4.0652 0.0040438 45.963 46.163 0.35968 609.44 0.0016409 44.294 44.340 0.35080 1.3919 2.1449 1328.8 -0.0060051 266.69 0.14449 0.73408 1.3622 457.08 495.26 2.5448 1.1093 1.3109 210.82 0.63981 5.6074 0.0094130
-66.625 4.3046 0.0042619 48.194 48.406 0.37050 608.35 0.0016438 46.439 46.488 0.36122 1.3937 2.1483 1322.2 -0.0059760 263.28 0.14388 0.77404 1.2919 458.12 496.46 2.5400 1.1133 1.3154 211.18 0.63150 5.6341 0.0094939
-65.625 4.5551 0.0044892 50.431 50.656 0.38131 607.26 0.0016467 48.588 48.640 0.37160 1.3955 2.1518 1315.6 -0.0059464 259.93 0.14327 0.81570 1.2259 459.16 497.67 2.5353 1.1172 1.3200 211.54 0.62332 5.6608 0.0095750
-64.625 4.8173 0.0047258 52.675 52.913 0.39210 606.16 0.0016497 50.740 50.795 0.38195 1.3974 2.1553 1308.9 -0.0059164 256.65 0.14266 0.85910 1.1640 460.21 498.87 2.5307 1.1212 1.3246 211.89 0.61527 5.6874 0.0096564
-63.625 5.0915 0.0049721 54.927 55.177 0.40287 605.07 0.0016527 52.896 52.954 0.39226 1.3993 2.1588 1302.3 -0.0058861 253.42 0.14205 0.90429 1.1058 461.25 500.07 2.5262 1.1252 1.3293 212.24 0.60736 5.7140 0.0097382
-62.625 5.3781 0.0052284 57.185 57.449 0.41362 603.97 0.0016557 55.055 55.117 0.40254 1.4012 2.1624 1295.7 -0.0058553 250.26 0.14144 0.95134 1.0511 462.30 501.28 2.5218 1.1293 1.3340 212.58 0.59958 5.7406 0.0098201
-61.625 5.6774 0.0054948 59.450 59.729 0.42436 602.87 0.0016587 57.218 57.283 0.41279 1.4031 2.1660 1289.1 -0.0058241 247.16 0.14084 1.0003 0.99972 463.35 502.48 2.5175 1.1333 1.3387 212.92 0.59194 5.7672 0.0099024
-60.625 5.9899 0.0057717 61.722 62.017 0.43507 601.77 0.0016618 59.385 59.453 0.42301 1.4051 2.1697 1282.5 -0.0057925 244.12 0.14023 1.0512 0.95131 464.40 503.68 2.5133 1.1374 1.3435 213.26 0.58442 5.7938 0.0099850
-59.625 6.3160 0.0060594 64.002 64.313 0.44577 600.66 0.0016648 61.554 61.627 0.43320 1.4071 2.1734 1275.9 -0.0057605 241.13 0.13962 1.1041 0.90573 465.45 504.89 2.5091 1.1415 1.3483 213.58 0.57704 5.8203 0.010068
-58.625 6.6561 0.0063581 66.289 66.617 0.45646 599.55 0.0016679 63.728 63.805 0.44335 1.4091 2.1772 1269.3 -0.0057280 238.19 0.13902 1.1591 0.86277 466.50 506.09 2.5051 1.1457 1.3532 213.90 0.56978 5.8468 0.010151
-57.625 7.0107 0.0066681 68.584 68.929 0.46713 598.44 0.0016710 65.905 65.986 0.45348 1.4111 2.1810 1262.7 -0.0056951 235.31 0.13842 1.2161 0.82228 467.55 507.30 2.5011 1.1498 1.3581 214.22 0.56265 5.8733 0.010234
-56.625 7.3801 0.0069897 70.886 71.249 0.47779 597.33 0.0016741 68.086 68.172 0.46358 1.4132 2.1848 1256.1 -0.0056617 232.48 0.13781 1.2754 0.78408 468.60 508.50 2.4972 1.1540 1.3631 214.53 0.55564 5.8998 0.010318
-55.625 7.7648 0.0073232 73.196 73.578 0.48843 596.22 0.0016772 70.271 70.361 0.47364 1.4153 2.1887 1249.5 -0.0056279 229.69 0.13721 1.3369 0.74802 469.66 509.71 2.4934 1.1582 1.3681 214.84 0.54875 5.9263 0.010402
-54.625 8.1652 0.0076690 75.514 75.916 0.49907 595.10 0.0016804 72.460 72.554 0.48368 1.4174 2.1927 1242.9 -0.0055937 226.96 0.13661 1.4006 0.71396 470.72 510.91 2.4897 1.1624 1.3731 215.14 0.54199 5.9527 0.010486
-53.625 8.5819 0.0080272 77.840 78.263 0.50969 593.98 0.0016836 74.652 74.752 0.49369 1.4196 2.1967 1236.3 -0.0055589 224.27 0.13601 1.4667 0.68178 471.77 512.11 2.4860 1.1667 1.3782 215.43 0.53535 5.9792 0.010571
-52.625 9.0151 0.0083983 80.174 80.618 0.52030 592.86 0.0016867 76.849 76.954 0.50368 1.4218 2.2007 1229.8 -0.0055237 221.63 0.13541 1.5353 0.65136 472.83 513.32 2.4824 1.1710 1.3834 215.72 0.52882 6.0056 0.010656
-51.625 9.4655 0.0087824 82.517 82.983 0.53089 591.73 0.0016900 79.049 79.159 0.51363 1.4240 2.2048 1223.2 -0.0054880 219.04 0.13482 1.6062 0.62258 473.89 514.52 2.4789 1.1752 1.3886 216.00 0.52241 6.0320 0.010741
-50.625 9.9335 0.0091800 84.868 85.357 0.54148 590.60 0.0016932 81.253 81.369 0.52356 1.4262 2.2089 1216.6 -0.0054519 216.48 0.13422 1.6797 0.59534 474.95 515.73 2.4755 1.1796 1.3938 216.28 0.51612 6.0584 0.010827
-49.625 10.419 0.0095914 87.227 87.740 0.55206 589.47 0.0016964 83.462 83.584 0.53347 1.4285 2.2131 1210.1 -0.0054152 213.98 0.13363 1.7558 0.56954 476.01 516.93 2.4722 1.1839 1.3991 216.55 0.50994 6.0848 0.010913
-48.625 10.924 0.010017 89.595 90.133 0.56263 588.34 0.0016997 85.674 85.802 0.54334 1.4308 2.2173 1203.5 -0.0053780 211.51 0.13303 1.8345 0.54510 477.07 518.13 2.4689 1.1883 1.4044 216.82 0.50387 6.1112 0.010999
-47.625 11.448 0.010457 91.971 92.535 0.57319 587.20 0.0017030 87.891 88.025 0.55319 1.4331 2.2216 1196.9 -0.0053403 209.08 0.13244 1.9159 0.52194 478.14 519.33 2.4657 1.1927 1.4098 217.08 0.49792 6.1375 0.011085
-46.625 11.991 0.010911 94.357 94.947 0.58374 586.06 0.0017063 90.111 90.252 0.56302 1.4354 2.2259 1190.4 -0.0053020 206.69 0.13185 2.0001 0.49997 479.20 520.53 2.4625 1.1971 1.4153 217.33 0.49207 6.1639 0.011172
-45.625 12.554 0.011381 96.751 97.369 0.59429 584.92 0.0017096 92.336 92.484 0.57282 1.4378 2.2303 1183.8 -0.0052633 204.34 0.13126 2.0872 0.47912 480.27 521.74 2.4594 1.2015 1.4207 217.58 0.48633 6.1902 0.011259
-44.625 13.137 0.011866 99.154 99.801 0.60483 583.77 0.0017130 94.565 94.720 0.58260 1.4402 2.2347 1177.3 -0.0052240 202.03 0.13067 2.1771 0.45933 481.33 522.94 2.4564 1.2060 1.4263 217.82 0.48069 6.2165 0.011347
-43.625 13.741 0.012366 101.57 102.24 0.61537 582.62 0.0017164 96.799 96.961 0.59235 1.4426 2.2392 1170.7 -0.0051841 199.75 0.13008 2.2700 0.44053 482.40 524.14 2.4535 1.2104 1.4319 218.05 0.47516 6.2429 0.011435
-42.625 14.367 0.012883 103.99 104.70 0.62589 581.47 0.0017198 99.036 99.207 0.60208 1.4450 2.2437 1164.2 -0.0051437 197.51 0.12949 2.3659 0.42267 483.46 525.33 2.4506 1.2149 1.4375 218.28 0.46973 6.2692 0.011523
-41.625 15.015 0.013416 106.42 107.16 0.63642 580.32 0.0017232 101.28 101.46 0.61179 1.4475 2.2483 1157.7 -0.0051027 195.30 0.12891 2.4649 0.40569 484.53 526.53 2.4478 1.2195 1.4432 218.50 0.46440 6.2955 0.011612
-40.625 15.686 0.013966 108.86 109.63 0.64694 579.16 0.0017266 103.52 103.71 0.62147 1.4500 2.2529 1151.1 -0.0050611 193.13 0.12832 2.5671 0.38954 485.60 527.73 2.4450 1.2240 1.4489 218.72 0.45917 6.3218 0.011701
-39.625 16.380 0.014533 111.31 112.12 0.65745 578.00 0.0017301 105.78 105.97 0.63113 1.4525 2.2576 1144.6 -0.0050189 190.99 0.12774 2.6725 0.37418 486.67 528.93 2.4423 1.2286 1.4547 218.93 0.45403 6.3481 0.011790
-38.625 17.097 0.015117 113.77 114.61 0.66797 576.83 0.0017336 108.03 108.24 0.64077 1.4550 2.2623 1138.0 -0.0049761 188.88 0.12716 2.7813 0.35955 487.74 530.12 2.4397 1.2332 1.4606 219.13 0.44900 6.3744 0.011880
-37.625 17.838 0.015720 116.24 117.12 0.67848 575.66 0.0017371 110.29 110.51 0.65039 1.4576 2.2671 1131.5 -0.0049327 186.81 0.12658 2.8934 0.34562 488.81 531.32 2.4371 1.2378 1.4665 219.33 0.44405 6.4007 0.011970
-36.625 18.604 0.016340 118.72 119.64 0.68898 574.49 0.0017407 112.56 112.78 0.65999 1.4602 2.2719 1125.0 -0.0048887 184.76 0.12600 3.0089 0.33235 489.88 532.51 2.4346 1.2424 1.4724 219.52 0.43920 6.4270 0.012060
-35.625 19.395 0.016979 121.21 122.17 0.69949 573.32 0.0017442 114.83 115.06 0.66956 1.4628 2.2768 1118.5 -0.0048440 182.75 0.12542 3.1280 0.31969 490.95 533.70 2.4321 1.2471 1.4784 219.70 0.43444 6.4533 0.012151
-34.625 20.212 0.017638 123.71 124.71 0.70999 572.14 0.0017478 117.10 117.34 0.67912 1.4654 2.2818 1111.9 -0.0047987 180.76 0.12485 3.2506 0.30763 492.02 534.89 2.4297 1.2517 1.4845 219.88 0.42977 6.4797 0.012243
-33.625 21.056 0.018315 126.22 127.26 0.72050 570.96 0.0017514 119.38 119.63 0.68865 1.4681 2.2868 1105.4 -0.0047527 178.80 0.12427 3.3770 0.29612 493.09 536.08 2.4273 1.2564 1.4906 220.05 0.42519 6.5060 0.012334
-32.625 21.926 0.019012 128.74 129.82 0.73100 569.77 0.0017551 121.66 121.93 0.69817 1.4708 2.2918 1098.9 -0.0047061 176.87 0.12370 3.5071 0.28514 494.17 537.27 2.4250 1.2611 1.4968 220.21 0.42070 6.5323 0.012426
-31.625 22.823 0.019730 131.28 132.40 0.74150 568.58 0.0017588 123.95 124.23 0.70767 1.4735 2.2970 1092.3 -0.0046587 174.97 0.12313 3.6410 0.27465 495.24 538.46 2.4227 1.2659 1.5031 220.36 0.41629 6.5587 0.012519
-30.625 23.749 0.020467 133.82 134.99 0.75201 567.39 0.0017625 126.24 126.53 0.71714 1.4762 2.3021 1085.8 -0.0046107 173.09 0.12256 3.7787 0.26464 496.31 539.64 2.4205 1.2706 1.5094 220.51 0.41196 6.5850 0.012612
-29.625 24.703 0.021226 136.37 137.59 0.76251 566.19 0.0017662 128.54 128.84 0.72660 1.4790 2.3074 1079.3 -0.0045619 171.24 0.12200 3.9205 0.25507 497.38 540.83 2.4184 1.2754 1.5157 220.65 0.40772 6.6114 0.012706
-28.625 25.687 0.022006 138.93 140.20 0.77302 564.99 0.0017699 130.84 131.16 0.73604 1.4818 2.3126 1072.8 -0.0045124 169.42 0.12143 4.0663 0.24592 498.46 542.01 2.4162 1.2802 1.5222 220.79 0.40356 6.6378 0.012800
-27.625 26.700 0.022808 141.51 142.82 0.78353 563.78 0.0017737 133.15 133.48 0.74547 1.4846 2.3180 1066.2 -0.0044621 167.62 0.12087 4.2163 0.23717 499.53 543.19 2.4142 1.2850 1.5286 220.91 0.39947 6.6642 0.012894
-26.625 27.743 0.023633 144.09 145.46 0.79404 562.57 0.0017775 135.47 135.81 0.75487 1.4874 2.3234 1059.7 -0.0044111 165.84 0.12031 4.3705 0.22881 500.60 544.37 2.4122 1.2899 1.5352 221.03 0.39547 6.6906 0.012989
-25.625 28.817 0.024479 146.69 148.11 0.80455 561.36 0.0017814 137.78 138.14 0.76426 1.4902 2.3289 1053.2 -0.0043593 164.09 0.11975 4.5290 0.22080 501.68 545.55 2.4102 1.2947 1.5418 221.14 0.39154 6.7171 0.013084
-24.625 29.923 0.025349 149.30 150.77 0.81507 560.14 0.0017853 140.11 140.48 0.77363 1.4931 2.3344 1046.7 -0.0043067 162.36 0.11919 4.6918 0.21314 502.75 546.72 2.4083 1.2996 1.5485 221.25 0.38768 6.7436 0.013180
-23.625 31.061 0.026243 151.92 153.45 0.82559 558.92 0.0017892 142.44 142.82 0.78298 1.4960 2.3400 1040.1 -0.0042533 160.65 0.11863 4.8592 0.20580 503.82 547.90 2.4064 1.3045 1.5552 221.35 0.38391 6.7701 0.013277
-22.625 32.232 0.027160 154.55 156.14 0.83611 557.69 0.0017931 144.77 145.17 0.79232 1.4990 2.3457 1033.6 -0.0041990 158.97 0.11807 5.0311 0.19877 504.90 549.07 2.4045 1.3095 1.5621 221.44 0.38020 6.7967 0.013374
-21.625 33.435 0.028102 157.19 158.84 0.84664 556.46 0.0017971 147.11 147.52 0.80164 1.5019 2.3514 1027.1 -0.0041439 157.30 0.11752 5.2076 0.19203 505.97 550.24 2.4027 1.3144 1.5690 221.52 0.37656 6.8232 0.013471
-20.625 34.673 0.029068 159.85 161.56 0.85717 555.23 0.0018011 149.45 149.88 0.81095 1.5049 2.3572 1020.6 -0.0040879 155.66 0.11697 5.3889 0.18557 507.04 551.40 2.4010 1.3194 1.5759 221.59 0.37300 6.8499 0.013569
-19.625 35.946 0.030060 162.51 164.28 0.86771 553.99 0.0018051 151.80 152.25 0.82024 1.5079 2.3630 1014.0 -0.0040311 154.04 0.11642 5.5750 0.17937 508.11 552.57 2.3992 1.3244 1.5829 221.66 0.36950 6.8765 0.013668
-18.625 37.253 0.031078 165.19 167.03 0.87825 552.74 0.0018092 154.16 154.62 0.82952 1.5109 2.3689 1007.5 -0.0039733 152.44 0.11587 5.7660 0.17343 509.19 553.73 2.3976 1.3294 1.5901 221.72 0.36608 6.9032 0.013767
-17.625 38.596 0.032123 167.88 169.78 0.88880 551.49 0.0018133 156.52 157.00 0.83878 1.5140 2.3749 1001.0 -0.0039145 150.86 0.11532 5.9621 0.16773 510.26 554.89 2.3959 1.3345 1.5972 221.77 0.36272 6.9300 0.013867
-16.625 39.976 0.033194 170.59 172.55 0.89936 550.24 0.0018174 158.89 159.39 0.84803 1.5171 2.3810 994.44 -0.0038549 149.29 0.11478 6.1632 0.16225 511.33 556.05 2.3943 1.3395 1.6045 221.81 0.35942 6.9568 0.013968
-15.625 41.392 0.034292 173.30 175.34 0.90992 548.98 0.0018216 161.26 161.78 0.85726 1.5202 2.3871 987.91 -0.0037942 147.75 0.11423 6.3696 0.15700 512.40 557.20 2.3927 1.3446 1.6119 221.85 0.35619 6.9836 0.014069
-14.625 42.846 0.035418 176.03 178.14 0.92049 547.71 0.0018258 163.64 164.18 0.86649 1.5233 2.3933 981.37 -0.0037325 146.22 0.11369 6.5812 0.15195 513.47 558.36 2.3912 1.3497 1.6193 221.87 0.35302 7.0105 0.014170
-13.625 44.338 0.036573 178.77 180.95 0.93107 546.44 0.0018300 166.02 166.58 0.87569 1.5264 2.3996 974.83 -0.0036698 144.72 0.11315 6.7983 0.14710 514.54 559.51 2.3897 1.3549 1.6268 221.89 0.34992 7.0375 0.014273
-12.625 45.870 0.037757 181.52 183.78 0.94165 545.17 0.0018343 168.41 168.99 0.88489 1.5296 2.4059 968.29 -0.0036061 143.23 0.11261 7.0208 0.14243 515.61 560.65 2.3883 1.3600 1.6344 221.90 0.34688 7.0646 0.014376
-11.625 47.440 0.038970 184.28 186.62 0.95224 543.89 0.0018386 170.81 171.41 0.89407 1.5328 2.4124 961.75 -0.0035413 141.76 0.11208 7.2490 0.13795 516.68 561.80 2.3868 1.3652 1.6421 221.91 0.34389 7.0917 0.014479
-10.625 49.051 0.040213 187.06 189.48 0.96284 542.60 0.0018430 173.21 173.83 0.90324 1.5360 2.4189 955.20 -0.0034753 140.30 0.11154 7.4829 0.13364 517.75 562.94 2.3854 1.3704 1.6498 221.90 0.34097 7.1188 0.014584
-9.6250 50.703 0.041487 189.85 192.35 0.97345 541.31 0.0018474 175.61 176.26 0.91240 1.5393 2.4255 948.65 -0.0034082 138.86 0.11101 7.7226 0.12949 518.81 564.08 2.3841 1.3757 1.6577 221.88 0.33810 7.1461 0.014689
-8.6250 52.396 0.042792 192.66 195.24 0.98407 540.02 0.0018518 178.03 178.70 0.92154 1.5426 2.4321 942.10 -0.0033400 137.44 0.11048 7.9683 0.12550 519.88 565.21 2.3827 1.3809 1.6657 221.86 0.33529 7.1734 0.014795
-7.6250 54.131 0.044129 195.47 198.14 0.99470 538.72 0.0018563 180.45 181.14 0.93068 1.5459 2.4389 935.55 -0.0032705 136.03 0.10995 8.2200 0.12165 520.94 566.35 2.3814 1.3862 1.6737 221.83 0.33254 7.2008 0.014902
-6.6250 55.909 0.045499 198.30 201.06 1.0053 537.41 0.0018608 182.87 183.59 0.93980 1.5492 2.4457 928.99 -0.0031998 134.64 0.10942 8.4779 0.11795 522.01 567.48 2.3801 1.3915 1.6819 221.79 0.32984 7.2284 0.015009
-5.6250 57.730 0.046901 201.15 203.99 1.0160 536.10 0.0018653 185.30 186.05 0.94892 1.5525 2.4526 922.43 -0.0031279 133.27 0.10889 8.7420 0.11439 523.07 568.60 2.3789 1.3969 1.6902 221.74 0.32720 7.2560 0.015117
-4.6250 59.595 0.048337 204.00 206.94 1.0266 534.78 0.0018699 187.74 188.51 0.95802 1.5559 2.4596 915.87 -0.0030546 131.91 0.10837 9.0126 0.11096 524.13 569.72 2.3777 1.4022 1.6985 221.68 0.32461 7.2837 0.015226
-3.6250 61.505 0.049808 206.87 209.90 1.0373 533.45 0.0018746 190.19 190.98 0.96711 1.5593 2.4667 909.30 -0.0029800 130.56 0.10785 9.2896 0.10765 525.19 570.84 2.3765 1.4076 1.7070 221.62 0.32207 7.3115 0.015336
-2.6250 63.461 0.051313 209.76 212.88 1.0480 532.12 0.0018793 192.64 193.46 0.97620 1.5627 2.4739 902.73 -0.0029041 129.23 0.10733 9.5733 0.10446 526.25 571.96 2.3753 1.4131 1.7156 221.54 0.31958 7.3394 0.015447
-1.6250 65.462 0.052854 212.65 215.88 1.0587 530.78 0.0018840 195.10 195.95 0.98527 1.5662 2.4811 896.16 -0.0028267 127.91 0.10681 9.8638 0.10138 527.31 573.07 2.3742 1.4185 1.7243 221.45 0.31715 7.3674 0.015559
-0.62500 67.510 0.054432 215.57 218.89 1.0694 529.44 0.0018888 197.56 198.44 0.99434 1.5696 2.4885 889.58 -0.0027478 126.61 0.10629 10.161 0.098414 528.37 574.18 2.3731 1.4240 1.7331 221.36 0.31476 7.3956 0.015671
0.37500 69.606 0.056047 218.49 221.92 1.0801 528.09 0.0018936 200.03 200.94 1.0034 1.5731 2.4960 883.00 -0.0026675 125.32 0.10578 10.466 0.095552 529.42 575.28 2.3720 1.4295 1.7421 221.26 0.31242 7.4239 0.015785
1.3750 71.749 0.057699 221.43 224.96 1.0908 526.73 0.0018985 202.51 203.45 1.0124 1.5767 2.5035 876.42 -0.0025856 124.04 0.10527 10.777 0.092790 530.48 576.38 2.3709 1.4350 1.7512 221.14 0.31013 7.4523 0.015899
2.3750 73.941 0.059390 224.38 228.03 1.1016 525.37 0.0019034 204.99 205.96 1.0215 1.5802 2.5112 869.83 -0.0025022 122.78 0.10476 11.096 0.090123 531.53 577.47 2.3699 1.4406 1.7604 221.02 0.30789 7.4808 0.016015
3.3750 76.183 0.061121 227.35 231.10 1.1123 523.99 0.0019084 207.48 208.48 1.0305 1.5838 2.5190 863.24 -0.0024171 121.53 0.10425 11.422 0.087549 532.58 578.56 2.3688 1.4462 1.7697 220.89 0.30569 7.5095 0.016131
4.3750 78.475 0.062892 230.33 234.20 1.1231 522.62 0.0019134 209.98 211.01 1.0395 1.5874 2.5268 856.64 -0.0023303 120.29 0.10374 11.756 0.085062 533.63 579.65 2.3678 1.4518 1.7792 220.75 0.30354 7.5384 0.016249
5.3750 80.817 0.064704 233.33 237.31 1.1339 521.23 0.0019185 212.48 213.55 1.0486 1.5910 2.5348 850.04 -0.0022417 119.06 0.10324 12.098 0.082660 534.67 580.73 2.3669 1.4575 1.7888 220.60 0.30144 7.5674 0.016368
6.3750 83.211 0.066558 236.34 240.44 1.1447 519.84 0.0019237 215.00 216.10 1.0576 1.5946 2.5429 843.43 -0.0021514 117.85 0.10273 12.447 0.080340 535.72 581.81 2.3659 1.4632 1.7986 220.44 0.29938 7.5966 0.016487
7.3750 85.657 0.068454 239.37 243.59 1.1555 518.44 0.0019289 217.51 218.65 1.0666 1.5983 2.5511 836.82 -0.0020593 116.65 0.10223 12.805 0.078096 536.76 582.88 2.3650 1.4689 1.8085 220.27 0.29736 7.6259 0.016608
8.3750 88.156 0.070395 242.41 246.75 1.1663 517.03 0.0019341 220.04 221.22 1.0756 1.6020 2.5595 830.20 -0.0019652 115.46 0.10173 13.170 0.075928 537.80 583.95 2.3640 1.4746 1.8186 220.08 0.29538 7.6555 0.016730
9.3750 90.708 0.072379 245.46 249.93 1.1771 515.62 0.0019394 222.57 223.79 1.0846 1.6057 2.5679 823.58 -0.0018691 114.28 0.10124 13.545 0.073830 538.84 585.01 2.3631 1.4804 1.8288 219.89 0.29345 7.6852 0.016853
10.375 93.315 0.074410 248.54 253.13 1.1880 514.19 0.0019448 225.11 226.37 1.0936 1.6095 2.5765 816.96 -0.0017710 113.11 0.10074 13.927 0.071802 539.87 586.07 2.3622 1.4863 1.8392 219.69 0.29156 7.7151 0.016978
11.375 95.977 0.076487 251.62 256.35 1.1988 512.76 0.0019502 227.66 228.95 1.1025 1.6132 2.5852 810.32 -0.0016708 111.95 0.10025 14.319 0.069840 540.90 587.12 2.3614 1.4921 1.8498 219.48 0.28971 7.7452 0.017103
12.375 98.694 0.078611 254.72 259.58 1.2097 511.32 0.0019557 230.22 231.55 1.1115 1.6170 2.5940 803.68 -0.0015685 110.80 0.099756 14.719 0.067941 541.93 588.17 2.3605 1.4980 1.8605 219.26 0.28790 7.7756 0.017230
13.375 101.47 0.080784 257.84 262.84 1.2206 509.87 0.0019613 232.78 234.15 1.1205 1.6208 2.6030 797.04 -0.0014639 109.67 0.099267 15.128 0.066103 542.96 589.21 2.3597 1.5040 1.8715 219.03 0.28612 7.8061 0.017359
14.375 104.30 0.083006 260.97 266.11 1.2315 508.42 0.0019669 235.35 236.77 1.1295 1.6247 2.6121 790.39 -0.0013569 108.54 0.098779 15.547 0.064323 543.99 590.24 2.3588 1.5099 1.8826 218.79 0.28439 7.8369 0.017488
15.375 107.19 0.085280 264.12 269.40 1.2424 506.95 0.0019726 237.93 239.39 1.1384 1.6286 2.6214 783.73 -0.0012476 107.43 0.098294 15.974 0.062600 545.01 591.27 2.3580 1.5159 1.8940 218.53 0.28270 7.8680 0.017619
16.375 110.13 0.087605 267.28 272.71 1.2534 505.48 0.0019783 240.52 242.02 1.1474 1.6324 2.6308 777.07 -0.0011357 106.32 0.097810 16.412 0.060931 546.03 592.29 2.3572 1.5220 1.9055 218.27 0.28104 7.8993 0.017752
17.375 113.14 0.089983 270.46 276.03 1.2644 504.00 0.0019841 243.11 244.66 1.1564 1.6364 2.6403 770.40 -0.0010213 105.22 0.097328 16.859 0.059314 547.04 593.31 2.3564 1.5281 1.9172 217.99 0.27942 7.9308 0.017886
18.375 116.21 0.092416 273.66 279.38 1.2753 502.50 0.0019900 245.72 247.31 1.1653 1.6403 2.6501 763.72 -0.00090422 104.14 0.096848 17.317 0.057747 548.05 594.32 2.3557 1.5342 1.9292 217.71 0.27783 7.9626 0.018021
19.375 119.33 0.094904 276.87 282.74 1.2863 501.00 0.0019960 248.33 249.97 1.1743 1.6443 2.6599 757.04 -0.00078435 103.06 0.096371 17.785 0.056228 549.06 595.33 2.3549 1.5404 1.9414 217.41 0.27628 7.9947 0.018159
20.375 122.52 0.097449 280.10 286.13 1.2973 499.49 0.0020020 250.95 252.64 1.1832 1.6483 2.6700 750.35 -0.00066161 101.99 0.095895 18.263 0.054756 550.07 596.32 2.3541 1.5466 1.9538 217.10 0.27477 8.0272 0.018297
21.375 125.77 0.10005 283.34 289.53 1.3084 497.97 0.0020082 253.57 255.32 1.1922 1.6523 2.6802 743.64 -0.00053589 100.93 0.095420 18.752 0.053328 551.07 597.31 2.3534 1.5528 1.9665 216.78 0.27329 8.0599 0.018438
22.375 129.08 0.10272 286.60 292.96 1.3194 496.43 0.0020144 256.21 258.00 1.2012 1.6563 2.6906 736.94 -0.00040708 99.877 0.094948 19.252 0.051943 552.07 598.30 2.3526 1.5591 1.9795 216.45 0.27184 8.0929 0.018580
23.375 132.46 0.10544 289.88 296.40 1.3305 494.89 0.0020206 258.86 260.70 1.2101 1.6604 2.7012 730.22 -0.00027505 98.834 0.094478 19.763 0.050600 553.06 599.27 2.3519 1.5655 1.9927 216.11 0.27043 8.1263 0.018724
24.375 135.90 0.10823 293.17 299.86 1.3416 493.34 0.0020270 261.51 263.41 1.2191 1.6645 2.7120 723.49 -0.00013968 97.800 0.094009 20.285 0.049297 554.05 600.24 2.3512 1.5718 2.0061 215.75 0.26906 8.1600 0.018870
25.375 139.41 0.11108 296.48 303.35 1.3527 491.77 0.0020335 264.17 266.13 1.2280 1.6686 2.7230 716.76 -8.3775e-07 96.773 0.093543 20.820 0.048032 555.03 601.20 2.3504 1.5783 2.0199 215.39 0.26771 8.1941 0.019017
26.375 142.98 0.11400 299.81 306.85 1.3638 490.20 0.0020400 266.84 268.85 1.2370 1.6728 2.7342 710.01 0.00014161 95.755 0.093078 21.366 0.046804 556.01 602.15 2.3497 1.5847 2.0340 215.01 0.26640 8.2286 0.019167
27.375 146.62 0.11698 303.15 310.37 1.3750 488.61 0.0020466 269.52 271.59 1.2459 1.6770 2.7456 703.26 0.00028782 94.745 0.092615 21.924 0.045612 556.99 603.10 2.3490 1.5913 2.0484 214.62 0.26512 8.2634 0.019319
28.375 150.33 0.12003 306.51 313.92 1.3861 487.01 0.0020533 272.21 274.34 1.2549 1.6812 2.7573 696.49 0.00043793 93.742 0.092154 22.495 0.044454 557.96 604.03 2.3483 1.5978 2.0631 214.21 0.26387 8.2987 0.019472
29.375 154.10 0.12316 309.89 317.48 1.3973 485.40 0.0020601 274.91 277.10 1.2638 1.6854 2.7691 689.72 0.00059212 92.747 0.091695 23.079 0.043329 558.92 604.96 2.3476 1.6044 2.0781 213.80 0.26265 8.3344 0.019628
30.375 157.94 0.12636 313.29 321.07 1.4085 483.78 0.0020671 277.62 279.87 1.2728 1.6897 2.7813 682.93 0.00075055 91.760 0.091238 23.676 0.042237 559.88 605.88 2.3469 1.6111 2.0935 213.37 0.26147 8.3705 0.019786
31.375 161.86 0.12963 316.70 324.67 1.4198 482.15 0.0020741 280.34 282.66 1.2818 1.6939 2.7936 676.13 0.00091340 90.779 0.090782 24.287 0.041175 560.84 606.79 2.3462 1.6178 2.1092 212.93 0.26031 8.4071 0.019947
32.375 165.84 0.13299 320.14 328.30 1.4310 480.50 0.0020812 283.07 285.45 1.2908 1.6983 2.8063 669.32 0.0010809 89.806 0.090328 24.911 0.040143 561.79 607.69 2.3455 1.6246 2.1254 212.48 0.25919 8.4442 0.020110
33.375 169.90 0.13642 323.59 331.95 1.4423 478.83 0.0020884 285.81 288.26 1.2997 1.7026 2.8192 662.50 0.0012532 88.840 0.089876 25.549 0.039140 562.73 608.58 2.3448 1.6314 2.1419 212.01 0.25809 8.4818 0.020275
34.375 174.02 0.13993 327.05 335.62 1.4536 477.16 0.0020957 288.56 291.07 1.3087 1.7070 2.8324 655.67 0.0014305 87.880 0.089426 26.202 0.038164 563.67 609.46 2.3440 1.6383 2.1589 211.53 0.25702 8.5199 0.020443
35.375 178.22 0.14353 330.54 339.32 1.4649 475.47 0.0021032 291.32 293.90 1.3177 1.7114 2.8459 648.82 0.0016131 86.927 0.088977 26.870 0.037216 564.60 610.33 2.3433 1.6452 2.1763 211.04 0.25599 8.5586 0.020613
36.375 182.50 0.14721 334.05 343.03 1.4762 473.77 0.0021107 294.09 296.74 1.3267 1.7158 2.8597 641.96 0.0018012 85.980 0.088531 27.553 0.036293 565.52 611.19 2.3426 1.6522 2.1942 210.53 0.25498 8.5978 0.020786
37.375 186.84 0.15099 337.57 346.77 1.4876 472.05 0.0021184 296.87 299.60 1.3357 1.7203 2.8739 635.08 0.0019950 85.040 0.088085 28.252 0.035395 566.44 612.04 2.3419 1.6592 2.2125 210.01 0.25400 8.6376 0.020962
38.375 191.27 0.15486 341.11 350.53 1.4990 470.31 0.0021262 299.66 302.46 1.3447 1.7248 2.8884 628.19 0.0021949 84.105 0.087642 28.967 0.034522 567.35 612.88 2.3411 1.6663 2.2314 209.47 0.25305 8.6780 0.021141
39.375 195.77 0.15882 344.67 354.32 1.5104 468.56 0.0021342 302.46 305.34 1.3537 1.7293 2.9033 621.29 0.0024011 83.177 0.087200 29.699 0.033671 568.26 613.70 2.3404 1.6734 2.2508 208.92 0.25213 8.7190 0.021323
40.375 200.34 0.16288 348.25 358.12 1.5219 466.80 0.0021423 305.27 308.23 1.3627 1.7339 2.9185 614.37 0.0026140 82.254 0.086760 30.447 0.032844 569.15 614.52 2.3396 1.6806 2.2708 208.36 0.25123 8.7608 0.021508
41.375 205.00 0.16704 351.85 361.95 1.5333 465.01 0.0021505 308.10 311.14 1.3718 1.7385 2.9342 607.43 0.0028338 81.338 0.086322 31.214 0.032037 570.04 615.32 2.3389 1.6879 2.2913 207.78 0.25037 8.8032 0.021696
42.375 209.73 0.17131 355.47 365.80 1.5448 463.21 0.0021588 310.94 314.06 1.3808 1.7432 2.9502 600.47 0.0030609 80.426 0.085885 31.998 0.031252 570.92 616.11 2.3381 1.6952 2.3125 207.19 0.24953 8.8463 0.021888
43.375 214.54 0.17569 359.11 369.68 1.5563 461.40 0.0021673 313.79 316.99 1.3899 1.7478 2.9667 593.50 0.0032957 79.520 0.085449 32.800 0.030488 571.79 616.88 2.3373 1.7027 2.3344 206.58 0.24871 8.8902 0.022084
44.375 219.43 0.18018 362.77 373.58 1.5679 459.56 0.0021760 316.65 319.94 1.3989 1.7525 2.9837 586.51 0.0035386 78.619 0.085015 33.622 0.029742 572.65 617.65 2.3365 1.7101 2.3569 205.96 0.24793 8.9349 0.022283
45.375 224.41 0.18479 366.45 377.50 1.5794 457.71 0.0021848 319.52 322.90 1.4080 1.7573 3.0012 579.50 0.0037900 77.723 0.084583 34.463 0.029016 573.50 618.40 2.3357 1.7177 2.3802 205.32 0.24717 8.9805 0.022485
46.375 229.46 0.18951 370.15 381.45 1.5910 455.83 0.0021938 322.41 325.88 1.4171 1.7621 3.0192 572.46 0.0040504 76.832 0.084152 35.325 0.028308 574.34 619.13 2.3349 1.7253 2.4042 204.67 0.24644 9.0269 0.022692
47.375 234.60 0.19437 373.87 385.43 1.6027 453.94 0.0022029 325.31 328.87 1.4262 1.7669 3.0377 565.41 0.0043202 75.946 0.083723 36.208 0.027618 575.17 619.85 2.3340 1.7329 2.4291 204.00 0.24573 9.0742 0.022903
48.375 239.83 0.19935 377.62 389.43 1.6143 452.03 0.0022123 328.22 331.88 1.4353 1.7718 3.0569 558.34 0.0046000 75.064 0.083295 37.112 0.026945 576.00 620.55 2.3332 1.7407 2.4548 203.31 0.24505 9.1224 0.023119
49.375 245.13 0.20447 381.38 393.45 1.6260 450.09 0.0022218 331.15 334.90 1.4445 1.7767 3.0766 551.24 0.0048904 74.186 0.082868 38.039 0.026289 576.81 621.24 2.3323 1.7485 2.4815 202.61 0.24440 9.1716 0.023339
50.375 250.53 0.20974 385.16 397.50 1.6377 448.13 0.0022315 334.09 337.94 1.4536 1.7817 3.0970 544.13 0.0051920 73.313 0.082442 38.989 0.025648 577.61 621.91 2.3314 1.7564 2.5092 201.89 0.24377 9.2219 0.023564
51.375 256.01 0.21515 388.97 401.58 1.6495 446.15 0.0022414 337.04 341.00 1.4628 1.7867 3.1181 536.98 0.0055054 72.443 0.082018 39.962 0.025024 578.39 622.56 2.3304 1.7644 2.5379 201.16 0.24317 9.2733 0.023794
52.375 261.57 0.22071 392.80 405.68 1.6612 444.15 0.0022515 340.01 344.07 1.4720 1.7918 3.1400 529.82 0.0058313 71.577 0.081595 40.961 0.024414 579.17 623.20 2.3295 1.7724 2.5677 200.41 0.24260 9.3258 0.024029
53.375 267.23 0.22643 396.65 409.81 1.6731 442.12 0.0022618 343.00 347.17 1.4812 1.7969 3.1627 522.62 0.0061705 70.715 0.081174 41.985 0.023818 579.93 623.81 2.3285 1.7805 2.5987 199.63 0.24205 9.3795 0.024270
54.375 272.97 0.23232 400.52 413.96 1.6849 440.06 0.0022724 346.00 350.28 1.4904 1.8021 3.1862 515.40 0.0065239 69.856 0.080753 43.036 0.023237 580.68 624.41 2.3274 1.7887 2.6310 198.85 0.24154 9.4344 0.024516
55.375 278.81 0.23839 404.42 418.15 1.6968 437.98 0.0022832 349.02 353.40 1.4997 1.8073 3.2106 508.15 0.0068923 69.001 0.080334 44.114 0.022669 581.41 624.99 2.3264 1.7969 2.6646 198.04 0.24105 9.4907 0.024769
56.375 284.74 0.24464 408.33 422.36 1.7087 435.87 0.0022943 352.05 356.55 1.5090 1.8126 3.2360 500.87 0.0072767 68.148 0.079915 45.221 0.022114 582.13 625.54 2.3253 1.8052 2.6998 197.22 0.24059 9.5484 0.025028
57.375 290.76 0.25108 412.28 426.60 1.7206 433.73 0.0023056 355.10 359.72 1.5183 1.8179 3.2624 493.56 0.0076782 67.299 0.079498 46.358 0.021571 582.83 626.07 2.3241 1.8136 2.7365 196.37 0.24016 9.6075 0.025294
58.375 296.87 0.25773 416.24 430.86 1.7326 431.56 0.0023172 358.17 362.91 1.5276 1.8233 3.2900 486.22 0.0080980 66.451 0.079082 47.525 0.021041 583.52 626.58 2.3230 1.8220 2.7749 195.51 0.23976 9.6682 0.025568
59.375 303.08 0.26458 420.24 435.16 1.7446 429.36 0.0023290 361.25 366.12 1.5370 1.8288 3.3188 478.84 0.0085373 65.606 0.078666 48.726 0.020523 584.18 627.07 2.3218 1.8305 2.8152 194.63 0.23939 9.7305 0.025849
60.375 309.38 0.27166 424.25 439.49 1.7567 427.13 0.0023412 364.36 369.35 1.5464 1.8343 3.3489 471.43 0.0089976 64.763 0.078251 49.960 0.020016 584.83 627.53 2.3205 1.8391 2.8576 193.73 0.23905 9.7945 0.026138
61.375 315.78 0.27898 428.29 443.84 1.7688 424.87 0.0023537 367.48 372.60 1.5558 1.8400 3.3805 463.99 0.0094803 63.922 0.077838 51.229 0.019520 585.46 627.96 2.3192 1.8479 2.9022 192.82 0.23873 9.8603 0.026436
62.375 322.28 0.28655 432.36 448.23 1.7809 422.56 0.0023665 370.62 375.88 1.5653 1.8457 3.4136 456.50 0.0099871 63.083 0.077425 52.535 0.019035 586.07 628.37 2.3178 1.8567 2.9492 191.88 0.23845 9.9281 0.026744
63.375 328.88 0.29438 436.45 452.65 1.7931 420.22 0.0023797 373.79 379.18 1.5748 1.8514 3.4483 448.97 0.010520 62.244 0.077012 53.879 0.018560 586.66 628.74 2.3164 1.8656 2.9989 190.92 0.23819 9.9979 0.027061
64.375 335.58 0.30249 440.57 457.10 1.8053 417.85 0.0023932 376.97 382.51 1.5844 1.8573 3.4850 441.40 0.011081 61.407 0.076600 55.265 0.018095 587.22 629.09 2.3149 1.8747 3.0517 189.95 0.23796 10.070 0.027389
65.375 342.38 0.31091 444.72 461.58 1.8176 415.42 0.0024072 380.18 385.86 1.5939 1.8633 3.5236 433.79 0.011672 60.570 0.076189 56.692 0.017639 587.76 629.40 2.3133 1.8839 3.1077 188.95 0.23775 10.144 0.027729
66.375 349.28 0.31963 448.89 466.10 1.8299 412.96 0.0024215 383.41 389.25 1.6036 1.8693 3.5645 426.12 0.012296 59.733 0.075779 58.165 0.017193 588.28 629.68 2.3117 1.8933 3.1674 187.93 0.23757 10.221 0.028080
67.375 356.28 0.32870 453.10 470.64 1.8423 410.45 0.0024363 386.67 392.65 1.6133 1.8755 3.6078 418.41 0.012956 58.897 0.075368 59.684 0.016755 588.76 629.92 2.3100 1.9030 3.2311 186.89 0.23740 10.300 0.028446
68.375 363.40 0.33813 457.33 475.23 1.8547 407.89 0.0024516 389.95 396.09 1.6230 1.8818 3.6537 410.64 0.013655 58.059 0.074959 61.253 0.016326 589.22 630.13 2.3082 1.9129 3.2994 185.83 0.23724 10.382 0.028825
69.375 370.61 0.34795 461.59 479.85 1.8672 405.28 0.0024674 393.26 399.57 1.6328 1.8882 3.7027 402.81 0.014396 57.221 0.074549 62.875 0.015905 589.65 630.29 2.3064 1.9231 3.3727 184.74 0.23710 10.467 0.029221
70.375 377.94 0.35818 465.89 484.50 1.8797 402.62 0.0024838 396.60 403.07 1.6426 1.8947 3.7550 394.92 0.015183 56.381 0.074141 64.552 0.015491 590.04 630.41 2.3044 1.9336 3.4518 183.63 0.23697 10.555 0.029633
71.375 385.37 0.36887 470.21 489.19 1.8922 399.89 0.0025007 399.96 406.61 1.6525 1.9014 3.8109 386.97 0.016021 55.540 0.073732 66.288 0.015086 590.40 630.49 2.3024 1.9444 3.5371 182.50 0.23684 10.647 0.030064
72.375 392.92 0.38004 474.57 493.92 1.9049 397.11 0.0025182 403.36 410.18 1.6625 1.9083 3.8711 378.95 0.016915 54.696 0.073324 68.087 0.014687 590.73 630.51 2.3002 1.9556 3.6297 181.34 0.23671 10.743 0.030515
73.375 400.57 0.39174 478.96 498.69 1.9176 394.26 0.0025364 406.79 413.80 1.6726 1.9153 3.9359 370.85 0.017871 53.848 0.072917 69.953 0.014295 591.01 630.49 2.2979 1.9673 3.7303 180.16 0.23658 10.842 0.030989
74.375 408.34 0.40402 483.38 503.49 1.9303 391.34 0.0025553 410.26 417.45 1.6827 1.9226 4.0060 362.67 0.018894 52.997 0.072510 71.890 0.013910 591.25 630.41 2.2955 1.9793 3.8401 178.95 0.23643 10.946 0.031488
75.375 416.23 0.41692 487.84 508.34 1.9431 388.34 0.0025751 413.76 421.15 1.6930 1.9301 4.0822 354.41 0.019993 52.142 0.072104 73.904 0.013531 591.44 630.27 2.2930 1.9919 3.9604 177.71 0.23627 11.054 0.032014
76.375 424.23 0.43052 492.34 513.23 1.9560 385.26 0.0025957 417.31 424.90 1.7033 1.9378 4.1654 346.06 0.021177 51.281 0.071699 76.001 0.013158 591.59 630.07 2.2903 2.0050 4.0927 176.44 0.23609 11.168 0.032570
77.375 432.35 0.44488 496.87 518.16 1.9690 382.09 0.0026172 420.89 428.70 1.7137 1.9459 4.2565 337.60 0.022455 50.414 0.071295 78.187 0.012790 591.68 629.80 2.2874 2.0186 4.2389 175.15 0.23588 11.287 0.033161
78.375 440.59 0.46009 501.45 523.14 1.9820 378.83 0.0026397 424.53 432.54 1.7243 1.9543 4.3570 329.05 0.023838 49.539 0.070893 80.469 0.012427 591.71 629.46 2.2844 2.0328 4.4012 173.82 0.23563 11.412 0.033789
79.375 448.95 0.47625 506.06 528.17 1.9951 375.46 0.0026634 428.21 436.45 1.7349 1.9631 4.4684 320.38 0.025341 48.657 0.070494 82.856 0.012069 591.68 629.04 2.2812 2.0475 4.5824 172.46 0.23535 11.544 0.034461
80.375 457.44 0.49347 510.72 533.25 2.0083 371.97 0.0026884 431.94 440.42 1.7457 1.9723 4.5928 311.58 0.026980 47.764 0.070099 85.359 0.011715 591.58 628.53 2.2778 2.0630 4.7859 171.07 0.23501 11.684 0.035181
81.375 466.05 0.51189 515.42 538.37 2.0216 368.36 0.0027147 435.74 444.46 1.7567 1.9820 4.7327 302.66 0.028773 46.860 0.069708 87.988 0.011365 591.40 627.92 2.2742 2.0791 5.0161 169.64 0.23461 11.832 0.035957
82.375 474.79 0.53169 520.17 543.56 2.0350 364.61 0.0027427 439.60 448.58 1.7678 1.9924 4.8914 293.60 0.030744 45.942 0.069323 90.757 0.011018 591.14 627.21 2.2703 2.0959 5.2786 168.17 0.23413 11.989 0.036797
83.375 483.66 0.55308 524.98 548.79 2.0484 360.70 0.0027724 443.53 452.78 1.7791 2.0034 5.0731 284.38 0.032920 45.010 0.068948 93.681 0.010674 590.79 626.38 2.2661 2.1136 5.5807 166.67 0.23357 12.157 0.037711
84.375 492.67 0.57631 529.83 554.09 2.0620 356.61 0.0028041 447.54 457.07 1.7907 2.0153 5.2834 275.00 0.035335 44.059 0.068586 96.781 0.010333 590.33 625.42 2.2616 2.1321 5.9321 165.13 0.23290 12.338 0.038713
85.375 501.81 0.60173 534.74 559.46 2.0758 352.33 0.0028382 451.65 461.47 1.8025 2.0281 5.5302 265.44 0.038030 43.088 0.068241 100.08 0.0099920 589.74 624.31 2.2567 2.1517 6.3459 163.54 0.23209 12.532 0.039819
86.375 511.09 0.62975 539.72 564.89 2.0896 347.82 0.0028751 455.85 465.98 1.8145 2.0420 5.8240 255.69 0.041058 42.092 0.067923 103.61 0.0096520 589.03 623.04 2.2514 2.1723 6.8405 161.91 0.23112 12.743 0.041051
87.375 520.51 0.66097 544.76 570.39 2.1036 343.04 0.0029151 460.18 470.64 1.8269 2.0574 6.1803 245.72 0.044485 41.066 0.067640 107.40 0.0093114 588.15 621.56 2.2456 2.1943 7.4422 160.23 0.22995 12.973 0.042436
88.375 530.07 0.69616 549.88 575.98 2.1178 337.95 0.0029590 464.64 475.45 1.8397 2.0745 6.6221 235.52 0.048397 40.005 0.067412 111.50 0.0089689 587.08 619.86 2.2392 2.2178 8.1900 158.49 0.22854 13.226 0.044014
89.375 539.79 0.73643 555.08 581.66 2.1322 332.48 0.0030077 469.27 480.46 1.8530 2.0936 7.1851 225.04 0.052906 38.901 0.067265 115.97 0.0086228 585.79 617.88 2.2321 2.2433 9.1445 156.69 0.22681 13.508 0.045839
90.375 549.66 0.78343 560.37 587.44 2.1467 326.55 0.0030623 474.10 485.71 1.8669 2.1156 7.9284 214.26 0.058166 37.742 0.067243 120.91 0.0082708 584.22 615.56 2.2241 2.2711 10.405 154.82 0.22467 13.825 0.047992
91.375 559.68 0.83973 565.77 593.33 2.1616 320.03 0.0031247 479.19 491.25 1.8815 2.1412 8.9568 203.11 0.064389 36.514 0.067421 126.43 0.0079097 582.29 612.82 2.2150 2.3019 12.146 152.85 0.22200 14.189 0.050600
92.375 569.87 0.90967 571.30 599.36 2.1767 312.73 0.0031976 484.62 497.18 1.8972 2.1718 10.475 191.54 0.071885 35.195 0.067931 132.72 0.0075346 579.91 609.51 2.2045 2.3370 14.705 150.75 0.21862 14.618 0.053877
93.375 580.20 undefined 576.95 605.52 2.1922 140.00 0.0071429 576.95 605.52 2.1922 2.3769 18.714 148.53 0.21423 15.138 0.058125 140.00 0.0071429 576.95 605.52 2.1922 2.3769 18.714 148.53 0.21423 15.138 0.058125
94.375 587.34 undefined 579.31 608.23 2.1986 140.00 0.0071429 579.31 608.23 2.1986 2.3473 16.075 149.88 0.21076 15.186 0.056118 140.00 0.0071429 579.31 608.23 2.1986 2.3473 16.075 149.88 0.21076 15.186 0.056118
95.375 594.41 undefined 581.64 610.91 2.2049 140.00 0.0071429 581.64 610.91 2.2049 2.3214 14.172 151.22 0.20732 15.248 0.054558 140.00 0.0071429 581.64 610.91 2.2049 2.3214 14.172 151.22 0.20732 15.248 0.054558
96.375 601.43 undefined 583.95 613.57 2.2112 140.00 0.0071429 583.95 613.57 2.2112 2.2990 12.734 152.56 0.20392 15.337 0.053292 140.00 0.0071429 583.95 613.57 2.2112 2.2990 12.734 152.56 0.20392 15.337 0.053292
97.375 608.40 undefined 586.24 616.20 2.2174 140.00 0.0071429 586.24 616.20 2.2174 2.2796 11.610 153.88 0.20058 15.353 0.052328 140.00 0.0071429 586.24 616.20 2.2174 2.2796 11.610 153.88 0.20058 15.353 0.052328
98.375 615.33 undefined 588.51 618.82 2.2235 140.00 0.0071429 588.51 618.82 2.2235 2.2628 10.707 155.19 0.19727 15.340 0.051554 140.00 0.0071429 588.51 618.82 2.2235 2.2628 10.707 155.19 0.19727 15.340 0.051554
99.375 622.22 undefined 590.77 621.41 2.2296 140.00 0.0071429 590.77 621.41 2.2296 2.2484 9.9642 156.48 0.19402 15.350 0.050888 140.00 0.0071429 590.77 621.41 2.2296 2.2484 9.9642 156.48 0.19402 15.350 0.050888
100.38 629.07 undefined 593.01 623.99 2.2356 140.00 0.0071429 593.01 623.99 2.2356 2.2360 9.3432 157.75 0.19083 15.372 0.050315 140.00 0.0071429 593.01 623.99 2.2356 2.2360 9.3432 157.75 0.19083 15.372 0.050315
101.38 635.89 undefined 595.24 626.56 2.2415 140.00 0.0071429 595.24 626.56 2.2415 2.2254 8.8158 159.01 0.18768 15.399 0.049821 140.00 0.0071429 595.24 626.56 2.2415 2.2254 8.8158 159.01 0.18768 15.399 0.049821
102.38 642.68 undefined 597.46 629.11 2.2475 140.00 0.0071429 597.46 629.11 2.2475 2.2162 8.3621 160.26 0.18460 15.430 0.049393 140.00 0.0071429 597.46 629.11 2.2475 2.2162 8.3621 160.26 0.18460 15.430 0.049393
103.38 649.45 undefined 599.67 631.66 2.2533 140.00 0.0071429 599.67 631.66 2.2533 2.2083 7.9675 161.50 0.18158 15.462 0.049020 140.00 0.0071429 599.67 631.66 2.2533 2.2083 7.9675 161.50 0.18158 15.462 0.049020
104.38 656.18 undefined 601.88 634.19 2.2592 140.00 0.0071429 601.88 634.19 2.2592 2.2014 7.6211 162.72 0.17862 15.494 0.048695 140.00 0.0071429 601.88 634.19 2.2592 2.2014 7.6211 162.72 0.17862 15.494 0.048695
105.38 662.90 undefined 604.08 636.72 2.2650 140.00 0.0071429 604.08 636.72 2.2650 2.1955 7.3144 163.93 0.17572 15.527 0.048411 140.00 0.0071429 604.08 636.72 2.2650 2.1955 7.3144 163.93 0.17572 15.527 0.048411
106.38 669.60 undefined 606.27 639.24 2.2708 140.00 0.0071429 606.27 639.24 2.2708 2.1903 7.0409 165.13 0.17289 15.560 0.048162 140.00 0.0071429 606.27 639.24 2.2708 2.1903 7.0409 165.13 0.17289 15.560 0.048162
107.38 676.27 undefined 608.46 641.76 2.2765 140.00 0.0071429 608.46 641.76 2.2765 2.1858 6.7955 166.32 0.17011 15.594 0.047944 140.00 0.0071429 608.46 641.76 2.2765 2.1858 6.7955 166.32 0.17011 15.594 0.047944
108.38 682.93 undefined 610.64 644.27 2.2823 140.00 0.0071429 610.64 644.27 2.2823 2.1819 6.5741 167.50 0.16740 15.627 0.047753 140.00 0.0071429 610.64 644.27 2.2823 2.1819 6.5741 167.50 0.16740 15.627 0.047753
109.38 689.57 undefined 612.82 646.78 2.2880 140.00 0.0071429 612.82 646.78 2.2880 2.1786 6.3732 168.68 0.16475 15.660 0.047586 140.00 0.0071429 612.82 646.78 2.2880 2.1786 6.3732 168.68 0.16475 15.660 0.047586
110.38 696.19 undefined 615.00 649.28 2.2937 140.00 0.0071429 615.00 649.28 2.2937 2.1756 6.1902 169.84 0.16216 15.693 0.047440 140.00 0.0071429 615.00 649.28 2.2937 2.1756 6.1902 169.84 0.16216 15.693 0.047440
111.38 702.80 undefined 617.17 651.78 2.2993 140.00 0.0071429 617.17 651.78 2.2993 2.1731 6.0228 171.00 0.15963 15.726 0.047313 140.00 0.0071429 617.17 651.78 2.2993 2.1731 6.0228 171.00 0.15963 15.726 0.047313
112.38 709.39 undefined 619.34 654.28 2.3050 140.00 0.0071429 619.34 654.28 2.3050 2.1709 5.8691 172.15 0.15715 15.759 0.047203 140.00 0.0071429 619.34 654.28 2.3050 2.1709 5.8691 172.15 0.15715 15.759 0.047203
113.38 715.97 undefined 621.51 656.77 2.3106 140.00 0.0071429 621.51 656.77 2.3106 2.1690 5.7276 173.29 0.15473 15.792 0.047109 140.00 0.0071429 621.51 656.77 2.3106 2.1690 5.7276 173.29 0.15473 15.792 0.047109
114.38 722.53 undefined 623.68 659.27 2.3162 140.00 0.0071429 623.68 659.27 2.3162 2.1675 5.5968 174.43 0.15237 15.825 0.047029 140.00 0.0071429 623.68 659.27 2.3162 2.1675 5.5968 174.43 0.15237 15.825 0.047029
115.38 729.08 undefined 625.85 661.75 2.3218 140.00 0.0071429 625.85 661.75 2.3218 2.1662 5.4756 175.56 0.15006 15.858 0.046962 140.00 0.0071429 625.85 661.75 2.3218 2.1662 5.4756 175.56 0.15006 15.858 0.046962
116.38 735.62 undefined 628.01 664.24 2.3273 140.00 0.0071429 628.01 664.24 2.3273 2.1651 5.3630 176.68 0.14780 15.891 0.046906 140.00 0.0071429 628.01 664.24 2.3273 2.1651 5.3630 176.68 0.14780 15.891 0.046906
117.38 742.15 undefined 630.18 666.73 2.3329 140.00 0.0071429 630.18 666.73 2.3329 2.1643 5.2582 177.80 0.14560 15.924 0.046862 140.00 0.0071429 630.18 666.73 2.3329 2.1643 5.2582 177.80 0.14560 15.924 0.046862
118.38 748.66 undefined 632.34 669.21 2.3384 140.00 0.0071429 632.34 669.21 2.3384 2.1637 5.1604 178.91 0.14344 15.956 0.046827 140.00 0.0071429 632.34 669.21 2.3384 2.1637 5.1604 178.91 0.14344 15.956 0.046827
119.38 755.16 undefined 634.51 671.70 2.3439 140.00 0.0071429 634.51 671.70 2.3439 2.1632 5.0690 180.01 0.14133 15.989 0.046802 140.00 0.0071429 634.51 671.70 2.3439 2.1632 5.0690 180.01 0.14133 15.989 0.046802
120.38 761.65 undefined 636.67 674.18 2.3494 140.00 0.0071429 636.67 674.18 2.3494 2.1630 4.9833 181.11 0.13927 16.022 0.046785 140.00 0.0071429 636.67 674.18 2.3494 2.1630 4.9833 181.11 0.13927 16.022 0.046785
121.38 768.13 undefined 638.83 676.66 2.3549 140.00 0.0071429 638.83 676.66 2.3549 2.1629 4.9029 182.21 0.13725 16.055 0.046776 140.00 0.0071429 638.83 676.66 2.3549 2.1629 4.9029 182.21 0.13725 16.055 0.046776
122.38 774.61 undefined 640.99 679.14 2.3604 140.00 0.0071429 640.99 679.14 2.3604 2.1630 4.8273 183.29 0.13528 16.087 0.046774 140.00 0.0071429 640.99 679.14 2.3604 2.1630 4.8273 183.29 0.13528 16.087 0.046774
123.38 781.07 undefined 643.16 681.62 2.3659 140.00 0.0071429 643.16 681.62 2.3659 2.1633 4.7562 184.37 0.13335 16.120 0.046780 140.00 0.0071429 643.16 681.62 2.3659 2.1633 4.7562 184.37 0.13335 16.120 0.046780
124.38 787.52 undefined 645.32 684.11 2.3713 140.00 0.0071429 645.32 684.11 2.3713 2.1637 4.6891 185.45 0.13146 16.152 0.046791 140.00 0.0071429 645.32 684.11 2.3713 2.1637 4.6891 185.45 0.13146 16.152 0.046791
125.38 793.96 undefined 647.49 686.59 2.3768 140.00 0.0071429 647.49 686.59 2.3768 2.1643 4.6258 186.52 0.12961 16.185 0.046809 140.00 0.0071429 647.49 686.59 2.3768 2.1643 4.6258 186.52 0.12961 16.185 0.046809
126.38 800.40 undefined 649.65 689.07 2.3822 140.00 0.0071429 649.65 689.07 2.3822 2.1649 4.5659 187.58 0.12780 16.217 0.046832 140.00 0.0071429 649.65 689.07 2.3822 2.1649 4.5659 187.58 0.12780 16.217 0.046832
127.38 806.82 undefined 651.82 691.55 2.3876 140.00 0.0071429 651.82 691.55 2.3876 2.1657 4.5093 188.64 0.12603 16.250 0.046861 140.00 0.0071429 651.82 691.55 2.3876 2.1657 4.5093 188.64 0.12603 16.250 0.046861
128.38 813.24 undefined 653.98 694.03 2.3930 140.00 0.0071429 653.98 694.03 2.3930 2.1666 4.4556 189.70 0.12429 16.282 0.046894 140.00 0.0071429 653.98 694.03 2.3930 2.1666 4.4556 189.70 0.12429 16.282 0.046894
129.38 819.65 undefined 656.15 696.52 2.3984 140.00 0.0071429 656.15 696.52 2.3984 2.1677 4.4046 190.74 0.12259 16.314 0.046932 140.00 0.0071429 656.15 696.52 2.3984 2.1677 4.4046 190.74 0.12259 16.314 0.046932
130.38 826.05 undefined 658.32 699.00 2.4038 140.00 0.0071429 658.32 699.00 2.4038 2.1688 4.3562 191.79 0.12093 16.346 0.046975 140.00 0.0071429 658.32 699.00 2.4038 2.1688 4.3562 191.79 0.12093 16.346 0.046975
131.38 832.44 undefined 660.49 701.48 2.4091 140.00 0.0071429 660.49 701.48 2.4091 2.1700 4.3102 192.83 0.11930 16.379 0.047021 140.00 0.0071429 660.49 701.48 2.4091 2.1700 4.3102 192.83 0.11930 16.379 0.047021
132.38 838.83 undefined 662.66 703.97 2.4145 140.00 0.0071429 662.66 703.97 2.4145 2.1713 4.2664 193.86 0.11770 16.411 0.047072 140.00 0.0071429 662.66 703.97 2.4145 2.1713 4.2664 193.86 0.11770 16.411 0.047072
133.38 845.21 undefined 664.83 706.45 2.4199 140.00 0.0071429 664.83 706.45 2.4199 2.1728 4.2247 194.89 0.11614 16.443 0.047126 140.00 0.0071429 664.83 706.45 2.4199 2.1728 4.2247 194.89 0.11614 16.443 0.047126
134.38 851.58 undefined 667.00 708.94 2.4252 140.00 0.0071429 667.00 708.94 2.4252 2.1743 4.1850 195.91 0.11460 16.475 0.047184 140.00 0.0071429 667.00 708.94 2.4252 2.1743 4.1850 195.91 0.11460 16.475 0.047184
135.38 857.95 undefined 669.18 711.43 2.4305 140.00 0.0071429 669.18 711.43 2.4305 2.1758 4.1471 196.93 0.11310 16.507 0.047245 140.00 0.0071429 669.18 711.43 2.4305 2.1758 4.1471 196.93 0.11310 16.507 0.047245
136.38 864.31 undefined 671.35 713.92 2.4358 140.00 0.0071429 671.35 713.92 2.4358 2.1775 4.1108 197.94 0.11163 16.539 0.047310 140.00 0.0071429 671.35 713.92 2.4358 2.1775 4.1108 197.94 0.11163 16.539 0.047310
137.38 870.66 undefined 673.53 716.41 2.4412 140.00 0.0071429 673.53 716.41 2.4412 2.1792 4.0762 198.95 0.11018 16.571 0.047377 140.00 0.0071429 673.53 716.41 2.4412 2.1792 4.0762 198.95 0.11018 16.571 0.047377
138.38 877.00 undefined 675.71 718.90 2.4465 140.00 0.0071429 675.71 718.90 2.4465 2.1810 4.0431 199.96 0.10877 16.603 0.047447 140.00 0.0071429 675.71 718.90 2.4465 2.1810 4.0431 199.96 0.10877 16.603 0.047447
139.38 883.35 undefined 677.89 721.40 2.4518 140.00 0.0071429 677.89 721.40 2.4518 2.1828 4.0115 200.96 0.10738 16.635 0.047520 140.00 0.0071429 677.89 721.40 2.4518 2.1828 4.0115 200.96 0.10738 16.635 0.047520
140.38 889.68 undefined 680.08 723.89 2.4570 140.00 0.0071429 680.08 723.89 2.4570 2.1847 3.9812 201.95 0.10602 16.667 0.047596 140.00 0.0071429 680.08 723.89 2.4570 2.1847 3.9812 201.95 0.10602 16.667 0.047596
141.38 896.01 undefined 682.26 726.39 2.4623 140.00 0.0071429 682.26 726.39 2.4623 2.1867 3.9521 202.94 0.10468 16.699 0.047674 140.00 0.0071429 682.26 726.39 2.4623 2.1867 3.9521 202.94 0.10468 16.699 0.047674
142.38 902.33 undefined 684.45 728.89 2.4676 140.00 0.0071429 684.45 728.89 2.4676 2.1887 3.9242 203.93 0.10337 16.730 0.047754 140.00 0.0071429 684.45 728.89 2.4676 2.1887 3.9242 203.93 0.10337 16.730 0.047754
143.38 908.65 undefined 686.64 731.39 2.4729 140.00 0.0071429 686.64 731.39 2.4729 2.1908 3.8975 204.91 0.10208 16.762 0.047837 140.00 0.0071429 686.64 731.39 2.4729 2.1908 3.8975 204.91 0.10208 16.762 0.047837
144.38 914.96 undefined 688.83 733.89 2.4781 140.00 0.0071429 688.83 733.89 2.4781 2.1929 3.8719 205.89 0.10082 16.794 0.047922 140.00 0.0071429 688.83 733.89 2.4781 2.1929 3.8719 205.89 0.10082 16.794 0.047922
145.38 921.27 undefined 691.03 736.40 2.4834 140.00 0.0071429 691.03 736.40 2.4834 2.1951 3.8473 206.86 0.099579 16.825 0.048009 140.00 0.0071429 691.03 736.40 2.4834 2.1951 3.8473 206.86 0.099579 16.825 0.048009
146.38 927.57 undefined 693.22 738.90 2.4886 140.00 0.0071429 693.22 738.90 2.4886 2.1973 3.8236 207.83 0.098362 16.857 0.048098 140.00 0.0071429 693.22 738.90 2.4886 2.1973 3.8236 207.83 0.098362 16.857 0.048098
147.38 933.86 undefined 695.42 741.41 2.4938 140.00 0.0071429 695.42 741.41 2.4938 2.1996 3.8009 208.80 0.097168 16.889 0.048189 140.00 0.0071429 695.42 741.41 2.4938 2.1996 3.8009 208.80 0.097168 16.889 0.048189
148.38 940.15 undefined 697.62 743.92 2.4991 140.00 0.0071429 697.62 743.92 2.4991 2.2019 3.7790 209.76 0.095995 16.920 0.048282 140.00 0.0071429 697.62 743.92 2.4991 2.2019 3.7790 209.76 0.095995 16.920 0.048282
149.38 946.44 undefined 699.83 746.44 2.5043 140.00 0.0071429 699.83 746.44 2.5043 2.2043 3.7579 210.71 0.094844 16.952 0.048376 140.00 0.0071429 699.83 746.44 2.5043 2.2043 3.7579 210.71 0.094844 16.952 0.048376
150.38 952.72 undefined 702.03 748.95 2.5095 140.00 0.0071429 702.03 748.95 2.5095 2.2066 3.7377 211.67 0.093713 16.983 0.048473 140.00 0.0071429 702.03 748.95 2.5095 2.2066 3.7377 211.67 0.093713 16.983 0.048473
151.38 959.00 undefined 704.24 751.47 2.5147 140.00 0.0071429 704.24 751.47 2.5147 2.2091 3.7182 212.61 0.092602 17.014 0.048571 140.00 0.0071429 704.24 751.47 2.5147 2.2091 3.7182 212.61 0.092602 17.014 0.048571
152.38 965.27 undefined 706.45 753.99 2.5199 140.00 0.0071429 706.45 753.99 2.5199 2.2115 3.6994 213.56 0.091511 17.046 0.048670 140.00 0.0071429 706.45 753.99 2.5199 2.2115 3.6994 213.56 0.091511 17.046 0.048670
153.38 971.54 undefined 708.66 756.51 2.5251 140.00 0.0071429 708.66 756.51 2.5251 2.2140 3.6813 214.50 0.090438 17.077 0.048772 140.00 0.0071429 708.66 756.51 2.5251 2.2140 3.6813 214.50 0.090438 17.077 0.048772
154.38 977.80 undefined 710.88 759.03 2.5303 140.00 0.0071429 710.88 759.03 2.5303 2.2165 3.6639 215.44 0.089385 17.108 0.048874 140.00 0.0071429 710.88 759.03 2.5303 2.2165 3.6639 215.44 0.089385 17.108 0.048874
155.38 984.06 undefined 713.10 761.56 2.5355 140.00 0.0071429 713.10 761.56 2.5355 2.2191 3.6470 216.37 0.088350 17.140 0.048978 140.00 0.0071429 713.10 761.56 2.5355 2.2191 3.6470 216.37 0.088350 17.140 0.048978
156.38 990.31 undefined 715.32 764.09 2.5406 140.00 0.0071429 715.32 764.09 2.5406 2.2216 3.6308 217.30 0.087332 17.171 0.049084 140.00 0.0071429 715.32 764.09 2.5406 2.2216 3.6308 217.30 0.087332 17.171 0.049084
157.38 996.56 undefined 717.54 766.62 2.5458 140.00 0.0071429 717.54 766.62 2.5458 2.2242 3.6151 218.23 0.086332 17.202 0.049191 140.00 0.0071429 717.54 766.62 2.5458 2.2242 3.6151 218.23 0.086332 17.202 0.049191
158.38 1002.8 undefined 719.76 769.15 2.5510 140.00 0.0071429 719.76 769.15 2.5510 2.2269 3.6000 219.15 0.085349 17.233 0.049299 140.00 0.0071429 719.76 769.15 2.5510 2.2269 3.6000 219.15 0.085349 17.233 0.049299
159.38 1009.0 undefined 721.99 771.69 2.5561 140.00 0.0071429 721.99 771.69 2.5561 2.2295 3.5854 220.07 0.084383 17.264 0.049408 140.00 0.0071429 721.99 771.69 2.5561 2.2295 3.5854 220.07 0.084383 17.264 0.049408
160.38 1015.3 undefined 724.22 774.22 2.5613 140.00 0.0071429 724.22 774.22 2.5613 2.2322 3.5714 220.98 0.083433 17.295 0.049519 140.00 0.0071429 724.22 774.22 2.5613 2.2322 3.5714 220.98 0.083433 17.295 0.049519
161.38 1021.5 undefined 726.46 776.76 2.5664 140.00 0.0071429 726.46 776.76 2.5664 2.2349 3.5578 221.89 0.082498 17.326 0.049631 140.00 0.0071429 726.46 776.76 2.5664 2.2349 3.5578 221.89 0.082498 17.326 0.049631
162.38 1027.7 undefined 728.69 779.31 2.5716 140.00 0.0071429 728.69 779.31 2.5716 2.2376 3.5446 222.80 0.081579 17.357 0.049744 140.00 0.0071429 728.69 779.31 2.5716 2.2376 3.5446 222.80 0.081579 17.357 0.049744
163.38 1034.0 undefined 730.93 781.85 2.5767 140.00 0.0071429 730.93 781.85 2.5767 2.2404 3.5319 223.71 0.080676 17.388 0.049858 140.00 0.0071429 730.93 781.85 2.5767 2.2404 3.5319 223.71 0.080676 17.388 0.049858
164.38 1040.2 undefined 733.17 784.40 2.5818 140.00 0.0071429 733.17 784.40 2.5818 2.2431 3.5197 224.61 0.079787 17.419 0.049973 140.00 0.0071429 733.17 784.40 2.5818 2.2431 3.5197 224.61 0.079787 17.419 0.049973
165.38 1046.4 undefined 735.42 786.95 2.5870 140.00 0.0071429 735.42 786.95 2.5870 2.2459 3.5078 225.51 0.078912 17.450 0.050089 140.00 0.0071429 735.42 786.95 2.5870 2.2459 3.5078 225.51 0.078912 17.450 0.050089
166.38 1052.6 undefined 737.67 789.51 2.5921 140.00 0.0071429 737.67 789.51 2.5921 2.2487 3.4963 226.40 0.078052 17.481 0.050207 140.00 0.0071429 737.67 789.51 2.5921 2.2487 3.4963 226.40 0.078052 17.481 0.050207
167.38 1058.8 undefined 739.92 792.06 2.5972 140.00 0.0071429 739.92 792.06 2.5972 2.2515 3.4852 227.29 0.077205 17.512 0.050325 140.00 0.0071429 739.92 792.06 2.5972 2.2515 3.4852 227.29 0.077205 17.512 0.050325
168.38 1065.0 undefined 742.17 794.62 2.6023 140.00 0.0071429 742.17 794.62 2.6023 2.2544 3.4745 228.18 0.076372 17.542 0.050444 140.00 0.0071429 742.17 794.62 2.6023 2.2544 3.4745 228.18 0.076372 17.542 0.050444
169.38 1071.2 undefined 744.42 797.18 2.6074 140.00 0.0071429 744.42 797.18 2.6074 2.2572 3.4641 229.07 0.075552 17.573 0.050565 140.00 0.0071429 744.42 797.18 2.6074 2.2572 3.4641 229.07 0.075552 17.573 0.050565
170.38 1077.4 undefined 746.68 799.75 2.6125 140.00 0.0071429 746.68 799.75 2.6125 2.2601 3.4541 229.95 0.074745 17.604 0.050686 140.00 0.0071429 746.68 799.75 2.6125 2.2601 3.4541 229.95 0.074745 17.604 0.050686
171.38 1083.6 undefined 748.94 802.31 2.6176 140.00 0.0071429 748.94 802.31 2.6176 2.2630 3.4444 230.82 0.073951 17.634 0.050808 140.00 0.0071429 748.94 802.31 2.6176 2.2630 3.4444 230.82 0.073951 17.634 0.050808
172.38 1089.8 undefined 751.21 804.88 2.6227 140.00 0.0071429 751.21 804.88 2.6227 2.2659 3.4350 231.70 0.073169 17.665 0.050931 140.00 0.0071429 751.21 804.88 2.6227 2.2659 3.4350 231.70 0.073169 17.665 0.050931
173.38 1096.0 undefined 753.48 807.45 2.6278 140.00 0.0071429 753.48 807.45 2.6278 2.2688 3.4259 232.57 0.072399 17.695 0.051055 140.00 0.0071429 753.48 807.45 2.6278 2.2688 3.4259 232.57 0.072399 17.695 0.051055
174.38 1102.2 undefined 755.75 810.03 2.6328 140.00 0.0071429 755.75 810.03 2.6328 2.2717 3.4171 233.44 0.071641 17.726 0.051179 140.00 0.0071429 755.75 810.03 2.6328 2.2717 3.4171 233.44 0.071641 17.726 0.051179
175.38 1108.4 undefined 758.02 812.61 2.6379 140.00 0.0071429 758.02 812.61 2.6379 2.2746 3.4086 234.31 0.070895 17.756 0.051305 140.00 0.0071429 758.02 812.61 2.6379 2.2746 3.4086 234.31 0.070895 17.756 0.051305
176.38 1114.6 undefined 760.30 815.19 2.6430 140.00 0.0071429 760.30 815.19 2.6430 2.2776 3.4004 235.17 0.070160 17.787 0.051431 140.00 0.0071429 760.30 815.19 2.6430 2.2776 3.4004 235.17 0.070160 17.787 0.051431
177.38 1120.7 undefined 762.58 817.77 2.6481 140.00 0.0071429 762.58 817.77 2.6481 2.2806 3.3924 236.03 0.069436 17.817 0.051559 140.00 0.0071429 762.58 817.77 2.6481 2.2806 3.3924 236.03 0.069436 17.817 0.051559
178.38 1126.9 undefined 764.86 820.36 2.6531 140.00 0.0071429 764.86 820.36 2.6531 2.2835 3.3847 236.89 0.068723 17.848 0.051686 140.00 0.0071429 764.86 820.36 2.6531 2.2835 3.3847 236.89 0.068723 17.848 0.051686
179.38 1133.1 undefined 767.14 822.94 2.6582 140.00 0.0071429 767.14 822.94 2.6582 2.2865 3.3772 237.74 0.068021 17.878 0.051815 140.00 0.0071429 767.14 822.94 2.6582 2.2865 3.3772 237.74 0.068021 17.878 0.051815
180.38 1139.2 undefined 769.43 825.54 2.6632 140.00 0.0071429 769.43 825.54 2.6632 2.2895 3.3700 238.59 0.067329 17.908 0.051945 140.00 0.0071429 769.43 825.54 2.6632 2.2895 3.3700 238.59 0.067329 17.908 0.051945
181.38 1145.4 undefined 771.72 828.13 2.6683 140.00 0.0071429 771.72 828.13 2.6683 2.2925 3.3630 239.44 0.066647 17.938 0.052075 140.00 0.0071429 771.72 828.13 2.6683 2.2925 3.3630 239.44 0.066647 17.938 0.052075
182.38 1151.6 undefined 774.02 830.73 2.6733 140.00 0.0071429 774.02 830.73 2.6733 2.2956 3.3563 240.28 0.065976 17.969 0.052206 140.00 0.0071429 774.02 830.73 2.6733 2.2956 3.3563 240.28 0.065976 17.969 0.052206
183.38 1157.7 undefined 776.31 833.33 2.6783 140.00 0.0071429 776.31 833.33 2.6783 2.2986 3.3497 241.13 0.065314 17.999 0.052337 140.00 0.0071429 776.31 833.33 2.6783 2.2986 3.3497 241.13 0.065314 17.999 0.052337
184.38 1163.9 undefined 778.61 835.93 2.6834 140.00 0.0071429 778.61 835.93 2.6834 2.3016 3.3434 241.97 0.064662 18.029 0.052469 140.00 0.0071429 778.61 835.93 2.6834 2.3016 3.3434 241.97 0.064662 18.029 0.052469
185.38 1170.0 undefined 780.92 838.54 2.6884 140.00 0.0071429 780.92 838.54 2.6884 2.3047 3.3372 242.80 0.064020 18.059 0.052602 140.00 0.0071429 780.92 838.54 2.6884 2.3047 3.3372 242.80 0.064020 18.059 0.052602
186.38 1176.2 undefined 783.22 841.15 2.6934 140.00 0.0071429 783.22 841.15 2.6934 2.3078 3.3313 243.64 0.063386 18.089 0.052736 140.00 0.0071429 783.22 841.15 2.6934 2.3078 3.3313 243.64 0.063386 18.089 0.052736
187.38 1182.3 undefined 785.53 843.76 2.6984 140.00 0.0071429 785.53 843.76 2.6984 2.3108 3.3255 244.47 0.062762 18.119 0.052870 140.00 0.0071429 785.53 843.76 2.6984 2.3108 3.3255 244.47 0.062762 18.119 0.052870
188.38 1188.4 undefined 787.84 846.37 2.7035 140.00 0.0071429 787.84 846.37 2.7035 2.3139 3.3200 245.30 0.062147 18.149 0.053005 140.00 0.0071429 787.84 846.37 2.7035 2.3139 3.3200 245.30 0.062147 18.149 0.053005
189.38 1194.6 undefined 790.16 848.99 2.7085 140.00 0.0071429 790.16 848.99 2.7085 2.3170 3.3146 246.12 0.061540 18.179 0.053141 140.00 0.0071429 790.16 848.99 2.7085 2.3170 3.3146 246.12 0.061540 18.179 0.053141
190.38 1200.7 undefined 792.48 851.61 2.7135 140.00 0.0071429 792.48 851.61 2.7135 2.3201 3.3094 246.95 0.060942 18.209 0.053277 140.00 0.0071429 792.48 851.61 2.7135 2.3201 3.3094 246.95 0.060942 18.209 0.053277
191.38 1206.9 undefined 794.80 854.23 2.7185 140.00 0.0071429 794.80 854.23 2.7185 2.3232 3.3044 247.77 0.060353 18.239 0.053414 140.00 0.0071429 794.80 854.23 2.7185 2.3232 3.3044 247.77 0.060353 18.239 0.053414
192.38 1213.0 undefined 797.12 856.86 2.7235 140.00 0.0071429 797.12 856.86 2.7235 2.3263 3.2995 248.58 0.059771 18.269 0.053551 140.00 0.0071429 797.12 856.86 2.7235 2.3263 3.2995 248.58 0.059771 18.269 0.053551
193.38 1219.1 undefined 799.45 859.49 2.7285 140.00 0.0071429 799.45 859.49 2.7285 2.3294 3.2948 249.40 0.059198 18.298 0.053689 140.00 0.0071429 799.45 859.49 2.7285 2.3294 3.2948 249.40 0.059198 18.298 0.053689
194.38 1225.2 undefined 801.78 862.12 2.7335 140.00 0.0071429 801.78 862.12 2.7335 2.3325 3.2903 250.21 0.058632 18.328 0.053827 140.00 0.0071429 801.78 862.12 2.7335 2.3325 3.2903 250.21 0.058632 18.328 0.053827
195.38 1231.4 undefined 804.12 864.76 2.7385 140.00 0.0071429 804.12 864.76 2.7385 2.3357 3.2859 251.02 0.058075 18.358 0.053966 140.00 0.0071429 804.12 864.76 2.7385 2.3357 3.2859 251.02 0.058075 18.358 0.053966
196.38 1237.5 undefined 806.45 867.40 2.7434 140.00 0.0071429 806.45 867.40 2.7434 2.3388 3.2816 251.83 0.057525 18.388 0.054106 140.00 0.0071429 806.45 867.40 2.7434 2.3388 3.2816 251.83 0.057525 18.388 0.054106
197.38 1243.6 undefined 808.79 870.04 2.7484 140.00 0.0071429 808.79 870.04 2.7484 2.3420 3.2775 252.64 0.056982 18.417 0.054246 140.00 0.0071429 808.79 870.04 2.7484 2.3420 3.2775 252.64 0.056982 18.417 0.054246
198.38 1249.7 undefined 811.14 872.68 2.7534 140.00 0.0071429 811.14 872.68 2.7534 2.3451 3.2736 253.44 0.056447 18.447 0.054387 140.00 0.0071429 811.14 872.68 2.7534 2.3451 3.2736 253.44 0.056447 18.447 0.054387
199.38 1255.8 undefined 813.48 875.33 2.7584 140.00 0.0071429 813.48 875.33 2.7584 2.3483 3.2697 254.24 0.055919 18.477 0.054528 140.00 0.0071429 813.48 875.33 2.7584 2.3483 3.2697 254.24 0.055919 18.477 0.054528
200.38 1261.9 undefined 815.83 877.98 2.7633 140.00 0.0071429 815.83 877.98 2.7633 2.3514 3.2660 255.04 0.055399 18.506 0.054670 140.00 0.0071429 815.83 877.98 2.7633 2.3514 3.2660 255.04 0.055399 18.506 0.054670
201.38 1268.0 undefined 818.19 880.64 2.7683 140.00 0.0071429 818.19 880.64 2.7683 2.3546 3.2625 255.83 0.054885 18.536 0.054812 140.00 0.0071429 818.19 880.64 2.7683 2.3546 3.2625 255.83 0.054885 18.536 0.054812
202.38 1274.1 undefined 820.54 883.29 2.7733 140.00 0.0071429 820.54 883.29 2.7733 2.3578 3.2590 256.63 0.054378 18.565 0.054955 140.00 0.0071429 820.54 883.29 2.7733 2.3578 3.2590 256.63 0.054378 18.565 0.054955
203.38 1280.2 undefined 822.90 885.95 2.7782 140.00 0.0071429 822.90 885.95 2.7782 2.3610 3.2557 257.42 0.053878 18.595 0.055098 140.00 0.0071429 822.90 885.95 2.7782 2.3610 3.2557 257.42 0.053878 18.595 0.055098
204.38 1286.3 undefined 825.27 888.62 2.7832 140.00 0.0071429 825.27 888.62 2.7832 2.3642 3.2525 258.20 0.053384 18.624 0.055242 140.00 0.0071429 825.27 888.62 2.7832 2.3642 3.2525 258.20 0.053384 18.624 0.055242
205.38 1292.4 undefined 827.63 891.28 2.7881 140.00 0.0071429 827.63 891.28 2.7881 2.3674 3.2494 258.99 0.052897 18.653 0.055386 140.00 0.0071429 827.63 891.28 2.7881 2.3674 3.2494 258.99 0.052897 18.653 0.055386
206.38 1298.5 undefined 830.00 893.95 2.7931 140.00 0.0071429 830.00 893.95 2.7931 2.3706 3.2465 259.77 0.052416 18.683 0.055531 140.00 0.0071429 830.00 893.95 2.7931 2.3706 3.2465 259.77 0.052416 18.683 0.055531
207.38 1304.6 undefined 832.37 896.62 2.7980 140.00 0.0071429 832.37 896.62 2.7980 2.3738 3.2436 260.56 0.051941 18.712 0.055677 140.00 0.0071429 832.37 896.62 2.7980 2.3738 3.2436 260.56 0.051941 18.712 0.055677
208.38 1310.7 undefined 834.75 899.30 2.8029 140.00 0.0071429 834.75 899.30 2.8029 2.3770 3.2409 261.33 0.051473 18.741 0.055822 140.00 0.0071429 834.75 899.30 2.8029 2.3770 3.2409 261.33 0.051473 18.741 0.055822
209.38 1316.8 undefined 837.13 901.98 2.8079 140.00 0.0071429 837.13 901.98 2.8079 2.3802 3.2382 262.11 0.051010 18.771 0.055969 140.00 0.0071429 837.13 901.98 2.8079 2.3802 3.2382 262.11 0.051010 18.771 0.055969
210.38 1322.9 undefined 839.51 904.66 2.8128 140.00 0.0071429 839.51 904.66 2.8128 2.3834 3.2357 262.89 0.050554 18.800 0.056115 140.00 0.0071429 839.51 904.66 2.8128 2.3834 3.2357 262.89 0.050554 18.800 0.056115
211.38 1328.9 undefined 841.89 907.34 2.8177 140.00 0.0071429 841.89 907.34 2.8177 2.3866 3.2332 263.66 0.050103 18.829 0.056262 140.00 0.0071429 841.89 907.34 2.8177 2.3866 3.2332 263.66 0.050103 18.829 0.056262
212.38 1335.0 undefined 844.28 910.03 2.8227 140.00 0.0071429 844.28 910.03 2.8227 2.3898 3.2309 264.43 0.049658 18.858 0.056410 140.00 0.0071429 844.28 910.03 2.8227 2.3898 3.2309 264.43 0.049658 18.858 0.056410
213.38 1341.1 undefined 846.67 912.72 2.8276 140.00 0.0071429 846.67 912.72 2.8276 2.3931 3.2287 265.20 0.049219 18.887 0.056558 140.00 0.0071429 846.67 912.72 2.8276 2.3931 3.2287 265.20 0.049219 18.887 0.056558
214.38 1347.2 undefined 849.07 915.41 2.8325 140.00 0.0071429 849.07 915.41 2.8325 2.3963 3.2265 265.96 0.048785 18.916 0.056706 140.00 0.0071429 849.07 915.41 2.8325 2.3963 3.2265 265.96 0.048785 18.916 0.056706
215.38 1353.2 undefined 851.47 918.11 2.8374 140.00 0.0071429 851.47 918.11 2.8374 2.3995 3.2244 266.73 0.048356 18.945 0.056855 140.00 0.0071429 851.47 918.11 2.8374 2.3995 3.2244 266.73 0.048356 18.945 0.056855
216.38 1359.3 undefined 853.87 920.81 2.8423 140.00 0.0071429 853.87 920.81 2.8423 2.4028 3.2225 267.49 0.047933 18.974 0.057005 140.00 0.0071429 853.87 920.81 2.8423 2.4028 3.2225 267.49 0.047933 18.974 0.057005
217.38 1365.4 undefined 856.27 923.51 2.8472 140.00 0.0071429 856.27 923.51 2.8472 2.4060 3.2206 268.25 0.047516 19.003 0.057154 140.00 0.0071429 856.27 923.51 2.8472 2.4060 3.2206 268.25 0.047516 19.003 0.057154
218.38 1371.5 undefined 858.68 926.22 2.8521 140.00 0.0071429 858.68 926.22 2.8521 2.4093 3.2188 269.00 0.047103 19.032 0.057304 140.00 0.0071429 858.68 926.22 2.8521 2.4093 3.2188 269.00 0.047103 19.032 0.057304
219.38 1377.5 undefined 861.09 928.93 2.8570 140.00 0.0071429 861.09 928.93 2.8570 2.4125 3.2170 269.76 0.046695 19.061 0.057455 140.00 0.0071429 861.09 928.93 2.8570 2.4125 3.2170 269.76 0.046695 19.061 0.057455
220.38 1383.6 undefined 863.50 931.64 2.8619 140.00 0.0071429 863.50 931.64 2.8619 2.4158 3.2154 270.51 0.046293 19.090 0.057606 140.00 0.0071429 863.50 931.64 2.8619 2.4158 3.2154 270.51 0.046293 19.090 0.057606
221.38 1389.6 undefined 865.92 934.36 2.8668 140.00 0.0071429 865.92 934.36 2.8668 2.4190 3.2138 271.26 0.045895 19.119 0.057757 140.00 0.0071429 865.92 934.36 2.8668 2.4190 3.2138 271.26 0.045895 19.119 0.057757
222.38 1395.7 undefined 868.34 937.08 2.8717 140.00 0.0071429 868.34 937.08 2.8717 2.4223 3.2123 272.01 0.045502 19.147 0.057909 140.00 0.0071429 868.34 937.08 2.8717 2.4223 3.2123 272.01 0.045502 19.147 0.057909
223.38 1401.7 undefined 870.77 939.80 2.8766 140.00 0.0071429 870.77 939.80 2.8766 2.4256 3.2109 272.76 0.045114 19.176 0.058061 140.00 0.0071429 870.77 939.80 2.8766 2.4256 3.2109 272.76 0.045114 19.176 0.058061
224.38 1407.8 undefined 873.19 942.52 2.8815 140.00 0.0071429 873.19 942.52 2.8815 2.4288 3.2096 273.50 0.044731 19.205 0.058214 140.00 0.0071429 873.19 942.52 2.8815 2.4288 3.2096 273.50 0.044731 19.205 0.058214
225.38 1413.9 undefined 875.62 945.25 2.8864 140.00 0.0071429 875.62 945.25 2.8864 2.4321 3.2083 274.25 0.044352 19.234 0.058367 140.00 0.0071429 875.62 945.25 2.8864 2.4321 3.2083 274.25 0.044352 19.234 0.058367
226.38 1419.9 undefined 878.06 947.99 2.8912 140.00 0.0071429 878.06 947.99 2.8912 2.4354 3.2071 274.99 0.043978 19.262 0.058520 140.00 0.0071429 878.06 947.99 2.8912 2.4354 3.2071 274.99 0.043978 19.262 0.058520
227.38 1425.9 undefined 880.49 950.72 2.8961 140.00 0.0071429 880.49 950.72 2.8961 2.4386 3.2060 275.73 0.043608 19.291 0.058674 140.00 0.0071429 880.49 950.72 2.8961 2.4386 3.2060 275.73 0.043608 19.291 0.058674
228.38 1432.0 undefined 882.93 953.46 2.9010 140.00 0.0071429 882.93 953.46 2.9010 2.4419 3.2049 276.46 0.043242 19.319 0.058828 140.00 0.0071429 882.93 953.46 2.9010 2.4419 3.2049 276.46 0.043242 19.319 0.058828
229.38 1438.0 undefined 885.38 956.20 2.9059 140.00 0.0071429 885.38 956.20 2.9059 2.4452 3.2039 277.20 0.042881 19.348 0.058982 140.00 0.0071429 885.38 956.20 2.9059 2.4452 3.2039 277.20 0.042881 19.348 0.058982
230.38 1444.1 undefined 887.83 958.94 2.9107 140.00 0.0071429 887.83 958.94 2.9107 2.4485 3.2030 277.93 0.042524 19.377 0.059137 140.00 0.0071429 887.83 958.94 2.9107 2.4485 3.2030 277.93 0.042524 19.377 0.059137
231.38 1450.1 undefined 890.28 961.69 2.9156 140.00 0.0071429 890.28 961.69 2.9156 2.4518 3.2021 278.66 0.042172 19.405 0.059292 140.00 0.0071429 890.28 961.69 2.9156 2.4518 3.2021 278.66 0.042172 19.405 0.059292
232.38 1456.2 undefined 892.73 964.44 2.9204 140.00 0.0071429 892.73 964.44 2.9204 2.4551 3.2013 279.39 0.041823 19.433 0.059448 140.00 0.0071429 892.73 964.44 2.9204 2.4551 3.2013 279.39 0.041823 19.433 0.059448
233.38 1462.2 undefined 895.19 967.20 2.9253 140.00 0.0071429 895.19 967.20 2.9253 2.4583 3.2006 280.12 0.041479 19.462 0.059603 140.00 0.0071429 895.19 967.20 2.9253 2.4583 3.2006 280.12 0.041479 19.462 0.059603
234.38 1468.2 undefined 897.65 969.95 2.9301 140.00 0.0071429 897.65 969.95 2.9301 2.4616 3.1999 280.85 0.041138 19.490 0.059759 140.00 0.0071429 897.65 969.95 2.9301 2.4616 3.1999 280.85 0.041138 19.490 0.059759
235.38 1474.3 undefined 900.11 972.71 2.9350 140.00 0.0071429 900.11 972.71 2.9350 2.4649 3.1992 281.57 0.040801 19.519 0.059916 140.00 0.0071429 900.11 972.71 2.9350 2.4649 3.1992 281.57 0.040801 19.519 0.059916
236.38 1480.3 undefined 902.58 975.48 2.9398 140.00 0.0071429 902.58 975.48 2.9398 2.4682 3.1987 282.29 0.040469 19.547 0.060073 140.00 0.0071429 902.58 975.48 2.9398 2.4682 3.1987 282.29 0.040469 19.547 0.060073
237.38 1486.3 undefined 905.04 978.24 2.9447 140.00 0.0071429 905.04 978.24 2.9447 2.4715 3.1981 283.01 0.040140 19.575 0.060230 140.00 0.0071429 905.04 978.24 2.9447 2.4715 3.1981 283.01 0.040140 19.575 0.060230
238.38 1492.3 undefined 907.52 981.01 2.9495 140.00 0.0071429 907.52 981.01 2.9495 2.4748 3.1977 283.73 0.039814 19.603 0.060387 140.00 0.0071429 907.52 981.01 2.9495 2.4748 3.1977 283.73 0.039814 19.603 0.060387
239.38 1498.4 undefined 909.99 983.79 2.9544 140.00 0.0071429 909.99 983.79 2.9544 2.4781 3.1973 284.45 0.039493 19.632 0.060545 140.00 0.0071429 909.99 983.79 2.9544 2.4781 3.1973 284.45 0.039493 19.632 0.060545
240.38 1504.4 undefined 912.47 986.56 2.9592 140.00 0.0071429 912.47 986.56 2.9592 2.4814 3.1969 285.16 0.039175 19.660 0.060703 140.00 0.0071429 912.47 986.56 2.9592 2.4814 3.1969 285.16 0.039175 19.660 0.060703
241.38 1510.4 undefined 914.96 989.34 2.9640 140.00 0.0071429 914.96 989.34 2.9640 2.4847 3.1966 285.87 0.038860 19.688 0.060862 140.00 0.0071429 914.96 989.34 2.9640 2.4847 3.1966 285.87 0.038860 19.688 0.060862
242.38 1516.4 undefined 917.44 992.12 2.9688 140.00 0.0071429 917.44 992.12 2.9688 2.4880 3.1963 286.58 0.038550 19.716 0.061020 140.00 0.0071429 917.44 992.12 2.9688 2.4880 3.1963 286.58 0.038550 19.716 0.061020
243.38 1522.4 undefined 919.93 994.91 2.9737 140.00 0.0071429 919.93 994.91 2.9737 2.4913 3.1961 287.29 0.038242 19.744 0.061179 140.00 0.0071429 919.93 994.91 2.9737 2.4913 3.1961 287.29 0.038242 19.744 0.061179
244.38 1528.5 undefined 922.43 997.70 2.9785 140.00 0.0071429 922.43 997.70 2.9785 2.4946 3.1960 288.00 0.037938 19.772 0.061339 140.00 0.0071429 922.43 997.70 2.9785 2.4946 3.1960 288.00 0.037938 19.772 0.061339
245.38 1534.5 undefined 924.92 1000.5 2.9833 140.00 0.0071429 924.92 1000.5 2.9833 2.4979 3.1958 288.71 0.037638 19.800 0.061498 140.00 0.0071429 924.92 1000.5 2.9833 2.4979 3.1958 288.71 0.037638 19.800 0.061498
246.38 1540.5 undefined 927.42 1003.3 2.9881 140.00 0.0071429 927.42 1003.3 2.9881 2.5012 3.1958 289.41 0.037340 19.828 0.061658 140.00 0.0071429 927.42 1003.3 2.9881 2.5012 3.1958 289.41 0.037340 19.828 0.061658
247.38 1546.5 undefined 929.92 1006.1 2.9929 140.00 0.0071429 929.92 1006.1 2.9929 2.5045 3.1957 290.11 0.037046 19.856 0.061818 140.00 0.0071429 929.92 1006.1 2.9929 2.5045 3.1957 290.11 0.037046 19.856 0.061818
248.38 1552.5 undefined 932.43 1008.9 2.9978 140.00 0.0071429 932.43 1008.9 2.9978 2.5078 3.1957 290.81 0.036756 19.884 0.061979 140.00 0.0071429 932.43 1008.9 2.9978 2.5078 3.1957 290.81 0.036756 19.884 0.061979
249.38 1558.5 undefined 934.94 1011.7 3.0026 140.00 0.0071429 934.94 1011.7 3.0026 2.5111 3.1958 291.51 0.036468 19.912 0.062139 140.00 0.0071429 934.94 1011.7 3.0026 2.5111 3.1958 291.51 0.036468 19.912 0.062139
250.38 1564.5 undefined 937.45 1014.5 3.0074 140.00 0.0071429 937.45 1014.5 3.0074 2.5144 3.1959 292.21 0.036184 19.940 0.062300 140.00 0.0071429 937.45 1014.5 3.0074 2.5144 3.1959 292.21 0.036184 19.940 0.062300
251.38 1570.5 undefined 939.97 1017.3 3.0122 140.00 0.0071429 939.97 1017.3 3.0122 2.5177 3.1960 292.91 0.035902 19.968 0.062461 140.00 0.0071429 939.97 1017.3 3.0122 2.5177 3.1960 292.91 0.035902 19.968 0.062461
252.38 1576.5 undefined 942.49 1020.1 3.0170 140.00 0.0071429 942.49 1020.1 3.0170 2.5210 3.1962 293.60 0.035624 19.995 0.062623 140.00 0.0071429 942.49 1020.1 3.0170 2.5210 3.1962 293.60 0.035624 19.995 0.062623
253.38 1582.5 undefined 945.01 1022.9 3.0218 140.00 0.0071429 945.01 1022.9 3.0218 2.5244 3.1964 294.29 0.035348 20.023 0.062784 140.00 0.0071429 945.01 1022.9 3.0218 2.5244 3.1964 294.29 0.035348 20.023 0.062784
254.38 1588.5 undefined 947.54 1025.8 3.0266 140.00 0.0071429 947.54 1025.8 3.0266 2.5277 3.1967 294.98 0.035076 20.051 0.062946 140.00 0.0071429 947.54 1025.8 3.0266 2.5277 3.1967 294.98 0.035076 20.051 0.062946
255.38 1594.5 undefined 950.07 1028.6 3.0313 140.00 0.0071429 950.07 1028.6 3.0313 2.5310 3.1970 295.67 0.034806 20.079 0.063108 140.00 0.0071429 950.07 1028.6 3.0313 2.5310 3.1970 295.67 0.034806 20.079 0.063108
256.38 1600.5 undefined 952.60 1031.4 3.0361 140.00 0.0071429 952.60 1031.4 3.0361 2.5343 3.1973 296.36 0.034540 20.106 0.063270 140.00 0.0071429 952.60 1031.4 3.0361 2.5343 3.1973 296.36 0.034540 20.106 0.063270
257.38 1606.5 undefined 955.14 1034.3 3.0409 140.00 0.0071429 955.14 1034.3 3.0409 2.5376 3.1977 297.04 0.034276 20.134 0.063432 140.00 0.0071429 955.14 1034.3 3.0409 2.5376 3.1977 297.04 0.034276 20.134 0.063432
258.38 1612.5 undefined 957.67 1037.1 3.0457 140.00 0.0071429 957.67 1037.1 3.0457 2.5409 3.1981 297.73 0.034015 20.161 0.063595 140.00 0.0071429 957.67 1037.1 3.0457 2.5409 3.1981 297.73 0.034015 20.161 0.063595
259.38 1618.5 undefined 960.22 1039.9 3.0505 140.00 0.0071429 960.22 1039.9 3.0505 2.5442 3.1986 298.41 0.033756 20.189 0.063758 140.00 0.0071429 960.22 1039.9 3.0505 2.5442 3.1986 298.41 0.033756 20.189 0.063758
260.38 1624.5 undefined 962.76 1042.8 3.0552 140.00 0.0071429 962.76 1042.8 3.0552 2.5475 3.1990 299.09 0.033501 20.217 0.063920 140.00 0.0071429 962.76 1042.8 3.0552 2.5475 3.1990 299.09 0.033501 20.217 0.063920
261.38 1630.5 undefined 965.31 1045.6 3.0600 140.00 0.0071429 965.31 1045.6 3.0600 2.5508 3.1995 299.77 0.033248 20.244 0.064083 140.00 0.0071429 965.31 1045.6 3.0600 2.5508 3.1995 299.77 0.033248 20.244 0.064083
262.38 1636.5 undefined 967.86 1048.5 3.0648 140.00 0.0071429 967.86 1048.5 3.0648 2.5541 3.2001 300.45 0.032997 20.272 0.064246 140.00 0.0071429 967.86 1048.5 3.0648 2.5541 3.2001 300.45 0.032997 20.272 0.064246
263.38 1642.4 undefined 970.42 1051.3 3.0696 140.00 0.0071429 970.42 1051.3 3.0696 2.5574 3.2007 301.13 0.032750 20.299 0.064409 140.00 0.0071429 970.42 1051.3 3.0696 2.5574 3.2007 301.13 0.032750 20.299 0.064409
264.38 1648.4 undefined 972.98 1054.2 3.0743 140.00 0.0071429 972.98 1054.2 3.0743 2.5607 3.2013 301.80 0.032505 20.326 0.064572 140.00 0.0071429 972.98 1054.2 3.0743 2.5607 3.2013 301.80 0.032505 20.326 0.064572
265.38 1654.4 undefined 975.54 1057.0 3.0791 140.00 0.0071429 975.54 1057.0 3.0791 2.5641 3.2019 302.47 0.032262 20.354 0.064735 140.00 0.0071429 975.54 1057.0 3.0791 2.5641 3.2019 302.47 0.032262 20.354 0.064735
266.38 1660.4 undefined 978.11 1059.9 3.0838 140.00 0.0071429 978.11 1059.9 3.0838 2.5674 3.2026 303.15 0.032022 20.381 0.064899 140.00 0.0071429 978.11 1059.9 3.0838 2.5674 3.2026 303.15 0.032022 20.381 0.064899
267.38 1666.4 undefined 980.68 1062.7 3.0886 140.00 0.0071429 980.68 1062.7 3.0886 2.5707 3.2033 303.82 0.031784 20.408 0.065062 140.00 0.0071429 980.68 1062.7 3.0886 2.5707 3.2033 303.82 0.031784 20.408 0.065062
268.38 1672.3 undefined 983.25 1065.6 3.0934 140.00 0.0071429 983.25 1065.6 3.0934 2.5740 3.2040 304.49 0.031549 20.436 0.065224 140.00 0.0071429 983.25 1065.6 3.0934 2.5740 3.2040 304.49 0.031549 20.436 0.065224
269.38 1678.3 undefined 985.82 1068.5 3.0981 140.00 0.0071429 985.82 1068.5 3.0981 2.5773 3.2048 305.15 0.031316 20.463 0.065387 140.00 0.0071429 985.82 1068.5 3.0981 2.5773 3.2048 305.15 0.031316 20.463 0.065387
270.38 1684.3 undefined 988.40 1071.4 3.1029 140.00 0.0071429 988.40 1071.4 3.1029 2.5806 3.2056 305.82 0.031085 20.490 0.065550 140.00 0.0071429 988.40 1071.4 3.1029 2.5806 3.2056 305.82 0.031085 20.490 0.065550
271.38 1690.3 undefined 990.99 1074.2 3.1076 140.00 0.0071429 990.99 1074.2 3.1076 2.5839 3.2064 306.48 0.030857 20.517 0.065712 140.00 0.0071429 990.99 1074.2 3.1076 2.5839 3.2064 306.48 0.030857 20.517 0.065712
272.38 1696.2 undefined 993.57 1077.1 3.1124 140.00 0.0071429 993.57 1077.1 3.1124 2.5872 3.2072 307.15 0.030631 20.544 0.065874 140.00 0.0071429 993.57 1077.1 3.1124 2.5872 3.2072 307.15 0.030631 20.544 0.065874
273.38 1702.2 undefined 996.16 1080.0 3.1171 140.00 0.0071429 996.16 1080.0 3.1171 2.5905 3.2081 307.81 0.030407 20.572 0.066035 140.00 0.0071429 996.16 1080.0 3.1171 2.5905 3.2081 307.81 0.030407 20.572 0.066035
274.38 1708.2 undefined 998.75 1082.9 3.1218 140.00 0.0071429 998.75 1082.9 3.1218 2.5938 3.2090 308.47 0.030186 20.599 0.066195 140.00 0.0071429 998.75 1082.9 3.1218 2.5938 3.2090 308.47 0.030186 20.599 0.066195
275.38 1714.2 undefined 1001.3 1085.8 3.1266 140.00 0.0071429 1001.3 1085.8 3.1266 2.5971 3.2099 309.13 0.029967 20.626 0.066355 140.00 0.0071429 1001.3 1085.8 3.1266 2.5971 3.2099 309.13 0.029967 20.626 0.066355
276.38 1720.1 undefined 1003.9 1088.7 3.1313 140.00 0.0071429 1003.9 1088.7 3.1313 2.6004 3.2108 309.78 0.029750 20.653 0.066513 140.00 0.0071429 1003.9 1088.7 3.1313 2.6004 3.2108 309.78 0.029750 20.653 0.066513
277.38 1726.1 undefined 1006.5 1091.6 3.1360 140.00 0.0071429 1006.5 1091.6 3.1360 2.6037 3.2118 310.44 0.029535 20.680 0.066669 140.00 0.0071429 1006.5 1091.6 3.1360 2.6037 3.2118 310.44 0.029535 20.680 0.066669
278.38 1732.0 undefined 1009.2 1094.5 3.1408 140.00 0.0071429 1009.2 1094.5 3.1408 2.6070 3.2128 311.09 0.029322 20.707 0.066823 140.00 0.0071429 1009.2 1094.5 3.1408 2.6070 3.2128 311.09 0.029322 20.707 0.066823
279.38 1738.0 undefined 1011.8 1097.4 3.1455 140.00 0.0071429 1011.8 1097.4 3.1455 2.6103 3.2138 311.75 0.029111 20.734 0.066972 140.00 0.0071429 1011.8 1097.4 3.1455 2.6103 3.2138 311.75 0.029111 20.734 0.066972
280.38 1744.0 undefined 1014.4 1100.3 3.1502 140.00 0.0071429 1014.4 1100.3 3.1502 2.6136 3.2149 312.40 0.028902 20.760 0.067113 140.00 0.0071429 1014.4 1100.3 3.1502 2.6136 3.2149 312.40 0.028902 20.760 0.067113
281.38 1749.9 undefined 1017.0 1103.2 3.1549 140.00 0.0071429 1017.0 1103.2 3.1549 2.6169 3.2159 313.05 0.028696 20.787 0.067228 140.00 0.0071429 1017.0 1103.2 3.1549 2.6169 3.2159 313.05 0.028696 20.787 0.067228
282.38 1755.9 undefined 1019.6 1106.1 3.1596 140.00 0.0071429 1019.6 1106.1 3.1596 2.6202 3.2170 313.70 0.028491 20.814 0.067364 140.00 0.0071429 1019.6 1106.1 3.1596 2.6202 3.2170 313.70 0.028491 20.814 0.067364
283.38 1761.9 undefined 1022.2 1109.0 3.1644 140.00 0.0071429 1022.2 1109.0 3.1644 2.6235 3.2181 314.34 0.028288 20.841 0.067547 140.00 0.0071429 1022.2 1109.0 3.1644 2.6235 3.2181 314.34 0.028288 20.841 0.067547
284.38 1767.8 undefined 1024.9 1111.9 3.1691 140.00 0.0071429 1024.9 1111.9 3.1691 2.6268 3.2193 314.99 0.028088 20.868 0.067730 140.00 0.0071429 1024.9 1111.9 3.1691 2.6268 3.2193 314.99 0.028088 20.868 0.067730
285.38 1773.8 undefined 1027.5 1114.8 3.1738 140.00 0.0071429 1027.5 1114.8 3.1738 2.6300 3.2204 315.64 0.027889 20.894 0.067914 140.00 0.0071429 1027.5 1114.8 3.1738 2.6300 3.2204 315.64 0.027889 20.894 0.067914
286.38 1779.7 undefined 1030.1 1117.8 3.1785 140.00 0.0071429 1030.1 1117.8 3.1785 2.6333 3.2216 316.28 0.027692 20.921 0.068098 140.00 0.0071429 1030.1 1117.8 3.1785 2.6333 3.2216 316.28 0.027692 20.921 0.068098
287.38 1785.7 undefined 1032.8 1120.7 3.1832 140.00 0.0071429 1032.8 1120.7 3.1832 2.6366 3.2228 316.92 0.027497 20.948 0.068282 140.00 0.0071429 1032.8 1120.7 3.1832 2.6366 3.2228 316.92 0.027497 20.948 0.068282
288.38 1791.6 undefined 1035.4 1123.6 3.1879 140.00 0.0071429 1035.4 1123.6 3.1879 2.6399 3.2240 317.56 0.027304 20.974 0.068467 140.00 0.0071429 1035.4 1123.6 3.1879 2.6399 3.2240 317.56 0.027304 20.974 0.068467
289.38 1797.6 undefined 1038.0 1126.6 3.1926 140.00 0.0071429 1038.0 1126.6 3.1926 2.6432 3.2253 318.20 0.027112 21.001 0.068651 140.00 0.0071429 1038.0 1126.6 3.1926 2.6432 3.2253 318.20 0.027112 21.001 0.068651
290.38 1803.5 undefined 1040.7 1129.5 3.1973 140.00 0.0071429 1040.7 1129.5 3.1973 2.6465 3.2265 318.84 0.026923 21.028 0.068836 140.00 0.0071429 1040.7 1129.5 3.1973 2.6465 3.2265 318.84 0.026923 21.028 0.068836
291.38 1809.5 undefined 1043.3 1132.4 3.2020 140.00 0.0071429 1043.3 1132.4 3.2020 2.6497 3.2278 319.48 0.026735 21.054 0.069022 140.00 0.0071429 1043.3 1132.4 3.2020 2.6497 3.2278 319.48 0.026735 21.054 0.069022
292.38 1815.4 undefined 1046.0 1135.4 3.2067 140.00 0.0071429 1046.0 1135.4 3.2067 2.6530 3.2291 320.11 0.026549 21.081 0.069208 140.00 0.0071429 1046.0 1135.4 3.2067 2.6530 3.2291 320.11 0.026549 21.081 0.069208
293.38 1821.4 undefined 1048.6 1138.3 3.2114 140.00 0.0071429 1048.6 1138.3 3.2114 2.6563 3.2304 320.75 0.026365 21.107 0.069394 140.00 0.0071429 1048.6 1138.3 3.2114 2.6563 3.2304 320.75 0.026365 21.107 0.069394
294.38 1827.3 undefined 1051.3 1141.3 3.2161 140.00 0.0071429 1051.3 1141.3 3.2161 2.6596 3.2317 321.38 0.026182 21.134 0.069580 140.00 0.0071429 1051.3 1141.3 3.2161 2.6596 3.2317 321.38 0.026182 21.134 0.069580
295.38 1833.3 undefined 1053.9 1144.2 3.2207 140.00 0.0071429 1053.9 1144.2 3.2207 2.6629 3.2331 322.01 0.026002 21.160 0.069767 140.00 0.0071429 1053.9 1144.2 3.2207 2.6629 3.2331 322.01 0.026002 21.160 0.069767
296.38 1839.2 undefined 1056.6 1147.2 3.2254 140.00 0.0071429 1056.6 1147.2 3.2254 2.6661 3.2344 322.64 0.025822 21.187 0.069953 140.00 0.0071429 1056.6 1147.2 3.2254 2.6661 3.2344 322.64 0.025822 21.187 0.069953
297.38 1845.1 undefined 1059.3 1150.2 3.2301 140.00 0.0071429 1059.3 1150.2 3.2301 2.6694 3.2358 323.27 0.025645 21.213 0.070141 140.00 0.0071429 1059.3 1150.2 3.2301 2.6694 3.2358 323.27 0.025645 21.213 0.070141
298.38 1851.1 undefined 1062.0 1153.1 3.2348 140.00 0.0071429 1062.0 1153.1 3.2348 2.6727 3.2372 323.90 0.025469 21.239 0.070328 140.00 0.0071429 1062.0 1153.1 3.2348 2.6727 3.2372 323.90 0.025469 21.239 0.070328
299.38 1857.0 undefined 1064.6 1156.1 3.2395 140.00 0.0071429 1064.6 1156.1 3.2395 2.6759 3.2386 324.52 0.025295 21.266 0.070516 140.00 0.0071429 1064.6 1156.1 3.2395 2.6759 3.2386 324.52 0.025295 21.266 0.070516
300.38 1863.0 undefined 1067.3 1159.1 3.2441 140.00 0.0071429 1067.3 1159.1 3.2441 2.6792 3.2401 325.15 0.025122 21.292 0.070704 140.00 0.0071429 1067.3 1159.1 3.2441 2.6792 3.2401 325.15 0.025122 21.292 0.070704