Temperature (C) Pressure (psia) Quality (l+v) Internal Energy (l+v, kJ/kg) Enthalpy (l+v, kJ/kg) Entropy (l+v, J/g*K) Density (l, kg/m3) Volume (l, m3/kg) Internal Energy (l, kJ/kg) Enthalpy (l, kJ/kg) Entropy (l, J/g*K) Cv (l, J/g*K) Cp (l, J/g*K) Sound Spd. (l, m/s) Joule-Thomson (l, F/psia) Viscosity (l, uPa*s) Therm. Cond. (l, W/m*K) Density (v, kg/m3) Volume (v, m3/kg) Internal Energy (v, kJ/kg) Enthalpy (v, kJ/kg) Entropy (v, J/g*K) Cv (v, J/g*K) Cp (v, J/g*K) Sound Spd. (v, m/s) Joule-Thomson (v, F/psia) Viscosity (v, uPa*s) Therm. Cond. (v, W/m*K)
-187.62 2.4953e-08 4.8205e-11 -196.64 -196.64 -1.3959 733.13 0.0013640 -196.64 -196.64 -1.3959 1.3553 1.9158 2136.4 -0.0077592 10960. 0.20792 1.0669e-08 9.3732e+07 350.13 366.26 5.1858 0.69067 0.87923 143.28 6.1051 2.3259 0.0017061
-186.62 3.7339e-08 7.1269e-11 -194.73 -194.73 -1.3736 732.08 0.0013660 -194.73 -194.73 -1.3736 1.3539 1.9166 2129.6 -0.0077546 10073. 0.20765 1.5780e-08 6.3371e+07 350.82 367.14 5.1200 0.69462 0.88317 144.03 5.9178 2.3534 0.0017533
-185.62 5.5322e-08 1.0434e-10 -192.81 -192.81 -1.3516 731.04 0.0013679 -192.81 -192.81 -1.3516 1.3525 1.9174 2122.9 -0.0077498 9276.1 0.20737 2.3112e-08 4.3267e+07 351.52 368.02 5.0561 0.69857 0.88713 144.77 5.7383 2.3808 0.0018007
-184.62 8.1182e-08 1.5132e-10 -190.89 -190.89 -1.3298 730.00 0.0013699 -190.89 -190.89 -1.3298 1.3513 1.9182 2116.1 -0.0077448 8557.8 0.20708 3.3533e-08 2.9821e+07 352.22 368.91 4.9939 0.70253 0.89108 145.51 5.5662 2.4083 0.0018485
-183.62 1.1803e-07 2.1746e-10 -188.97 -188.97 -1.3083 728.96 0.0013718 -188.97 -188.97 -1.3083 1.3501 1.9191 2109.3 -0.0077395 7909.8 0.20678 4.8211e-08 2.0742e+07 352.92 369.81 4.9333 0.70648 0.89504 146.24 5.4011 2.4357 0.0018965
-182.62 1.7009e-07 3.0976e-10 -187.05 -187.05 -1.2869 727.92 0.0013738 -187.05 -187.05 -1.2869 1.3490 1.9201 2102.5 -0.0077340 7324.3 0.20647 6.8704e-08 1.4555e+07 353.63 370.70 4.8744 0.71043 0.89899 146.97 5.2426 2.4632 0.0019448
-181.62 2.4299e-07 4.3750e-10 -185.13 -185.13 -1.2658 726.88 0.0013757 -185.13 -185.13 -1.2658 1.3480 1.9210 2095.7 -0.0077283 6794.5 0.20616 9.7079e-08 1.0301e+07 354.35 371.60 4.8170 0.71438 0.90294 147.69 5.0904 2.4906 0.0019934
-180.62 3.4425e-07 6.1285e-10 -183.21 -183.21 -1.2450 725.85 0.0013777 -183.21 -183.21 -1.2450 1.3470 1.9220 2088.9 -0.0077225 6314.4 0.20584 1.3605e-07 7.3504e+06 355.06 372.51 4.7612 0.71833 0.90688 148.41 4.9442 2.5181 0.0020423
-179.62 4.8378e-07 8.5168e-10 -181.29 -181.29 -1.2243 724.81 0.0013797 -181.29 -181.29 -1.2243 1.3461 1.9231 2082.0 -0.0077164 5878.8 0.20551 1.8915e-07 5.2868e+06 355.78 373.42 4.7068 0.72227 0.91082 149.13 4.8038 2.5456 0.0020915
-178.62 6.7459e-07 1.1745e-09 -179.37 -179.37 -1.2038 723.78 0.0013816 -179.37 -179.37 -1.2038 1.3453 1.9241 2075.2 -0.0077102 5482.9 0.20517 2.6096e-07 3.8320e+06 356.51 374.33 4.6538 0.72620 0.91475 149.84 4.6688 2.5731 0.0021410
-177.62 9.3358e-07 1.6077e-09 -177.44 -177.44 -1.1836 722.75 0.0013836 -177.44 -177.44 -1.1836 1.3445 1.9252 2068.4 -0.0077039 5122.6 0.20483 3.5737e-07 2.7982e+06 357.23 375.25 4.6022 0.73012 0.91867 150.54 4.5390 2.6005 0.0021907
-176.62 1.2826e-06 2.1849e-09 -175.52 -175.52 -1.1635 721.72 0.0013856 -175.52 -175.52 -1.1635 1.3437 1.9263 2061.5 -0.0076973 4794.1 0.20447 4.8588e-07 2.0581e+06 357.97 376.17 4.5519 0.73403 0.92258 151.25 4.4142 2.6280 0.0022408
-175.62 1.7496e-06 2.9486e-09 -173.59 -173.59 -1.1437 720.69 0.0013876 -173.59 -173.59 -1.1437 1.3430 1.9274 2054.7 -0.0076907 4494.3 0.20411 6.5601e-07 1.5244e+06 358.70 377.09 4.5029 0.73792 0.92648 151.95 4.2941 2.6555 0.0022912
-174.62 2.3705e-06 3.9526e-09 -171.66 -171.66 -1.1240 719.66 0.0013895 -171.66 -171.66 -1.1240 1.3423 1.9286 2047.9 -0.0076838 4220.2 0.20375 8.7976e-07 1.1367e+06 359.44 378.02 4.4551 0.74181 0.93036 152.64 4.1784 2.6830 0.0023418
-173.62 3.1903e-06 5.2639e-09 -169.73 -169.73 -1.1045 718.64 0.0013915 -169.73 -169.73 -1.1045 1.3417 1.9298 2041.0 -0.0076769 3969.3 0.20338 1.1721e-06 8.5314e+05 360.19 378.95 4.4085 0.74568 0.93423 153.33 4.0671 2.7105 0.0023928
-172.62 4.2661e-06 6.9658e-09 -167.80 -167.80 -1.0852 717.61 0.0013935 -167.80 -167.80 -1.0852 1.3411 1.9310 2034.2 -0.0076698 3739.3 0.20300 1.5518e-06 6.4441e+05 360.93 379.89 4.3631 0.74953 0.93809 154.02 3.9599 2.7379 0.0024440
-171.62 5.6692e-06 9.1617e-09 -165.87 -165.87 -1.0661 716.58 0.0013955 -165.87 -165.87 -1.0661 1.3405 1.9322 2027.3 -0.0076625 3528.0 0.20261 2.0419e-06 4.8974e+05 361.69 380.83 4.3188 0.75337 0.94193 154.71 3.8566 2.7654 0.0024955
-170.62 7.4884e-06 1.1978e-08 -163.94 -163.94 -1.0472 715.56 0.0013975 -163.94 -163.94 -1.0472 1.3400 1.9334 2020.5 -0.0076552 3333.8 0.20222 2.6708e-06 3.7442e+05 362.44 381.77 4.2755 0.75720 0.94575 155.39 3.7570 2.7929 0.0025473
-169.62 9.8334e-06 1.5570e-08 -162.00 -162.00 -1.0284 714.54 0.0013995 -162.00 -162.00 -1.0284 1.3395 1.9347 2013.6 -0.0076477 3154.9 0.20182 3.4733e-06 2.8791e+05 363.20 382.72 4.2334 0.76100 0.94956 156.07 3.6609 2.8204 0.0025994
-168.62 1.2839e-05 2.0126e-08 -160.07 -160.07 -1.0098 713.52 0.0014015 -160.07 -160.07 -1.0098 1.3390 1.9359 2006.8 -0.0076401 2989.9 0.20141 4.4917e-06 2.2263e+05 363.96 383.67 4.1922 0.76479 0.95335 156.74 3.5683 2.8479 0.0026518
-167.62 1.6672e-05 2.5875e-08 -158.13 -158.13 -0.99134 712.49 0.0014035 -158.13 -158.13 -0.99134 1.3386 1.9372 2000.0 -0.0076323 2837.5 0.20100 5.7771e-06 1.7310e+05 364.73 384.63 4.1521 0.76856 0.95712 157.41 3.4790 2.8754 0.0027045
-166.62 2.1533e-05 3.3090e-08 -156.19 -156.19 -0.97306 711.47 0.0014055 -156.19 -156.19 -0.97306 1.3382 1.9385 1993.1 -0.0076245 2696.5 0.20058 7.3914e-06 1.3529e+05 365.50 385.59 4.1129 0.77232 0.96087 158.08 3.3927 2.9029 0.0027575
-165.62 2.7666e-05 4.2101e-08 -154.25 -154.25 -0.95494 710.45 0.0014075 -154.25 -154.25 -0.95494 1.3378 1.9398 1986.3 -0.0076165 2566.0 0.20016 9.4084e-06 1.0629e+05 366.27 386.55 4.0746 0.77605 0.96460 158.75 3.3095 2.9304 0.0028108
-164.62 3.5367e-05 5.3299e-08 -152.31 -152.31 -0.93698 709.44 0.0014096 -152.31 -152.31 -0.93698 1.3375 1.9411 1979.4 -0.0076084 2444.9 0.19973 1.1916e-05 83918. 367.05 387.52 4.0372 0.77976 0.96832 159.41 3.2291 2.9579 0.0028643
-163.62 4.4989e-05 6.7151e-08 -150.37 -150.37 -0.91917 708.42 0.0014116 -150.37 -150.37 -0.91917 1.3371 1.9424 1972.6 -0.0076002 2332.3 0.19930 1.5020e-05 66577. 367.83 388.49 4.0008 0.78346 0.97201 160.07 3.1514 2.9854 0.0029182
-162.62 5.6956e-05 8.4207e-08 -148.43 -148.43 -0.90151 707.40 0.0014136 -148.43 -148.43 -0.90151 1.3368 1.9437 1965.8 -0.0075919 2227.7 0.19886 1.8844e-05 53068. 368.62 389.46 3.9651 0.78713 0.97569 160.72 3.0764 3.0129 0.0029723
-161.62 7.1773e-05 1.0511e-07 -146.48 -146.48 -0.88400 706.38 0.0014157 -146.48 -146.48 -0.88400 1.3365 1.9451 1959.0 -0.0075834 2130.2 0.19841 2.3533e-05 42494. 369.41 390.44 3.9304 0.79079 0.97935 161.38 3.0038 3.0404 0.0030268
-160.62 9.0036e-05 1.3063e-07 -144.54 -144.54 -0.86663 705.37 0.0014177 -144.54 -144.54 -0.86663 1.3363 1.9465 1952.1 -0.0075748 2039.2 0.19796 2.9258e-05 34178. 370.20 391.42 3.8964 0.79443 0.98298 162.03 2.9337 3.0679 0.0030815
-159.62 0.00011245 1.6164e-07 -142.59 -142.59 -0.84940 704.35 0.0014197 -142.59 -142.59 -0.84940 1.3360 1.9478 1945.3 -0.0075661 1954.2 0.19751 3.6221e-05 27609. 371.00 392.40 3.8632 0.79805 0.98660 162.68 2.8658 3.0955 0.0031365
-158.62 0.00013985 1.9917e-07 -140.64 -140.64 -0.83231 703.34 0.0014218 -140.64 -140.64 -0.83231 1.3358 1.9492 1938.5 -0.0075573 1874.8 0.19705 4.4652e-05 22395. 371.80 393.39 3.8307 0.80164 0.99020 163.32 2.8002 3.1230 0.0031918
-157.62 0.00017320 2.4442e-07 -138.69 -138.69 -0.81536 702.32 0.0014238 -138.69 -138.69 -0.81536 1.3356 1.9506 1931.7 -0.0075484 1800.3 0.19658 5.4822e-05 18241. 372.60 394.38 3.7990 0.80522 0.99378 163.96 2.7367 3.1505 0.0032474
-156.62 0.00021364 2.9876e-07 -136.74 -136.74 -0.79854 701.31 0.0014259 -136.74 -136.74 -0.79854 1.3354 1.9520 1924.9 -0.0075393 1730.5 0.19611 6.7040e-05 14916. 373.41 395.38 3.7680 0.80878 0.99734 164.60 2.6752 3.1780 0.0033033
-155.62 0.00026248 3.6377e-07 -134.79 -134.79 -0.78185 700.30 0.0014280 -134.79 -134.79 -0.78185 1.3352 1.9534 1918.1 -0.0075302 1664.9 0.19564 8.1666e-05 12245. 374.22 396.38 3.7377 0.81232 1.0009 165.24 2.6157 3.2055 0.0033595
-154.62 0.00032125 4.4127e-07 -132.83 -132.83 -0.76530 699.29 0.0014300 -132.83 -132.83 -0.76530 1.3350 1.9548 1911.3 -0.0075209 1603.3 0.19516 9.9109e-05 10090. 375.03 397.38 3.7081 0.81585 1.0044 165.87 2.5580 3.2330 0.0034160
-153.62 0.00039171 5.3331e-07 -130.88 -130.88 -0.74887 698.27 0.0014321 -130.88 -130.88 -0.74887 1.3349 1.9563 1904.5 -0.0075114 1545.3 0.19468 0.00011984 8344.6 375.85 398.39 3.6792 0.81935 1.0079 166.50 2.5022 3.2606 0.0034727
-152.62 0.00047590 6.4225e-07 -128.92 -128.92 -0.73256 697.26 0.0014342 -128.92 -128.92 -0.73256 1.3348 1.9577 1897.8 -0.0075019 1490.6 0.19419 0.00014439 6925.9 376.67 399.40 3.6509 0.82284 1.0114 167.13 2.4481 3.2881 0.0035298
-151.62 0.00057613 7.7076e-07 -126.96 -126.96 -0.71638 696.25 0.0014363 -126.96 -126.96 -0.71638 1.3346 1.9592 1891.0 -0.0074922 1438.9 0.19370 0.00017336 5768.4 377.49 400.41 3.6232 0.82631 1.0149 167.76 2.3957 3.3156 0.0035872
-150.62 0.00069507 9.2186e-07 -125.00 -125.00 -0.70032 695.24 0.0014384 -125.00 -125.00 -0.70032 1.3345 1.9606 1884.2 -0.0074824 1390.2 0.19320 0.00020744 4820.7 378.32 401.42 3.5962 0.82976 1.0183 168.38 2.3448 3.3431 0.0036448
-149.62 0.00083574 1.0989e-06 -123.04 -123.04 -0.68437 694.23 0.0014404 -123.04 -123.04 -0.68438 1.3345 1.9621 1877.4 -0.0074724 1344.0 0.19270 0.00024740 4042.0 379.15 402.44 3.5697 0.83319 1.0218 169.00 2.2956 3.3706 0.0037027
-148.62 0.0010016 1.3058e-06 -121.08 -121.08 -0.66854 693.22 0.0014425 -121.08 -121.08 -0.66855 1.3344 1.9636 1870.7 -0.0074623 1300.3 0.19220 0.00029412 3400.0 379.99 403.47 3.5438 0.83661 1.0252 169.62 2.2478 3.3982 0.0037610
-147.62 0.0011965 1.5468e-06 -119.11 -119.11 -0.65283 692.21 0.0014447 -119.11 -119.11 -0.65284 1.3343 1.9651 1863.9 -0.0074521 1258.9 0.19169 0.00034856 2869.0 380.83 404.49 3.5185 0.84001 1.0286 170.24 2.2014 3.4257 0.0038195
-146.62 0.0014249 1.8266e-06 -117.15 -117.15 -0.63723 691.20 0.0014468 -117.15 -117.15 -0.63724 1.3343 1.9666 1857.2 -0.0074417 1219.6 0.19117 0.00041181 2428.3 381.67 405.52 3.4938 0.84340 1.0320 170.85 2.1565 3.4532 0.0038783
-145.62 0.0016917 2.1507e-06 -115.18 -115.18 -0.62174 690.19 0.0014489 -115.18 -115.18 -0.62175 1.3343 1.9682 1850.4 -0.0074312 1182.3 0.19066 0.00048510 2061.4 382.51 406.56 3.4695 0.84677 1.0353 171.46 2.1128 3.4807 0.0039374
-144.62 0.0020026 2.5248e-06 -113.21 -113.21 -0.60636 689.18 0.0014510 -113.21 -113.21 -0.60637 1.3343 1.9697 1843.7 -0.0074206 1146.8 0.19014 0.00056976 1755.1 383.36 407.59 3.4458 0.85012 1.0387 172.07 2.0705 3.5082 0.0039967
-143.62 0.0023637 2.9557e-06 -111.24 -111.24 -0.59109 688.17 0.0014531 -111.24 -111.24 -0.59110 1.3343 1.9713 1836.9 -0.0074098 1113.0 0.18962 0.00066731 1498.6 384.21 408.63 3.4226 0.85346 1.0420 172.68 2.0294 3.5358 0.0040564
-142.62 0.0027820 3.4504e-06 -109.27 -109.27 -0.57592 687.16 0.0014553 -109.27 -109.27 -0.57593 1.3343 1.9728 1830.2 -0.0073988 1080.8 0.18909 0.00077939 1283.1 385.07 409.68 3.3999 0.85679 1.0454 173.28 1.9896 3.5633 0.0041164
-141.62 0.0032653 4.0171e-06 -107.29 -107.29 -0.56085 686.15 0.0014574 -107.30 -107.30 -0.56087 1.3343 1.9744 1823.5 -0.0073878 1050.1 0.18856 0.00090784 1101.5 385.93 410.72 3.3777 0.86011 1.0487 173.88 1.9508 3.5908 0.0041766
-140.62 0.0038222 4.6646e-06 -105.32 -105.32 -0.54589 685.14 0.0014596 -105.32 -105.32 -0.54591 1.3344 1.9760 1816.7 -0.0073765 1020.7 0.18803 0.0010547 948.16 386.79 411.77 3.3560 0.86341 1.0520 174.48 1.9133 3.6183 0.0042372
-139.62 0.0044623 5.4025e-06 -103.34 -103.34 -0.53103 684.13 0.0014617 -103.34 -103.34 -0.53105 1.3344 1.9776 1810.0 -0.0073651 992.74 0.18749 0.0012221 818.26 387.65 412.83 3.3347 0.86670 1.0553 175.08 1.8768 3.6459 0.0042980
-138.62 0.0051963 6.2413e-06 -101.36 -101.36 -0.51626 683.12 0.0014639 -101.37 -101.37 -0.51629 1.3345 1.9792 1803.3 -0.0073536 965.97 0.18695 0.0014125 707.94 388.52 413.88 3.3139 0.86998 1.0586 175.67 1.8413 3.6734 0.0043592
-137.62 0.0060358 7.1927e-06 -99.383 -99.382 -0.50159 682.11 0.0014660 -99.386 -99.386 -0.50162 1.3346 1.9808 1796.6 -0.0073419 940.35 0.18641 0.0016287 614.00 389.39 414.94 3.2935 0.87325 1.0619 176.26 1.8069 3.7009 0.0044206
-136.62 0.0069938 8.2692e-06 -97.400 -97.400 -0.48702 681.10 0.0014682 -97.404 -97.404 -0.48705 1.3347 1.9825 1789.9 -0.0073301 915.81 0.18586 0.0018733 533.80 390.26 416.00 3.2735 0.87650 1.0651 176.85 1.7734 3.7284 0.0044823
-135.62 0.0080843 9.4846e-06 -95.417 -95.416 -0.47254 680.09 0.0014704 -95.421 -95.421 -0.47258 1.3348 1.9841 1783.2 -0.0073180 892.30 0.18531 0.0021497 465.17 391.14 417.07 3.2540 0.87975 1.0684 177.44 1.7409 3.7559 0.0045443
-134.62 0.0093230 1.0854e-05 -93.431 -93.431 -0.45816 679.08 0.0014726 -93.436 -93.436 -0.45820 1.3350 1.9858 1776.5 -0.0073059 869.75 0.18476 0.0024613 406.30 392.02 418.14 3.2348 0.88299 1.0716 178.02 1.7093 3.7834 0.0046066
-133.62 0.010727 1.2393e-05 -91.444 -91.443 -0.44386 678.07 0.0014748 -91.450 -91.449 -0.44391 1.3351 1.9875 1769.8 -0.0072935 848.11 0.18421 0.0028116 355.67 392.91 419.21 3.2161 0.88622 1.0749 178.61 1.6786 3.8109 0.0046691
-132.62 0.012315 1.4119e-05 -89.454 -89.454 -0.42966 677.06 0.0014770 -89.461 -89.461 -0.42971 1.3353 1.9892 1763.1 -0.0072810 827.32 0.18365 0.0032049 312.03 393.79 420.29 3.1977 0.88944 1.0781 179.19 1.6488 3.8385 0.0047320
-131.62 0.014106 1.6051e-05 -87.463 -87.463 -0.41554 676.04 0.0014792 -87.471 -87.471 -0.41560 1.3354 1.9909 1756.4 -0.0072684 807.34 0.18309 0.0036453 274.33 394.68 421.36 3.1798 0.89266 1.0813 179.76 1.6197 3.8660 0.0047951
-130.62 0.016124 1.8209e-05 -85.471 -85.470 -0.40151 675.03 0.0014814 -85.479 -85.479 -0.40157 1.3356 1.9926 1749.7 -0.0072555 788.12 0.18253 0.0041375 241.69 395.58 422.44 3.1622 0.89586 1.0846 180.34 1.5915 3.8935 0.0048586
-129.62 0.018392 2.0616e-05 -83.476 -83.475 -0.38756 674.02 0.0014836 -83.486 -83.486 -0.38763 1.3358 1.9944 1743.0 -0.0072425 769.63 0.18196 0.0046867 213.37 396.47 423.53 3.1450 0.89906 1.0878 180.91 1.5641 3.9210 0.0049223
-128.62 0.020935 2.3293e-05 -81.479 -81.479 -0.37370 673.01 0.0014859 -81.491 -81.490 -0.37378 1.3360 1.9961 1736.3 -0.0072294 751.83 0.18140 0.0052981 188.75 397.37 424.62 3.1281 0.90226 1.0910 181.48 1.5374 3.9485 0.0049863
-127.62 0.023783 2.6267e-05 -79.481 -79.480 -0.35992 672.00 0.0014881 -79.494 -79.493 -0.36001 1.3363 1.9979 1729.6 -0.0072160 734.67 0.18083 0.0059776 167.29 398.27 425.71 3.1116 0.90545 1.0942 182.05 1.5114 3.9760 0.0050506
-126.62 0.026966 2.9564e-05 -77.481 -77.480 -0.34622 670.98 0.0014904 -77.495 -77.495 -0.34632 1.3365 1.9997 1722.9 -0.0072025 718.14 0.18025 0.0067313 148.56 399.18 426.80 3.0954 0.90863 1.0974 182.62 1.4861 4.0035 0.0051152
-125.62 0.030515 3.3213e-05 -75.478 -75.477 -0.33260 669.97 0.0014926 -75.494 -75.494 -0.33272 1.3368 2.0015 1716.2 -0.0071888 702.18 0.17968 0.0075660 132.17 400.09 427.89 3.0795 0.91181 1.1006 183.18 1.4615 4.0310 0.0051800
-124.62 0.034467 3.7244e-05 -73.474 -73.473 -0.31906 668.95 0.0014949 -73.492 -73.492 -0.31919 1.3371 2.0033 1709.5 -0.0071749 686.79 0.17910 0.0084885 117.81 401.00 428.99 3.0640 0.91499 1.1038 183.74 1.4375 4.0584 0.0052452
-123.62 0.038859 4.1689e-05 -71.468 -71.466 -0.30560 667.94 0.0014971 -71.488 -71.487 -0.30574 1.3374 2.0051 1702.8 -0.0071609 671.93 0.17852 0.0095065 105.19 401.91 430.10 3.0488 0.91816 1.1070 184.30 1.4141 4.0859 0.0053106
-122.62 0.043731 4.6582e-05 -69.460 -69.458 -0.29221 666.92 0.0014994 -69.482 -69.481 -0.29237 1.3377 2.0070 1696.2 -0.0071466 657.57 0.17794 0.010628 94.092 402.83 431.20 3.0339 0.92134 1.1102 184.86 1.3913 4.1134 0.0053764
-121.62 0.049128 5.1961e-05 -67.449 -67.447 -0.27890 665.91 0.0015017 -67.474 -67.473 -0.27907 1.3380 2.0089 1689.5 -0.0071322 643.70 0.17736 0.011861 84.309 403.75 432.31 3.0193 0.92451 1.1134 185.41 1.3691 4.1409 0.0054424
-120.62 0.055096 5.7863e-05 -65.437 -65.434 -0.26566 664.89 0.0015040 -65.464 -65.463 -0.26585 1.3384 2.0107 1682.8 -0.0071176 630.28 0.17678 0.013215 75.669 404.67 433.42 3.0050 0.92767 1.1166 185.96 1.3475 4.1683 0.0055087
-119.62 0.061684 6.4329e-05 -63.422 -63.420 -0.25250 663.87 0.0015063 -63.452 -63.452 -0.25271 1.3387 2.0126 1676.1 -0.0071028 617.30 0.17619 0.014700 68.027 405.60 434.53 2.9909 0.93084 1.1198 186.51 1.3264 4.1958 0.0055752
-118.62 0.068946 7.1403e-05 -61.405 -61.402 -0.23940 662.86 0.0015086 -61.439 -61.438 -0.23963 1.3391 2.0146 1669.4 -0.0070878 604.74 0.17560 0.016325 61.255 406.53 435.64 2.9772 0.93401 1.1231 187.06 1.3058 4.2233 0.0056421
-117.62 0.076937 7.9130e-05 -59.386 -59.383 -0.22638 661.84 0.0015109 -59.423 -59.422 -0.22663 1.3395 2.0165 1662.8 -0.0070726 592.58 0.17501 0.018101 55.245 407.46 436.76 2.9638 0.93718 1.1263 187.60 1.2857 4.2507 0.0057092
-116.62 0.085718 8.7557e-05 -57.365 -57.361 -0.21342 660.82 0.0015133 -57.406 -57.405 -0.21370 1.3400 2.0184 1656.1 -0.0070573 580.80 0.17442 0.020040 49.901 408.39 437.88 2.9506 0.94035 1.1295 188.14 1.2660 4.2782 0.0057767
-115.62 0.095353 9.6736e-05 -55.341 -55.337 -0.20054 659.80 0.0015156 -55.386 -55.385 -0.20084 1.3404 2.0204 1649.4 -0.0070417 569.38 0.17383 0.022152 45.142 409.33 439.01 2.9377 0.94352 1.1327 188.68 1.2468 4.3056 0.0058444
-114.62 0.10591 0.00010672 -53.315 -53.311 -0.18772 658.78 0.0015180 -53.365 -53.364 -0.18805 1.3409 2.0224 1642.7 -0.0070260 558.32 0.17323 0.024451 40.898 410.27 440.13 2.9250 0.94669 1.1360 189.22 1.2281 4.3330 0.0059123
-113.62 0.11746 0.00011756 -51.287 -51.282 -0.17496 657.76 0.0015203 -51.342 -51.340 -0.17533 1.3413 2.0244 1636.0 -0.0070100 547.59 0.17264 0.026949 37.107 411.21 441.26 2.9126 0.94987 1.1392 189.75 1.2097 4.3604 0.0059806
-112.62 0.13008 0.00012932 -49.256 -49.251 -0.16227 656.73 0.0015227 -49.316 -49.315 -0.16267 1.3418 2.0264 1629.3 -0.0069938 537.18 0.17204 0.029661 33.715 412.16 442.39 2.9005 0.95305 1.1424 190.28 1.1918 4.3879 0.0060491
-111.62 0.14384 0.00014205 -47.223 -47.218 -0.14965 655.71 0.0015251 -47.289 -47.287 -0.15008 1.3424 2.0285 1622.7 -0.0069774 527.08 0.17144 0.032600 30.675 413.10 443.53 2.8885 0.95623 1.1457 190.81 1.1742 4.4153 0.0061180
-110.62 0.15884 0.00015583 -45.188 -45.181 -0.13708 654.69 0.0015274 -45.259 -45.258 -0.13755 1.3429 2.0305 1616.0 -0.0069609 517.28 0.17084 0.035781 27.948 414.06 444.66 2.8769 0.95942 1.1490 191.34 1.1570 4.4427 0.0061871
-109.62 0.17516 0.00017071 -43.150 -43.142 -0.12458 653.66 0.0015298 -43.228 -43.226 -0.12509 1.3435 2.0326 1609.3 -0.0069441 507.76 0.17024 0.039220 25.497 415.01 445.80 2.8654 0.96261 1.1522 191.86 1.1402 4.4701 0.0062564
-108.62 0.19290 0.00018677 -41.109 -41.101 -0.11214 652.64 0.0015322 -41.194 -41.192 -0.11269 1.3441 2.0347 1602.6 -0.0069271 498.51 0.16964 0.042933 23.292 415.96 446.94 2.8542 0.96581 1.1555 192.38 1.1236 4.4974 0.0063261
-107.62 0.21215 0.00020408 -39.065 -39.057 -0.099756 651.61 0.0015347 -39.158 -39.156 -0.10036 1.3447 2.0369 1595.9 -0.0069098 489.52 0.16903 0.046937 21.305 416.92 448.09 2.8433 0.96901 1.1588 192.90 1.1075 4.5248 0.0063960
-106.62 0.23301 0.00022271 -37.019 -37.010 -0.087432 650.58 0.0015371 -37.120 -37.118 -0.088082 1.3453 2.0390 1589.2 -0.0068924 480.79 0.16843 0.051250 19.512 417.88 449.23 2.8325 0.97222 1.1621 193.41 1.0916 4.5522 0.0064662
-105.62 0.25561 0.00024275 -34.970 -34.960 -0.075165 649.55 0.0015395 -35.080 -35.078 -0.075868 1.3460 2.0412 1582.6 -0.0068747 472.30 0.16782 0.055891 17.892 418.85 450.38 2.8220 0.97544 1.1655 193.93 1.0760 4.5795 0.0065367
-104.62 0.28004 0.00026426 -32.919 -32.907 -0.062954 648.52 0.0015420 -33.038 -33.035 -0.063714 1.3467 2.0434 1575.9 -0.0068569 464.04 0.16721 0.060878 16.426 419.81 451.53 2.8116 0.97867 1.1688 194.44 1.0608 4.6069 0.0066074
-103.62 0.30643 0.00028734 -30.864 -30.852 -0.050799 647.49 0.0015444 -30.994 -30.991 -0.051619 1.3474 2.0456 1569.2 -0.0068387 456.00 0.16660 0.066231 15.099 420.78 452.68 2.8015 0.98191 1.1722 194.94 1.0458 4.6342 0.0066785
-102.62 0.33490 0.00031206 -28.807 -28.793 -0.038698 646.46 0.0015469 -28.947 -28.944 -0.039582 1.3481 2.0478 1562.5 -0.0068204 448.18 0.16600 0.071971 13.894 421.75 453.84 2.7916 0.98516 1.1755 195.44 1.0310 4.6615 0.0067498
-101.62 0.36558 0.00033853 -26.746 -26.731 -0.026651 645.43 0.0015494 -26.898 -26.894 -0.027602 1.3489 2.0501 1555.8 -0.0068018 440.57 0.16539 0.078120 12.801 422.73 454.99 2.7818 0.98841 1.1789 195.95 1.0166 4.6888 0.0068213
-100.62 0.39862 0.00036684 -24.683 -24.667 -0.014655 644.39 0.0015519 -24.847 -24.843 -0.015678 1.3497 2.0524 1549.1 -0.0067830 433.16 0.16478 0.084699 11.807 423.70 456.15 2.7723 0.99168 1.1823 196.44 1.0024 4.7161 0.0068932
-99.625 0.43414 0.00039707 -22.616 -22.599 -0.0027117 643.36 0.0015544 -22.794 -22.789 -0.0038103 1.3505 2.0547 1542.4 -0.0067639 425.95 0.16416 0.091731 10.901 424.68 457.31 2.7630 0.99496 1.1858 196.94 0.98838 4.7434 0.0069653
-98.625 0.47230 0.00042933 -20.546 -20.527 0.0091816 642.32 0.0015569 -20.738 -20.733 0.0080027 1.3514 2.0570 1535.7 -0.0067447 418.92 0.16355 0.099240 10.077 425.66 458.48 2.7538 0.99825 1.1892 197.43 0.97464 4.7707 0.0070377
-97.625 0.51325 0.00046372 -18.473 -18.453 0.021025 641.28 0.0015594 -18.680 -18.674 0.019762 1.3522 2.0594 1529.0 -0.0067251 412.07 0.16294 0.10725 9.3239 426.65 459.64 2.7448 1.0016 1.1927 197.92 0.96112 4.7979 0.0071103
-96.625 0.55714 0.00050035 -16.397 -16.375 0.032820 640.24 0.0015619 -16.620 -16.614 0.031467 1.3531 2.0618 1522.3 -0.0067053 405.39 0.16233 0.11579 8.6365 427.63 460.81 2.7360 1.0049 1.1962 198.40 0.94783 4.8251 0.0071832
-95.625 0.60416 0.00053932 -14.318 -14.293 0.044568 639.20 0.0015645 -14.557 -14.550 0.043120 1.3540 2.0642 1515.7 -0.0066853 398.88 0.16171 0.12488 8.0078 428.62 461.98 2.7274 1.0082 1.1997 198.88 0.93475 4.8524 0.0072564
-94.625 0.65446 0.00058074 -12.235 -12.208 0.056268 638.16 0.0015670 -12.491 -12.484 0.054721 1.3550 2.0667 1509.0 -0.0066650 392.53 0.16110 0.13455 7.4323 429.61 463.15 2.7189 1.0116 1.2032 199.36 0.92188 4.8796 0.0073299
-93.625 0.70822 0.00062473 -10.148 -10.119 0.067923 637.12 0.0015696 -10.424 -10.416 0.066271 1.3560 2.0691 1502.3 -0.0066444 386.34 0.16048 0.14482 6.9050 430.60 464.32 2.7107 1.0149 1.2068 199.83 0.90921 4.9068 0.0074036
-92.625 0.76564 0.00067141 -8.0581 -8.0271 0.079533 636.07 0.0015722 -8.3535 -8.3452 0.077771 1.3570 2.0716 1495.6 -0.0066236 380.31 0.15987 0.15573 6.4212 431.60 465.49 2.7025 1.0183 1.2104 200.30 0.89673 4.9340 0.0074776
-91.625 0.82689 0.00072090 -5.9645 -5.9309 0.091099 635.02 0.0015747 -6.2808 -6.2719 0.089220 1.3580 2.0742 1488.9 -0.0066025 374.41 0.15925 0.16731 5.9769 432.59 466.67 2.6946 1.0217 1.2140 200.77 0.88445 4.9611 0.0075518
-90.625 0.89218 0.00077332 -3.8671 -3.8309 0.10262 633.98 0.0015773 -4.2056 -4.1959 0.10062 1.3591 2.0767 1482.2 -0.0065811 368.66 0.15864 0.17958 5.5685 433.59 467.84 2.6868 1.0251 1.2177 201.24 0.87236 4.9883 0.0076263
-89.625 0.96172 0.00082879 -1.7659 -1.7269 0.11410 632.93 0.0015800 -2.1279 -2.1174 0.11197 1.3602 2.0793 1475.5 -0.0065595 363.05 0.15802 0.19258 5.1928 434.59 469.02 2.6791 1.0285 1.2213 201.70 0.86045 5.0154 0.0077011
-88.625 1.0357 0.00088745 0.33910 0.38110 0.12554 631.88 0.0015826 -0.047516 -0.036215 0.12328 1.3613 2.0819 1468.8 -0.0065375 357.56 0.15740 0.20633 4.8466 435.59 470.20 2.6717 1.0320 1.2250 202.15 0.84873 5.0425 0.0077761
-87.625 1.1144 0.00094944 2.4480 2.4932 0.13694 630.83 0.0015852 2.0355 2.0476 0.13454 1.3625 2.0846 1462.1 -0.0065153 352.21 0.15679 0.22087 4.5276 436.60 471.39 2.6643 1.0354 1.2288 202.61 0.83718 5.0696 0.0078514
-86.625 1.1979 0.0010149 4.5610 4.6096 0.14830 629.77 0.0015879 4.1211 4.1342 0.14575 1.3637 2.0873 1455.4 -0.0064928 346.98 0.15617 0.23623 4.2331 437.61 472.57 2.6571 1.0389 1.2325 203.06 0.82580 5.0967 0.0079270
-85.625 1.2866 0.0010839 6.6780 6.7302 0.15962 628.72 0.0015905 6.2094 6.2235 0.15691 1.3649 2.0900 1448.8 -0.0064701 341.87 0.15555 0.25245 3.9612 438.61 473.75 2.6501 1.0424 1.2363 203.50 0.81460 5.1237 0.0080028
-84.625 1.3806 0.0011567 8.7993 8.8553 0.17090 627.66 0.0015932 8.3004 8.3155 0.16803 1.3661 2.0927 1442.1 -0.0064470 336.87 0.15494 0.26956 3.7097 439.63 474.94 2.6432 1.0460 1.2402 203.95 0.80356 5.1508 0.0080789
-83.625 1.4803 0.0012333 10.925 10.985 0.18214 626.60 0.0015959 10.394 10.410 0.17911 1.3674 2.0955 1435.4 -0.0064236 331.99 0.15432 0.28760 3.4771 440.64 476.13 2.6364 1.0495 1.2440 204.38 0.79269 5.1778 0.0081553
-82.625 1.5858 0.0013140 13.055 13.119 0.19335 625.54 0.0015986 12.491 12.508 0.19014 1.3687 2.0983 1428.7 -0.0063999 327.22 0.15370 0.30659 3.2616 441.65 477.31 2.6298 1.0531 1.2479 204.82 0.78199 5.2048 0.0082319
-81.625 1.6975 0.0013989 15.189 15.258 0.20452 624.48 0.0016013 14.590 14.609 0.20113 1.3700 2.1012 1422.0 -0.0063759 322.55 0.15309 0.32659 3.0619 442.67 478.50 2.6233 1.0567 1.2519 205.25 0.77144 5.2318 0.0083088
-80.625 1.8155 0.0014881 17.327 17.401 0.21566 623.42 0.0016041 16.692 16.712 0.21208 1.3714 2.1041 1415.4 -0.0063516 317.99 0.15247 0.34763 2.8766 443.69 479.70 2.6169 1.0603 1.2558 205.67 0.76106 5.2587 0.0083860
-79.625 1.9402 0.0015818 19.471 19.549 0.22676 622.36 0.0016068 18.797 18.819 0.22299 1.3728 2.1070 1408.7 -0.0063270 313.52 0.15186 0.36974 2.7046 444.71 480.89 2.6106 1.0639 1.2598 206.10 0.75083 5.2857 0.0084634
-78.625 2.0718 0.0016801 21.619 21.703 0.23783 621.29 0.0016096 20.905 20.928 0.23385 1.3742 2.1099 1402.0 -0.0063021 309.15 0.15124 0.39296 2.5448 445.73 482.08 2.6045 1.0676 1.2639 206.51 0.74076 5.3126 0.0085411
-77.625 2.2107 0.0017833 23.771 23.861 0.24887 620.22 0.0016123 23.016 23.040 0.24468 1.3757 2.1129 1395.3 -0.0062768 304.88 0.15062 0.41735 2.3961 446.75 483.27 2.5985 1.0712 1.2680 206.93 0.73084 5.3395 0.0086190
-76.625 2.3571 0.0018914 25.929 26.025 0.25988 619.15 0.0016151 25.130 25.156 0.25546 1.3772 2.1159 1388.7 -0.0062512 300.69 0.15001 0.44292 2.2577 447.78 484.47 2.5926 1.0749 1.2721 207.34 0.72107 5.3664 0.0086972
-75.625 2.5113 0.0020047 28.092 28.193 0.27086 618.08 0.0016179 27.247 27.275 0.26620 1.3787 2.1190 1382.0 -0.0062253 296.59 0.14939 0.46974 2.1288 448.81 485.67 2.5869 1.0787 1.2762 207.74 0.71146 5.3933 0.0087757
-74.625 2.6736 0.0021233 30.259 30.368 0.28180 617.01 0.0016207 29.366 29.396 0.27691 1.3802 2.1221 1375.4 -0.0061990 292.58 0.14878 0.49783 2.0087 449.83 486.86 2.5812 1.0824 1.2804 208.14 0.70200 5.4201 0.0088544
-73.625 2.8444 0.0022474 32.432 32.547 0.29272 615.93 0.0016236 31.489 31.521 0.28758 1.3818 2.1252 1368.7 -0.0061724 288.65 0.14816 0.52725 1.8966 450.86 488.06 2.5757 1.0862 1.2847 208.54 0.69268 5.4469 0.0089334
-72.625 3.0240 0.0023772 34.610 34.732 0.30361 614.85 0.0016264 33.615 33.649 0.29821 1.3834 2.1284 1362.0 -0.0061454 284.81 0.14755 0.55804 1.7920 451.90 489.26 2.5703 1.0900 1.2889 208.93 0.68351 5.4737 0.0090126
-71.625 3.2127 0.0025128 36.793 36.923 0.31447 613.78 0.0016293 35.745 35.781 0.30880 1.3851 2.1316 1355.4 -0.0061181 281.03 0.14694 0.59024 1.6942 452.93 490.46 2.5650 1.0938 1.2932 209.32 0.67448 5.5005 0.0090922
-70.625 3.4108 0.0026544 38.981 39.120 0.32530 612.69 0.0016321 37.877 37.915 0.31935 1.3867 2.1349 1348.7 -0.0060904 277.34 0.14632 0.62390 1.6028 453.96 491.66 2.5598 1.0976 1.2976 209.70 0.66560 5.5273 0.0091720
-69.625 3.6187 0.0028023 41.176 41.322 0.33611 611.61 0.0016350 40.013 40.053 0.32987 1.3884 2.1382 1342.1 -0.0060624 273.72 0.14571 0.65906 1.5173 455.00 492.86 2.5547 1.1015 1.3020 210.08 0.65687 5.5540 0.0092520
-68.625 3.8367 0.0029565 43.375 43.531 0.34689 610.53 0.0016379 42.152 42.195 0.34036 1.3902 2.1415 1335.5 -0.0060339 270.17 0.14510 0.69577 1.4372 456.04 494.06 2.5497 1.1054 1.3064 210.45 0.64827 5.5807 0.0093324
-67.625 4.0652 0.0031174 45.581 45.745 0.35764 609.44 0.0016409 44.294 44.340 0.35080 1.3919 2.1449 1328.8 -0.0060051 266.69 0.14449 0.73408 1.3622 457.08 495.26 2.5448 1.1093 1.3109 210.82 0.63981 5.6074 0.0094130
-66.625 4.3046 0.0032850 47.792 47.966 0.36838 608.35 0.0016438 46.439 46.488 0.36122 1.3937 2.1483 1322.2 -0.0059760 263.28 0.14388 0.77404 1.2919 458.12 496.46 2.5400 1.1133 1.3154 211.18 0.63150 5.6341 0.0094939
-65.625 4.5551 0.0034596 50.009 50.193 0.37909 607.26 0.0016467 48.588 48.640 0.37160 1.3955 2.1518 1315.6 -0.0059464 259.93 0.14327 0.81570 1.2259 459.16 497.67 2.5353 1.1172 1.3200 211.54 0.62332 5.6608 0.0095750
-64.625 4.8173 0.0036414 52.231 52.427 0.38977 606.16 0.0016497 50.740 50.795 0.38195 1.3974 2.1553 1308.9 -0.0059164 256.65 0.14266 0.85910 1.1640 460.21 498.87 2.5307 1.1212 1.3246 211.89 0.61527 5.6874 0.0096564
-63.625 5.0915 0.0038306 54.460 54.667 0.40043 605.07 0.0016527 52.896 52.954 0.39226 1.3993 2.1588 1302.3 -0.0058861 253.42 0.14205 0.90429 1.1058 461.25 500.07 2.5262 1.1252 1.3293 212.24 0.60736 5.7140 0.0097382
-62.625 5.3781 0.0040273 56.696 56.914 0.41108 603.97 0.0016557 55.055 55.117 0.40254 1.4012 2.1624 1295.7 -0.0058553 250.26 0.14144 0.95134 1.0511 462.30 501.28 2.5218 1.1293 1.3340 212.58 0.59958 5.7406 0.0098201
-61.625 5.6774 0.0042318 58.937 59.167 0.42170 602.87 0.0016587 57.218 57.283 0.41279 1.4031 2.1660 1289.1 -0.0058241 247.16 0.14084 1.0003 0.99972 463.35 502.48 2.5175 1.1333 1.3387 212.92 0.59194 5.7672 0.0099024
-60.625 5.9899 0.0044444 61.185 61.427 0.43230 601.77 0.0016618 59.385 59.453 0.42301 1.4051 2.1697 1282.5 -0.0057925 244.12 0.14023 1.0512 0.95131 464.40 503.68 2.5133 1.1374 1.3435 213.26 0.58442 5.7938 0.0099850
-59.625 6.3160 0.0046651 63.439 63.695 0.44288 600.66 0.0016648 61.554 61.627 0.43320 1.4071 2.1734 1275.9 -0.0057605 241.13 0.13962 1.1041 0.90573 465.45 504.89 2.5091 1.1415 1.3483 213.58 0.57704 5.8203 0.010068
-58.625 6.6561 0.0048942 65.699 65.969 0.45344 599.55 0.0016679 63.728 63.805 0.44335 1.4091 2.1772 1269.3 -0.0057280 238.19 0.13902 1.1591 0.86277 466.50 506.09 2.5051 1.1457 1.3532 213.90 0.56978 5.8468 0.010151
-57.625 7.0107 0.0051320 67.967 68.251 0.46399 598.44 0.0016710 65.905 65.986 0.45348 1.4111 2.1810 1262.7 -0.0056951 235.31 0.13842 1.2161 0.82228 467.55 507.30 2.5011 1.1498 1.3581 214.22 0.56265 5.8733 0.010234
-56.625 7.3801 0.0053786 70.241 70.540 0.47451 597.33 0.0016741 68.086 68.172 0.46358 1.4132 2.1848 1256.1 -0.0056617 232.48 0.13781 1.2754 0.78408 468.60 508.50 2.4972 1.1540 1.3631 214.53 0.55564 5.8998 0.010318
-55.625 7.7648 0.0056343 72.522 72.836 0.48502 596.22 0.0016772 70.271 70.361 0.47364 1.4153 2.1887 1249.5 -0.0056279 229.69 0.13721 1.3369 0.74802 469.66 509.71 2.4934 1.1582 1.3681 214.84 0.54875 5.9263 0.010402
-54.625 8.1652 0.0058993 74.809 75.140 0.49552 595.10 0.0016804 72.460 72.554 0.48368 1.4174 2.1927 1242.9 -0.0055937 226.96 0.13661 1.4006 0.71396 470.72 510.91 2.4897 1.1624 1.3731 215.14 0.54199 5.9527 0.010486
-53.625 8.5819 0.0061738 77.104 77.452 0.50599 593.98 0.0016836 74.652 74.752 0.49369 1.4196 2.1967 1236.3 -0.0055589 224.27 0.13601 1.4667 0.68178 471.77 512.11 2.4860 1.1667 1.3782 215.43 0.53535 5.9792 0.010571
-52.625 9.0151 0.0064580 79.406 79.772 0.51646 592.86 0.0016867 76.849 76.954 0.50368 1.4218 2.2007 1229.8 -0.0055237 221.63 0.13541 1.5353 0.65136 472.83 513.32 2.4824 1.1710 1.3834 215.72 0.52882 6.0056 0.010656
-51.625 9.4655 0.0067523 81.715 82.099 0.52690 591.73 0.0016900 79.049 79.159 0.51363 1.4240 2.2048 1223.2 -0.0054880 219.04 0.13482 1.6062 0.62258 473.89 514.52 2.4789 1.1752 1.3886 216.00 0.52241 6.0320 0.010741
-50.625 9.9335 0.0070567 84.032 84.434 0.53734 590.60 0.0016932 81.253 81.369 0.52356 1.4262 2.2089 1216.6 -0.0054519 216.48 0.13422 1.6797 0.59534 474.95 515.73 2.4755 1.1796 1.3938 216.28 0.51612 6.0584 0.010827
-49.625 10.419 0.0073716 86.355 86.778 0.54776 589.47 0.0016964 83.462 83.584 0.53347 1.4285 2.2131 1210.1 -0.0054152 213.98 0.13363 1.7558 0.56954 476.01 516.93 2.4722 1.1839 1.3991 216.55 0.50994 6.0848 0.010913
-48.625 10.924 0.0076971 88.687 89.130 0.55816 588.34 0.0016997 85.674 85.802 0.54334 1.4308 2.2173 1203.5 -0.0053780 211.51 0.13303 1.8345 0.54510 477.07 518.13 2.4689 1.1883 1.4044 216.82 0.50387 6.1112 0.010999
-47.625 11.448 0.0080336 91.026 91.490 0.56856 587.20 0.0017030 87.891 88.025 0.55319 1.4331 2.2216 1196.9 -0.0053403 209.08 0.13244 1.9159 0.52194 478.14 519.33 2.4657 1.1927 1.4098 217.08 0.49792 6.1375 0.011085
-46.625 11.991 0.0083813 93.372 93.859 0.57894 586.06 0.0017063 90.111 90.252 0.56302 1.4354 2.2259 1190.4 -0.0053020 206.69 0.13185 2.0001 0.49997 479.20 520.53 2.4625 1.1971 1.4153 217.33 0.49207 6.1639 0.011172
-45.625 12.554 0.0087403 95.727 96.236 0.58931 584.92 0.0017096 92.336 92.484 0.57282 1.4378 2.2303 1183.8 -0.0052633 204.34 0.13126 2.0872 0.47912 480.27 521.74 2.4594 1.2015 1.4207 217.58 0.48633 6.1902 0.011259
-44.625 13.137 0.0091111 98.089 98.622 0.59967 583.77 0.0017130 94.565 94.720 0.58260 1.4402 2.2347 1177.3 -0.0052240 202.03 0.13067 2.1771 0.45933 481.33 522.94 2.4564 1.2060 1.4263 217.82 0.48069 6.2165 0.011347
-43.625 13.741 0.0094937 100.46 101.02 0.61002 582.62 0.0017164 96.799 96.961 0.59235 1.4426 2.2392 1170.7 -0.0051841 199.75 0.13008 2.2700 0.44053 482.40 524.14 2.4535 1.2104 1.4319 218.05 0.47516 6.2429 0.011435
-42.625 14.367 0.0098885 102.84 103.42 0.62036 581.47 0.0017198 99.036 99.207 0.60208 1.4450 2.2437 1164.2 -0.0051437 197.51 0.12949 2.3659 0.42267 483.46 525.33 2.4506 1.2149 1.4375 218.28 0.46973 6.2692 0.011523
-41.625 15.015 0.010296 105.22 105.83 0.63069 580.32 0.0017232 101.28 101.46 0.61179 1.4475 2.2483 1157.7 -0.0051027 195.30 0.12891 2.4649 0.40569 484.53 526.53 2.4478 1.2195 1.4432 218.50 0.46440 6.2955 0.011612
-40.625 15.686 0.010716 107.62 108.26 0.64101 579.16 0.0017266 103.52 103.71 0.62147 1.4500 2.2529 1151.1 -0.0050611 193.13 0.12832 2.5671 0.38954 485.60 527.73 2.4450 1.2240 1.4489 218.72 0.45917 6.3218 0.011701
-39.625 16.380 0.011149 110.02 110.69 0.65132 578.00 0.0017301 105.78 105.97 0.63113 1.4525 2.2576 1144.6 -0.0050189 190.99 0.12774 2.6725 0.37418 486.67 528.93 2.4423 1.2286 1.4547 218.93 0.45403 6.3481 0.011790
-38.625 17.097 0.011595 112.43 113.13 0.66163 576.83 0.0017336 108.03 108.24 0.64077 1.4550 2.2623 1138.0 -0.0049761 188.88 0.12716 2.7813 0.35955 487.74 530.12 2.4397 1.2332 1.4606 219.13 0.44900 6.3744 0.011880
-37.625 17.838 0.012054 114.85 115.58 0.67193 575.66 0.0017371 110.29 110.51 0.65039 1.4576 2.2671 1131.5 -0.0049327 186.81 0.12658 2.8934 0.34562 488.81 531.32 2.4371 1.2378 1.4665 219.33 0.44405 6.4007 0.011970
-36.625 18.604 0.012528 117.28 118.04 0.68222 574.49 0.0017407 112.56 112.78 0.65999 1.4602 2.2719 1125.0 -0.0048887 184.76 0.12600 3.0089 0.33235 489.88 532.51 2.4346 1.2424 1.4724 219.52 0.43920 6.4270 0.012060
-35.625 19.395 0.013015 119.72 120.51 0.69250 573.32 0.0017442 114.83 115.06 0.66956 1.4628 2.2768 1118.5 -0.0048440 182.75 0.12542 3.1280 0.31969 490.95 533.70 2.4321 1.2471 1.4784 219.70 0.43444 6.4533 0.012151
-34.625 20.212 0.013517 122.17 122.99 0.70278 572.14 0.0017478 117.10 117.34 0.67912 1.4654 2.2818 1111.9 -0.0047987 180.76 0.12485 3.2506 0.30763 492.02 534.89 2.4297 1.2517 1.4845 219.88 0.42977 6.4797 0.012243
-33.625 21.056 0.014033 124.62 125.48 0.71305 570.96 0.0017514 119.38 119.63 0.68865 1.4681 2.2868 1105.4 -0.0047527 178.80 0.12427 3.3770 0.29612 493.09 536.08 2.4273 1.2564 1.4906 220.05 0.42519 6.5060 0.012334
-32.625 21.926 0.014564 127.09 127.98 0.72332 569.77 0.0017551 121.66 121.93 0.69817 1.4708 2.2918 1098.9 -0.0047061 176.87 0.12370 3.5071 0.28514 494.17 537.27 2.4250 1.2611 1.4968 220.21 0.42070 6.5323 0.012426
-31.625 22.823 0.015111 129.56 130.49 0.73358 568.58 0.0017588 123.95 124.23 0.70767 1.4735 2.2970 1092.3 -0.0046587 174.97 0.12313 3.6410 0.27465 495.24 538.46 2.4227 1.2659 1.5031 220.36 0.41629 6.5587 0.012519
-30.625 23.749 0.015672 132.04 133.01 0.74384 567.39 0.0017625 126.24 126.53 0.71714 1.4762 2.3021 1085.8 -0.0046107 173.09 0.12256 3.7787 0.26464 496.31 539.64 2.4205 1.2706 1.5094 220.51 0.41196 6.5850 0.012612
-29.625 24.703 0.016250 134.53 135.54 0.75409 566.19 0.0017662 128.54 128.84 0.72660 1.4790 2.3074 1079.3 -0.0045619 171.24 0.12200 3.9205 0.25507 497.38 540.83 2.4184 1.2754 1.5157 220.65 0.40772 6.6114 0.012706
-28.625 25.687 0.016844 137.04 138.08 0.76434 564.99 0.0017699 130.84 131.16 0.73604 1.4818 2.3126 1072.8 -0.0045124 169.42 0.12143 4.0663 0.24592 498.46 542.01 2.4162 1.2802 1.5222 220.79 0.40356 6.6378 0.012800
-27.625 26.700 0.017454 139.55 140.63 0.77459 563.78 0.0017737 133.15 133.48 0.74547 1.4846 2.3180 1066.2 -0.0044621 167.62 0.12087 4.2163 0.23717 499.53 543.19 2.4142 1.2850 1.5286 220.91 0.39947 6.6642 0.012894
-26.625 27.743 0.018080 142.07 143.19 0.78483 562.57 0.0017775 135.47 135.81 0.75487 1.4874 2.3234 1059.7 -0.0044111 165.84 0.12031 4.3705 0.22881 500.60 544.37 2.4122 1.2899 1.5352 221.03 0.39547 6.6906 0.012989
-25.625 28.817 0.018724 144.60 145.77 0.79508 561.36 0.0017814 137.78 138.14 0.76426 1.4902 2.3289 1053.2 -0.0043593 164.09 0.11975 4.5290 0.22080 501.68 545.55 2.4102 1.2947 1.5418 221.14 0.39154 6.7171 0.013084
-24.625 29.923 0.019385 147.14 148.35 0.80532 560.14 0.0017853 140.11 140.48 0.77363 1.4931 2.3344 1046.7 -0.0043067 162.36 0.11919 4.6918 0.21314 502.75 546.72 2.4083 1.2996 1.5485 221.25 0.38768 6.7436 0.013180
-23.625 31.061 0.020064 149.69 150.95 0.81556 558.92 0.0017892 142.44 142.82 0.78298 1.4960 2.3400 1040.1 -0.0042533 160.65 0.11863 4.8592 0.20580 503.82 547.90 2.4064 1.3045 1.5552 221.35 0.38391 6.7701 0.013277
-22.625 32.232 0.020761 152.25 153.55 0.82579 557.69 0.0017931 144.77 145.17 0.79232 1.4990 2.3457 1033.6 -0.0041990 158.97 0.11807 5.0311 0.19877 504.90 549.07 2.4045 1.3095 1.5621 221.44 0.38020 6.7967 0.013374
-21.625 33.435 0.021476 154.82 156.17 0.83603 556.46 0.0017971 147.11 147.52 0.80164 1.5019 2.3514 1027.1 -0.0041439 157.30 0.11752 5.2076 0.19203 505.97 550.24 2.4027 1.3144 1.5690 221.52 0.37656 6.8232 0.013471
-20.625 34.673 0.022209 157.40 158.80 0.84626 555.23 0.0018011 149.45 149.88 0.81095 1.5049 2.3572 1020.6 -0.0040879 155.66 0.11697 5.3889 0.18557 507.04 551.40 2.4010 1.3194 1.5759 221.59 0.37300 6.8499 0.013569
-19.625 35.946 0.022962 159.99 161.44 0.85650 553.99 0.0018051 151.80 152.25 0.82024 1.5079 2.3630 1014.0 -0.0040311 154.04 0.11642 5.5750 0.17937 508.11 552.57 2.3992 1.3244 1.5829 221.66 0.36950 6.8765 0.013668
-18.625 37.253 0.023734 162.59 164.10 0.86674 552.74 0.0018092 154.16 154.62 0.82952 1.5109 2.3689 1007.5 -0.0039733 152.44 0.11587 5.7660 0.17343 509.19 553.73 2.3976 1.3294 1.5901 221.72 0.36608 6.9032 0.013767
-17.625 38.596 0.024525 165.20 166.76 0.87697 551.49 0.0018133 156.52 157.00 0.83878 1.5140 2.3749 1001.0 -0.0039145 150.86 0.11532 5.9621 0.16773 510.26 554.89 2.3959 1.3345 1.5972 221.77 0.36272 6.9300 0.013867
-16.625 39.976 0.025337 167.82 169.44 0.88721 550.24 0.0018174 158.89 159.39 0.84803 1.5171 2.3810 994.44 -0.0038549 149.29 0.11478 6.1632 0.16225 511.33 556.05 2.3943 1.3395 1.6045 221.81 0.35942 6.9568 0.013968
-15.625 41.392 0.026169 170.45 172.13 0.89745 548.98 0.0018216 161.26 161.78 0.85726 1.5202 2.3871 987.91 -0.0037942 147.75 0.11423 6.3696 0.15700 512.40 557.20 2.3927 1.3446 1.6119 221.85 0.35619 6.9836 0.014069
-14.625 42.846 0.027022 173.09 174.83 0.90769 547.71 0.0018258 163.64 164.18 0.86649 1.5233 2.3933 981.37 -0.0037325 146.22 0.11369 6.5812 0.15195 513.47 558.36 2.3912 1.3497 1.6193 221.87 0.35302 7.0105 0.014170
-13.625 44.338 0.027896 175.74 177.54 0.91793 546.44 0.0018300 166.02 166.58 0.87569 1.5264 2.3996 974.83 -0.0036698 144.72 0.11315 6.7983 0.14710 514.54 559.51 2.3897 1.3549 1.6268 221.89 0.34992 7.0375 0.014273
-12.625 45.870 0.028792 178.41 180.27 0.92817 545.17 0.0018343 168.41 168.99 0.88489 1.5296 2.4059 968.29 -0.0036061 143.23 0.11261 7.0208 0.14243 515.61 560.65 2.3883 1.3600 1.6344 221.90 0.34688 7.0646 0.014376
-11.625 47.440 0.029709 181.08 183.01 0.93842 543.89 0.0018386 170.81 171.41 0.89407 1.5328 2.4124 961.75 -0.0035413 141.76 0.11208 7.2490 0.13795 516.68 561.80 2.3868 1.3652 1.6421 221.91 0.34389 7.0917 0.014479
-10.625 49.051 0.030649 183.77 185.76 0.94867 542.60 0.0018430 173.21 173.83 0.90324 1.5360 2.4189 955.20 -0.0034753 140.30 0.11154 7.4829 0.13364 517.75 562.94 2.3854 1.3704 1.6498 221.90 0.34097 7.1188 0.014584
-9.6250 50.703 0.031612 186.46 188.52 0.95892 541.31 0.0018474 175.61 176.26 0.91240 1.5393 2.4255 948.65 -0.0034082 138.86 0.11101 7.7226 0.12949 518.81 564.08 2.3841 1.3757 1.6577 221.88 0.33810 7.1461 0.014689
-8.6250 52.396 0.032598 189.17 191.30 0.96918 540.02 0.0018518 178.03 178.70 0.92154 1.5426 2.4321 942.10 -0.0033400 137.44 0.11048 7.9683 0.12550 519.88 565.21 2.3827 1.3809 1.6657 221.86 0.33529 7.1734 0.014795
-7.6250 54.131 0.033607 191.89 194.09 0.97944 538.72 0.0018563 180.45 181.14 0.93068 1.5459 2.4389 935.55 -0.0032705 136.03 0.10995 8.2200 0.12165 520.94 566.35 2.3814 1.3862 1.6737 221.83 0.33254 7.2008 0.014902
-6.6250 55.909 0.034641 194.62 196.89 0.98970 537.41 0.0018608 182.87 183.59 0.93980 1.5492 2.4457 928.99 -0.0031998 134.64 0.10942 8.4779 0.11795 522.01 567.48 2.3801 1.3915 1.6819 221.79 0.32984 7.2284 0.015009
-5.6250 57.730 0.035699 197.36 199.70 0.99997 536.10 0.0018653 185.30 186.05 0.94892 1.5525 2.4526 922.43 -0.0031279 133.27 0.10889 8.7420 0.11439 523.07 568.60 2.3789 1.3969 1.6902 221.74 0.32720 7.2560 0.015117
-4.6250 59.595 0.036782 200.12 202.53 1.0102 534.78 0.0018699 187.74 188.51 0.95802 1.5559 2.4596 915.87 -0.0030546 131.91 0.10837 9.0126 0.11096 524.13 569.72 2.3777 1.4022 1.6985 221.68 0.32461 7.2837 0.015226
-3.6250 61.505 0.037890 202.88 205.38 1.0205 533.45 0.0018746 190.19 190.98 0.96711 1.5593 2.4667 909.30 -0.0029800 130.56 0.10785 9.2896 0.10765 525.19 570.84 2.3765 1.4076 1.7070 221.62 0.32207 7.3115 0.015336
-2.6250 63.461 0.039025 205.66 208.23 1.0308 532.12 0.0018793 192.64 193.46 0.97620 1.5627 2.4739 902.73 -0.0029041 129.23 0.10733 9.5733 0.10446 526.25 571.96 2.3753 1.4131 1.7156 221.54 0.31958 7.3394 0.015447
-1.6250 65.462 0.040185 208.45 211.10 1.0411 530.78 0.0018840 195.10 195.95 0.98527 1.5662 2.4811 896.16 -0.0028267 127.91 0.10681 9.8638 0.10138 527.31 573.07 2.3742 1.4185 1.7243 221.45 0.31715 7.3674 0.015559
-0.62500 67.510 0.041373 211.25 213.98 1.0514 529.44 0.0018888 197.56 198.44 0.99434 1.5696 2.4885 889.58 -0.0027478 126.61 0.10629 10.161 0.098414 528.37 574.18 2.3731 1.4240 1.7331 221.36 0.31476 7.3956 0.015671
0.37500 69.606 0.042588 214.06 216.88 1.0617 528.09 0.0018936 200.03 200.94 1.0034 1.5731 2.4960 883.00 -0.0026675 125.32 0.10578 10.466 0.095552 529.42 575.28 2.3720 1.4295 1.7421 221.26 0.31242 7.4239 0.015785
1.3750 71.749 0.043831 216.88 219.79 1.0720 526.73 0.0018985 202.51 203.45 1.0124 1.5767 2.5035 876.42 -0.0025856 124.04 0.10527 10.777 0.092790 530.48 576.38 2.3709 1.4350 1.7512 221.14 0.31013 7.4523 0.015899
2.3750 73.941 0.045102 219.72 222.72 1.0823 525.37 0.0019034 204.99 205.96 1.0215 1.5802 2.5112 869.83 -0.0025022 122.78 0.10476 11.096 0.090123 531.53 577.47 2.3699 1.4406 1.7604 221.02 0.30789 7.4808 0.016015
3.3750 76.183 0.046403 222.57 225.66 1.0926 523.99 0.0019084 207.48 208.48 1.0305 1.5838 2.5190 863.24 -0.0024171 121.53 0.10425 11.422 0.087549 532.58 578.56 2.3688 1.4462 1.7697 220.89 0.30569 7.5095 0.016131
4.3750 78.475 0.047732 225.43 228.61 1.1029 522.62 0.0019134 209.98 211.01 1.0395 1.5874 2.5268 856.64 -0.0023303 120.29 0.10374 11.756 0.085062 533.63 579.65 2.3678 1.4518 1.7792 220.75 0.30354 7.5384 0.016249
5.3750 80.817 0.049092 228.30 231.58 1.1133 521.23 0.0019185 212.48 213.55 1.0486 1.5910 2.5348 850.04 -0.0022417 119.06 0.10324 12.098 0.082660 534.67 580.73 2.3669 1.4575 1.7888 220.60 0.30144 7.5674 0.016368
6.3750 83.211 0.050483 231.19 234.56 1.1236 519.84 0.0019237 215.00 216.10 1.0576 1.5946 2.5429 843.43 -0.0021514 117.85 0.10273 12.447 0.080340 535.72 581.81 2.3659 1.4632 1.7986 220.44 0.29938 7.5966 0.016487
7.3750 85.657 0.051905 234.08 237.56 1.1340 518.44 0.0019289 217.51 218.65 1.0666 1.5983 2.5511 836.82 -0.0020593 116.65 0.10223 12.805 0.078096 536.76 582.88 2.3650 1.4689 1.8085 220.27 0.29736 7.6259 0.016608
8.3750 88.156 0.053359 237.00 240.57 1.1443 517.03 0.0019341 220.04 221.22 1.0756 1.6020 2.5595 830.20 -0.0019652 115.46 0.10173 13.170 0.075928 537.80 583.95 2.3640 1.4746 1.8186 220.08 0.29538 7.6555 0.016730
9.3750 90.708 0.054846 239.92 243.60 1.1547 515.62 0.0019394 222.57 223.79 1.0846 1.6057 2.5679 823.58 -0.0018691 114.28 0.10124 13.545 0.073830 538.84 585.01 2.3631 1.4804 1.8288 219.89 0.29345 7.6852 0.016853
10.375 93.315 0.056366 242.86 246.64 1.1651 514.19 0.0019448 225.11 226.37 1.0936 1.6095 2.5765 816.96 -0.0017710 113.11 0.10074 13.927 0.071802 539.87 586.07 2.3622 1.4863 1.8392 219.69 0.29156 7.7151 0.016978
11.375 95.977 0.057920 245.81 249.70 1.1755 512.76 0.0019502 227.66 228.95 1.1025 1.6132 2.5852 810.32 -0.0016708 111.95 0.10025 14.319 0.069840 540.90 587.12 2.3614 1.4921 1.8498 219.48 0.28971 7.7452 0.017103
12.375 98.694 0.059508 248.77 252.77 1.1859 511.32 0.0019557 230.22 231.55 1.1115 1.6170 2.5940 803.68 -0.0015685 110.80 0.099756 14.719 0.067941 541.93 588.17 2.3605 1.4980 1.8605 219.26 0.28790 7.7756 0.017230
13.375 101.47 0.061132 251.74 255.86 1.1963 509.87 0.0019613 232.78 234.15 1.1205 1.6208 2.6030 797.04 -0.0014639 109.67 0.099267 15.128 0.066103 542.96 589.21 2.3597 1.5040 1.8715 219.03 0.28612 7.8061 0.017359
14.375 104.30 0.062792 254.73 258.96 1.2067 508.42 0.0019669 235.35 236.77 1.1295 1.6247 2.6121 790.39 -0.0013569 108.54 0.098779 15.547 0.064323 543.99 590.24 2.3588 1.5099 1.8826 218.79 0.28439 7.8369 0.017488
15.375 107.19 0.064489 257.73 262.08 1.2171 506.95 0.0019726 237.93 239.39 1.1384 1.6286 2.6214 783.73 -0.0012476 107.43 0.098294 15.974 0.062600 545.01 591.27 2.3580 1.5159 1.8940 218.53 0.28270 7.8680 0.017619
16.375 110.13 0.066223 260.75 265.22 1.2275 505.48 0.0019783 240.52 242.02 1.1474 1.6324 2.6308 777.07 -0.0011357 106.32 0.097810 16.412 0.060931 546.03 592.29 2.3572 1.5220 1.9055 218.27 0.28104 7.8993 0.017752
17.375 113.14 0.067996 263.78 268.37 1.2380 504.00 0.0019841 243.11 244.66 1.1564 1.6364 2.6403 770.40 -0.0010213 105.22 0.097328 16.859 0.059314 547.04 593.31 2.3564 1.5281 1.9172 217.99 0.27942 7.9308 0.017886
18.375 116.21 0.069809 266.82 271.53 1.2484 502.50 0.0019900 245.72 247.31 1.1653 1.6403 2.6501 763.72 -0.00090422 104.14 0.096848 17.317 0.057747 548.05 594.32 2.3557 1.5342 1.9292 217.71 0.27783 7.9626 0.018021
19.375 119.33 0.071661 269.88 274.72 1.2589 501.00 0.0019960 248.33 249.97 1.1743 1.6443 2.6599 757.04 -0.00078435 103.06 0.096371 17.785 0.056228 549.06 595.33 2.3549 1.5404 1.9414 217.41 0.27628 7.9947 0.018159
20.375 122.52 0.073555 272.95 277.92 1.2694 499.49 0.0020020 250.95 252.64 1.1832 1.6483 2.6700 750.35 -0.00066161 101.99 0.095895 18.263 0.054756 550.07 596.32 2.3541 1.5466 1.9538 217.10 0.27477 8.0272 0.018297
21.375 125.77 0.075491 276.03 281.13 1.2799 497.97 0.0020082 253.57 255.32 1.1922 1.6523 2.6802 743.64 -0.00053589 100.93 0.095420 18.752 0.053328 551.07 597.31 2.3534 1.5528 1.9665 216.78 0.27329 8.0599 0.018438
22.375 129.08 0.077470 279.13 284.37 1.2904 496.43 0.0020144 256.21 258.00 1.2012 1.6563 2.6906 736.94 -0.00040708 99.877 0.094948 19.252 0.051943 552.07 598.30 2.3526 1.5591 1.9795 216.45 0.27184 8.0929 0.018580
23.375 132.46 0.079493 282.24 287.61 1.3009 494.89 0.0020206 258.86 260.70 1.2101 1.6604 2.7012 730.22 -0.00027505 98.834 0.094478 19.763 0.050600 553.06 599.27 2.3519 1.5655 1.9927 216.11 0.27043 8.1263 0.018724
24.375 135.90 0.081561 285.37 290.88 1.3114 493.34 0.0020270 261.51 263.41 1.2191 1.6645 2.7120 723.49 -0.00013968 97.800 0.094009 20.285 0.049297 554.05 600.24 2.3512 1.5718 2.0061 215.75 0.26906 8.1600 0.018870
25.375 139.41 0.083675 288.51 294.16 1.3219 491.77 0.0020335 264.17 266.13 1.2280 1.6686 2.7230 716.76 -8.3775e-07 96.773 0.093543 20.820 0.048032 555.03 601.20 2.3504 1.5783 2.0199 215.39 0.26771 8.1941 0.019017
26.375 142.98 0.085837 291.66 297.46 1.3325 490.20 0.0020400 266.84 268.85 1.2370 1.6728 2.7342 710.01 0.00014161 95.755 0.093078 21.366 0.046804 556.01 602.15 2.3497 1.5847 2.0340 215.01 0.26640 8.2286 0.019167
27.375 146.62 0.088047 294.83 300.78 1.3431 488.61 0.0020466 269.52 271.59 1.2459 1.6770 2.7456 703.26 0.00028782 94.745 0.092615 21.924 0.045612 556.99 603.10 2.3490 1.5913 2.0484 214.62 0.26512 8.2634 0.019319
28.375 150.33 0.090306 298.02 304.12 1.3536 487.01 0.0020533 272.21 274.34 1.2549 1.6812 2.7573 696.49 0.00043793 93.742 0.092154 22.495 0.044454 557.96 604.03 2.3483 1.5978 2.0631 214.21 0.26387 8.2987 0.019472
29.375 154.10 0.092617 301.22 307.47 1.3642 485.40 0.0020601 274.91 277.10 1.2638 1.6854 2.7691 689.72 0.00059212 92.747 0.091695 23.079 0.043329 558.92 604.96 2.3476 1.6044 2.0781 213.80 0.26265 8.3344 0.019628
30.375 157.94 0.094980 304.43 310.84 1.3748 483.78 0.0020671 277.62 279.87 1.2728 1.6897 2.7813 682.93 0.00075055 91.760 0.091238 23.676 0.042237 559.88 605.88 2.3469 1.6111 2.0935 213.37 0.26147 8.3705 0.019786
31.375 161.86 0.097397 307.66 314.23 1.3854 482.15 0.0020741 280.34 282.66 1.2818 1.6939 2.7936 676.13 0.00091340 90.779 0.090782 24.287 0.041175 560.84 606.79 2.3462 1.6178 2.1092 212.93 0.26031 8.4071 0.019947
32.375 165.84 0.099868 310.91 317.63 1.3961 480.50 0.0020812 283.07 285.45 1.2908 1.6983 2.8063 669.32 0.0010809 89.806 0.090328 24.911 0.040143 561.79 607.69 2.3455 1.6246 2.1254 212.48 0.25919 8.4442 0.020110
33.375 169.90 0.10240 314.16 321.06 1.4067 478.83 0.0020884 285.81 288.26 1.2997 1.7026 2.8192 662.50 0.0012532 88.840 0.089876 25.549 0.039140 562.73 608.58 2.3448 1.6314 2.1419 212.01 0.25809 8.4818 0.020275
34.375 174.02 0.10498 317.44 324.50 1.4174 477.16 0.0020957 288.56 291.07 1.3087 1.7070 2.8324 655.67 0.0014305 87.880 0.089426 26.202 0.038164 563.67 609.46 2.3440 1.6383 2.1589 211.53 0.25702 8.5199 0.020443
35.375 178.22 0.10763 320.73 327.96 1.4281 475.47 0.0021032 291.32 293.90 1.3177 1.7114 2.8459 648.82 0.0016131 86.927 0.088977 26.870 0.037216 564.60 610.33 2.3433 1.6452 2.1763 211.04 0.25599 8.5586 0.020613
36.375 182.50 0.11034 324.04 331.44 1.4388 473.77 0.0021107 294.09 296.74 1.3267 1.7158 2.8597 641.96 0.0018012 85.980 0.088531 27.553 0.036293 565.52 611.19 2.3426 1.6522 2.1942 210.53 0.25498 8.5978 0.020786
37.375 186.84 0.11311 327.36 334.94 1.4495 472.05 0.0021184 296.87 299.60 1.3357 1.7203 2.8739 635.08 0.0019950 85.040 0.088085 28.252 0.035395 566.44 612.04 2.3419 1.6592 2.2125 210.01 0.25400 8.6376 0.020962
38.375 191.27 0.11595 330.70 338.45 1.4602 470.31 0.0021262 299.66 302.46 1.3447 1.7248 2.8884 628.19 0.0021949 84.105 0.087642 28.967 0.034522 567.35 612.88 2.3411 1.6663 2.2314 209.47 0.25305 8.6780 0.021141
39.375 195.77 0.11885 334.05 341.99 1.4710 468.56 0.0021342 302.46 305.34 1.3537 1.7293 2.9033 621.29 0.0024011 83.177 0.087200 29.699 0.033671 568.26 613.70 2.3404 1.6734 2.2508 208.92 0.25213 8.7190 0.021323
40.375 200.34 0.12182 337.42 345.55 1.4817 466.80 0.0021423 305.27 308.23 1.3627 1.7339 2.9185 614.37 0.0026140 82.254 0.086760 30.447 0.032844 569.15 614.52 2.3396 1.6806 2.2708 208.36 0.25123 8.7608 0.021508
41.375 205.00 0.12487 340.81 349.12 1.4925 465.01 0.0021505 308.10 311.14 1.3718 1.7385 2.9342 607.43 0.0028338 81.338 0.086322 31.214 0.032037 570.04 615.32 2.3389 1.6879 2.2913 207.78 0.25037 8.8032 0.021696
42.375 209.73 0.12798 344.21 352.72 1.5033 463.21 0.0021588 310.94 314.06 1.3808 1.7432 2.9502 600.47 0.0030609 80.426 0.085885 31.998 0.031252 570.92 616.11 2.3381 1.6952 2.3125 207.19 0.24953 8.8463 0.021888
43.375 214.54 0.13118 347.63 356.33 1.5142 461.40 0.0021673 313.79 316.99 1.3899 1.7478 2.9667 593.50 0.0032957 79.520 0.085449 32.800 0.030488 571.79 616.88 2.3373 1.7027 2.3344 206.58 0.24871 8.8902 0.022084
44.375 219.43 0.13445 351.07 359.97 1.5250 459.56 0.0021760 316.65 319.94 1.3989 1.7525 2.9837 586.51 0.0035386 78.619 0.085015 33.622 0.029742 572.65 617.65 2.3365 1.7101 2.3569 205.96 0.24793 8.9349 0.022283
45.375 224.41 0.13781 354.52 363.62 1.5359 457.71 0.0021848 319.52 322.90 1.4080 1.7573 3.0012 579.50 0.0037900 77.723 0.084583 34.463 0.029016 573.50 618.40 2.3357 1.7177 2.3802 205.32 0.24717 8.9805 0.022485
46.375 229.46 0.14125 357.99 367.30 1.5467 455.83 0.0021938 322.41 325.88 1.4171 1.7621 3.0192 572.46 0.0040504 76.832 0.084152 35.325 0.028308 574.34 619.13 2.3349 1.7253 2.4042 204.67 0.24644 9.0269 0.022692
47.375 234.60 0.14477 361.48 371.00 1.5576 453.94 0.0022029 325.31 328.87 1.4262 1.7669 3.0377 565.41 0.0043202 75.946 0.083723 36.208 0.027618 575.17 619.85 2.3340 1.7329 2.4291 204.00 0.24573 9.0742 0.022903
48.375 239.83 0.14839 364.99 374.71 1.5686 452.03 0.0022123 328.22 331.88 1.4353 1.7718 3.0569 558.34 0.0046000 75.064 0.083295 37.112 0.026945 576.00 620.55 2.3332 1.7407 2.4548 203.31 0.24505 9.1224 0.023119
49.375 245.13 0.15210 368.51 378.45 1.5795 450.09 0.0022218 331.15 334.90 1.4445 1.7767 3.0766 551.24 0.0048904 74.186 0.082868 38.039 0.026289 576.81 621.24 2.3323 1.7485 2.4815 202.61 0.24440 9.1716 0.023339
50.375 250.53 0.15591 372.05 382.22 1.5905 448.13 0.0022315 334.09 337.94 1.4536 1.7817 3.0970 544.13 0.0051920 73.313 0.082442 38.989 0.025648 577.61 621.91 2.3314 1.7564 2.5092 201.89 0.24377 9.2219 0.023564
51.375 256.01 0.15982 375.62 386.00 1.6015 446.15 0.0022414 337.04 341.00 1.4628 1.7867 3.1181 536.98 0.0055054 72.443 0.082018 39.962 0.025024 578.39 622.56 2.3304 1.7644 2.5379 201.16 0.24317 9.2733 0.023794
52.375 261.57 0.16383 379.19 389.80 1.6125 444.15 0.0022515 340.01 344.07 1.4720 1.7918 3.1400 529.82 0.0058313 71.577 0.081595 40.961 0.024414 579.17 623.20 2.3295 1.7724 2.5677 200.41 0.24260 9.3258 0.024029
53.375 267.23 0.16796 382.79 393.63 1.6235 442.12 0.0022618 343.00 347.17 1.4812 1.7969 3.1627 522.62 0.0061705 70.715 0.081174 41.985 0.023818 579.93 623.81 2.3285 1.7805 2.5987 199.63 0.24205 9.3795 0.024270
54.375 272.97 0.17220 386.41 397.48 1.6346 440.06 0.0022724 346.00 350.28 1.4904 1.8021 3.1862 515.40 0.0065239 69.856 0.080753 43.036 0.023237 580.68 624.41 2.3274 1.7887 2.6310 198.85 0.24154 9.4344 0.024516
55.375 278.81 0.17655 390.05 401.35 1.6457 437.98 0.0022832 349.02 353.40 1.4997 1.8073 3.2106 508.15 0.0068923 69.001 0.080334 44.114 0.022669 581.41 624.99 2.3264 1.7969 2.6646 198.04 0.24105 9.4907 0.024769
56.375 284.74 0.18104 393.70 405.25 1.6568 435.87 0.0022943 352.05 356.55 1.5090 1.8126 3.2360 500.87 0.0072767 68.148 0.079915 45.221 0.022114 582.13 625.54 2.3253 1.8052 2.6998 197.22 0.24059 9.5484 0.025028
57.375 290.76 0.18565 397.38 409.17 1.6679 433.73 0.0023056 355.10 359.72 1.5183 1.8179 3.2624 493.56 0.0076782 67.299 0.079498 46.358 0.021571 582.83 626.07 2.3241 1.8136 2.7365 196.37 0.24016 9.6075 0.025294
58.375 296.87 0.19041 401.07 413.11 1.6791 431.56 0.0023172 358.17 362.91 1.5276 1.8233 3.2900 486.22 0.0080980 66.451 0.079082 47.525 0.021041 583.52 626.58 2.3230 1.8220 2.7749 195.51 0.23976 9.6682 0.025568
59.375 303.08 0.19530 404.79 417.08 1.6903 429.36 0.0023290 361.25 366.12 1.5370 1.8288 3.3188 478.84 0.0085373 65.606 0.078666 48.726 0.020523 584.18 627.07 2.3218 1.8305 2.8152 194.63 0.23939 9.7305 0.025849
60.375 309.38 0.20035 408.53 421.08 1.7015 427.13 0.0023412 364.36 369.35 1.5464 1.8343 3.3489 471.43 0.0089976 64.763 0.078251 49.960 0.020016 584.83 627.53 2.3205 1.8391 2.8576 193.73 0.23905 9.7945 0.026138
61.375 315.78 0.20555 412.29 425.09 1.7127 424.87 0.0023537 367.48 372.60 1.5558 1.8400 3.3805 463.99 0.0094803 63.922 0.077838 51.229 0.019520 585.46 627.96 2.3192 1.8479 2.9022 192.82 0.23873 9.8603 0.026436
62.375 322.28 0.21093 416.07 429.14 1.7240 422.56 0.0023665 370.62 375.88 1.5653 1.8457 3.4136 456.50 0.0099871 63.083 0.077425 52.535 0.019035 586.07 628.37 2.3178 1.8567 2.9492 191.88 0.23845 9.9281 0.026744
63.375 328.88 0.21648 419.87 433.21 1.7353 420.22 0.0023797 373.79 379.18 1.5748 1.8514 3.4483 448.97 0.010520 62.244 0.077012 53.879 0.018560 586.66 628.74 2.3164 1.8656 2.9989 190.92 0.23819 9.9979 0.027061
64.375 335.58 0.22222 423.69 437.30 1.7467 417.85 0.0023932 376.97 382.51 1.5844 1.8573 3.4850 441.40 0.011081 61.407 0.076600 55.265 0.018095 587.22 629.09 2.3149 1.8747 3.0517 189.95 0.23796 10.070 0.027389
65.375 342.38 0.22815 427.54 441.43 1.7581 415.42 0.0024072 380.18 385.86 1.5939 1.8633 3.5236 433.79 0.011672 60.570 0.076189 56.692 0.017639 587.76 629.40 2.3133 1.8839 3.1077 188.95 0.23775 10.144 0.027729
66.375 349.28 0.23430 431.41 445.58 1.7695 412.96 0.0024215 383.41 389.25 1.6036 1.8693 3.5645 426.12 0.012296 59.733 0.075779 58.165 0.017193 588.28 629.68 2.3117 1.8933 3.1674 187.93 0.23757 10.221 0.028080
67.375 356.28 0.24067 435.31 449.76 1.7809 410.45 0.0024363 386.67 392.65 1.6133 1.8755 3.6078 418.41 0.012956 58.897 0.075368 59.684 0.016755 588.76 629.92 2.3100 1.9030 3.2311 186.89 0.23740 10.300 0.028446
68.375 363.40 0.24728 439.23 453.97 1.7924 407.89 0.0024516 389.95 396.09 1.6230 1.8818 3.6537 410.64 0.013655 58.059 0.074959 61.253 0.016326 589.22 630.13 2.3082 1.9129 3.2994 185.83 0.23724 10.382 0.028825
69.375 370.61 0.25414 443.17 458.20 1.8040 405.28 0.0024674 393.26 399.57 1.6328 1.8882 3.7027 402.81 0.014396 57.221 0.074549 62.875 0.015905 589.65 630.29 2.3064 1.9231 3.3727 184.74 0.23710 10.467 0.029221
70.375 377.94 0.26128 447.14 462.47 1.8155 402.62 0.0024838 396.60 403.07 1.6426 1.8947 3.7550 394.92 0.015183 56.381 0.074141 64.552 0.015491 590.04 630.41 2.3044 1.9336 3.4518 183.63 0.23697 10.555 0.029633
71.375 385.37 0.26871 451.14 466.77 1.8272 399.89 0.0025007 399.96 406.61 1.6525 1.9014 3.8109 386.97 0.016021 55.540 0.073732 66.288 0.015086 590.40 630.49 2.3024 1.9444 3.5371 182.50 0.23684 10.647 0.030064
72.375 392.92 0.27645 455.16 471.10 1.8388 397.11 0.0025182 403.36 410.18 1.6625 1.9083 3.8711 378.95 0.016915 54.696 0.073324 68.087 0.014687 590.73 630.51 2.3002 1.9556 3.6297 181.34 0.23671 10.743 0.030515
73.375 400.57 0.28454 459.21 475.46 1.8505 394.26 0.0025364 406.79 413.80 1.6726 1.9153 3.9359 370.85 0.017871 53.848 0.072917 69.953 0.014295 591.01 630.49 2.2979 1.9673 3.7303 180.16 0.23658 10.842 0.030989
74.375 408.34 0.29301 463.29 479.85 1.8623 391.34 0.0025553 410.26 417.45 1.6827 1.9226 4.0060 362.67 0.018894 52.997 0.072510 71.890 0.013910 591.25 630.41 2.2955 1.9793 3.8401 178.95 0.23643 10.946 0.031488
75.375 416.23 0.30187 467.40 484.28 1.8741 388.34 0.0025751 413.76 421.15 1.6930 1.9301 4.0822 354.41 0.019993 52.142 0.072104 73.904 0.013531 591.44 630.27 2.2930 1.9919 3.9604 177.71 0.23627 11.054 0.032014
76.375 424.23 0.31118 471.54 488.74 1.8859 385.26 0.0025957 417.31 424.90 1.7033 1.9378 4.1654 346.06 0.021177 51.281 0.071699 76.001 0.013158 591.59 630.07 2.2903 2.0050 4.0927 176.44 0.23609 11.168 0.032570
77.375 432.35 0.32097 475.71 493.25 1.8979 382.09 0.0026172 420.89 428.70 1.7137 1.9459 4.2565 337.60 0.022455 50.414 0.071295 78.187 0.012790 591.68 629.80 2.2874 2.0186 4.2389 175.15 0.23588 11.287 0.033161
78.375 440.59 0.33130 479.91 497.78 1.9098 378.83 0.0026397 424.53 432.54 1.7243 1.9543 4.3570 329.05 0.023838 49.539 0.070893 80.469 0.012427 591.71 629.46 2.2844 2.0328 4.4012 173.82 0.23563 11.412 0.033789
79.375 448.95 0.34223 484.15 502.36 1.9219 375.46 0.0026634 428.21 436.45 1.7349 1.9631 4.4684 320.38 0.025341 48.657 0.070494 82.856 0.012069 591.68 629.04 2.2812 2.0475 4.5824 172.46 0.23535 11.544 0.034461
80.375 457.44 0.35383 488.43 506.98 1.9340 371.97 0.0026884 431.94 440.42 1.7457 1.9723 4.5928 311.58 0.026980 47.764 0.070099 85.359 0.011715 591.58 628.53 2.2778 2.0630 4.7859 171.07 0.23501 11.684 0.035181
81.375 466.05 0.36618 492.74 511.64 1.9462 368.36 0.0027147 435.74 444.46 1.7567 1.9820 4.7327 302.66 0.028773 46.860 0.069708 87.988 0.011365 591.40 627.92 2.2742 2.0791 5.0161 169.64 0.23461 11.832 0.035957
82.375 474.79 0.37938 497.09 516.35 1.9584 364.61 0.0027427 439.60 448.58 1.7678 1.9924 4.8914 293.60 0.030744 45.942 0.069323 90.757 0.011018 591.14 627.21 2.2703 2.0959 5.2786 168.17 0.23413 11.989 0.036797
83.375 483.66 0.39356 501.49 521.10 1.9708 360.70 0.0027724 443.53 452.78 1.7791 2.0034 5.0731 284.38 0.032920 45.010 0.068948 93.681 0.010674 590.79 626.38 2.2661 2.1136 5.5807 166.67 0.23357 12.157 0.037711
84.375 492.67 0.40888 505.92 525.91 1.9832 356.61 0.0028041 447.54 457.07 1.7907 2.0153 5.2834 275.00 0.035335 44.059 0.068586 96.781 0.010333 590.33 625.42 2.2616 2.1321 5.9321 165.13 0.23290 12.338 0.038713
85.375 501.81 0.42552 510.41 530.76 1.9957 352.33 0.0028382 451.65 461.47 1.8025 2.0281 5.5302 265.44 0.038030 43.088 0.068241 100.08 0.0099920 589.74 624.31 2.2567 2.1517 6.3459 163.54 0.23209 12.532 0.039819
86.375 511.09 0.44375 514.95 535.68 2.0084 347.82 0.0028751 455.85 465.98 1.8145 2.0420 5.8240 255.69 0.041058 42.092 0.067923 103.61 0.0096520 589.03 623.04 2.2514 2.1723 6.8405 161.91 0.23112 12.743 0.041051
87.375 520.51 0.46390 519.54 540.65 2.0211 343.04 0.0029151 460.18 470.64 1.8269 2.0574 6.1803 245.72 0.044485 41.066 0.067640 107.40 0.0093114 588.15 621.56 2.2456 2.1943 7.4422 160.23 0.22995 12.973 0.042436
88.375 530.07 0.48642 524.20 545.69 2.0340 337.95 0.0029590 464.64 475.45 1.8397 2.0745 6.6221 235.52 0.048397 40.005 0.067412 111.50 0.0089689 587.08 619.86 2.2392 2.2178 8.1900 158.49 0.22854 13.226 0.044014
89.375 539.79 0.51195 528.92 550.81 2.0471 332.48 0.0030077 469.27 480.46 1.8530 2.0936 7.1851 225.04 0.052906 38.901 0.067265 115.97 0.0086228 585.79 617.88 2.2321 2.2433 9.1445 156.69 0.22681 13.508 0.045839
90.375 549.66 0.54143 533.72 556.01 2.0603 326.55 0.0030623 474.10 485.71 1.8669 2.1156 7.9284 214.26 0.058166 37.742 0.067243 120.91 0.0082708 584.22 615.56 2.2241 2.2711 10.405 154.82 0.22467 13.825 0.047992
91.375 559.68 0.57631 538.61 561.31 2.0737 320.03 0.0031247 479.19 491.25 1.8815 2.1412 8.9568 203.11 0.064389 36.514 0.067421 126.43 0.0079097 582.29 612.82 2.2150 2.3019 12.146 152.85 0.22200 14.189 0.050600
92.375 569.87 0.61903 543.60 566.72 2.0874 312.73 0.0031976 484.62 497.18 1.8972 2.1718 10.475 191.54 0.071885 35.195 0.067931 132.72 0.0075346 579.91 609.51 2.2045 2.3370 14.705 150.75 0.21862 14.618 0.053877
93.375 580.24 0.67417 548.73 572.27 2.1014 304.34 0.0032858 490.52 503.67 1.9143 2.2100 12.945 179.43 0.081133 33.755 0.069025 140.11 0.0071373 576.87 605.42 2.1919 2.3779 18.828 148.48 0.21421 15.146 0.058225
94.375 590.79 0.75177 554.04 578.00 2.1159 294.25 0.0033985 497.17 511.01 1.9336 2.2603 17.657 166.61 0.092934 32.154 0.071243 149.20 0.0067025 572.82 600.12 2.1761 2.4283 26.557 145.93 0.20825 15.847 0.064529
95.375 601.53 0.88182 559.63 584.03 2.1311 280.99 0.0035589 505.21 519.97 1.9572 2.3343 30.014 152.73 0.10888 30.366 0.076197 161.45 0.0061937 566.92 592.61 2.1544 2.4956 46.113 142.79 0.19953 16.960 0.075419
96.375 611.44 undefined 563.85 588.65 2.1425 170.00 0.0058824 563.85 588.65 2.1425 2.5135 56.352 141.64 0.19186 18.132 0.079299 170.00 0.0058824 563.85 588.65 2.1425 2.5135 56.352 141.64 0.19186 18.132 0.079299
97.375 620.30 undefined 566.34 591.50 2.1492 170.00 0.0058824 566.34 591.50 2.1492 2.4649 38.879 143.41 0.18913 18.053 0.072449 170.00 0.0058824 566.34 591.50 2.1492 2.4649 38.879 143.41 0.18913 18.053 0.072449
98.375 629.10 undefined 568.79 594.30 2.1558 170.00 0.0058824 568.79 594.30 2.1558 2.4238 29.860 145.14 0.18632 17.805 0.068497 170.00 0.0058824 568.79 594.30 2.1558 2.4238 29.860 145.14 0.18632 17.805 0.068497
99.375 637.83 undefined 571.19 597.06 2.1623 170.00 0.0058824 571.19 597.06 2.1623 2.3892 24.362 146.83 0.18346 17.695 0.065611 170.00 0.0058824 571.19 597.06 2.1623 2.3892 24.362 146.83 0.18346 17.695 0.065611
100.38 646.51 undefined 573.57 599.79 2.1687 170.00 0.0058824 573.57 599.79 2.1687 2.3601 20.665 148.47 0.18057 17.655 0.063395 170.00 0.0058824 573.57 599.79 2.1687 2.3601 20.665 148.47 0.18057 17.655 0.063395
101.38 655.15 undefined 575.91 602.49 2.1749 170.00 0.0058824 575.91 602.49 2.1749 2.3356 18.011 150.08 0.17767 17.651 0.061637 170.00 0.0058824 575.91 602.49 2.1749 2.3356 18.011 150.08 0.17767 17.651 0.061637
102.38 663.76 undefined 578.24 605.16 2.1811 170.00 0.0058824 578.24 605.16 2.1811 2.3150 16.014 151.64 0.17478 17.666 0.060210 170.00 0.0058824 578.24 605.16 2.1811 2.3150 16.014 151.64 0.17478 17.666 0.060210
103.38 672.33 undefined 580.55 607.81 2.1873 170.00 0.0058824 580.55 607.81 2.1873 2.2976 14.459 153.17 0.17190 17.689 0.059028 170.00 0.0058824 580.55 607.81 2.1873 2.2976 14.459 153.17 0.17190 17.689 0.059028
104.38 680.87 undefined 582.84 610.45 2.1933 170.00 0.0058824 582.84 610.45 2.1933 2.2828 13.213 154.67 0.16905 17.718 0.058035 170.00 0.0058824 582.84 610.45 2.1933 2.2828 13.213 154.67 0.16905 17.718 0.058035
105.38 689.39 undefined 585.11 613.07 2.1994 170.00 0.0058824 585.11 613.07 2.1994 2.2703 12.193 156.15 0.16623 17.749 0.057189 170.00 0.0058824 585.11 613.07 2.1994 2.2703 12.193 156.15 0.16623 17.749 0.057189
106.38 697.88 undefined 587.38 615.68 2.2053 170.00 0.0058824 587.38 615.68 2.2053 2.2596 11.343 157.60 0.16345 17.781 0.056462 170.00 0.0058824 587.38 615.68 2.2053 2.2596 11.343 157.60 0.16345 17.781 0.056462
107.38 706.36 undefined 589.63 618.28 2.2113 170.00 0.0058824 589.63 618.28 2.2113 2.2504 10.624 159.02 0.16072 17.813 0.055831 170.00 0.0058824 589.63 618.28 2.2113 2.2504 10.624 159.02 0.16072 17.813 0.055831
108.38 714.81 undefined 591.88 620.87 2.2172 170.00 0.0058824 591.88 620.87 2.2172 2.2424 10.007 160.43 0.15804 17.846 0.055281 170.00 0.0058824 591.88 620.87 2.2172 2.2424 10.007 160.43 0.15804 17.846 0.055281
109.38 723.25 undefined 594.12 623.45 2.2230 170.00 0.0058824 594.12 623.45 2.2230 2.2355 9.4733 161.82 0.15541 17.879 0.054797 170.00 0.0058824 594.12 623.45 2.2230 2.2355 9.4733 161.82 0.15541 17.879 0.054797
110.38 731.67 undefined 596.35 626.02 2.2289 170.00 0.0058824 596.35 626.02 2.2289 2.2294 9.0064 163.20 0.15283 17.913 0.054370 170.00 0.0058824 596.35 626.02 2.2289 2.2294 9.0064 163.20 0.15283 17.913 0.054370
111.38 740.08 undefined 598.58 628.59 2.2347 170.00 0.0058824 598.58 628.59 2.2347 2.2241 8.5947 164.57 0.15031 17.946 0.053992 170.00 0.0058824 598.58 628.59 2.2347 2.2241 8.5947 164.57 0.15031 17.946 0.053992
112.38 748.48 undefined 600.80 631.15 2.2404 170.00 0.0058824 600.80 631.15 2.2404 2.2194 8.2291 165.92 0.14784 17.979 0.053657 170.00 0.0058824 600.80 631.15 2.2404 2.2194 8.2291 165.92 0.14784 17.979 0.053657
113.38 756.86 undefined 603.01 633.71 2.2462 170.00 0.0058824 603.01 633.71 2.2462 2.2153 7.9023 167.26 0.14542 18.012 0.053359 170.00 0.0058824 603.01 633.71 2.2462 2.2153 7.9023 167.26 0.14542 18.012 0.053359
114.38 765.23 undefined 605.23 636.26 2.2519 170.00 0.0058824 605.23 636.26 2.2519 2.2117 7.6086 168.59 0.14306 18.045 0.053093 170.00 0.0058824 605.23 636.26 2.2519 2.2117 7.6086 168.59 0.14306 18.045 0.053093
115.38 773.59 undefined 607.44 638.81 2.2576 170.00 0.0058824 607.44 638.81 2.2576 2.2085 7.3432 169.91 0.14075 18.078 0.052857 170.00 0.0058824 607.44 638.81 2.2576 2.2085 7.3432 169.91 0.14075 18.078 0.052857
116.38 781.93 undefined 609.65 641.36 2.2633 170.00 0.0058824 609.65 641.36 2.2633 2.2057 7.1024 171.22 0.13850 18.111 0.052647 170.00 0.0058824 609.65 641.36 2.2633 2.2057 7.1024 171.22 0.13850 18.111 0.052647
117.38 790.27 undefined 611.85 643.90 2.2689 170.00 0.0058824 611.85 643.90 2.2689 2.2032 6.8829 172.53 0.13629 18.143 0.052460 170.00 0.0058824 611.85 643.90 2.2689 2.2032 6.8829 172.53 0.13629 18.143 0.052460
118.38 798.60 undefined 614.05 646.44 2.2745 170.00 0.0058824 614.05 646.44 2.2745 2.2011 6.6821 173.82 0.13413 18.176 0.052294 170.00 0.0058824 614.05 646.44 2.2745 2.2011 6.6821 173.82 0.13413 18.176 0.052294
119.38 806.91 undefined 616.25 648.98 2.2802 170.00 0.0058824 616.25 648.98 2.2802 2.1993 6.4978 175.10 0.13202 18.209 0.052148 170.00 0.0058824 616.25 648.98 2.2802 2.1993 6.4978 175.10 0.13202 18.209 0.052148
120.38 815.22 undefined 618.45 651.51 2.2858 170.00 0.0058824 618.45 651.51 2.2858 2.1977 6.3281 176.38 0.12996 18.242 0.052018 170.00 0.0058824 618.45 651.51 2.2858 2.1977 6.3281 176.38 0.12996 18.242 0.052018
121.38 823.52 undefined 620.65 654.05 2.2913 170.00 0.0058824 620.65 654.05 2.2913 2.1964 6.1713 177.65 0.12795 18.275 0.051905 170.00 0.0058824 620.65 654.05 2.2913 2.1964 6.1713 177.65 0.12795 18.275 0.051905
122.38 831.81 undefined 622.84 656.58 2.2969 170.00 0.0058824 622.84 656.58 2.2969 2.1954 6.0261 178.91 0.12598 18.307 0.051806 170.00 0.0058824 622.84 656.58 2.2969 2.1954 6.0261 178.91 0.12598 18.307 0.051806
123.38 840.09 undefined 625.04 659.11 2.3024 170.00 0.0058824 625.04 659.11 2.3024 2.1945 5.8913 180.16 0.12405 18.340 0.051720 170.00 0.0058824 625.04 659.11 2.3024 2.1945 5.8913 180.16 0.12405 18.340 0.051720
124.38 848.37 undefined 627.23 661.64 2.3080 170.00 0.0058824 627.23 661.64 2.3080 2.1939 5.7659 181.41 0.12217 18.372 0.051646 170.00 0.0058824 627.23 661.64 2.3080 2.1939 5.7659 181.41 0.12217 18.372 0.051646
125.38 856.63 undefined 629.43 664.17 2.3135 170.00 0.0058824 629.43 664.17 2.3135 2.1935 5.6489 182.65 0.12032 18.405 0.051584 170.00 0.0058824 629.43 664.17 2.3135 2.1935 5.6489 182.65 0.12032 18.405 0.051584
126.38 864.89 undefined 631.62 666.70 2.3190 170.00 0.0058824 631.62 666.70 2.3190 2.1932 5.5396 183.88 0.11852 18.437 0.051532 170.00 0.0058824 631.62 666.70 2.3190 2.1932 5.5396 183.88 0.11852 18.437 0.051532
127.38 873.15 undefined 633.81 669.23 2.3244 170.00 0.0058824 633.81 669.23 2.3244 2.1931 5.4373 185.10 0.11676 18.470 0.051490 170.00 0.0058824 633.81 669.23 2.3244 2.1931 5.4373 185.10 0.11676 18.470 0.051490
128.38 881.39 undefined 636.01 671.75 2.3299 170.00 0.0058824 636.01 671.75 2.3299 2.1932 5.3413 186.32 0.11504 18.502 0.051457 170.00 0.0058824 636.01 671.75 2.3299 2.1932 5.3413 186.32 0.11504 18.502 0.051457
129.38 889.63 undefined 638.20 674.28 2.3354 170.00 0.0058824 638.20 674.28 2.3354 2.1935 5.2512 187.53 0.11335 18.535 0.051432 170.00 0.0058824 638.20 674.28 2.3354 2.1935 5.2512 187.53 0.11335 18.535 0.051432
130.38 897.87 undefined 640.39 676.81 2.3408 170.00 0.0058824 640.39 676.81 2.3408 2.1939 5.1663 188.73 0.11170 18.567 0.051415 170.00 0.0058824 640.39 676.81 2.3408 2.1939 5.1663 188.73 0.11170 18.567 0.051415
131.38 906.09 undefined 642.59 679.34 2.3462 170.00 0.0058824 642.59 679.34 2.3462 2.1944 5.0864 189.93 0.11009 18.599 0.051405 170.00 0.0058824 642.59 679.34 2.3462 2.1944 5.0864 189.93 0.11009 18.599 0.051405
132.38 914.31 undefined 644.78 681.86 2.3517 170.00 0.0058824 644.78 681.86 2.3517 2.1951 5.0109 191.12 0.10850 18.631 0.051402 170.00 0.0058824 644.78 681.86 2.3517 2.1951 5.0109 191.12 0.10850 18.631 0.051402
133.38 922.53 undefined 646.98 684.39 2.3571 170.00 0.0058824 646.98 684.39 2.3571 2.1959 4.9396 192.30 0.10696 18.664 0.051405 170.00 0.0058824 646.98 684.39 2.3571 2.1959 4.9396 192.30 0.10696 18.664 0.051405
134.38 930.74 undefined 649.17 686.92 2.3625 170.00 0.0058824 649.17 686.92 2.3625 2.1968 4.8721 193.48 0.10544 18.696 0.051414 170.00 0.0058824 649.17 686.92 2.3625 2.1968 4.8721 193.48 0.10544 18.696 0.051414
135.38 938.94 undefined 651.37 689.45 2.3679 170.00 0.0058824 651.37 689.45 2.3679 2.1978 4.8082 194.65 0.10396 18.728 0.051429 170.00 0.0058824 651.37 689.45 2.3679 2.1978 4.8082 194.65 0.10396 18.728 0.051429
136.38 947.14 undefined 653.57 691.98 2.3732 170.00 0.0058824 653.57 691.98 2.3732 2.1989 4.7476 195.81 0.10251 18.760 0.051449 170.00 0.0058824 653.57 691.98 2.3732 2.1989 4.7476 195.81 0.10251 18.760 0.051449
137.38 955.34 undefined 655.77 694.51 2.3786 170.00 0.0058824 655.77 694.51 2.3786 2.2001 4.6901 196.97 0.10108 18.792 0.051474 170.00 0.0058824 655.77 694.51 2.3786 2.2001 4.6901 196.97 0.10108 18.792 0.051474
138.38 963.53 undefined 657.97 697.05 2.3839 170.00 0.0058824 657.97 697.05 2.3839 2.2015 4.6354 198.12 0.099691 18.824 0.051504 170.00 0.0058824 657.97 697.05 2.3839 2.2015 4.6354 198.12 0.099691 18.824 0.051504
139.38 971.71 undefined 660.17 699.58 2.3893 170.00 0.0058824 660.17 699.58 2.3893 2.2029 4.5834 199.27 0.098326 18.856 0.051538 170.00 0.0058824 660.17 699.58 2.3893 2.2029 4.5834 199.27 0.098326 18.856 0.051538
140.38 979.89 undefined 662.38 702.12 2.3946 170.00 0.0058824 662.38 702.12 2.3946 2.2044 4.5339 200.41 0.096989 18.888 0.051576 170.00 0.0058824 662.38 702.12 2.3946 2.2044 4.5339 200.41 0.096989 18.888 0.051576
141.38 988.07 undefined 664.58 704.65 2.4000 170.00 0.0058824 664.58 704.65 2.4000 2.2059 4.4866 201.55 0.095679 18.920 0.051618 170.00 0.0058824 664.58 704.65 2.4000 2.2059 4.4866 201.55 0.095679 18.920 0.051618
142.38 996.24 undefined 666.79 707.19 2.4053 170.00 0.0058824 666.79 707.19 2.4053 2.2076 4.4416 202.68 0.094395 18.951 0.051664 170.00 0.0058824 666.79 707.19 2.4053 2.2076 4.4416 202.68 0.094395 18.951 0.051664
143.38 1004.4 undefined 669.00 709.73 2.4106 170.00 0.0058824 669.00 709.73 2.4106 2.2093 4.3986 203.80 0.093136 18.983 0.051714 170.00 0.0058824 669.00 709.73 2.4106 2.2093 4.3986 203.80 0.093136 18.983 0.051714
144.38 1012.6 undefined 671.21 712.27 2.4159 170.00 0.0058824 671.21 712.27 2.4159 2.2111 4.3576 204.92 0.091902 19.015 0.051766 170.00 0.0058824 671.21 712.27 2.4159 2.2111 4.3576 204.92 0.091902 19.015 0.051766
145.38 1020.7 undefined 673.42 714.82 2.4212 170.00 0.0058824 673.42 714.82 2.4212 2.2129 4.3183 206.03 0.090692 19.047 0.051822 170.00 0.0058824 673.42 714.82 2.4212 2.2129 4.3183 206.03 0.090692 19.047 0.051822
146.38 1028.9 undefined 675.63 717.36 2.4265 170.00 0.0058824 675.63 717.36 2.4265 2.2148 4.2807 207.14 0.089506 19.078 0.051882 170.00 0.0058824 675.63 717.36 2.4265 2.2148 4.2807 207.14 0.089506 19.078 0.051882
147.38 1037.0 undefined 677.85 719.91 2.4317 170.00 0.0058824 677.85 719.91 2.4317 2.2168 4.2448 208.24 0.088343 19.110 0.051944 170.00 0.0058824 677.85 719.91 2.4317 2.2168 4.2448 208.24 0.088343 19.110 0.051944
148.38 1045.2 undefined 680.07 722.46 2.4370 170.00 0.0058824 680.07 722.46 2.4370 2.2188 4.2103 209.33 0.087202 19.141 0.052009 170.00 0.0058824 680.07 722.46 2.4370 2.2188 4.2103 209.33 0.087202 19.141 0.052009
149.38 1053.3 undefined 682.29 725.01 2.4423 170.00 0.0058824 682.29 725.01 2.4423 2.2209 4.1773 210.43 0.086083 19.173 0.052076 170.00 0.0058824 682.29 725.01 2.4423 2.2209 4.1773 210.43 0.086083 19.173 0.052076
150.38 1061.5 undefined 684.51 727.56 2.4475 170.00 0.0058824 684.51 727.56 2.4475 2.2230 4.1456 211.51 0.084985 19.204 0.052146 170.00 0.0058824 684.51 727.56 2.4475 2.2230 4.1456 211.51 0.084985 19.204 0.052146
151.38 1069.6 undefined 686.73 730.11 2.4528 170.00 0.0058824 686.73 730.11 2.4528 2.2252 4.1152 212.59 0.083908 19.236 0.052218 170.00 0.0058824 686.73 730.11 2.4528 2.2252 4.1152 212.59 0.083908 19.236 0.052218
152.38 1077.7 undefined 688.96 732.67 2.4580 170.00 0.0058824 688.96 732.67 2.4580 2.2274 4.0860 213.67 0.082851 19.267 0.052293 170.00 0.0058824 688.96 732.67 2.4580 2.2274 4.0860 213.67 0.082851 19.267 0.052293
153.38 1085.9 undefined 691.19 735.23 2.4632 170.00 0.0058824 691.19 735.23 2.4632 2.2296 4.0579 214.74 0.081814 19.299 0.052370 170.00 0.0058824 691.19 735.23 2.4632 2.2296 4.0579 214.74 0.081814 19.299 0.052370
154.38 1094.0 undefined 693.42 737.79 2.4684 170.00 0.0058824 693.42 737.79 2.4684 2.2319 4.0309 215.81 0.080796 19.330 0.052449 170.00 0.0058824 693.42 737.79 2.4684 2.2319 4.0309 215.81 0.080796 19.330 0.052449
155.38 1102.1 undefined 695.65 740.35 2.4737 170.00 0.0058824 695.65 740.35 2.4737 2.2343 4.0050 216.87 0.079796 19.361 0.052530 170.00 0.0058824 695.65 740.35 2.4737 2.2343 4.0050 216.87 0.079796 19.361 0.052530
156.38 1110.2 undefined 697.89 742.91 2.4789 170.00 0.0058824 697.89 742.91 2.4789 2.2366 3.9800 217.93 0.078815 19.393 0.052614 170.00 0.0058824 697.89 742.91 2.4789 2.2366 3.9800 217.93 0.078815 19.393 0.052614
157.38 1118.3 undefined 700.12 745.48 2.4841 170.00 0.0058824 700.12 745.48 2.4841 2.2391 3.9560 218.98 0.077851 19.424 0.052699 170.00 0.0058824 700.12 745.48 2.4841 2.2391 3.9560 218.98 0.077851 19.424 0.052699
158.38 1126.4 undefined 702.36 748.05 2.4893 170.00 0.0058824 702.36 748.05 2.4893 2.2415 3.9329 220.03 0.076905 19.455 0.052786 170.00 0.0058824 702.36 748.05 2.4893 2.2415 3.9329 220.03 0.076905 19.455 0.052786
159.38 1134.5 undefined 704.61 750.62 2.4945 170.00 0.0058824 704.61 750.62 2.4945 2.2440 3.9106 221.08 0.075976 19.486 0.052874 170.00 0.0058824 704.61 750.62 2.4945 2.2440 3.9106 221.08 0.075976 19.486 0.052874
160.38 1142.6 undefined 706.85 753.19 2.4997 170.00 0.0058824 706.85 753.19 2.4997 2.2465 3.8891 222.12 0.075063 19.517 0.052964 170.00 0.0058824 706.85 753.19 2.4997 2.2465 3.8891 222.12 0.075063 19.517 0.052964
161.38 1150.7 undefined 709.10 755.77 2.5048 170.00 0.0058824 709.10 755.77 2.5048 2.2490 3.8684 223.15 0.074167 19.548 0.053056 170.00 0.0058824 709.10 755.77 2.5048 2.2490 3.8684 223.15 0.074167 19.548 0.053056
162.38 1158.8 undefined 711.35 758.35 2.5100 170.00 0.0058824 711.35 758.35 2.5100 2.2516 3.8484 224.18 0.073286 19.579 0.053150 170.00 0.0058824 711.35 758.35 2.5100 2.2516 3.8484 224.18 0.073286 19.579 0.053150
163.38 1166.9 undefined 713.60 760.93 2.5152 170.00 0.0058824 713.60 760.93 2.5152 2.2542 3.8291 225.21 0.072421 19.610 0.053245 170.00 0.0058824 713.60 760.93 2.5152 2.2542 3.8291 225.21 0.072421 19.610 0.053245
164.38 1175.0 undefined 715.86 763.51 2.5203 170.00 0.0058824 715.86 763.51 2.5203 2.2568 3.8105 226.23 0.071570 19.641 0.053341 170.00 0.0058824 715.86 763.51 2.5203 2.2568 3.8105 226.23 0.071570 19.641 0.053341
165.38 1183.1 undefined 718.12 766.10 2.5255 170.00 0.0058824 718.12 766.10 2.5255 2.2594 3.7925 227.25 0.070734 19.672 0.053439 170.00 0.0058824 718.12 766.10 2.5255 2.2594 3.7925 227.25 0.070734 19.672 0.053439
166.38 1191.2 undefined 720.38 768.69 2.5306 170.00 0.0058824 720.38 768.69 2.5306 2.2621 3.7752 228.26 0.069913 19.703 0.053538 170.00 0.0058824 720.38 768.69 2.5306 2.2621 3.7752 228.26 0.069913 19.703 0.053538
167.38 1199.3 undefined 722.64 771.28 2.5358 170.00 0.0058824 722.64 771.28 2.5358 2.2648 3.7584 229.27 0.069105 19.734 0.053639 170.00 0.0058824 722.64 771.28 2.5358 2.2648 3.7584 229.27 0.069105 19.734 0.053639
168.38 1207.4 undefined 724.91 773.87 2.5409 170.00 0.0058824 724.91 773.87 2.5409 2.2675 3.7422 230.28 0.068311 19.765 0.053741 170.00 0.0058824 724.91 773.87 2.5409 2.2675 3.7422 230.28 0.068311 19.765 0.053741
169.38 1215.4 undefined 727.17 776.47 2.5461 170.00 0.0058824 727.17 776.47 2.5461 2.2702 3.7266 231.28 0.067531 19.795 0.053844 170.00 0.0058824 727.17 776.47 2.5461 2.2702 3.7266 231.28 0.067531 19.795 0.053844
170.38 1223.5 undefined 729.45 779.07 2.5512 170.00 0.0058824 729.45 779.07 2.5512 2.2729 3.7114 232.28 0.066763 19.826 0.053948 170.00 0.0058824 729.45 779.07 2.5512 2.2729 3.7114 232.28 0.066763 19.826 0.053948
171.38 1231.6 undefined 731.72 781.67 2.5563 170.00 0.0058824 731.72 781.67 2.5563 2.2757 3.6968 233.27 0.066008 19.857 0.054054 170.00 0.0058824 731.72 781.67 2.5563 2.2757 3.6968 233.27 0.066008 19.857 0.054054
172.38 1239.7 undefined 734.00 784.27 2.5614 170.00 0.0058824 734.00 784.27 2.5614 2.2785 3.6826 234.27 0.065266 19.887 0.054161 170.00 0.0058824 734.00 784.27 2.5614 2.2785 3.6826 234.27 0.065266 19.887 0.054161
173.38 1247.7 undefined 736.28 786.88 2.5665 170.00 0.0058824 736.28 786.88 2.5665 2.2813 3.6690 235.25 0.064536 19.918 0.054268 170.00 0.0058824 736.28 786.88 2.5665 2.2813 3.6690 235.25 0.064536 19.918 0.054268
174.38 1255.8 undefined 738.56 789.49 2.5716 170.00 0.0058824 738.56 789.49 2.5716 2.2841 3.6557 236.23 0.063817 19.948 0.054377 170.00 0.0058824 738.56 789.49 2.5716 2.2841 3.6557 236.23 0.063817 19.948 0.054377
175.38 1263.8 undefined 740.85 792.10 2.5767 170.00 0.0058824 740.85 792.10 2.5767 2.2869 3.6429 237.21 0.063111 19.979 0.054487 170.00 0.0058824 740.85 792.10 2.5767 2.2869 3.6429 237.21 0.063111 19.979 0.054487
176.38 1271.9 undefined 743.13 794.72 2.5818 170.00 0.0058824 743.13 794.72 2.5818 2.2898 3.6305 238.19 0.062415 20.009 0.054598 170.00 0.0058824 743.13 794.72 2.5818 2.2898 3.6305 238.19 0.062415 20.009 0.054598
177.38 1279.9 undefined 745.43 797.34 2.5869 170.00 0.0058824 745.43 797.34 2.5869 2.2927 3.6184 239.16 0.061731 20.040 0.054710 170.00 0.0058824 745.43 797.34 2.5869 2.2927 3.6184 239.16 0.061731 20.040 0.054710
178.38 1288.0 undefined 747.72 799.96 2.5920 170.00 0.0058824 747.72 799.96 2.5920 2.2955 3.6068 240.13 0.061058 20.070 0.054823 170.00 0.0058824 747.72 799.96 2.5920 2.2955 3.6068 240.13 0.061058 20.070 0.054823
179.38 1296.0 undefined 750.02 802.58 2.5971 170.00 0.0058824 750.02 802.58 2.5971 2.2984 3.5955 241.09 0.060395 20.101 0.054937 170.00 0.0058824 750.02 802.58 2.5971 2.2984 3.5955 241.09 0.060395 20.101 0.054937
180.38 1304.1 undefined 752.32 805.21 2.6022 170.00 0.0058824 752.32 805.21 2.6022 2.3013 3.5846 242.06 0.059743 20.131 0.055051 170.00 0.0058824 752.32 805.21 2.6022 2.3013 3.5846 242.06 0.059743 20.131 0.055051
181.38 1312.1 undefined 754.62 807.84 2.6072 170.00 0.0058824 754.62 807.84 2.6072 2.3043 3.5740 243.01 0.059101 20.161 0.055167 170.00 0.0058824 754.62 807.84 2.6072 2.3043 3.5740 243.01 0.059101 20.161 0.055167
182.38 1320.2 undefined 756.92 810.47 2.6123 170.00 0.0058824 756.92 810.47 2.6123 2.3072 3.5638 243.97 0.058468 20.192 0.055284 170.00 0.0058824 756.92 810.47 2.6123 2.3072 3.5638 243.97 0.058468 20.192 0.055284
183.38 1328.2 undefined 759.23 813.10 2.6174 170.00 0.0058824 759.23 813.10 2.6174 2.3101 3.5539 244.92 0.057846 20.222 0.055401 170.00 0.0058824 759.23 813.10 2.6174 2.3101 3.5539 244.92 0.057846 20.222 0.055401
184.38 1336.2 undefined 761.55 815.74 2.6224 170.00 0.0058824 761.55 815.74 2.6224 2.3131 3.5442 245.87 0.057233 20.252 0.055519 170.00 0.0058824 761.55 815.74 2.6224 2.3131 3.5442 245.87 0.057233 20.252 0.055519
185.38 1344.3 undefined 763.86 818.38 2.6275 170.00 0.0058824 763.86 818.38 2.6275 2.3160 3.5349 246.81 0.056630 20.282 0.055638 170.00 0.0058824 763.86 818.38 2.6275 2.3160 3.5349 246.81 0.056630 20.282 0.055638
186.38 1352.3 undefined 766.18 821.02 2.6325 170.00 0.0058824 766.18 821.02 2.6325 2.3190 3.5259 247.75 0.056035 20.312 0.055758 170.00 0.0058824 766.18 821.02 2.6325 2.3190 3.5259 247.75 0.056035 20.312 0.055758
187.38 1360.3 undefined 768.50 823.67 2.6376 170.00 0.0058824 768.50 823.67 2.6376 2.3220 3.5171 248.69 0.055450 20.342 0.055879 170.00 0.0058824 768.50 823.67 2.6376 2.3220 3.5171 248.69 0.055450 20.342 0.055879
188.38 1368.4 undefined 770.82 826.32 2.6426 170.00 0.0058824 770.82 826.32 2.6426 2.3250 3.5086 249.62 0.054873 20.372 0.056000 170.00 0.0058824 770.82 826.32 2.6426 2.3250 3.5086 249.62 0.054873 20.372 0.056000
189.38 1376.4 undefined 773.15 828.97 2.6476 170.00 0.0058824 773.15 828.97 2.6476 2.3280 3.5004 250.55 0.054305 20.402 0.056122 170.00 0.0058824 773.15 828.97 2.6476 2.3280 3.5004 250.55 0.054305 20.402 0.056122
190.38 1384.4 undefined 775.48 831.63 2.6527 170.00 0.0058824 775.48 831.63 2.6527 2.3310 3.4924 251.48 0.053746 20.432 0.056245 170.00 0.0058824 775.48 831.63 2.6527 2.3310 3.4924 251.48 0.053746 20.432 0.056245
191.38 1392.4 undefined 777.81 834.28 2.6577 170.00 0.0058824 777.81 834.28 2.6577 2.3341 3.4847 252.40 0.053194 20.462 0.056368 170.00 0.0058824 777.81 834.28 2.6577 2.3341 3.4847 252.40 0.053194 20.462 0.056368
192.38 1400.4 undefined 780.15 836.94 2.6627 170.00 0.0058824 780.15 836.94 2.6627 2.3371 3.4772 253.33 0.052651 20.492 0.056493 170.00 0.0058824 780.15 836.94 2.6627 2.3371 3.4772 253.33 0.052651 20.492 0.056493
193.38 1408.4 undefined 782.48 839.61 2.6677 170.00 0.0058824 782.48 839.61 2.6677 2.3401 3.4699 254.24 0.052116 20.522 0.056618 170.00 0.0058824 782.48 839.61 2.6677 2.3401 3.4699 254.24 0.052116 20.522 0.056618
194.38 1416.5 undefined 784.83 842.27 2.6728 170.00 0.0058824 784.83 842.27 2.6728 2.3432 3.4629 255.16 0.051588 20.552 0.056743 170.00 0.0058824 784.83 842.27 2.6728 2.3432 3.4629 255.16 0.051588 20.552 0.056743
195.38 1424.5 undefined 787.17 844.94 2.6778 170.00 0.0058824 787.17 844.94 2.6778 2.3463 3.4560 256.07 0.051068 20.582 0.056870 170.00 0.0058824 787.17 844.94 2.6778 2.3463 3.4560 256.07 0.051068 20.582 0.056870
196.38 1432.5 undefined 789.52 847.62 2.6828 170.00 0.0058824 789.52 847.62 2.6828 2.3493 3.4494 256.98 0.050556 20.611 0.056997 170.00 0.0058824 789.52 847.62 2.6828 2.3493 3.4494 256.98 0.050556 20.611 0.056997
197.38 1440.5 undefined 791.87 850.29 2.6878 170.00 0.0058824 791.87 850.29 2.6878 2.3524 3.4430 257.89 0.050051 20.641 0.057124 170.00 0.0058824 791.87 850.29 2.6878 2.3524 3.4430 257.89 0.050051 20.641 0.057124
198.38 1448.5 undefined 794.22 852.97 2.6928 170.00 0.0058824 794.22 852.97 2.6928 2.3555 3.4368 258.79 0.049553 20.671 0.057252 170.00 0.0058824 794.22 852.97 2.6928 2.3555 3.4368 258.79 0.049553 20.671 0.057252
199.38 1456.5 undefined 796.58 855.65 2.6978 170.00 0.0058824 796.58 855.65 2.6978 2.3586 3.4307 259.69 0.049062 20.700 0.057381 170.00 0.0058824 796.58 855.65 2.6978 2.3586 3.4307 259.69 0.049062 20.700 0.057381
200.38 1464.5 undefined 798.94 858.34 2.7028 170.00 0.0058824 798.94 858.34 2.7028 2.3617 3.4249 260.59 0.048578 20.730 0.057511 170.00 0.0058824 798.94 858.34 2.7028 2.3617 3.4249 260.59 0.048578 20.730 0.057511
201.38 1472.5 undefined 801.30 861.02 2.7077 170.00 0.0058824 801.30 861.02 2.7077 2.3648 3.4192 261.48 0.048101 20.760 0.057641 170.00 0.0058824 801.30 861.02 2.7077 2.3648 3.4192 261.48 0.048101 20.760 0.057641
202.38 1480.5 undefined 803.67 863.71 2.7127 170.00 0.0058824 803.67 863.71 2.7127 2.3679 3.4137 262.37 0.047630 20.789 0.057771 170.00 0.0058824 803.67 863.71 2.7127 2.3679 3.4137 262.37 0.047630 20.789 0.057771
203.38 1488.4 undefined 806.04 866.41 2.7177 170.00 0.0058824 806.04 866.41 2.7177 2.3710 3.4084 263.26 0.047166 20.819 0.057902 170.00 0.0058824 806.04 866.41 2.7177 2.3710 3.4084 263.26 0.047166 20.819 0.057902
204.38 1496.4 undefined 808.41 869.10 2.7227 170.00 0.0058824 808.41 869.10 2.7227 2.3741 3.4033 264.15 0.046708 20.848 0.058034 170.00 0.0058824 808.41 869.10 2.7227 2.3741 3.4033 264.15 0.046708 20.848 0.058034
205.38 1504.4 undefined 810.79 871.80 2.7276 170.00 0.0058824 810.79 871.80 2.7276 2.3773 3.3983 265.03 0.046257 20.877 0.058167 170.00 0.0058824 810.79 871.80 2.7276 2.3773 3.3983 265.03 0.046257 20.877 0.058167
206.38 1512.4 undefined 813.17 874.51 2.7326 170.00 0.0058824 813.17 874.51 2.7326 2.3804 3.3934 265.91 0.045812 20.907 0.058299 170.00 0.0058824 813.17 874.51 2.7326 2.3804 3.3934 265.91 0.045812 20.907 0.058299
207.38 1520.4 undefined 815.55 877.21 2.7376 170.00 0.0058824 815.55 877.21 2.7376 2.3835 3.3887 266.79 0.045372 20.936 0.058433 170.00 0.0058824 815.55 877.21 2.7376 2.3835 3.3887 266.79 0.045372 20.936 0.058433
208.38 1528.4 undefined 817.93 879.92 2.7425 170.00 0.0058824 817.93 879.92 2.7425 2.3867 3.3842 267.67 0.044939 20.966 0.058567 170.00 0.0058824 817.93 879.92 2.7425 2.3867 3.3842 267.67 0.044939 20.966 0.058567
209.38 1536.3 undefined 820.32 882.63 2.7475 170.00 0.0058824 820.32 882.63 2.7475 2.3898 3.3798 268.54 0.044512 20.995 0.058701 170.00 0.0058824 820.32 882.63 2.7475 2.3898 3.3798 268.54 0.044512 20.995 0.058701
210.38 1544.3 undefined 822.71 885.35 2.7524 170.00 0.0058824 822.71 885.35 2.7524 2.3930 3.3756 269.41 0.044090 21.024 0.058836 170.00 0.0058824 822.71 885.35 2.7524 2.3930 3.3756 269.41 0.044090 21.024 0.058836
211.38 1552.3 undefined 825.11 888.06 2.7574 170.00 0.0058824 825.11 888.06 2.7574 2.3962 3.3714 270.27 0.043674 21.053 0.058971 170.00 0.0058824 825.11 888.06 2.7574 2.3962 3.3714 270.27 0.043674 21.053 0.058971
212.38 1560.2 undefined 827.51 890.79 2.7623 170.00 0.0058824 827.51 890.79 2.7623 2.3993 3.3674 271.14 0.043263 21.082 0.059107 170.00 0.0058824 827.51 890.79 2.7623 2.3993 3.3674 271.14 0.043263 21.082 0.059107
213.38 1568.2 undefined 829.91 893.51 2.7673 170.00 0.0058824 829.91 893.51 2.7673 2.4025 3.3636 272.00 0.042858 21.112 0.059244 170.00 0.0058824 829.91 893.51 2.7673 2.4025 3.3636 272.00 0.042858 21.112 0.059244
214.38 1576.2 undefined 832.31 896.24 2.7722 170.00 0.0058824 832.31 896.24 2.7722 2.4057 3.3599 272.86 0.042458 21.141 0.059381 170.00 0.0058824 832.31 896.24 2.7722 2.4057 3.3599 272.86 0.042458 21.141 0.059381
215.38 1584.1 undefined 834.72 898.97 2.7771 170.00 0.0058824 834.72 898.97 2.7771 2.4089 3.3563 273.72 0.042063 21.170 0.059518 170.00 0.0058824 834.72 898.97 2.7771 2.4089 3.3563 273.72 0.042063 21.170 0.059518
216.38 1592.1 undefined 837.13 901.70 2.7821 170.00 0.0058824 837.13 901.70 2.7821 2.4120 3.3528 274.57 0.041674 21.199 0.059656 170.00 0.0058824 837.13 901.70 2.7821 2.4120 3.3528 274.57 0.041674 21.199 0.059656
217.38 1600.1 undefined 839.54 904.44 2.7870 170.00 0.0058824 839.54 904.44 2.7870 2.4152 3.3494 275.42 0.041289 21.228 0.059794 170.00 0.0058824 839.54 904.44 2.7870 2.4152 3.3494 275.42 0.041289 21.228 0.059794
218.38 1608.0 undefined 841.96 907.18 2.7919 170.00 0.0058824 841.96 907.18 2.7919 2.4184 3.3462 276.27 0.040910 21.257 0.059933 170.00 0.0058824 841.96 907.18 2.7919 2.4184 3.3462 276.27 0.040910 21.257 0.059933
219.38 1616.0 undefined 844.38 909.92 2.7968 170.00 0.0058824 844.38 909.92 2.7968 2.4216 3.3430 277.12 0.040535 21.286 0.060072 170.00 0.0058824 844.38 909.92 2.7968 2.4216 3.3430 277.12 0.040535 21.286 0.060072
220.38 1623.9 undefined 846.80 912.66 2.8017 170.00 0.0058824 846.80 912.66 2.8017 2.4248 3.3400 277.96 0.040165 21.315 0.060212 170.00 0.0058824 846.80 912.66 2.8017 2.4248 3.3400 277.96 0.040165 21.315 0.060212
221.38 1631.9 undefined 849.23 915.41 2.8067 170.00 0.0058824 849.23 915.41 2.8067 2.4280 3.3370 278.80 0.039800 21.344 0.060352 170.00 0.0058824 849.23 915.41 2.8067 2.4280 3.3370 278.80 0.039800 21.344 0.060352
222.38 1639.8 undefined 851.66 918.17 2.8116 170.00 0.0058824 851.66 918.17 2.8116 2.4312 3.3342 279.64 0.039439 21.372 0.060493 170.00 0.0058824 851.66 918.17 2.8116 2.4312 3.3342 279.64 0.039439 21.372 0.060493
223.38 1647.8 undefined 854.09 920.92 2.8165 170.00 0.0058824 854.09 920.92 2.8165 2.4344 3.3315 280.48 0.039083 21.401 0.060633 170.00 0.0058824 854.09 920.92 2.8165 2.4344 3.3315 280.48 0.039083 21.401 0.060633
224.38 1655.7 undefined 856.53 923.68 2.8214 170.00 0.0058824 856.53 923.68 2.8214 2.4377 3.3289 281.31 0.038732 21.430 0.060775 170.00 0.0058824 856.53 923.68 2.8214 2.4377 3.3289 281.31 0.038732 21.430 0.060775
225.38 1663.7 undefined 858.97 926.44 2.8263 170.00 0.0058824 858.97 926.44 2.8263 2.4409 3.3263 282.14 0.038384 21.459 0.060917 170.00 0.0058824 858.97 926.44 2.8263 2.4409 3.3263 282.14 0.038384 21.459 0.060917
226.38 1671.6 undefined 861.41 929.20 2.8312 170.00 0.0058824 861.41 929.20 2.8312 2.4441 3.3239 282.97 0.038042 21.487 0.061059 170.00 0.0058824 861.41 929.20 2.8312 2.4441 3.3239 282.97 0.038042 21.487 0.061059
227.38 1679.5 undefined 863.85 931.97 2.8361 170.00 0.0058824 863.85 931.97 2.8361 2.4473 3.3216 283.80 0.037703 21.516 0.061201 170.00 0.0058824 863.85 931.97 2.8361 2.4473 3.3216 283.80 0.037703 21.516 0.061201
228.38 1687.5 undefined 866.30 934.74 2.8409 170.00 0.0058824 866.30 934.74 2.8409 2.4505 3.3193 284.63 0.037368 21.545 0.061344 170.00 0.0058824 866.30 934.74 2.8409 2.4505 3.3193 284.63 0.037368 21.545 0.061344
229.38 1695.4 undefined 868.76 937.52 2.8458 170.00 0.0058824 868.76 937.52 2.8458 2.4538 3.3171 285.45 0.037038 21.573 0.061487 170.00 0.0058824 868.76 937.52 2.8458 2.4538 3.3171 285.45 0.037038 21.573 0.061487
230.38 1703.3 undefined 871.21 940.29 2.8507 170.00 0.0058824 871.21 940.29 2.8507 2.4570 3.3150 286.27 0.036712 21.602 0.061631 170.00 0.0058824 871.21 940.29 2.8507 2.4570 3.3150 286.27 0.036712 21.602 0.061631
231.38 1711.3 undefined 873.67 943.07 2.8556 170.00 0.0058824 873.67 943.07 2.8556 2.4602 3.3130 287.09 0.036389 21.630 0.061775 170.00 0.0058824 873.67 943.07 2.8556 2.4602 3.3130 287.09 0.036389 21.630 0.061775
232.38 1719.2 undefined 876.13 945.86 2.8605 170.00 0.0058824 876.13 945.86 2.8605 2.4635 3.3111 287.90 0.036071 21.659 0.061920 170.00 0.0058824 876.13 945.86 2.8605 2.4635 3.3111 287.90 0.036071 21.659 0.061920
233.38 1727.1 undefined 878.60 948.64 2.8653 170.00 0.0058824 878.60 948.64 2.8653 2.4667 3.3093 288.72 0.035756 21.687 0.062064 170.00 0.0058824 878.60 948.64 2.8653 2.4667 3.3093 288.72 0.035756 21.687 0.062064
234.38 1735.1 undefined 881.06 951.43 2.8702 170.00 0.0058824 881.06 951.43 2.8702 2.4700 3.3075 289.53 0.035445 21.716 0.062210 170.00 0.0058824 881.06 951.43 2.8702 2.4700 3.3075 289.53 0.035445 21.716 0.062210
235.38 1743.0 undefined 883.54 954.23 2.8751 170.00 0.0058824 883.54 954.23 2.8751 2.4732 3.3058 290.34 0.035138 21.744 0.062355 170.00 0.0058824 883.54 954.23 2.8751 2.4732 3.3058 290.34 0.035138 21.744 0.062355
236.38 1750.9 undefined 886.01 957.02 2.8799 170.00 0.0058824 886.01 957.02 2.8799 2.4765 3.3042 291.14 0.034834 21.772 0.062501 170.00 0.0058824 886.01 957.02 2.8799 2.4765 3.3042 291.14 0.034834 21.772 0.062501
237.38 1758.8 undefined 888.49 959.82 2.8848 170.00 0.0058824 888.49 959.82 2.8848 2.4797 3.3027 291.95 0.034534 21.801 0.062647 170.00 0.0058824 888.49 959.82 2.8848 2.4797 3.3027 291.95 0.034534 21.801 0.062647
238.38 1766.7 undefined 890.97 962.63 2.8896 170.00 0.0058824 890.97 962.63 2.8896 2.4829 3.3012 292.75 0.034238 21.829 0.062794 170.00 0.0058824 890.97 962.63 2.8896 2.4829 3.3012 292.75 0.034238 21.829 0.062794
239.38 1774.7 undefined 893.46 965.43 2.8945 170.00 0.0058824 893.46 965.43 2.8945 2.4862 3.2998 293.55 0.033945 21.857 0.062940 170.00 0.0058824 893.46 965.43 2.8945 2.4862 3.2998 293.55 0.033945 21.857 0.062940
240.38 1782.6 undefined 895.94 968.24 2.8993 170.00 0.0058824 895.94 968.24 2.8993 2.4895 3.2985 294.35 0.033656 21.886 0.063088 170.00 0.0058824 895.94 968.24 2.8993 2.4895 3.2985 294.35 0.033656 21.886 0.063088
241.38 1790.5 undefined 898.43 971.05 2.9042 170.00 0.0058824 898.43 971.05 2.9042 2.4927 3.2973 295.15 0.033369 21.914 0.063235 170.00 0.0058824 898.43 971.05 2.9042 2.4927 3.2973 295.15 0.033369 21.914 0.063235
242.38 1798.4 undefined 900.93 973.87 2.9090 170.00 0.0058824 900.93 973.87 2.9090 2.4960 3.2961 295.94 0.033087 21.942 0.063383 170.00 0.0058824 900.93 973.87 2.9090 2.4960 3.2961 295.94 0.033087 21.942 0.063383
243.38 1806.3 undefined 903.43 976.69 2.9139 170.00 0.0058824 903.43 976.69 2.9139 2.4992 3.2949 296.73 0.032807 21.970 0.063531 170.00 0.0058824 903.43 976.69 2.9139 2.4992 3.2949 296.73 0.032807 21.970 0.063531
244.38 1814.2 undefined 905.93 979.51 2.9187 170.00 0.0058824 905.93 979.51 2.9187 2.5025 3.2939 297.52 0.032531 21.998 0.063679 170.00 0.0058824 905.93 979.51 2.9187 2.5025 3.2939 297.52 0.032531 21.998 0.063679
245.38 1822.1 undefined 908.43 982.33 2.9235 170.00 0.0058824 908.43 982.33 2.9235 2.5057 3.2928 298.31 0.032258 22.026 0.063828 170.00 0.0058824 908.43 982.33 2.9235 2.5057 3.2928 298.31 0.032258 22.026 0.063828
246.38 1830.0 undefined 910.94 985.16 2.9284 170.00 0.0058824 910.94 985.16 2.9284 2.5090 3.2919 299.10 0.031988 22.054 0.063977 170.00 0.0058824 910.94 985.16 2.9284 2.5090 3.2919 299.10 0.031988 22.054 0.063977
247.38 1837.9 undefined 913.45 987.99 2.9332 170.00 0.0058824 913.45 987.99 2.9332 2.5123 3.2910 299.88 0.031721 22.082 0.064126 170.00 0.0058824 913.45 987.99 2.9332 2.5123 3.2910 299.88 0.031721 22.082 0.064126
248.38 1845.8 undefined 915.96 990.83 2.9380 170.00 0.0058824 915.96 990.83 2.9380 2.5155 3.2902 300.66 0.031457 22.110 0.064275 170.00 0.0058824 915.96 990.83 2.9380 2.5155 3.2902 300.66 0.031457 22.110 0.064275
249.38 1853.7 undefined 918.48 993.66 2.9429 170.00 0.0058824 918.48 993.66 2.9429 2.5188 3.2894 301.44 0.031196 22.138 0.064425 170.00 0.0058824 918.48 993.66 2.9429 2.5188 3.2894 301.44 0.031196 22.138 0.064425
250.38 1861.6 undefined 921.00 996.50 2.9477 170.00 0.0058824 921.00 996.50 2.9477 2.5221 3.2887 302.22 0.030938 22.166 0.064575 170.00 0.0058824 921.00 996.50 2.9477 2.5221 3.2887 302.22 0.030938 22.166 0.064575
251.38 1869.5 undefined 923.52 999.35 2.9525 170.00 0.0058824 923.52 999.35 2.9525 2.5253 3.2880 303.00 0.030683 22.194 0.064725 170.00 0.0058824 923.52 999.35 2.9525 2.5253 3.2880 303.00 0.030683 22.194 0.064725
252.38 1877.4 undefined 926.05 1002.2 2.9573 170.00 0.0058824 926.05 1002.2 2.9573 2.5286 3.2874 303.77 0.030430 22.222 0.064875 170.00 0.0058824 926.05 1002.2 2.9573 2.5286 3.2874 303.77 0.030430 22.222 0.064875
253.38 1885.3 undefined 928.58 1005.0 2.9621 170.00 0.0058824 928.58 1005.0 2.9621 2.5319 3.2868 304.54 0.030181 22.250 0.065025 170.00 0.0058824 928.58 1005.0 2.9621 2.5319 3.2868 304.54 0.030181 22.250 0.065025
254.38 1893.2 undefined 931.11 1007.9 2.9669 170.00 0.0058824 931.11 1007.9 2.9669 2.5351 3.2863 305.31 0.029934 22.277 0.065176 170.00 0.0058824 931.11 1007.9 2.9669 2.5351 3.2863 305.31 0.029934 22.277 0.065176
255.38 1901.1 undefined 933.65 1010.8 2.9717 170.00 0.0058824 933.65 1010.8 2.9717 2.5384 3.2859 306.08 0.029690 22.305 0.065327 170.00 0.0058824 933.65 1010.8 2.9717 2.5384 3.2859 306.08 0.029690 22.305 0.065327
256.38 1909.0 undefined 936.19 1013.6 2.9765 170.00 0.0058824 936.19 1013.6 2.9765 2.5417 3.2855 306.85 0.029449 22.333 0.065478 170.00 0.0058824 936.19 1013.6 2.9765 2.5417 3.2855 306.85 0.029449 22.333 0.065478
257.38 1916.9 undefined 938.74 1016.5 2.9813 170.00 0.0058824 938.74 1016.5 2.9813 2.5450 3.2851 307.61 0.029210 22.360 0.065629 170.00 0.0058824 938.74 1016.5 2.9813 2.5450 3.2851 307.61 0.029210 22.360 0.065629
258.38 1924.8 undefined 941.28 1019.3 2.9861 170.00 0.0058824 941.28 1019.3 2.9861 2.5482 3.2848 308.37 0.028974 22.388 0.065780 170.00 0.0058824 941.28 1019.3 2.9861 2.5482 3.2848 308.37 0.028974 22.388 0.065780
259.38 1932.6 undefined 943.83 1022.2 2.9909 170.00 0.0058824 943.83 1022.2 2.9909 2.5515 3.2845 309.13 0.028740 22.416 0.065932 170.00 0.0058824 943.83 1022.2 2.9909 2.5515 3.2845 309.13 0.028740 22.416 0.065932
260.38 1940.5 undefined 946.38 1025.1 2.9957 170.00 0.0058824 946.38 1025.1 2.9957 2.5548 3.2843 309.89 0.028509 22.443 0.066083 170.00 0.0058824 946.38 1025.1 2.9957 2.5548 3.2843 309.89 0.028509 22.443 0.066083
261.38 1948.4 undefined 948.94 1028.0 3.0005 170.00 0.0058824 948.94 1028.0 3.0005 2.5580 3.2841 310.65 0.028281 22.471 0.066235 170.00 0.0058824 948.94 1028.0 3.0005 2.5580 3.2841 310.65 0.028281 22.471 0.066235
262.38 1956.3 undefined 951.50 1030.8 3.0053 170.00 0.0058824 951.50 1030.8 3.0053 2.5613 3.2840 311.40 0.028055 22.498 0.066386 170.00 0.0058824 951.50 1030.8 3.0053 2.5613 3.2840 311.40 0.028055 22.498 0.066386
263.38 1964.1 undefined 954.06 1033.7 3.0101 170.00 0.0058824 954.06 1033.7 3.0101 2.5646 3.2839 312.16 0.027831 22.526 0.066538 170.00 0.0058824 954.06 1033.7 3.0101 2.5646 3.2839 312.16 0.027831 22.526 0.066538
264.38 1972.0 undefined 956.63 1036.6 3.0148 170.00 0.0058824 956.63 1036.6 3.0148 2.5679 3.2838 312.91 0.027610 22.553 0.066689 170.00 0.0058824 956.63 1036.6 3.0148 2.5679 3.2838 312.91 0.027610 22.553 0.066689
265.38 1979.9 undefined 959.20 1039.5 3.0196 170.00 0.0058824 959.20 1039.5 3.0196 2.5711 3.2838 313.66 0.027391 22.581 0.066841 170.00 0.0058824 959.20 1039.5 3.0196 2.5711 3.2838 313.66 0.027391 22.581 0.066841
266.38 1987.8 undefined 961.77 1042.4 3.0244 170.00 0.0058824 961.77 1042.4 3.0244 2.5744 3.2838 314.41 0.027175 22.608 0.066992 170.00 0.0058824 961.77 1042.4 3.0244 2.5744 3.2838 314.41 0.027175 22.608 0.066992
267.38 1995.6 undefined 964.35 1045.3 3.0292 170.00 0.0058824 964.35 1045.3 3.0292 2.5777 3.2839 315.15 0.026960 22.635 0.067143 170.00 0.0058824 964.35 1045.3 3.0292 2.5777 3.2839 315.15 0.026960 22.635 0.067143
268.38 2003.5 undefined 966.93 1048.2 3.0339 170.00 0.0058824 966.93 1048.2 3.0339 2.5810 3.2840 315.90 0.026748 22.663 0.067294 170.00 0.0058824 966.93 1048.2 3.0339 2.5810 3.2840 315.90 0.026748 22.663 0.067294
269.38 2011.4 undefined 969.51 1051.1 3.0387 170.00 0.0058824 969.51 1051.1 3.0387 2.5842 3.2841 316.64 0.026539 22.690 0.067445 170.00 0.0058824 969.51 1051.1 3.0387 2.5842 3.2841 316.64 0.026539 22.690 0.067445
270.38 2019.2 undefined 972.10 1054.0 3.0434 170.00 0.0058824 972.10 1054.0 3.0434 2.5875 3.2843 317.38 0.026331 22.717 0.067595 170.00 0.0058824 972.10 1054.0 3.0434 2.5875 3.2843 317.38 0.026331 22.717 0.067595
271.38 2027.1 undefined 974.69 1056.9 3.0482 170.00 0.0058824 974.69 1056.9 3.0482 2.5908 3.2845 318.12 0.026125 22.744 0.067745 170.00 0.0058824 974.69 1056.9 3.0482 2.5908 3.2845 318.12 0.026125 22.744 0.067745
272.38 2035.0 undefined 977.28 1059.8 3.0530 170.00 0.0058824 977.28 1059.8 3.0530 2.5940 3.2848 318.86 0.025922 22.772 0.067894 170.00 0.0058824 977.28 1059.8 3.0530 2.5940 3.2848 318.86 0.025922 22.772 0.067894
273.38 2042.8 undefined 979.87 1062.7 3.0577 170.00 0.0058824 979.87 1062.7 3.0577 2.5973 3.2851 319.59 0.025721 22.799 0.068042 170.00 0.0058824 979.87 1062.7 3.0577 2.5973 3.2851 319.59 0.025721 22.799 0.068042
274.38 2050.7 undefined 982.47 1065.6 3.0625 170.00 0.0058824 982.47 1065.6 3.0625 2.6006 3.2854 320.33 0.025522 22.826 0.068189 170.00 0.0058824 982.47 1065.6 3.0625 2.6006 3.2854 320.33 0.025522 22.826 0.068189
275.38 2058.5 undefined 985.07 1068.6 3.0672 170.00 0.0058824 985.07 1068.6 3.0672 2.6038 3.2857 321.06 0.025325 22.853 0.068335 170.00 0.0058824 985.07 1068.6 3.0672 2.6038 3.2857 321.06 0.025325 22.853 0.068335
276.38 2066.4 undefined 987.68 1071.5 3.0720 170.00 0.0058824 987.68 1071.5 3.0720 2.6071 3.2861 321.79 0.025129 22.880 0.068480 170.00 0.0058824 987.68 1071.5 3.0720 2.6071 3.2861 321.79 0.025129 22.880 0.068480
277.38 2074.3 undefined 990.29 1074.4 3.0767 170.00 0.0058824 990.29 1074.4 3.0767 2.6104 3.2865 322.52 0.024936 22.907 0.068621 170.00 0.0058824 990.29 1074.4 3.0767 2.6104 3.2865 322.52 0.024936 22.907 0.068621
278.38 2082.1 undefined 992.90 1077.3 3.0814 170.00 0.0058824 992.90 1077.3 3.0814 2.6137 3.2870 323.25 0.024745 22.934 0.068759 170.00 0.0058824 992.90 1077.3 3.0814 2.6137 3.2870 323.25 0.024745 22.934 0.068759
279.38 2090.0 undefined 995.52 1080.3 3.0862 170.00 0.0058824 995.52 1080.3 3.0862 2.6169 3.2875 323.97 0.024556 22.961 0.068892 170.00 0.0058824 995.52 1080.3 3.0862 2.6169 3.2875 323.97 0.024556 22.961 0.068892
280.38 2097.8 undefined 998.13 1083.2 3.0909 170.00 0.0058824 998.13 1083.2 3.0909 2.6202 3.2880 324.70 0.024369 22.988 0.069014 170.00 0.0058824 998.13 1083.2 3.0909 2.6202 3.2880 324.70 0.024369 22.988 0.069014
281.38 2105.7 undefined 1000.8 1086.2 3.0956 170.00 0.0058824 1000.8 1086.2 3.0956 2.6235 3.2885 325.42 0.024183 23.015 0.069102 170.00 0.0058824 1000.8 1086.2 3.0956 2.6235 3.2885 325.42 0.024183 23.015 0.069102
282.38 2113.5 undefined 1003.4 1089.1 3.1004 170.00 0.0058824 1003.4 1089.1 3.1004 2.6267 3.2891 326.14 0.024000 23.042 0.069217 170.00 0.0058824 1003.4 1089.1 3.1004 2.6267 3.2891 326.14 0.024000 23.042 0.069217
283.38 2121.4 undefined 1006.0 1092.0 3.1051 170.00 0.0058824 1006.0 1092.0 3.1051 2.6300 3.2897 326.86 0.023818 23.069 0.069392 170.00 0.0058824 1006.0 1092.0 3.1051 2.6300 3.2897 326.86 0.023818 23.069 0.069392
284.38 2129.2 undefined 1008.6 1095.0 3.1098 170.00 0.0058824 1008.6 1095.0 3.1098 2.6332 3.2903 327.58 0.023638 23.095 0.069568 170.00 0.0058824 1008.6 1095.0 3.1098 2.6332 3.2903 327.58 0.023638 23.095 0.069568
285.38 2137.0 undefined 1011.3 1097.9 3.1146 170.00 0.0058824 1011.3 1097.9 3.1146 2.6365 3.2910 328.29 0.023460 23.122 0.069744 170.00 0.0058824 1011.3 1097.9 3.1146 2.6365 3.2910 328.29 0.023460 23.122 0.069744
286.38 2144.9 undefined 1013.9 1100.9 3.1193 170.00 0.0058824 1013.9 1100.9 3.1193 2.6398 3.2917 329.01 0.023283 23.149 0.069920 170.00 0.0058824 1013.9 1100.9 3.1193 2.6398 3.2917 329.01 0.023283 23.149 0.069920
287.38 2152.7 undefined 1016.6 1103.9 3.1240 170.00 0.0058824 1016.6 1103.9 3.1240 2.6430 3.2924 329.72 0.023109 23.176 0.070096 170.00 0.0058824 1016.6 1103.9 3.1240 2.6430 3.2924 329.72 0.023109 23.176 0.070096
288.38 2160.6 undefined 1019.2 1106.8 3.1287 170.00 0.0058824 1019.2 1106.8 3.1287 2.6463 3.2931 330.43 0.022936 23.202 0.070273 170.00 0.0058824 1019.2 1106.8 3.1287 2.6463 3.2931 330.43 0.022936 23.202 0.070273
289.38 2168.4 undefined 1021.8 1109.8 3.1334 170.00 0.0058824 1021.8 1109.8 3.1334 2.6495 3.2939 331.14 0.022764 23.229 0.070450 170.00 0.0058824 1021.8 1109.8 3.1334 2.6495 3.2939 331.14 0.022764 23.229 0.070450
290.38 2176.2 undefined 1024.5 1112.8 3.1381 170.00 0.0058824 1024.5 1112.8 3.1381 2.6528 3.2946 331.85 0.022595 23.256 0.070628 170.00 0.0058824 1024.5 1112.8 3.1381 2.6528 3.2946 331.85 0.022595 23.256 0.070628
291.38 2184.1 undefined 1027.2 1115.7 3.1428 170.00 0.0058824 1027.2 1115.7 3.1428 2.6560 3.2955 332.56 0.022427 23.282 0.070805 170.00 0.0058824 1027.2 1115.7 3.1428 2.6560 3.2955 332.56 0.022427 23.282 0.070805
292.38 2191.9 undefined 1029.8 1118.7 3.1475 170.00 0.0058824 1029.8 1118.7 3.1475 2.6593 3.2963 333.26 0.022261 23.309 0.070983 170.00 0.0058824 1029.8 1118.7 3.1475 2.6593 3.2963 333.26 0.022261 23.309 0.070983
293.38 2199.7 undefined 1032.5 1121.7 3.1522 170.00 0.0058824 1032.5 1121.7 3.1522 2.6625 3.2972 333.97 0.022096 23.335 0.071161 170.00 0.0058824 1032.5 1121.7 3.1522 2.6625 3.2972 333.97 0.022096 23.335 0.071161
294.38 2207.6 undefined 1035.1 1124.7 3.1569 170.00 0.0058824 1035.1 1124.7 3.1569 2.6658 3.2980 334.67 0.021933 23.362 0.071340 170.00 0.0058824 1035.1 1124.7 3.1569 2.6658 3.2980 334.67 0.021933 23.362 0.071340
295.38 2215.4 undefined 1037.8 1127.7 3.1616 170.00 0.0058824 1037.8 1127.7 3.1616 2.6690 3.2990 335.37 0.021771 23.388 0.071519 170.00 0.0058824 1037.8 1127.7 3.1616 2.6690 3.2990 335.37 0.021771 23.388 0.071519
296.38 2223.2 undefined 1040.5 1130.6 3.1663 170.00 0.0058824 1040.5 1130.6 3.1663 2.6723 3.2999 336.07 0.021611 23.415 0.071698 170.00 0.0058824 1040.5 1130.6 3.1663 2.6723 3.2999 336.07 0.021611 23.415 0.071698
297.38 2231.1 undefined 1043.1 1133.6 3.1710 170.00 0.0058824 1043.1 1133.6 3.1710 2.6755 3.3008 336.76 0.021453 23.441 0.071877 170.00 0.0058824 1043.1 1133.6 3.1710 2.6755 3.3008 336.76 0.021453 23.441 0.071877
298.38 2238.9 undefined 1045.8 1136.6 3.1757 170.00 0.0058824 1045.8 1136.6 3.1757 2.6788 3.3018 337.46 0.021296 23.468 0.072057 170.00 0.0058824 1045.8 1136.6 3.1757 2.6788 3.3018 337.46 0.021296 23.468 0.072057
299.38 2246.7 undefined 1048.5 1139.6 3.1804 170.00 0.0058824 1048.5 1139.6 3.1804 2.6820 3.3028 338.16 0.021140 23.494 0.072237 170.00 0.0058824 1048.5 1139.6 3.1804 2.6820 3.3028 338.16 0.021140 23.494 0.072237
300.38 2254.5 undefined 1051.2 1142.6 3.1851 170.00 0.0058824 1051.2 1142.6 3.1851 2.6853 3.3038 338.85 0.020986 23.520 0.072417 170.00 0.0058824 1051.2 1142.6 3.1851 2.6853 3.3038 338.85 0.020986 23.520 0.072417