Temperature (C) Pressure (psia) Quality (l+v) Internal Energy (l+v, kJ/kg) Enthalpy (l+v, kJ/kg) Entropy (l+v, J/g*K) Density (l, kg/m3) Volume (l, m3/kg) Internal Energy (l, kJ/kg) Enthalpy (l, kJ/kg) Entropy (l, J/g*K) Cv (l, J/g*K) Cp (l, J/g*K) Sound Spd. (l, m/s) Joule-Thomson (l, F/psia) Viscosity (l, uPa*s) Therm. Cond. (l, W/m*K) Density (v, kg/m3) Volume (v, m3/kg) Internal Energy (v, kJ/kg) Enthalpy (v, kJ/kg) Entropy (v, J/g*K) Cv (v, J/g*K) Cp (v, J/g*K) Sound Spd. (v, m/s) Joule-Thomson (v, F/psia) Viscosity (v, uPa*s) Therm. Cond. (v, W/m*K)
-187.62 2.4953e-08 4.3116e-11 -196.64 -196.64 -1.3959 733.13 0.0013640 -196.64 -196.64 -1.3959 1.3553 1.9158 2136.4 -0.0077592 10960. 0.20792 1.0669e-08 9.3732e+07 350.13 366.26 5.1858 0.69067 0.87923 143.28 6.1051 2.3259 0.0017061
-186.62 3.7339e-08 6.3742e-11 -194.73 -194.73 -1.3736 732.08 0.0013660 -194.73 -194.73 -1.3736 1.3539 1.9166 2129.6 -0.0077546 10073. 0.20765 1.5780e-08 6.3371e+07 350.82 367.14 5.1200 0.69462 0.88317 144.03 5.9178 2.3534 0.0017533
-185.62 5.5322e-08 9.3316e-11 -192.81 -192.81 -1.3516 731.04 0.0013679 -192.81 -192.81 -1.3516 1.3525 1.9174 2122.9 -0.0077498 9276.1 0.20737 2.3112e-08 4.3267e+07 351.52 368.02 5.0561 0.69857 0.88713 144.77 5.7383 2.3808 0.0018007
-184.62 8.1182e-08 1.3532e-10 -190.89 -190.89 -1.3298 730.00 0.0013699 -190.89 -190.89 -1.3298 1.3513 1.9182 2116.1 -0.0077448 8557.8 0.20708 3.3533e-08 2.9821e+07 352.22 368.91 4.9939 0.70253 0.89108 145.51 5.5662 2.4083 0.0018485
-183.62 1.1803e-07 1.9446e-10 -188.97 -188.97 -1.3083 728.96 0.0013718 -188.97 -188.97 -1.3083 1.3501 1.9191 2109.3 -0.0077395 7909.8 0.20678 4.8211e-08 2.0742e+07 352.92 369.81 4.9333 0.70648 0.89504 146.24 5.4011 2.4357 0.0018965
-182.62 1.7009e-07 2.7699e-10 -187.05 -187.05 -1.2869 727.92 0.0013738 -187.05 -187.05 -1.2869 1.3490 1.9201 2102.5 -0.0077340 7324.3 0.20647 6.8704e-08 1.4555e+07 353.63 370.70 4.8744 0.71043 0.89899 146.97 5.2426 2.4632 0.0019448
-181.62 2.4299e-07 3.9119e-10 -185.13 -185.13 -1.2658 726.88 0.0013757 -185.13 -185.13 -1.2658 1.3480 1.9210 2095.7 -0.0077283 6794.5 0.20616 9.7079e-08 1.0301e+07 354.35 371.60 4.8170 0.71438 0.90294 147.69 5.0904 2.4906 0.0019934
-180.62 3.4425e-07 5.4796e-10 -183.21 -183.21 -1.2450 725.85 0.0013777 -183.21 -183.21 -1.2450 1.3470 1.9220 2088.9 -0.0077225 6314.4 0.20584 1.3605e-07 7.3504e+06 355.06 372.51 4.7612 0.71833 0.90688 148.41 4.9442 2.5181 0.0020423
-179.62 4.8378e-07 7.6147e-10 -181.29 -181.29 -1.2243 724.81 0.0013797 -181.29 -181.29 -1.2243 1.3461 1.9231 2082.0 -0.0077164 5878.8 0.20551 1.8915e-07 5.2868e+06 355.78 373.42 4.7068 0.72227 0.91082 149.13 4.8038 2.5456 0.0020915
-178.62 6.7459e-07 1.0500e-09 -179.37 -179.37 -1.2038 723.78 0.0013816 -179.37 -179.37 -1.2038 1.3453 1.9241 2075.2 -0.0077102 5482.9 0.20517 2.6096e-07 3.8320e+06 356.51 374.33 4.6538 0.72620 0.91475 149.84 4.6688 2.5731 0.0021410
-177.62 9.3358e-07 1.4373e-09 -177.44 -177.44 -1.1836 722.75 0.0013836 -177.44 -177.44 -1.1836 1.3445 1.9252 2068.4 -0.0077039 5122.6 0.20483 3.5737e-07 2.7982e+06 357.23 375.25 4.6022 0.73012 0.91867 150.54 4.5390 2.6005 0.0021907
-176.62 1.2826e-06 1.9531e-09 -175.52 -175.52 -1.1635 721.72 0.0013856 -175.52 -175.52 -1.1635 1.3437 1.9263 2061.5 -0.0076973 4794.1 0.20447 4.8588e-07 2.0581e+06 357.97 376.17 4.5519 0.73403 0.92258 151.25 4.4142 2.6280 0.0022408
-175.62 1.7496e-06 2.6358e-09 -173.59 -173.59 -1.1437 720.69 0.0013876 -173.59 -173.59 -1.1437 1.3430 1.9274 2054.7 -0.0076907 4494.3 0.20411 6.5601e-07 1.5244e+06 358.70 377.09 4.5029 0.73792 0.92648 151.95 4.2941 2.6555 0.0022912
-174.62 2.3705e-06 3.5330e-09 -171.66 -171.66 -1.1240 719.66 0.0013895 -171.66 -171.66 -1.1240 1.3423 1.9286 2047.9 -0.0076838 4220.2 0.20375 8.7976e-07 1.1367e+06 359.44 378.02 4.4551 0.74181 0.93036 152.64 4.1784 2.6830 0.0023418
-173.62 3.1903e-06 4.7048e-09 -169.73 -169.73 -1.1045 718.64 0.0013915 -169.73 -169.73 -1.1045 1.3417 1.9298 2041.0 -0.0076769 3969.3 0.20338 1.1721e-06 8.5314e+05 360.19 378.95 4.4085 0.74568 0.93423 153.33 4.0671 2.7105 0.0023928
-172.62 4.2661e-06 6.2257e-09 -167.80 -167.80 -1.0852 717.61 0.0013935 -167.80 -167.80 -1.0852 1.3411 1.9310 2034.2 -0.0076698 3739.3 0.20300 1.5518e-06 6.4441e+05 360.93 379.89 4.3631 0.74953 0.93809 154.02 3.9599 2.7379 0.0024440
-171.62 5.6692e-06 8.1878e-09 -165.87 -165.87 -1.0661 716.58 0.0013955 -165.87 -165.87 -1.0661 1.3405 1.9322 2027.3 -0.0076625 3528.0 0.20261 2.0419e-06 4.8974e+05 361.69 380.83 4.3188 0.75337 0.94193 154.71 3.8566 2.7654 0.0024955
-170.62 7.4884e-06 1.0704e-08 -163.94 -163.94 -1.0472 715.56 0.0013975 -163.94 -163.94 -1.0472 1.3400 1.9334 2020.5 -0.0076552 3333.8 0.20222 2.6708e-06 3.7442e+05 362.44 381.77 4.2755 0.75720 0.94575 155.39 3.7570 2.7929 0.0025473
-169.62 9.8334e-06 1.3914e-08 -162.00 -162.00 -1.0284 714.54 0.0013995 -162.00 -162.00 -1.0284 1.3395 1.9347 2013.6 -0.0076477 3154.9 0.20182 3.4733e-06 2.8791e+05 363.20 382.72 4.2334 0.76100 0.94956 156.07 3.6609 2.8204 0.0025994
-168.62 1.2839e-05 1.7984e-08 -160.07 -160.07 -1.0098 713.52 0.0014015 -160.07 -160.07 -1.0098 1.3390 1.9359 2006.8 -0.0076401 2989.9 0.20141 4.4917e-06 2.2263e+05 363.96 383.67 4.1922 0.76479 0.95335 156.74 3.5683 2.8479 0.0026518
-167.62 1.6672e-05 2.3119e-08 -158.13 -158.13 -0.99134 712.49 0.0014035 -158.13 -158.13 -0.99134 1.3386 1.9372 2000.0 -0.0076323 2837.5 0.20100 5.7771e-06 1.7310e+05 364.73 384.63 4.1521 0.76856 0.95712 157.41 3.4790 2.8754 0.0027045
-166.62 2.1533e-05 2.9565e-08 -156.19 -156.19 -0.97306 711.47 0.0014055 -156.19 -156.19 -0.97306 1.3382 1.9385 1993.1 -0.0076245 2696.5 0.20058 7.3914e-06 1.3529e+05 365.50 385.59 4.1129 0.77232 0.96087 158.08 3.3927 2.9029 0.0027575
-165.62 2.7666e-05 3.7613e-08 -154.25 -154.25 -0.95494 710.45 0.0014075 -154.25 -154.25 -0.95494 1.3378 1.9398 1986.3 -0.0076165 2566.0 0.20016 9.4084e-06 1.0629e+05 366.27 386.55 4.0746 0.77605 0.96460 158.75 3.3095 2.9304 0.0028108
-164.62 3.5367e-05 4.7616e-08 -152.31 -152.31 -0.93698 709.44 0.0014096 -152.31 -152.31 -0.93698 1.3375 1.9411 1979.4 -0.0076084 2444.9 0.19973 1.1916e-05 83918. 367.05 387.52 4.0372 0.77976 0.96832 159.41 3.2291 2.9579 0.0028643
-163.62 4.4989e-05 5.9988e-08 -150.37 -150.37 -0.91917 708.42 0.0014116 -150.37 -150.37 -0.91917 1.3371 1.9424 1972.6 -0.0076002 2332.3 0.19930 1.5020e-05 66577. 367.83 388.49 4.0008 0.78346 0.97201 160.07 3.1514 2.9854 0.0029182
-162.62 5.6956e-05 7.5219e-08 -148.43 -148.43 -0.90151 707.40 0.0014136 -148.43 -148.43 -0.90151 1.3368 1.9437 1965.8 -0.0075919 2227.7 0.19886 1.8844e-05 53068. 368.62 389.46 3.9651 0.78713 0.97569 160.72 3.0764 3.0129 0.0029723
-161.62 7.1773e-05 9.3889e-08 -146.48 -146.48 -0.88400 706.38 0.0014157 -146.48 -146.48 -0.88400 1.3365 1.9451 1959.0 -0.0075834 2130.2 0.19841 2.3533e-05 42494. 369.41 390.44 3.9304 0.79079 0.97935 161.38 3.0038 3.0404 0.0030268
-160.62 9.0036e-05 1.1667e-07 -144.54 -144.54 -0.86663 705.37 0.0014177 -144.54 -144.54 -0.86663 1.3363 1.9465 1952.1 -0.0075748 2039.2 0.19796 2.9258e-05 34178. 370.20 391.42 3.8964 0.79443 0.98298 162.03 2.9337 3.0679 0.0030815
-159.62 0.00011245 1.4436e-07 -142.59 -142.59 -0.84940 704.35 0.0014197 -142.59 -142.59 -0.84940 1.3360 1.9478 1945.3 -0.0075661 1954.2 0.19751 3.6221e-05 27609. 371.00 392.40 3.8632 0.79805 0.98660 162.68 2.8658 3.0955 0.0031365
-158.62 0.00013985 1.7788e-07 -140.64 -140.64 -0.83231 703.34 0.0014218 -140.64 -140.64 -0.83231 1.3358 1.9492 1938.5 -0.0075573 1874.8 0.19705 4.4652e-05 22395. 371.80 393.39 3.8307 0.80164 0.99020 163.32 2.8002 3.1230 0.0031918
-157.62 0.00017320 2.1828e-07 -138.69 -138.69 -0.81536 702.32 0.0014238 -138.69 -138.69 -0.81536 1.3356 1.9506 1931.7 -0.0075484 1800.3 0.19658 5.4822e-05 18241. 372.60 394.38 3.7990 0.80522 0.99378 163.96 2.7367 3.1505 0.0032474
-156.62 0.00021364 2.6679e-07 -136.74 -136.74 -0.79854 701.31 0.0014259 -136.74 -136.74 -0.79854 1.3354 1.9520 1924.9 -0.0075393 1730.5 0.19611 6.7040e-05 14916. 373.41 395.38 3.7680 0.80878 0.99734 164.60 2.6752 3.1780 0.0033033
-155.62 0.00026248 3.2482e-07 -134.79 -134.79 -0.78185 700.30 0.0014280 -134.79 -134.79 -0.78185 1.3352 1.9534 1918.1 -0.0075302 1664.9 0.19564 8.1666e-05 12245. 374.22 396.38 3.7377 0.81232 1.0009 165.24 2.6157 3.2055 0.0033595
-154.62 0.00032125 3.9400e-07 -132.83 -132.83 -0.76530 699.29 0.0014300 -132.83 -132.83 -0.76530 1.3350 1.9548 1911.3 -0.0075209 1603.3 0.19516 9.9109e-05 10090. 375.03 397.38 3.7081 0.81585 1.0044 165.87 2.5580 3.2330 0.0034160
-153.62 0.00039171 4.7615e-07 -130.88 -130.88 -0.74887 698.27 0.0014321 -130.88 -130.88 -0.74887 1.3349 1.9563 1904.5 -0.0075114 1545.3 0.19468 0.00011984 8344.6 375.85 398.39 3.6792 0.81935 1.0079 166.50 2.5022 3.2606 0.0034727
-152.62 0.00047590 5.7339e-07 -128.92 -128.92 -0.73256 697.26 0.0014342 -128.92 -128.92 -0.73256 1.3348 1.9577 1897.8 -0.0075019 1490.6 0.19419 0.00014439 6925.9 376.67 399.40 3.6509 0.82284 1.0114 167.13 2.4481 3.2881 0.0035298
-151.62 0.00057613 6.8808e-07 -126.96 -126.96 -0.71638 696.25 0.0014363 -126.96 -126.96 -0.71638 1.3346 1.9592 1891.0 -0.0074922 1438.9 0.19370 0.00017336 5768.4 377.49 400.41 3.6232 0.82631 1.0149 167.76 2.3957 3.3156 0.0035872
-150.62 0.00069507 8.2292e-07 -125.00 -125.00 -0.70032 695.24 0.0014384 -125.00 -125.00 -0.70032 1.3345 1.9606 1884.2 -0.0074824 1390.2 0.19320 0.00020744 4820.7 378.32 401.42 3.5962 0.82976 1.0183 168.38 2.3448 3.3431 0.0036448
-149.62 0.00083574 9.8094e-07 -123.04 -123.04 -0.68437 694.23 0.0014404 -123.04 -123.04 -0.68438 1.3345 1.9621 1877.4 -0.0074724 1344.0 0.19270 0.00024740 4042.0 379.15 402.44 3.5697 0.83319 1.0218 169.00 2.2956 3.3706 0.0037027
-148.62 0.0010016 1.1655e-06 -121.08 -121.08 -0.66854 693.22 0.0014425 -121.08 -121.08 -0.66855 1.3344 1.9636 1870.7 -0.0074623 1300.3 0.19220 0.00029412 3400.0 379.99 403.47 3.5438 0.83661 1.0252 169.62 2.2478 3.3982 0.0037610
-147.62 0.0011965 1.3805e-06 -119.11 -119.11 -0.65283 692.21 0.0014447 -119.11 -119.11 -0.65284 1.3343 1.9651 1863.9 -0.0074521 1258.9 0.19169 0.00034856 2869.0 380.83 404.49 3.5185 0.84001 1.0286 170.24 2.2014 3.4257 0.0038195
-146.62 0.0014249 1.6302e-06 -117.15 -117.15 -0.63723 691.20 0.0014468 -117.15 -117.15 -0.63724 1.3343 1.9666 1857.2 -0.0074417 1219.6 0.19117 0.00041181 2428.3 381.67 405.52 3.4938 0.84340 1.0320 170.85 2.1565 3.4532 0.0038783
-145.62 0.0016917 1.9193e-06 -115.18 -115.18 -0.62174 690.19 0.0014489 -115.18 -115.18 -0.62175 1.3343 1.9682 1850.4 -0.0074312 1182.3 0.19066 0.00048510 2061.4 382.51 406.56 3.4695 0.84677 1.0353 171.46 2.1128 3.4807 0.0039374
-144.62 0.0020026 2.2531e-06 -113.21 -113.21 -0.60636 689.18 0.0014510 -113.21 -113.21 -0.60637 1.3343 1.9697 1843.7 -0.0074206 1146.8 0.19014 0.00056976 1755.1 383.36 407.59 3.4458 0.85012 1.0387 172.07 2.0705 3.5082 0.0039967
-143.62 0.0023637 2.6374e-06 -111.24 -111.24 -0.59109 688.17 0.0014531 -111.24 -111.24 -0.59110 1.3343 1.9713 1836.9 -0.0074098 1113.0 0.18962 0.00066731 1498.6 384.21 408.63 3.4226 0.85346 1.0420 172.68 2.0294 3.5358 0.0040564
-142.62 0.0027820 3.0787e-06 -109.27 -109.27 -0.57592 687.16 0.0014553 -109.27 -109.27 -0.57593 1.3343 1.9728 1830.2 -0.0073988 1080.8 0.18909 0.00077939 1283.1 385.07 409.68 3.3999 0.85679 1.0454 173.28 1.9896 3.5633 0.0041164
-141.62 0.0032653 3.5842e-06 -107.29 -107.29 -0.56085 686.15 0.0014574 -107.30 -107.30 -0.56087 1.3343 1.9744 1823.5 -0.0073878 1050.1 0.18856 0.00090784 1101.5 385.93 410.72 3.3777 0.86011 1.0487 173.88 1.9508 3.5908 0.0041766
-140.62 0.0038222 4.1616e-06 -105.32 -105.32 -0.54589 685.14 0.0014596 -105.32 -105.32 -0.54591 1.3344 1.9760 1816.7 -0.0073765 1020.7 0.18803 0.0010547 948.16 386.79 411.77 3.3560 0.86341 1.0520 174.48 1.9133 3.6183 0.0042372
-139.62 0.0044623 4.8196e-06 -103.34 -103.34 -0.53103 684.13 0.0014617 -103.34 -103.34 -0.53105 1.3344 1.9776 1810.0 -0.0073651 992.74 0.18749 0.0012221 818.26 387.65 412.83 3.3347 0.86670 1.0553 175.08 1.8768 3.6459 0.0042980
-138.62 0.0051963 5.5676e-06 -101.36 -101.36 -0.51626 683.12 0.0014639 -101.37 -101.37 -0.51629 1.3345 1.9792 1803.3 -0.0073536 965.97 0.18695 0.0014125 707.94 388.52 413.88 3.3139 0.86998 1.0586 175.67 1.8413 3.6734 0.0043592
-137.62 0.0060358 6.4159e-06 -99.383 -99.383 -0.50160 682.11 0.0014660 -99.386 -99.386 -0.50162 1.3346 1.9808 1796.6 -0.0073419 940.35 0.18641 0.0016287 614.00 389.39 414.94 3.2935 0.87325 1.0619 176.26 1.8069 3.7009 0.0044206
-136.62 0.0069938 7.3757e-06 -97.401 -97.401 -0.48703 681.10 0.0014682 -97.404 -97.404 -0.48705 1.3347 1.9825 1789.9 -0.0073301 915.81 0.18586 0.0018733 533.80 390.26 416.00 3.2735 0.87650 1.0651 176.85 1.7734 3.7284 0.0044823
-135.62 0.0080843 8.4593e-06 -95.417 -95.417 -0.47255 680.09 0.0014704 -95.421 -95.421 -0.47258 1.3348 1.9841 1783.2 -0.0073180 892.30 0.18531 0.0021497 465.17 391.14 417.07 3.2540 0.87975 1.0684 177.44 1.7409 3.7559 0.0045443
-134.62 0.0093230 9.6797e-06 -93.431 -93.431 -0.45816 679.08 0.0014726 -93.436 -93.436 -0.45820 1.3350 1.9858 1776.5 -0.0073059 869.75 0.18476 0.0024613 406.30 392.02 418.14 3.2348 0.88299 1.0716 178.02 1.7093 3.7834 0.0046066
-133.62 0.010727 1.1052e-05 -91.444 -91.444 -0.44387 678.07 0.0014748 -91.450 -91.449 -0.44391 1.3351 1.9875 1769.8 -0.0072935 848.11 0.18421 0.0028116 355.67 392.91 419.21 3.2161 0.88622 1.0749 178.61 1.6786 3.8109 0.0046691
-132.62 0.012315 1.2590e-05 -89.455 -89.455 -0.42966 677.06 0.0014770 -89.461 -89.461 -0.42971 1.3353 1.9892 1763.1 -0.0072810 827.32 0.18365 0.0032049 312.03 393.79 420.29 3.1977 0.88944 1.0781 179.19 1.6488 3.8385 0.0047320
-131.62 0.014106 1.4312e-05 -87.464 -87.464 -0.41555 676.04 0.0014792 -87.471 -87.471 -0.41560 1.3354 1.9909 1756.4 -0.0072684 807.34 0.18309 0.0036453 274.33 394.68 421.36 3.1798 0.89266 1.0813 179.76 1.6197 3.8660 0.0047951
-130.62 0.016124 1.6236e-05 -85.472 -85.471 -0.40151 675.03 0.0014814 -85.479 -85.479 -0.40157 1.3356 1.9926 1749.7 -0.0072555 788.12 0.18253 0.0041375 241.69 395.58 422.44 3.1622 0.89586 1.0846 180.34 1.5915 3.8935 0.0048586
-129.62 0.018392 1.8380e-05 -83.477 -83.476 -0.38757 674.02 0.0014836 -83.486 -83.486 -0.38763 1.3358 1.9944 1743.0 -0.0072425 769.63 0.18196 0.0046867 213.37 396.47 423.53 3.1450 0.89906 1.0878 180.91 1.5641 3.9210 0.0049223
-128.62 0.020935 2.0766e-05 -81.481 -81.480 -0.37371 673.01 0.0014859 -81.491 -81.490 -0.37378 1.3360 1.9961 1736.3 -0.0072294 751.83 0.18140 0.0052981 188.75 397.37 424.62 3.1281 0.90226 1.0910 181.48 1.5374 3.9485 0.0049863
-127.62 0.023783 2.3416e-05 -79.482 -79.482 -0.35993 672.00 0.0014881 -79.494 -79.493 -0.36001 1.3363 1.9979 1729.6 -0.0072160 734.67 0.18083 0.0059776 167.29 398.27 425.71 3.1116 0.90545 1.0942 182.05 1.5114 3.9760 0.0050506
-126.62 0.026966 2.6354e-05 -77.482 -77.481 -0.34623 670.98 0.0014904 -77.495 -77.495 -0.34632 1.3365 1.9997 1722.9 -0.0072025 718.14 0.18025 0.0067313 148.56 399.18 426.80 3.0954 0.90863 1.0974 182.62 1.4861 4.0035 0.0051152
-125.62 0.030515 2.9604e-05 -75.480 -75.479 -0.33261 669.97 0.0014926 -75.494 -75.494 -0.33272 1.3368 2.0015 1716.2 -0.0071888 702.18 0.17968 0.0075660 132.17 400.09 427.89 3.0795 0.91181 1.1006 183.18 1.4615 4.0310 0.0051800
-124.62 0.034467 3.3195e-05 -73.476 -73.475 -0.31908 668.95 0.0014949 -73.492 -73.492 -0.31919 1.3371 2.0033 1709.5 -0.0071749 686.79 0.17910 0.0084885 117.81 401.00 428.99 3.0640 0.91499 1.1038 183.74 1.4375 4.0584 0.0052452
-123.62 0.038859 3.7154e-05 -71.470 -71.469 -0.30561 667.94 0.0014971 -71.488 -71.487 -0.30574 1.3374 2.0051 1702.8 -0.0071609 671.93 0.17852 0.0095065 105.19 401.91 430.10 3.0488 0.91816 1.1070 184.30 1.4141 4.0859 0.0053106
-122.62 0.043731 4.1513e-05 -69.462 -69.460 -0.29223 666.92 0.0014994 -69.482 -69.481 -0.29237 1.3377 2.0070 1696.2 -0.0071466 657.57 0.17794 0.010628 94.092 402.83 431.20 3.0339 0.92134 1.1102 184.86 1.3913 4.1134 0.0053764
-121.62 0.049128 4.6303e-05 -67.452 -67.450 -0.27892 665.91 0.0015017 -67.474 -67.473 -0.27907 1.3380 2.0089 1689.5 -0.0071322 643.70 0.17736 0.011861 84.309 403.75 432.31 3.0193 0.92451 1.1134 185.41 1.3691 4.1409 0.0054424
-120.62 0.055096 5.1560e-05 -65.440 -65.438 -0.26568 664.89 0.0015040 -65.464 -65.463 -0.26585 1.3384 2.0107 1682.8 -0.0071176 630.28 0.17678 0.013215 75.669 404.67 433.42 3.0050 0.92767 1.1166 185.96 1.3475 4.1683 0.0055087
-119.62 0.061684 5.7318e-05 -63.425 -63.423 -0.25252 663.87 0.0015063 -63.452 -63.452 -0.25271 1.3387 2.0126 1676.1 -0.0071028 617.30 0.17619 0.014700 68.027 405.60 434.53 2.9909 0.93084 1.1198 186.51 1.3264 4.1958 0.0055752
-118.62 0.068946 6.3617e-05 -61.409 -61.406 -0.23943 662.86 0.0015086 -61.439 -61.438 -0.23963 1.3391 2.0146 1669.4 -0.0070878 604.74 0.17560 0.016325 61.255 406.53 435.64 2.9772 0.93401 1.1231 187.06 1.3058 4.2233 0.0056421
-117.62 0.076937 7.0496e-05 -59.390 -59.387 -0.22641 661.84 0.0015109 -59.423 -59.422 -0.22663 1.3395 2.0165 1662.8 -0.0070726 592.58 0.17501 0.018101 55.245 407.46 436.76 2.9638 0.93718 1.1263 187.60 1.2857 4.2507 0.0057092
-116.62 0.085718 7.7999e-05 -57.369 -57.366 -0.21346 660.82 0.0015133 -57.406 -57.405 -0.21370 1.3400 2.0184 1656.1 -0.0070573 580.80 0.17442 0.020040 49.901 408.39 437.88 2.9506 0.94035 1.1295 188.14 1.2660 4.2782 0.0057767
-115.62 0.095353 8.6170e-05 -55.346 -55.343 -0.20057 659.80 0.0015156 -55.386 -55.385 -0.20084 1.3404 2.0204 1649.4 -0.0070417 569.38 0.17383 0.022152 45.142 409.33 439.01 2.9377 0.94352 1.1327 188.68 1.2468 4.3056 0.0058444
-114.62 0.10591 9.5056e-05 -53.321 -53.317 -0.18775 658.78 0.0015180 -53.365 -53.364 -0.18805 1.3409 2.0224 1642.7 -0.0070260 558.32 0.17323 0.024451 40.898 410.27 440.13 2.9250 0.94669 1.1360 189.22 1.2281 4.3330 0.0059123
-113.62 0.11746 0.00010470 -51.293 -51.289 -0.17500 657.76 0.0015203 -51.342 -51.340 -0.17533 1.3413 2.0244 1636.0 -0.0070100 547.59 0.17264 0.026949 37.107 411.21 441.26 2.9126 0.94987 1.1392 189.75 1.2097 4.3604 0.0059806
-112.62 0.13008 0.00011517 -49.263 -49.258 -0.16232 656.73 0.0015227 -49.316 -49.315 -0.16267 1.3418 2.0264 1629.3 -0.0069938 537.18 0.17204 0.029661 33.715 412.16 442.39 2.9005 0.95305 1.1424 190.28 1.1918 4.3879 0.0060491
-111.62 0.14384 0.00012650 -47.231 -47.225 -0.14969 655.71 0.0015251 -47.289 -47.287 -0.15008 1.3424 2.0285 1622.7 -0.0069774 527.08 0.17144 0.032600 30.675 413.10 443.53 2.8885 0.95623 1.1457 190.81 1.1742 4.4153 0.0061180
-110.62 0.15884 0.00013876 -45.196 -45.190 -0.13713 654.69 0.0015274 -45.259 -45.258 -0.13755 1.3429 2.0305 1616.0 -0.0069609 517.28 0.17084 0.035781 27.948 414.06 444.66 2.8769 0.95942 1.1490 191.34 1.1570 4.4427 0.0061871
-109.62 0.17516 0.00015201 -43.158 -43.152 -0.12464 653.66 0.0015298 -43.228 -43.226 -0.12509 1.3435 2.0326 1609.3 -0.0069441 507.76 0.17024 0.039220 25.497 415.01 445.80 2.8654 0.96261 1.1522 191.86 1.1402 4.4701 0.0062564
-108.62 0.19290 0.00016630 -41.118 -41.111 -0.11220 652.64 0.0015322 -41.194 -41.192 -0.11269 1.3441 2.0347 1602.6 -0.0069271 498.51 0.16964 0.042933 23.292 415.96 446.94 2.8542 0.96581 1.1555 192.38 1.1236 4.4974 0.0063261
-107.62 0.21215 0.00018169 -39.075 -39.068 -0.099822 651.61 0.0015347 -39.158 -39.156 -0.10036 1.3447 2.0369 1595.9 -0.0069098 489.52 0.16903 0.046937 21.305 416.92 448.09 2.8433 0.96901 1.1588 192.90 1.1075 4.5248 0.0063960
-106.62 0.23301 0.00019827 -37.030 -37.022 -0.087503 650.58 0.0015371 -37.120 -37.118 -0.088082 1.3453 2.0390 1589.2 -0.0068924 480.79 0.16843 0.051250 19.512 417.88 449.23 2.8325 0.97222 1.1621 193.41 1.0916 4.5522 0.0064662
-105.62 0.25561 0.00021609 -34.982 -34.973 -0.075242 649.55 0.0015395 -35.080 -35.078 -0.075868 1.3460 2.0412 1582.6 -0.0068747 472.30 0.16782 0.055891 17.892 418.85 450.38 2.8220 0.97544 1.1655 193.93 1.0760 4.5795 0.0065367
-104.62 0.28004 0.00023522 -32.932 -32.921 -0.063038 648.52 0.0015420 -33.038 -33.035 -0.063714 1.3467 2.0434 1575.9 -0.0068569 464.04 0.16721 0.060878 16.426 419.81 451.53 2.8116 0.97867 1.1688 194.44 1.0608 4.6069 0.0066074
-103.62 0.30643 0.00025574 -30.878 -30.867 -0.050889 647.49 0.0015444 -30.994 -30.991 -0.051619 1.3474 2.0456 1569.2 -0.0068387 456.00 0.16660 0.066231 15.099 420.78 452.68 2.8015 0.98191 1.1722 194.94 1.0458 4.6342 0.0066785
-102.62 0.33490 0.00027773 -28.822 -28.810 -0.038795 646.46 0.0015469 -28.947 -28.944 -0.039582 1.3481 2.0478 1562.5 -0.0068204 448.18 0.16600 0.071971 13.894 421.75 453.84 2.7916 0.98516 1.1755 195.44 1.0310 4.6615 0.0067498
-101.62 0.36558 0.00030127 -26.763 -26.749 -0.026755 645.43 0.0015494 -26.898 -26.894 -0.027602 1.3489 2.0501 1555.8 -0.0068018 440.57 0.16539 0.078120 12.801 422.73 454.99 2.7818 0.98841 1.1789 195.95 1.0166 4.6888 0.0068213
-100.62 0.39862 0.00032643 -24.701 -24.686 -0.014768 644.39 0.0015519 -24.847 -24.843 -0.015678 1.3497 2.0524 1549.1 -0.0067830 433.16 0.16478 0.084699 11.807 423.70 456.15 2.7723 0.99168 1.1823 196.44 1.0024 4.7161 0.0068932
-99.625 0.43414 0.00035331 -22.636 -22.620 -0.0028327 643.36 0.0015544 -22.794 -22.789 -0.0038103 1.3505 2.0547 1542.4 -0.0067639 425.95 0.16416 0.091731 10.901 424.68 457.31 2.7630 0.99496 1.1858 196.94 0.98838 4.7434 0.0069653
-98.625 0.47230 0.00038199 -20.568 -20.550 0.0090516 642.32 0.0015569 -20.738 -20.733 0.0080027 1.3514 2.0570 1535.7 -0.0067447 418.92 0.16355 0.099240 10.077 425.66 458.48 2.7538 0.99825 1.1892 197.43 0.97464 4.7707 0.0070377
-97.625 0.51325 0.00041256 -18.496 -18.477 0.020886 641.28 0.0015594 -18.680 -18.674 0.019762 1.3522 2.0594 1529.0 -0.0067251 412.07 0.16294 0.10725 9.3239 426.65 459.64 2.7448 1.0016 1.1927 197.92 0.96112 4.7979 0.0071103
-96.625 0.55714 0.00044511 -16.422 -16.401 0.032671 640.24 0.0015619 -16.620 -16.614 0.031467 1.3531 2.0618 1522.3 -0.0067053 405.39 0.16233 0.11579 8.6365 427.63 460.81 2.7360 1.0049 1.1962 198.40 0.94783 4.8251 0.0071832
-95.625 0.60416 0.00047974 -14.344 -14.322 0.044408 639.20 0.0015645 -14.557 -14.550 0.043120 1.3540 2.0642 1515.7 -0.0066853 398.88 0.16171 0.12488 8.0078 428.62 461.98 2.7274 1.0082 1.1997 198.88 0.93475 4.8524 0.0072564
-94.625 0.65446 0.00051655 -12.263 -12.239 0.056097 638.16 0.0015670 -12.491 -12.484 0.054721 1.3550 2.0667 1509.0 -0.0066650 392.53 0.16110 0.13455 7.4323 429.61 463.15 2.7189 1.0116 1.2032 199.36 0.92188 4.8796 0.0073299
-93.625 0.70822 0.00055564 -10.179 -10.152 0.067740 637.12 0.0015696 -10.424 -10.416 0.066271 1.3560 2.0691 1502.3 -0.0066444 386.34 0.16048 0.14482 6.9050 430.60 464.32 2.7107 1.0149 1.2068 199.83 0.90921 4.9068 0.0074036
-92.625 0.76564 0.00059712 -8.0908 -8.0623 0.079338 636.07 0.0015722 -8.3535 -8.3452 0.077771 1.3570 2.0716 1495.6 -0.0066236 380.31 0.15987 0.15573 6.4212 431.60 465.49 2.7025 1.0183 1.2104 200.30 0.89673 4.9340 0.0074776
-91.625 0.82689 0.00064108 -5.9995 -5.9687 0.090891 635.02 0.0015747 -6.2808 -6.2719 0.089220 1.3580 2.0742 1488.9 -0.0066025 374.41 0.15925 0.16731 5.9769 432.59 466.67 2.6946 1.0217 1.2140 200.77 0.88445 4.9611 0.0075518
-90.625 0.89218 0.00068764 -3.9046 -3.8713 0.10240 633.98 0.0015773 -4.2056 -4.1959 0.10062 1.3591 2.0767 1482.2 -0.0065811 368.66 0.15864 0.17958 5.5685 433.59 467.84 2.6868 1.0251 1.2177 201.24 0.87236 4.9883 0.0076263
-89.625 0.96172 0.00073691 -1.8060 -1.7702 0.11387 632.93 0.0015800 -2.1279 -2.1174 0.11197 1.3602 2.0793 1475.5 -0.0065595 363.05 0.15802 0.19258 5.1928 434.59 469.02 2.6791 1.0285 1.2213 201.70 0.86045 5.0154 0.0077011
-88.625 1.0357 0.00078901 0.29621 0.33481 0.12529 631.88 0.0015826 -0.047516 -0.036215 0.12328 1.3613 2.0819 1468.8 -0.0065375 357.56 0.15740 0.20633 4.8466 435.59 470.20 2.6717 1.0320 1.2250 202.15 0.84873 5.0425 0.0077761
-87.625 1.1144 0.00084406 2.4022 2.4438 0.13667 630.83 0.0015852 2.0355 2.0476 0.13454 1.3625 2.0846 1462.1 -0.0065153 352.21 0.15679 0.22087 4.5276 436.60 471.39 2.6643 1.0354 1.2288 202.61 0.83718 5.0696 0.0078514
-86.625 1.1979 0.00090216 4.5121 4.5568 0.14801 629.77 0.0015879 4.1211 4.1342 0.14575 1.3637 2.0873 1455.4 -0.0064928 346.98 0.15617 0.23623 4.2331 437.61 472.57 2.6571 1.0389 1.2325 203.06 0.82580 5.0967 0.0079270
-85.625 1.2866 0.00096345 6.6260 6.6739 0.15932 628.72 0.0015905 6.2094 6.2235 0.15691 1.3649 2.0900 1448.8 -0.0064701 341.87 0.15555 0.25245 3.9612 438.61 473.75 2.6501 1.0424 1.2363 203.50 0.81460 5.1237 0.0080028
-84.625 1.3806 0.0010281 8.7438 8.7952 0.17058 627.66 0.0015932 8.3004 8.3155 0.16803 1.3661 2.0927 1442.1 -0.0064470 336.87 0.15494 0.26956 3.7097 439.63 474.94 2.6432 1.0460 1.2402 203.95 0.80356 5.1508 0.0080789
-83.625 1.4803 0.0010961 10.866 10.921 0.18180 626.60 0.0015959 10.394 10.410 0.17911 1.3674 2.0955 1435.4 -0.0064236 331.99 0.15432 0.28760 3.4771 440.64 476.13 2.6364 1.0495 1.2440 204.38 0.79269 5.1778 0.0081553
-82.625 1.5858 0.0011677 12.992 13.051 0.19299 625.54 0.0015986 12.491 12.508 0.19014 1.3687 2.0983 1428.7 -0.0063999 327.22 0.15370 0.30659 3.2616 441.65 477.31 2.6298 1.0531 1.2479 204.82 0.78199 5.2048 0.0082319
-81.625 1.6975 0.0012430 15.122 15.185 0.20415 624.48 0.0016013 14.590 14.609 0.20113 1.3700 2.1012 1422.0 -0.0063759 322.55 0.15309 0.32659 3.0619 442.67 478.50 2.6233 1.0567 1.2519 205.25 0.77144 5.2318 0.0083088
-80.625 1.8155 0.0013222 17.257 17.324 0.21526 623.42 0.0016041 16.692 16.712 0.21208 1.3714 2.1041 1415.4 -0.0063516 317.99 0.15247 0.34763 2.8766 443.69 479.70 2.6169 1.0603 1.2558 205.67 0.76106 5.2587 0.0083860
-79.625 1.9402 0.0014053 19.396 19.468 0.22634 622.36 0.0016068 18.797 18.819 0.22299 1.3728 2.1070 1408.7 -0.0063270 313.52 0.15186 0.36974 2.7046 444.71 480.89 2.6106 1.0639 1.2598 206.10 0.75083 5.2857 0.0084634
-78.625 2.0718 0.0014926 21.539 21.616 0.23739 621.29 0.0016096 20.905 20.928 0.23385 1.3742 2.1099 1402.0 -0.0063021 309.15 0.15124 0.39296 2.5448 445.73 482.08 2.6045 1.0676 1.2639 206.51 0.74076 5.3126 0.0085411
-77.625 2.2107 0.0015841 23.687 23.769 0.24840 620.22 0.0016123 23.016 23.040 0.24468 1.3757 2.1129 1395.3 -0.0062768 304.88 0.15062 0.41735 2.3961 446.75 483.27 2.5985 1.0712 1.2680 206.93 0.73084 5.3395 0.0086190
-76.625 2.3571 0.0016800 25.840 25.928 0.25939 619.15 0.0016151 25.130 25.156 0.25546 1.3772 2.1159 1388.7 -0.0062512 300.69 0.15001 0.44292 2.2577 447.78 484.47 2.5926 1.0749 1.2721 207.34 0.72107 5.3664 0.0086972
-75.625 2.5113 0.0017805 27.997 28.091 0.27034 618.08 0.0016179 27.247 27.275 0.26620 1.3787 2.1190 1382.0 -0.0062253 296.59 0.14939 0.46974 2.1288 448.81 485.67 2.5869 1.0787 1.2762 207.74 0.71146 5.3933 0.0087757
-74.625 2.6736 0.0018857 30.159 30.259 0.28125 617.01 0.0016207 29.366 29.396 0.27691 1.3802 2.1221 1375.4 -0.0061990 292.58 0.14878 0.49783 2.0087 449.83 486.86 2.5812 1.0824 1.2804 208.14 0.70200 5.4201 0.0088544
-73.625 2.8444 0.0019957 32.326 32.432 0.29214 615.93 0.0016236 31.489 31.521 0.28758 1.3818 2.1252 1368.7 -0.0061724 288.65 0.14816 0.52725 1.8966 450.86 488.06 2.5757 1.0862 1.2847 208.54 0.69268 5.4469 0.0089334
-72.625 3.0240 0.0021108 34.498 34.611 0.30300 614.85 0.0016264 33.615 33.649 0.29821 1.3834 2.1284 1362.0 -0.0061454 284.81 0.14755 0.55804 1.7920 451.90 489.26 2.5703 1.0900 1.2889 208.93 0.68351 5.4737 0.0090126
-71.625 3.2127 0.0022310 36.675 36.795 0.31383 613.78 0.0016293 35.745 35.781 0.30880 1.3851 2.1316 1355.4 -0.0061181 281.03 0.14694 0.59024 1.6942 452.93 490.46 2.5650 1.0938 1.2932 209.32 0.67448 5.5005 0.0090922
-70.625 3.4108 0.0023565 38.858 38.985 0.32463 612.69 0.0016321 37.877 37.915 0.31935 1.3867 2.1349 1348.7 -0.0060904 277.34 0.14632 0.62390 1.6028 453.96 491.66 2.5598 1.0976 1.2976 209.70 0.66560 5.5273 0.0091720
-69.625 3.6187 0.0024876 41.045 41.180 0.33541 611.61 0.0016350 40.013 40.053 0.32987 1.3884 2.1382 1342.1 -0.0060624 273.72 0.14571 0.65906 1.5173 455.00 492.86 2.5547 1.1015 1.3020 210.08 0.65687 5.5540 0.0092520
-68.625 3.8367 0.0026243 43.238 43.381 0.34615 610.53 0.0016379 42.152 42.195 0.34036 1.3902 2.1415 1335.5 -0.0060339 270.17 0.14510 0.69577 1.4372 456.04 494.06 2.5497 1.1054 1.3064 210.45 0.64827 5.5807 0.0093324
-67.625 4.0652 0.0027668 45.436 45.587 0.35688 609.44 0.0016409 44.294 44.340 0.35080 1.3919 2.1449 1328.8 -0.0060051 266.69 0.14449 0.73408 1.3622 457.08 495.26 2.5448 1.1093 1.3109 210.82 0.63981 5.6074 0.0094130
-66.625 4.3046 0.0029154 47.639 47.800 0.36757 608.35 0.0016438 46.439 46.488 0.36122 1.3937 2.1483 1322.2 -0.0059760 263.28 0.14388 0.77404 1.2919 458.12 496.46 2.5400 1.1133 1.3154 211.18 0.63150 5.6341 0.0094939
-65.625 4.5551 0.0030701 49.849 50.018 0.37824 607.26 0.0016467 48.588 48.640 0.37160 1.3955 2.1518 1315.6 -0.0059464 259.93 0.14327 0.81570 1.2259 459.16 497.67 2.5353 1.1172 1.3200 211.54 0.62332 5.6608 0.0095750
-64.625 4.8173 0.0032311 52.063 52.243 0.38889 606.16 0.0016497 50.740 50.795 0.38195 1.3974 2.1553 1308.9 -0.0059164 256.65 0.14266 0.85910 1.1640 460.21 498.87 2.5307 1.1212 1.3246 211.89 0.61527 5.6874 0.0096564
-63.625 5.0915 0.0033986 54.284 54.474 0.39951 605.07 0.0016527 52.896 52.954 0.39226 1.3993 2.1588 1302.3 -0.0058861 253.42 0.14205 0.90429 1.1058 461.25 500.07 2.5262 1.1252 1.3293 212.24 0.60736 5.7140 0.0097382
-62.625 5.3781 0.0035729 56.510 56.711 0.41011 603.97 0.0016557 55.055 55.117 0.40254 1.4012 2.1624 1295.7 -0.0058553 250.26 0.14144 0.95134 1.0511 462.30 501.28 2.5218 1.1293 1.3340 212.58 0.59958 5.7406 0.0098201
-61.625 5.6774 0.0037540 58.743 58.954 0.42069 602.87 0.0016587 57.218 57.283 0.41279 1.4031 2.1660 1289.1 -0.0058241 247.16 0.14084 1.0003 0.99972 463.35 502.48 2.5175 1.1333 1.3387 212.92 0.59194 5.7672 0.0099024
-60.625 5.9899 0.0039421 60.981 61.204 0.43125 601.77 0.0016618 59.385 59.453 0.42301 1.4051 2.1697 1282.5 -0.0057925 244.12 0.14023 1.0512 0.95131 464.40 503.68 2.5133 1.1374 1.3435 213.26 0.58442 5.7938 0.0099850
-59.625 6.3160 0.0041375 63.226 63.461 0.44179 600.66 0.0016648 61.554 61.627 0.43320 1.4071 2.1734 1275.9 -0.0057605 241.13 0.13962 1.1041 0.90573 465.45 504.89 2.5091 1.1415 1.3483 213.58 0.57704 5.8203 0.010068
-58.625 6.6561 0.0043404 65.476 65.724 0.45230 599.55 0.0016679 63.728 63.805 0.44335 1.4091 2.1772 1269.3 -0.0057280 238.19 0.13902 1.1591 0.86277 466.50 506.09 2.5051 1.1457 1.3532 213.90 0.56978 5.8468 0.010151
-57.625 7.0107 0.0045508 67.733 67.994 0.46280 598.44 0.0016710 65.905 65.986 0.45348 1.4111 2.1810 1262.7 -0.0056951 235.31 0.13842 1.2161 0.82228 467.55 507.30 2.5011 1.1498 1.3581 214.22 0.56265 5.8733 0.010234
-56.625 7.3801 0.0047690 69.997 70.272 0.47327 597.33 0.0016741 68.086 68.172 0.46358 1.4132 2.1848 1256.1 -0.0056617 232.48 0.13781 1.2754 0.78408 468.60 508.50 2.4972 1.1540 1.3631 214.53 0.55564 5.8998 0.010318
-55.625 7.7648 0.0049953 72.266 72.556 0.48373 596.22 0.0016772 70.271 70.361 0.47364 1.4153 2.1887 1249.5 -0.0056279 229.69 0.13721 1.3369 0.74802 469.66 509.71 2.4934 1.1582 1.3681 214.84 0.54875 5.9263 0.010402
-54.625 8.1652 0.0052297 74.543 74.847 0.49417 595.10 0.0016804 72.460 72.554 0.48368 1.4174 2.1927 1242.9 -0.0055937 226.96 0.13661 1.4006 0.71396 470.72 510.91 2.4897 1.1624 1.3731 215.14 0.54199 5.9527 0.010486
-53.625 8.5819 0.0054725 76.826 77.145 0.50460 593.98 0.0016836 74.652 74.752 0.49369 1.4196 2.1967 1236.3 -0.0055589 224.27 0.13601 1.4667 0.68178 471.77 512.11 2.4860 1.1667 1.3782 215.43 0.53535 5.9792 0.010571
-52.625 9.0151 0.0057239 79.115 79.451 0.51500 592.86 0.0016867 76.849 76.954 0.50368 1.4218 2.2007 1229.8 -0.0055237 221.63 0.13541 1.5353 0.65136 472.83 513.32 2.4824 1.1710 1.3834 215.72 0.52882 6.0056 0.010656
-51.625 9.4655 0.0059841 81.412 81.765 0.52539 591.73 0.0016900 79.049 79.159 0.51363 1.4240 2.2048 1223.2 -0.0054880 219.04 0.13482 1.6062 0.62258 473.89 514.52 2.4789 1.1752 1.3886 216.00 0.52241 6.0320 0.010741
-50.625 9.9335 0.0062533 83.715 84.085 0.53577 590.60 0.0016932 81.253 81.369 0.52356 1.4262 2.2089 1216.6 -0.0054519 216.48 0.13422 1.6797 0.59534 474.95 515.73 2.4755 1.1796 1.3938 216.28 0.51612 6.0584 0.010827
-49.625 10.419 0.0065316 86.026 86.414 0.54613 589.47 0.0016964 83.462 83.584 0.53347 1.4285 2.2131 1210.1 -0.0054152 213.98 0.13363 1.7558 0.56954 476.01 516.93 2.4722 1.1839 1.3991 216.55 0.50994 6.0848 0.010913
-48.625 10.924 0.0068194 88.343 88.750 0.55647 588.34 0.0016997 85.674 85.802 0.54334 1.4308 2.2173 1203.5 -0.0053780 211.51 0.13303 1.8345 0.54510 477.07 518.13 2.4689 1.1883 1.4044 216.82 0.50387 6.1112 0.010999
-47.625 11.448 0.0071168 90.668 91.095 0.56680 587.20 0.0017030 87.891 88.025 0.55319 1.4331 2.2216 1196.9 -0.0053403 209.08 0.13244 1.9159 0.52194 478.14 519.33 2.4657 1.1927 1.4098 217.08 0.49792 6.1375 0.011085
-46.625 11.991 0.0074240 93.000 93.447 0.57712 586.06 0.0017063 90.111 90.252 0.56302 1.4354 2.2259 1190.4 -0.0053020 206.69 0.13185 2.0001 0.49997 479.20 520.53 2.4625 1.1971 1.4153 217.33 0.49207 6.1639 0.011172
-45.625 12.554 0.0077413 95.339 95.807 0.58743 584.92 0.0017096 92.336 92.484 0.57282 1.4378 2.2303 1183.8 -0.0052633 204.34 0.13126 2.0872 0.47912 480.27 521.74 2.4594 1.2015 1.4207 217.58 0.48633 6.1902 0.011259
-44.625 13.137 0.0080688 97.686 98.176 0.59772 583.77 0.0017130 94.565 94.720 0.58260 1.4402 2.2347 1177.3 -0.0052240 202.03 0.13067 2.1771 0.45933 481.33 522.94 2.4564 1.2060 1.4263 217.82 0.48069 6.2165 0.011347
-43.625 13.741 0.0084068 100.04 100.55 0.60800 582.62 0.0017164 96.799 96.961 0.59235 1.4426 2.2392 1170.7 -0.0051841 199.75 0.13008 2.2700 0.44053 482.40 524.14 2.4535 1.2104 1.4319 218.05 0.47516 6.2429 0.011435
-42.625 14.367 0.0087555 102.40 102.94 0.61827 581.47 0.0017198 99.036 99.207 0.60208 1.4450 2.2437 1164.2 -0.0051437 197.51 0.12949 2.3659 0.42267 483.46 525.33 2.4506 1.2149 1.4375 218.28 0.46973 6.2692 0.011523
-41.625 15.015 0.0091151 104.77 105.33 0.62852 580.32 0.0017232 101.28 101.46 0.61179 1.4475 2.2483 1157.7 -0.0051027 195.30 0.12891 2.4649 0.40569 484.53 526.53 2.4478 1.2195 1.4432 218.50 0.46440 6.2955 0.011612
-40.625 15.686 0.0094859 107.15 107.73 0.63877 579.16 0.0017266 103.52 103.71 0.62147 1.4500 2.2529 1151.1 -0.0050611 193.13 0.12832 2.5671 0.38954 485.60 527.73 2.4450 1.2240 1.4489 218.72 0.45917 6.3218 0.011701
-39.625 16.380 0.0098680 109.53 110.15 0.64900 578.00 0.0017301 105.78 105.97 0.63113 1.4525 2.2576 1144.6 -0.0050189 190.99 0.12774 2.6725 0.37418 486.67 528.93 2.4423 1.2286 1.4547 218.93 0.45403 6.3481 0.011790
-38.625 17.097 0.010262 111.93 112.57 0.65923 576.83 0.0017336 108.03 108.24 0.64077 1.4550 2.2623 1138.0 -0.0049761 188.88 0.12716 2.7813 0.35955 487.74 530.12 2.4397 1.2332 1.4606 219.13 0.44900 6.3744 0.011880
-37.625 17.838 0.010667 114.33 114.99 0.66945 575.66 0.0017371 110.29 110.51 0.65039 1.4576 2.2671 1131.5 -0.0049327 186.81 0.12658 2.8934 0.34562 488.81 531.32 2.4371 1.2378 1.4665 219.33 0.44405 6.4007 0.011970
-36.625 18.604 0.011085 116.74 117.43 0.67966 574.49 0.0017407 112.56 112.78 0.65999 1.4602 2.2719 1125.0 -0.0048887 184.76 0.12600 3.0089 0.33235 489.88 532.51 2.4346 1.2424 1.4724 219.52 0.43920 6.4270 0.012060
-35.625 19.395 0.011515 119.16 119.88 0.68986 573.32 0.0017442 114.83 115.06 0.66956 1.4628 2.2768 1118.5 -0.0048440 182.75 0.12542 3.1280 0.31969 490.95 533.70 2.4321 1.2471 1.4784 219.70 0.43444 6.4533 0.012151
-34.625 20.212 0.011957 121.58 122.34 0.70005 572.14 0.0017478 117.10 117.34 0.67912 1.4654 2.2818 1111.9 -0.0047987 180.76 0.12485 3.2506 0.30763 492.02 534.89 2.4297 1.2517 1.4845 219.88 0.42977 6.4797 0.012243
-33.625 21.056 0.012413 124.02 124.80 0.71023 570.96 0.0017514 119.38 119.63 0.68865 1.4681 2.2868 1105.4 -0.0047527 178.80 0.12427 3.3770 0.29612 493.09 536.08 2.4273 1.2564 1.4906 220.05 0.42519 6.5060 0.012334
-32.625 21.926 0.012881 126.46 127.28 0.72041 569.77 0.0017551 121.66 121.93 0.69817 1.4708 2.2918 1098.9 -0.0047061 176.87 0.12370 3.5071 0.28514 494.17 537.27 2.4250 1.2611 1.4968 220.21 0.42070 6.5323 0.012426
-31.625 22.823 0.013363 128.91 129.76 0.73058 568.58 0.0017588 123.95 124.23 0.70767 1.4735 2.2970 1092.3 -0.0046587 174.97 0.12313 3.6410 0.27465 495.24 538.46 2.4227 1.2659 1.5031 220.36 0.41629 6.5587 0.012519
-30.625 23.749 0.013858 131.37 132.26 0.74075 567.39 0.0017625 126.24 126.53 0.71714 1.4762 2.3021 1085.8 -0.0046107 173.09 0.12256 3.7787 0.26464 496.31 539.64 2.4205 1.2706 1.5094 220.51 0.41196 6.5850 0.012612
-29.625 24.703 0.014367 133.84 134.76 0.75091 566.19 0.0017662 128.54 128.84 0.72660 1.4790 2.3074 1079.3 -0.0045619 171.24 0.12200 3.9205 0.25507 497.38 540.83 2.4184 1.2754 1.5157 220.65 0.40772 6.6114 0.012706
-28.625 25.687 0.014890 136.32 137.28 0.76106 564.99 0.0017699 130.84 131.16 0.73604 1.4818 2.3126 1072.8 -0.0045124 169.42 0.12143 4.0663 0.24592 498.46 542.01 2.4162 1.2802 1.5222 220.79 0.40356 6.6378 0.012800
-27.625 26.700 0.015428 138.80 139.80 0.77121 563.78 0.0017737 133.15 133.48 0.74547 1.4846 2.3180 1066.2 -0.0044621 167.62 0.12087 4.2163 0.23717 499.53 543.19 2.4142 1.2850 1.5286 220.91 0.39947 6.6642 0.012894
-26.625 27.743 0.015980 141.30 142.33 0.78135 562.57 0.0017775 135.47 135.81 0.75487 1.4874 2.3234 1059.7 -0.0044111 165.84 0.12031 4.3705 0.22881 500.60 544.37 2.4122 1.2899 1.5352 221.03 0.39547 6.6906 0.012989
-25.625 28.817 0.016547 143.80 144.88 0.79149 561.36 0.0017814 137.78 138.14 0.76426 1.4902 2.3289 1053.2 -0.0043593 164.09 0.11975 4.5290 0.22080 501.68 545.55 2.4102 1.2947 1.5418 221.14 0.39154 6.7171 0.013084
-24.625 29.923 0.017129 146.32 147.43 0.80163 560.14 0.0017853 140.11 140.48 0.77363 1.4931 2.3344 1046.7 -0.0043067 162.36 0.11919 4.6918 0.21314 502.75 546.72 2.4083 1.2996 1.5485 221.25 0.38768 6.7436 0.013180
-23.625 31.061 0.017726 148.84 150.00 0.81176 558.92 0.0017892 142.44 142.82 0.78298 1.4960 2.3400 1040.1 -0.0042533 160.65 0.11863 4.8592 0.20580 503.82 547.90 2.4064 1.3045 1.5552 221.35 0.38391 6.7701 0.013277
-22.625 32.232 0.018339 151.37 152.58 0.82189 557.69 0.0017931 144.77 145.17 0.79232 1.4990 2.3457 1033.6 -0.0041990 158.97 0.11807 5.0311 0.19877 504.90 549.07 2.4045 1.3095 1.5621 221.44 0.38020 6.7967 0.013374
-21.625 33.435 0.018968 153.92 155.16 0.83201 556.46 0.0017971 147.11 147.52 0.80164 1.5019 2.3514 1027.1 -0.0041439 157.30 0.11752 5.2076 0.19203 505.97 550.24 2.4027 1.3144 1.5690 221.52 0.37656 6.8232 0.013471
-20.625 34.673 0.019614 156.47 157.76 0.84214 555.23 0.0018011 149.45 149.88 0.81095 1.5049 2.3572 1020.6 -0.0040879 155.66 0.11697 5.3889 0.18557 507.04 551.40 2.4010 1.3194 1.5759 221.59 0.37300 6.8499 0.013569
-19.625 35.946 0.020276 159.03 160.37 0.85226 553.99 0.0018051 151.80 152.25 0.82024 1.5079 2.3630 1014.0 -0.0040311 154.04 0.11642 5.5750 0.17937 508.11 552.57 2.3992 1.3244 1.5829 221.66 0.36950 6.8765 0.013668
-18.625 37.253 0.020955 161.60 162.99 0.86238 552.74 0.0018092 154.16 154.62 0.82952 1.5109 2.3689 1007.5 -0.0039733 152.44 0.11587 5.7660 0.17343 509.19 553.73 2.3976 1.3294 1.5901 221.72 0.36608 6.9032 0.013767
-17.625 38.596 0.021651 164.18 165.62 0.87250 551.49 0.0018133 156.52 157.00 0.83878 1.5140 2.3749 1001.0 -0.0039145 150.86 0.11532 5.9621 0.16773 510.26 554.89 2.3959 1.3345 1.5972 221.77 0.36272 6.9300 0.013867
-16.625 39.976 0.022364 166.77 168.26 0.88261 550.24 0.0018174 158.89 159.39 0.84803 1.5171 2.3810 994.44 -0.0038549 149.29 0.11478 6.1632 0.16225 511.33 556.05 2.3943 1.3395 1.6045 221.81 0.35942 6.9568 0.013968
-15.625 41.392 0.023095 169.37 170.91 0.89273 548.98 0.0018216 161.26 161.78 0.85726 1.5202 2.3871 987.91 -0.0037942 147.75 0.11423 6.3696 0.15700 512.40 557.20 2.3927 1.3446 1.6119 221.85 0.35619 6.9836 0.014069
-14.625 42.846 0.023845 171.98 173.58 0.90284 547.71 0.0018258 163.64 164.18 0.86649 1.5233 2.3933 981.37 -0.0037325 146.22 0.11369 6.5812 0.15195 513.47 558.36 2.3912 1.3497 1.6193 221.87 0.35302 7.0105 0.014170
-13.625 44.338 0.024613 174.60 176.25 0.91296 546.44 0.0018300 166.02 166.58 0.87569 1.5264 2.3996 974.83 -0.0036698 144.72 0.11315 6.7983 0.14710 514.54 559.51 2.3897 1.3549 1.6268 221.89 0.34992 7.0375 0.014273
-12.625 45.870 0.025399 177.23 178.94 0.92307 545.17 0.0018343 168.41 168.99 0.88489 1.5296 2.4059 968.29 -0.0036061 143.23 0.11261 7.0208 0.14243 515.61 560.65 2.3883 1.3600 1.6344 221.90 0.34688 7.0646 0.014376
-11.625 47.440 0.026205 179.87 181.64 0.93319 543.89 0.0018386 170.81 171.41 0.89407 1.5328 2.4124 961.75 -0.0035413 141.76 0.11208 7.2490 0.13795 516.68 561.80 2.3868 1.3652 1.6421 221.91 0.34389 7.0917 0.014479
-10.625 49.051 0.027030 182.52 184.35 0.94330 542.60 0.0018430 173.21 173.83 0.90324 1.5360 2.4189 955.20 -0.0034753 140.30 0.11154 7.4829 0.13364 517.75 562.94 2.3854 1.3704 1.6498 221.90 0.34097 7.1188 0.014584
-9.6250 50.703 0.027875 185.18 187.07 0.95342 541.31 0.0018474 175.61 176.26 0.91240 1.5393 2.4255 948.65 -0.0034082 138.86 0.11101 7.7226 0.12949 518.81 564.08 2.3841 1.3757 1.6577 221.88 0.33810 7.1461 0.014689
-8.6250 52.396 0.028740 187.85 189.81 0.96354 540.02 0.0018518 178.03 178.70 0.92154 1.5426 2.4321 942.10 -0.0033400 137.44 0.11048 7.9683 0.12550 519.88 565.21 2.3827 1.3809 1.6657 221.86 0.33529 7.1734 0.014795
-7.6250 54.131 0.029626 190.53 192.55 0.97366 538.72 0.0018563 180.45 181.14 0.93068 1.5459 2.4389 935.55 -0.0032705 136.03 0.10995 8.2200 0.12165 520.94 566.35 2.3814 1.3862 1.6737 221.83 0.33254 7.2008 0.014902
-6.6250 55.909 0.030533 193.23 195.31 0.98378 537.41 0.0018608 182.87 183.59 0.93980 1.5492 2.4457 928.99 -0.0031998 134.64 0.10942 8.4779 0.11795 522.01 567.48 2.3801 1.3915 1.6819 221.79 0.32984 7.2284 0.015009
-5.6250 57.730 0.031460 195.93 198.08 0.99391 536.10 0.0018653 185.30 186.05 0.94892 1.5525 2.4526 922.43 -0.0031279 133.27 0.10889 8.7420 0.11439 523.07 568.60 2.3789 1.3969 1.6902 221.74 0.32720 7.2560 0.015117
-4.6250 59.595 0.032410 198.65 200.87 1.0040 534.78 0.0018699 187.74 188.51 0.95802 1.5559 2.4596 915.87 -0.0030546 131.91 0.10837 9.0126 0.11096 524.13 569.72 2.3777 1.4022 1.6985 221.68 0.32461 7.2837 0.015226
-3.6250 61.505 0.033381 201.37 203.66 1.0142 533.45 0.0018746 190.19 190.98 0.96711 1.5593 2.4667 909.30 -0.0029800 130.56 0.10785 9.2896 0.10765 525.19 570.84 2.3765 1.4076 1.7070 221.62 0.32207 7.3115 0.015336
-2.6250 63.461 0.034375 204.11 206.47 1.0243 532.12 0.0018793 192.64 193.46 0.97620 1.5627 2.4739 902.73 -0.0029041 129.23 0.10733 9.5733 0.10446 526.25 571.96 2.3753 1.4131 1.7156 221.54 0.31958 7.3394 0.015447
-1.6250 65.462 0.035392 206.85 209.29 1.0344 530.78 0.0018840 195.10 195.95 0.98527 1.5662 2.4811 896.16 -0.0028267 127.91 0.10681 9.8638 0.10138 527.31 573.07 2.3742 1.4185 1.7243 221.45 0.31715 7.3674 0.015559
-0.62500 67.510 0.036432 209.61 212.13 1.0446 529.44 0.0018888 197.56 198.44 0.99434 1.5696 2.4885 889.58 -0.0027478 126.61 0.10629 10.161 0.098414 528.37 574.18 2.3731 1.4240 1.7331 221.36 0.31476 7.3956 0.015671
0.37500 69.606 0.037496 212.38 214.97 1.0547 528.09 0.0018936 200.03 200.94 1.0034 1.5731 2.4960 883.00 -0.0026675 125.32 0.10578 10.466 0.095552 529.42 575.28 2.3720 1.4295 1.7421 221.26 0.31242 7.4239 0.015785
1.3750 71.749 0.038583 215.16 217.83 1.0649 526.73 0.0018985 202.51 203.45 1.0124 1.5767 2.5035 876.42 -0.0025856 124.04 0.10527 10.777 0.092790 530.48 576.38 2.3709 1.4350 1.7512 221.14 0.31013 7.4523 0.015899
2.3750 73.941 0.039696 217.95 220.71 1.0750 525.37 0.0019034 204.99 205.96 1.0215 1.5802 2.5112 869.83 -0.0025022 122.78 0.10476 11.096 0.090123 531.53 577.47 2.3699 1.4406 1.7604 221.02 0.30789 7.4808 0.016015
3.3750 76.183 0.040833 220.76 223.60 1.0852 523.99 0.0019084 207.48 208.48 1.0305 1.5838 2.5190 863.24 -0.0024171 121.53 0.10425 11.422 0.087549 532.58 578.56 2.3688 1.4462 1.7697 220.89 0.30569 7.5095 0.016131
4.3750 78.475 0.041996 223.57 226.50 1.0953 522.62 0.0019134 209.98 211.01 1.0395 1.5874 2.5268 856.64 -0.0023303 120.29 0.10374 11.756 0.085062 533.63 579.65 2.3678 1.4518 1.7792 220.75 0.30354 7.5384 0.016249
5.3750 80.817 0.043185 226.40 229.41 1.1055 521.23 0.0019185 212.48 213.55 1.0486 1.5910 2.5348 850.04 -0.0022417 119.06 0.10324 12.098 0.082660 534.67 580.73 2.3669 1.4575 1.7888 220.60 0.30144 7.5674 0.016368
6.3750 83.211 0.044401 229.24 232.34 1.1157 519.84 0.0019237 215.00 216.10 1.0576 1.5946 2.5429 843.43 -0.0021514 117.85 0.10273 12.447 0.080340 535.72 581.81 2.3659 1.4632 1.7986 220.44 0.29938 7.5966 0.016487
7.3750 85.657 0.045643 232.09 235.28 1.1258 518.44 0.0019289 217.51 218.65 1.0666 1.5983 2.5511 836.82 -0.0020593 116.65 0.10223 12.805 0.078096 536.76 582.88 2.3650 1.4689 1.8085 220.27 0.29736 7.6259 0.016608
8.3750 88.156 0.046913 234.95 238.23 1.1360 517.03 0.0019341 220.04 221.22 1.0756 1.6020 2.5595 830.20 -0.0019652 115.46 0.10173 13.170 0.075928 537.80 583.95 2.3640 1.4746 1.8186 220.08 0.29538 7.6555 0.016730
9.3750 90.708 0.048212 237.82 241.20 1.1462 515.62 0.0019394 222.57 223.79 1.0846 1.6057 2.5679 823.58 -0.0018691 114.28 0.10124 13.545 0.073830 538.84 585.01 2.3631 1.4804 1.8288 219.89 0.29345 7.6852 0.016853
10.375 93.315 0.049538 240.71 244.18 1.1564 514.19 0.0019448 225.11 226.37 1.0936 1.6095 2.5765 816.96 -0.0017710 113.11 0.10074 13.927 0.071802 539.87 586.07 2.3622 1.4863 1.8392 219.69 0.29156 7.7151 0.016978
11.375 95.977 0.050894 243.60 247.18 1.1666 512.76 0.0019502 227.66 228.95 1.1025 1.6132 2.5852 810.32 -0.0016708 111.95 0.10025 14.319 0.069840 540.90 587.12 2.3614 1.4921 1.8498 219.48 0.28971 7.7452 0.017103
12.375 98.694 0.052280 246.51 250.19 1.1768 511.32 0.0019557 230.22 231.55 1.1115 1.6170 2.5940 803.68 -0.0015685 110.80 0.099756 14.719 0.067941 541.93 588.17 2.3605 1.4980 1.8605 219.26 0.28790 7.7756 0.017230
13.375 101.47 0.053696 249.44 253.22 1.1870 509.87 0.0019613 232.78 234.15 1.1205 1.6208 2.6030 797.04 -0.0014639 109.67 0.099267 15.128 0.066103 542.96 589.21 2.3597 1.5040 1.8715 219.03 0.28612 7.8061 0.017359
14.375 104.30 0.055143 252.37 256.26 1.1973 508.42 0.0019669 235.35 236.77 1.1295 1.6247 2.6121 790.39 -0.0013569 108.54 0.098779 15.547 0.064323 543.99 590.24 2.3588 1.5099 1.8826 218.79 0.28439 7.8369 0.017488
15.375 107.19 0.056622 255.32 259.31 1.2075 506.95 0.0019726 237.93 239.39 1.1384 1.6286 2.6214 783.73 -0.0012476 107.43 0.098294 15.974 0.062600 545.01 591.27 2.3580 1.5159 1.8940 218.53 0.28270 7.8680 0.017619
16.375 110.13 0.058133 258.28 262.38 1.2177 505.48 0.0019783 240.52 242.02 1.1474 1.6324 2.6308 777.07 -0.0011357 106.32 0.097810 16.412 0.060931 546.03 592.29 2.3572 1.5220 1.9055 218.27 0.28104 7.8993 0.017752
17.375 113.14 0.059677 261.25 265.47 1.2280 504.00 0.0019841 243.11 244.66 1.1564 1.6364 2.6403 770.40 -0.0010213 105.22 0.097328 16.859 0.059314 547.04 593.31 2.3564 1.5281 1.9172 217.99 0.27942 7.9308 0.017886
18.375 116.21 0.061255 264.24 268.57 1.2382 502.50 0.0019900 245.72 247.31 1.1653 1.6403 2.6501 763.72 -0.00090422 104.14 0.096848 17.317 0.057747 548.05 594.32 2.3557 1.5342 1.9292 217.71 0.27783 7.9626 0.018021
19.375 119.33 0.062867 267.23 271.68 1.2485 501.00 0.0019960 248.33 249.97 1.1743 1.6443 2.6599 757.04 -0.00078435 103.06 0.096371 17.785 0.056228 549.06 595.33 2.3549 1.5404 1.9414 217.41 0.27628 7.9947 0.018159
20.375 122.52 0.064514 270.24 274.81 1.2588 499.49 0.0020020 250.95 252.64 1.1832 1.6483 2.6700 750.35 -0.00066161 101.99 0.095895 18.263 0.054756 550.07 596.32 2.3541 1.5466 1.9538 217.10 0.27477 8.0272 0.018297
21.375 125.77 0.066197 273.27 277.95 1.2691 497.97 0.0020082 253.57 255.32 1.1922 1.6523 2.6802 743.64 -0.00053589 100.93 0.095420 18.752 0.053328 551.07 597.31 2.3534 1.5528 1.9665 216.78 0.27329 8.0599 0.018438
22.375 129.08 0.067917 276.30 281.11 1.2794 496.43 0.0020144 256.21 258.00 1.2012 1.6563 2.6906 736.94 -0.00040708 99.877 0.094948 19.252 0.051943 552.07 598.30 2.3526 1.5591 1.9795 216.45 0.27184 8.0929 0.018580
23.375 132.46 0.069675 279.35 284.29 1.2897 494.89 0.0020206 258.86 260.70 1.2101 1.6604 2.7012 730.22 -0.00027505 98.834 0.094478 19.763 0.050600 553.06 599.27 2.3519 1.5655 1.9927 216.11 0.27043 8.1263 0.018724
24.375 135.90 0.071471 282.42 287.48 1.3000 493.34 0.0020270 261.51 263.41 1.2191 1.6645 2.7120 723.49 -0.00013968 97.800 0.094009 20.285 0.049297 554.05 600.24 2.3512 1.5718 2.0061 215.75 0.26906 8.1600 0.018870
25.375 139.41 0.073306 285.49 290.69 1.3103 491.77 0.0020335 264.17 266.13 1.2280 1.6686 2.7230 716.76 -8.3775e-07 96.773 0.093543 20.820 0.048032 555.03 601.20 2.3504 1.5783 2.0199 215.39 0.26771 8.1941 0.019017
26.375 142.98 0.075182 288.58 293.91 1.3206 490.20 0.0020400 266.84 268.85 1.2370 1.6728 2.7342 710.01 0.00014161 95.755 0.093078 21.366 0.046804 556.01 602.15 2.3497 1.5847 2.0340 215.01 0.26640 8.2286 0.019167
27.375 146.62 0.077099 291.69 297.15 1.3310 488.61 0.0020466 269.52 271.59 1.2459 1.6770 2.7456 703.26 0.00028782 94.745 0.092615 21.924 0.045612 556.99 603.10 2.3490 1.5913 2.0484 214.62 0.26512 8.2634 0.019319
28.375 150.33 0.079058 294.80 300.41 1.3413 487.01 0.0020533 272.21 274.34 1.2549 1.6812 2.7573 696.49 0.00043793 93.742 0.092154 22.495 0.044454 557.96 604.03 2.3483 1.5978 2.0631 214.21 0.26387 8.2987 0.019472
29.375 154.10 0.081060 297.94 303.68 1.3517 485.40 0.0020601 274.91 277.10 1.2638 1.6854 2.7691 689.72 0.00059212 92.747 0.091695 23.079 0.043329 558.92 604.96 2.3476 1.6044 2.0781 213.80 0.26265 8.3344 0.019628
30.375 157.94 0.083107 301.08 306.97 1.3621 483.78 0.0020671 277.62 279.87 1.2728 1.6897 2.7813 682.93 0.00075055 91.760 0.091238 23.676 0.042237 559.88 605.88 2.3469 1.6111 2.0935 213.37 0.26147 8.3705 0.019786
31.375 161.86 0.085199 304.24 310.27 1.3725 482.15 0.0020741 280.34 282.66 1.2818 1.6939 2.7936 676.13 0.00091340 90.779 0.090782 24.287 0.041175 560.84 606.79 2.3462 1.6178 2.1092 212.93 0.26031 8.4071 0.019947
32.375 165.84 0.087338 307.41 313.59 1.3829 480.50 0.0020812 283.07 285.45 1.2908 1.6983 2.8063 669.32 0.0010809 89.806 0.090328 24.911 0.040143 561.79 607.69 2.3455 1.6246 2.1254 212.48 0.25919 8.4442 0.020110
33.375 169.90 0.089524 310.60 316.93 1.3933 478.83 0.0020884 285.81 288.26 1.2997 1.7026 2.8192 662.50 0.0012532 88.840 0.089876 25.549 0.039140 562.73 608.58 2.3448 1.6314 2.1419 212.01 0.25809 8.4818 0.020275
34.375 174.02 0.091760 313.80 320.29 1.4037 477.16 0.0020957 288.56 291.07 1.3087 1.7070 2.8324 655.67 0.0014305 87.880 0.089426 26.202 0.038164 563.67 609.46 2.3440 1.6383 2.1589 211.53 0.25702 8.5199 0.020443
35.375 178.22 0.094046 317.02 323.66 1.4142 475.47 0.0021032 291.32 293.90 1.3177 1.7114 2.8459 648.82 0.0016131 86.927 0.088977 26.870 0.037216 564.60 610.33 2.3433 1.6452 2.1763 211.04 0.25599 8.5586 0.020613
36.375 182.50 0.096385 320.25 327.05 1.4246 473.77 0.0021107 294.09 296.74 1.3267 1.7158 2.8597 641.96 0.0018012 85.980 0.088531 27.553 0.036293 565.52 611.19 2.3426 1.6522 2.1942 210.53 0.25498 8.5978 0.020786
37.375 186.84 0.098776 323.49 330.46 1.4351 472.05 0.0021184 296.87 299.60 1.3357 1.7203 2.8739 635.08 0.0019950 85.040 0.088085 28.252 0.035395 566.44 612.04 2.3419 1.6592 2.2125 210.01 0.25400 8.6376 0.020962
38.375 191.27 0.10122 326.76 333.88 1.4456 470.31 0.0021262 299.66 302.46 1.3447 1.7248 2.8884 628.19 0.0021949 84.105 0.087642 28.967 0.034522 567.35 612.88 2.3411 1.6663 2.2314 209.47 0.25305 8.6780 0.021141
39.375 195.77 0.10373 330.03 337.33 1.4561 468.56 0.0021342 302.46 305.34 1.3537 1.7293 2.9033 621.29 0.0024011 83.177 0.087200 29.699 0.033671 568.26 613.70 2.3404 1.6734 2.2508 208.92 0.25213 8.7190 0.021323
40.375 200.34 0.10629 333.32 340.79 1.4666 466.80 0.0021423 305.27 308.23 1.3627 1.7339 2.9185 614.37 0.0026140 82.254 0.086760 30.447 0.032844 569.15 614.52 2.3396 1.6806 2.2708 208.36 0.25123 8.7608 0.021508
41.375 205.00 0.10891 336.63 344.27 1.4771 465.01 0.0021505 308.10 311.14 1.3718 1.7385 2.9342 607.43 0.0028338 81.338 0.086322 31.214 0.032037 570.04 615.32 2.3389 1.6879 2.2913 207.78 0.25037 8.8032 0.021696
42.375 209.73 0.11159 339.95 347.77 1.4876 463.21 0.0021588 310.94 314.06 1.3808 1.7432 2.9502 600.47 0.0030609 80.426 0.085885 31.998 0.031252 570.92 616.11 2.3381 1.6952 2.3125 207.19 0.24953 8.8463 0.021888
43.375 214.54 0.11434 343.29 351.28 1.4982 461.40 0.0021673 313.79 316.99 1.3899 1.7478 2.9667 593.50 0.0032957 79.520 0.085449 32.800 0.030488 571.79 616.88 2.3373 1.7027 2.3344 206.58 0.24871 8.8902 0.022084
44.375 219.43 0.11715 346.64 354.82 1.5088 459.56 0.0021760 316.65 319.94 1.3989 1.7525 2.9837 586.51 0.0035386 78.619 0.085015 33.622 0.029742 572.65 617.65 2.3365 1.7101 2.3569 205.96 0.24793 8.9349 0.022283
45.375 224.41 0.12003 350.01 358.37 1.5194 457.71 0.0021848 319.52 322.90 1.4080 1.7573 3.0012 579.50 0.0037900 77.723 0.084583 34.463 0.029016 573.50 618.40 2.3357 1.7177 2.3802 205.32 0.24717 8.9805 0.022485
46.375 229.46 0.12298 353.39 361.94 1.5300 455.83 0.0021938 322.41 325.88 1.4171 1.7621 3.0192 572.46 0.0040504 76.832 0.084152 35.325 0.028308 574.34 619.13 2.3349 1.7253 2.4042 204.67 0.24644 9.0269 0.022692
47.375 234.60 0.12601 356.79 365.54 1.5406 453.94 0.0022029 325.31 328.87 1.4262 1.7669 3.0377 565.41 0.0043202 75.946 0.083723 36.208 0.027618 575.17 619.85 2.3340 1.7329 2.4291 204.00 0.24573 9.0742 0.022903
48.375 239.83 0.12910 360.21 369.15 1.5513 452.03 0.0022123 328.22 331.88 1.4353 1.7718 3.0569 558.34 0.0046000 75.064 0.083295 37.112 0.026945 576.00 620.55 2.3332 1.7407 2.4548 203.31 0.24505 9.1224 0.023119
49.375 245.13 0.13228 363.64 372.78 1.5619 450.09 0.0022218 331.15 334.90 1.4445 1.7767 3.0766 551.24 0.0048904 74.186 0.082868 38.039 0.026289 576.81 621.24 2.3323 1.7485 2.4815 202.61 0.24440 9.1716 0.023339
50.375 250.53 0.13554 367.09 376.43 1.5726 448.13 0.0022315 334.09 337.94 1.4536 1.7817 3.0970 544.13 0.0051920 73.313 0.082442 38.989 0.025648 577.61 621.91 2.3314 1.7564 2.5092 201.89 0.24377 9.2219 0.023564
51.375 256.01 0.13888 370.56 380.10 1.5833 446.15 0.0022414 337.04 341.00 1.4628 1.7867 3.1181 536.98 0.0055054 72.443 0.082018 39.962 0.025024 578.39 622.56 2.3304 1.7644 2.5379 201.16 0.24317 9.2733 0.023794
52.375 261.57 0.14231 374.05 383.80 1.5940 444.15 0.0022515 340.01 344.07 1.4720 1.7918 3.1400 529.82 0.0058313 71.577 0.081595 40.961 0.024414 579.17 623.20 2.3295 1.7724 2.5677 200.41 0.24260 9.3258 0.024029
53.375 267.23 0.14583 377.55 387.51 1.6048 442.12 0.0022618 343.00 347.17 1.4812 1.7969 3.1627 522.62 0.0061705 70.715 0.081174 41.985 0.023818 579.93 623.81 2.3285 1.7805 2.5987 199.63 0.24205 9.3795 0.024270
54.375 272.97 0.14945 381.07 391.24 1.6155 440.06 0.0022724 346.00 350.28 1.4904 1.8021 3.1862 515.40 0.0065239 69.856 0.080753 43.036 0.023237 580.68 624.41 2.3274 1.7887 2.6310 198.85 0.24154 9.4344 0.024516
55.375 278.81 0.15316 384.61 395.00 1.6263 437.98 0.0022832 349.02 353.40 1.4997 1.8073 3.2106 508.15 0.0068923 69.001 0.080334 44.114 0.022669 581.41 624.99 2.3264 1.7969 2.6646 198.04 0.24105 9.4907 0.024769
56.375 284.74 0.15697 388.17 398.78 1.6371 435.87 0.0022943 352.05 356.55 1.5090 1.8126 3.2360 500.87 0.0072767 68.148 0.079915 45.221 0.022114 582.13 625.54 2.3253 1.8052 2.6998 197.22 0.24059 9.5484 0.025028
57.375 290.76 0.16090 391.74 402.58 1.6480 433.73 0.0023056 355.10 359.72 1.5183 1.8179 3.2624 493.56 0.0076782 67.299 0.079498 46.358 0.021571 582.83 626.07 2.3241 1.8136 2.7365 196.37 0.24016 9.6075 0.025294
58.375 296.87 0.16493 395.33 406.40 1.6588 431.56 0.0023172 358.17 362.91 1.5276 1.8233 3.2900 486.22 0.0080980 66.451 0.079082 47.525 0.021041 583.52 626.58 2.3230 1.8220 2.7749 195.51 0.23976 9.6682 0.025568
59.375 303.08 0.16909 398.95 410.24 1.6697 429.36 0.0023290 361.25 366.12 1.5370 1.8288 3.3188 478.84 0.0085373 65.606 0.078666 48.726 0.020523 584.18 627.07 2.3218 1.8305 2.8152 194.63 0.23939 9.7305 0.025849
60.375 309.38 0.17336 402.58 414.11 1.6806 427.13 0.0023412 364.36 369.35 1.5464 1.8343 3.3489 471.43 0.0089976 64.763 0.078251 49.960 0.020016 584.83 627.53 2.3205 1.8391 2.8576 193.73 0.23905 9.7945 0.026138
61.375 315.78 0.17777 406.23 418.00 1.6915 424.87 0.0023537 367.48 372.60 1.5558 1.8400 3.3805 463.99 0.0094803 63.922 0.077838 51.229 0.019520 585.46 627.96 2.3192 1.8479 2.9022 192.82 0.23873 9.8603 0.026436
62.375 322.28 0.18231 409.90 421.91 1.7025 422.56 0.0023665 370.62 375.88 1.5653 1.8457 3.4136 456.50 0.0099871 63.083 0.077425 52.535 0.019035 586.07 628.37 2.3178 1.8567 2.9492 191.88 0.23845 9.9281 0.026744
63.375 328.88 0.18700 413.59 425.85 1.7135 420.22 0.0023797 373.79 379.18 1.5748 1.8514 3.4483 448.97 0.010520 62.244 0.077012 53.879 0.018560 586.66 628.74 2.3164 1.8656 2.9989 190.92 0.23819 9.9979 0.027061
64.375 335.58 0.19184 417.31 429.81 1.7245 417.85 0.0023932 376.97 382.51 1.5844 1.8573 3.4850 441.40 0.011081 61.407 0.076600 55.265 0.018095 587.22 629.09 2.3149 1.8747 3.0517 189.95 0.23796 10.070 0.027389
65.375 342.38 0.19684 421.04 433.80 1.7355 415.42 0.0024072 380.18 385.86 1.5939 1.8633 3.5236 433.79 0.011672 60.570 0.076189 56.692 0.017639 587.76 629.40 2.3133 1.8839 3.1077 188.95 0.23775 10.144 0.027729
66.375 349.28 0.20201 424.80 437.81 1.7466 412.96 0.0024215 383.41 389.25 1.6036 1.8693 3.5645 426.12 0.012296 59.733 0.075779 58.165 0.017193 588.28 629.68 2.3117 1.8933 3.1674 187.93 0.23757 10.221 0.028080
67.375 356.28 0.20736 428.58 441.85 1.7577 410.45 0.0024363 386.67 392.65 1.6133 1.8755 3.6078 418.41 0.012956 58.897 0.075368 59.684 0.016755 588.76 629.92 2.3100 1.9030 3.2311 186.89 0.23740 10.300 0.028446
68.375 363.40 0.21290 432.38 445.92 1.7689 407.89 0.0024516 389.95 396.09 1.6230 1.8818 3.6537 410.64 0.013655 58.059 0.074959 61.253 0.016326 589.22 630.13 2.3082 1.9129 3.2994 185.83 0.23724 10.382 0.028825
69.375 370.61 0.21865 436.20 450.01 1.7801 405.28 0.0024674 393.26 399.57 1.6328 1.8882 3.7027 402.81 0.014396 57.221 0.074549 62.875 0.015905 589.65 630.29 2.3064 1.9231 3.3727 184.74 0.23710 10.467 0.029221
70.375 377.94 0.22461 440.05 454.13 1.7913 402.62 0.0024838 396.60 403.07 1.6426 1.8947 3.7550 394.92 0.015183 56.381 0.074141 64.552 0.015491 590.04 630.41 2.3044 1.9336 3.4518 183.63 0.23697 10.555 0.029633
71.375 385.37 0.23081 443.92 458.28 1.8025 399.89 0.0025007 399.96 406.61 1.6525 1.9014 3.8109 386.97 0.016021 55.540 0.073732 66.288 0.015086 590.40 630.49 2.3024 1.9444 3.5371 182.50 0.23684 10.647 0.030064
72.375 392.92 0.23726 447.82 462.46 1.8138 397.11 0.0025182 403.36 410.18 1.6625 1.9083 3.8711 378.95 0.016915 54.696 0.073324 68.087 0.014687 590.73 630.51 2.3002 1.9556 3.6297 181.34 0.23671 10.743 0.030515
73.375 400.57 0.24398 451.74 466.67 1.8252 394.26 0.0025364 406.79 413.80 1.6726 1.9153 3.9359 370.85 0.017871 53.848 0.072917 69.953 0.014295 591.01 630.49 2.2979 1.9673 3.7303 180.16 0.23658 10.842 0.030989
74.375 408.34 0.25100 455.69 470.91 1.8365 391.34 0.0025553 410.26 417.45 1.6827 1.9226 4.0060 362.67 0.018894 52.997 0.072510 71.890 0.013910 591.25 630.41 2.2955 1.9793 3.8401 178.95 0.23643 10.946 0.031488
75.375 416.23 0.25834 459.66 475.18 1.8480 388.34 0.0025751 413.76 421.15 1.6930 1.9301 4.0822 354.41 0.019993 52.142 0.072104 73.904 0.013531 591.44 630.27 2.2930 1.9919 3.9604 177.71 0.23627 11.054 0.032014
76.375 424.23 0.26602 463.67 479.48 1.8594 385.26 0.0025957 417.31 424.90 1.7033 1.9378 4.1654 346.06 0.021177 51.281 0.071699 76.001 0.013158 591.59 630.07 2.2903 2.0050 4.0927 176.44 0.23609 11.168 0.032570
77.375 432.35 0.27409 467.70 483.82 1.8710 382.09 0.0026172 420.89 428.70 1.7137 1.9459 4.2565 337.60 0.022455 50.414 0.071295 78.187 0.012790 591.68 629.80 2.2874 2.0186 4.2389 175.15 0.23588 11.287 0.033161
78.375 440.59 0.28257 471.77 488.19 1.8825 378.83 0.0026397 424.53 432.54 1.7243 1.9543 4.3570 329.05 0.023838 49.539 0.070893 80.469 0.012427 591.71 629.46 2.2844 2.0328 4.4012 173.82 0.23563 11.412 0.033789
79.375 448.95 0.29152 475.86 492.60 1.8942 375.46 0.0026634 428.21 436.45 1.7349 1.9631 4.4684 320.38 0.025341 48.657 0.070494 82.856 0.012069 591.68 629.04 2.2812 2.0475 4.5824 172.46 0.23535 11.544 0.034461
80.375 457.44 0.30099 479.99 497.04 1.9059 371.97 0.0026884 431.94 440.42 1.7457 1.9723 4.5928 311.58 0.026980 47.764 0.070099 85.359 0.011715 591.58 628.53 2.2778 2.0630 4.7859 171.07 0.23501 11.684 0.035181
81.375 466.05 0.31104 484.16 501.53 1.9176 368.36 0.0027147 435.74 444.46 1.7567 1.9820 4.7327 302.66 0.028773 46.860 0.069708 87.988 0.011365 591.40 627.92 2.2742 2.0791 5.0161 169.64 0.23461 11.832 0.035957
82.375 474.79 0.32175 488.36 506.05 1.9295 364.61 0.0027427 439.60 448.58 1.7678 1.9924 4.8914 293.60 0.030744 45.942 0.069323 90.757 0.011018 591.14 627.21 2.2703 2.0959 5.2786 168.17 0.23413 11.989 0.036797
83.375 483.66 0.33321 492.60 510.62 1.9414 360.70 0.0027724 443.53 452.78 1.7791 2.0034 5.0731 284.38 0.032920 45.010 0.068948 93.681 0.010674 590.79 626.38 2.2661 2.1136 5.5807 166.67 0.23357 12.157 0.037711
84.375 492.67 0.34553 496.88 515.24 1.9534 356.61 0.0028041 447.54 457.07 1.7907 2.0153 5.2834 275.00 0.035335 44.059 0.068586 96.781 0.010333 590.33 625.42 2.2616 2.1321 5.9321 165.13 0.23290 12.338 0.038713
85.375 501.81 0.35885 501.20 519.91 1.9655 352.33 0.0028382 451.65 461.47 1.8025 2.0281 5.5302 265.44 0.038030 43.088 0.068241 100.08 0.0099920 589.74 624.31 2.2567 2.1517 6.3459 163.54 0.23209 12.532 0.039819
86.375 511.09 0.37338 505.58 524.62 1.9776 347.82 0.0028751 455.85 465.98 1.8145 2.0420 5.8240 255.69 0.041058 42.092 0.067923 103.61 0.0096520 589.03 623.04 2.2514 2.1723 6.8405 161.91 0.23112 12.743 0.041051
87.375 520.51 0.38933 510.00 529.40 1.9899 343.04 0.0029151 460.18 470.64 1.8269 2.0574 6.1803 245.72 0.044485 41.066 0.067640 107.40 0.0093114 588.15 621.56 2.2456 2.1943 7.4422 160.23 0.22995 12.973 0.042436
88.375 530.07 0.40706 514.48 534.23 2.0023 337.95 0.0029590 464.64 475.45 1.8397 2.0745 6.6221 235.52 0.048397 40.005 0.067412 111.50 0.0089689 587.08 619.86 2.2392 2.2178 8.1900 158.49 0.22854 13.226 0.044014
89.375 539.79 0.42701 519.02 539.14 2.0149 332.48 0.0030077 469.27 480.46 1.8530 2.0936 7.1851 225.04 0.052906 38.901 0.067265 115.97 0.0086228 585.79 617.88 2.2321 2.2433 9.1445 156.69 0.22681 13.508 0.045839
90.375 549.66 0.44985 523.64 544.12 2.0276 326.55 0.0030623 474.10 485.71 1.8669 2.1156 7.9284 214.26 0.058166 37.742 0.067243 120.91 0.0082708 584.22 615.56 2.2241 2.2711 10.405 154.82 0.22467 13.825 0.047992
91.375 559.68 0.47663 528.33 549.19 2.0405 320.03 0.0031247 479.19 491.25 1.8815 2.1412 8.9568 203.11 0.064389 36.514 0.067421 126.43 0.0079097 582.29 612.82 2.2150 2.3019 12.146 152.85 0.22200 14.189 0.050600
92.375 569.87 0.50906 533.12 554.36 2.0536 312.73 0.0031976 484.62 497.18 1.8972 2.1718 10.475 191.54 0.071885 35.195 0.067931 132.72 0.0075346 579.91 609.51 2.2045 2.3370 14.705 150.75 0.21862 14.618 0.053877
93.375 580.24 0.55034 538.04 559.67 2.0670 304.34 0.0032858 490.52 503.67 1.9143 2.2100 12.945 179.43 0.081133 33.755 0.069025 140.11 0.0071373 576.87 605.42 2.1919 2.3779 18.828 148.48 0.21421 15.146 0.058225
94.375 590.79 0.60741 543.12 565.14 2.0809 294.25 0.0033985 497.17 511.01 1.9336 2.2603 17.657 166.61 0.092934 32.154 0.071243 149.20 0.0067025 572.82 600.12 2.1761 2.4283 26.557 145.93 0.20825 15.847 0.064529
95.375 601.53 0.70081 548.46 570.88 2.0954 280.99 0.0035589 505.21 519.97 1.9572 2.3343 30.014 152.73 0.10888 30.366 0.076197 161.45 0.0061937 566.92 592.61 2.1544 2.4956 46.113 142.79 0.19953 16.960 0.075419
96.375 612.50 0.97026 554.37 577.20 2.1114 258.02 0.0038757 517.56 533.93 1.9943 2.4799 125.86 136.81 0.13399 28.436 0.097271 183.41 0.0054523 555.50 578.53 2.1150 2.6070 182.91 137.67 0.18336 19.789 0.10964
97.375 622.26 undefined 557.13 580.32 2.1189 185.00 0.0054054 557.13 580.32 2.1189 2.5511 85.329 139.38 0.17988 19.825 0.088637 185.00 0.0054054 557.13 580.32 2.1189 2.5511 85.329 139.38 0.17988 19.825 0.088637
98.375 631.89 undefined 559.65 583.20 2.1257 185.00 0.0054054 559.65 583.20 2.1257 2.4959 52.838 141.47 0.17731 19.336 0.079457 185.00 0.0054054 559.65 583.20 2.1257 2.4959 52.838 141.47 0.17731 19.336 0.079457
99.375 641.47 undefined 562.12 586.03 2.1323 185.00 0.0054054 562.12 586.03 2.1323 2.4496 38.338 143.50 0.17464 19.102 0.074060 185.00 0.0054054 562.12 586.03 2.1323 2.4496 38.338 143.50 0.17464 19.102 0.074060
100.38 651.00 undefined 564.55 588.81 2.1388 185.00 0.0054054 564.55 588.81 2.1388 2.4111 30.159 145.45 0.17190 18.998 0.070353 185.00 0.0054054 564.55 588.81 2.1388 2.4111 30.159 145.45 0.17190 18.998 0.070353
101.38 660.50 undefined 566.94 591.56 2.1452 185.00 0.0054054 566.94 591.56 2.1452 2.3790 24.924 147.33 0.16913 18.961 0.067605 185.00 0.0054054 566.94 591.56 2.1452 2.3790 24.924 147.33 0.16913 18.961 0.067605
102.38 669.96 undefined 569.31 594.28 2.1515 185.00 0.0054054 569.31 594.28 2.1515 2.3522 21.295 149.15 0.16634 18.959 0.065473 185.00 0.0054054 569.31 594.28 2.1515 2.3522 21.295 149.15 0.16634 18.959 0.065473
103.38 679.39 undefined 571.65 596.97 2.1577 185.00 0.0054054 571.65 596.97 2.1577 2.3299 18.637 150.92 0.16355 18.973 0.063767 185.00 0.0054054 571.65 596.97 2.1577 2.3299 18.637 150.92 0.16355 18.973 0.063767
104.38 688.80 undefined 573.97 599.64 2.1639 185.00 0.0054054 573.97 599.64 2.1639 2.3112 16.610 152.63 0.16078 18.997 0.062368 185.00 0.0054054 573.97 599.64 2.1639 2.3112 16.610 152.63 0.16078 18.997 0.062368
105.38 698.20 undefined 576.27 602.29 2.1700 185.00 0.0054054 576.27 602.29 2.1700 2.2954 15.015 154.29 0.15804 19.025 0.061200 185.00 0.0054054 576.27 602.29 2.1700 2.2954 15.015 154.29 0.15804 19.025 0.061200
106.38 707.57 undefined 578.56 604.93 2.1760 185.00 0.0054054 578.56 604.93 2.1760 2.2821 13.728 155.92 0.15533 19.056 0.060211 185.00 0.0054054 578.56 604.93 2.1760 2.2821 13.728 155.92 0.15533 19.056 0.060211
107.38 716.93 undefined 580.84 607.56 2.1820 185.00 0.0054054 580.84 607.56 2.1820 2.2708 12.669 157.51 0.15266 19.087 0.059363 185.00 0.0054054 580.84 607.56 2.1820 2.2708 12.669 157.51 0.15266 19.087 0.059363
108.38 726.28 undefined 583.10 610.17 2.1880 185.00 0.0054054 583.10 610.17 2.1880 2.2610 11.783 159.07 0.15003 19.120 0.058630 185.00 0.0054054 583.10 610.17 2.1880 2.2610 11.783 159.07 0.15003 19.120 0.058630
109.38 735.61 undefined 585.36 612.78 2.1939 185.00 0.0054054 585.36 612.78 2.1939 2.2526 11.032 160.61 0.14746 19.152 0.057990 185.00 0.0054054 585.36 612.78 2.1939 2.2526 11.032 160.61 0.14746 19.152 0.057990
110.38 744.94 undefined 587.61 615.37 2.1997 185.00 0.0054054 587.61 615.37 2.1997 2.2454 10.386 162.13 0.14494 19.185 0.057429 185.00 0.0054054 587.61 615.37 2.1997 2.2454 10.386 162.13 0.14494 19.185 0.057429
111.38 754.25 undefined 589.85 617.96 2.2056 185.00 0.0054054 589.85 617.96 2.2056 2.2390 9.8258 163.63 0.14246 19.218 0.056934 185.00 0.0054054 589.85 617.96 2.2056 2.2390 9.8258 163.63 0.14246 19.218 0.056934
112.38 763.56 undefined 592.09 620.55 2.2114 185.00 0.0054054 592.09 620.55 2.2114 2.2334 9.3354 165.11 0.14005 19.251 0.056495 185.00 0.0054054 592.09 620.55 2.2114 2.2334 9.3354 165.11 0.14005 19.251 0.056495
113.38 772.85 undefined 594.32 623.12 2.2172 185.00 0.0054054 594.32 623.12 2.2172 2.2285 8.9027 166.58 0.13768 19.284 0.056106 185.00 0.0054054 594.32 623.12 2.2172 2.2285 8.9027 166.58 0.13768 19.284 0.056106
114.38 782.14 undefined 596.55 625.70 2.2229 185.00 0.0054054 596.55 625.70 2.2229 2.2242 8.5182 168.03 0.13537 19.316 0.055759 185.00 0.0054054 596.55 625.70 2.2229 2.2242 8.5182 168.03 0.13537 19.316 0.055759
115.38 791.42 undefined 598.77 628.26 2.2287 185.00 0.0054054 598.77 628.26 2.2287 2.2204 8.1744 169.47 0.13311 19.349 0.055450 185.00 0.0054054 598.77 628.26 2.2287 2.2204 8.1744 169.47 0.13311 19.349 0.055450
116.38 800.70 undefined 600.99 630.83 2.2344 185.00 0.0054054 600.99 630.83 2.2344 2.2170 7.8654 170.90 0.13091 19.382 0.055174 185.00 0.0054054 600.99 630.83 2.2344 2.2170 7.8654 170.90 0.13091 19.382 0.055174
117.38 809.96 undefined 603.20 633.39 2.2400 185.00 0.0054054 603.20 633.39 2.2400 2.2141 7.5861 172.31 0.12875 19.415 0.054928 185.00 0.0054054 603.20 633.39 2.2400 2.2141 7.5861 172.31 0.12875 19.415 0.054928
118.38 819.22 undefined 605.41 635.95 2.2457 185.00 0.0054054 605.41 635.95 2.2457 2.2115 7.3327 173.71 0.12665 19.447 0.054708 185.00 0.0054054 605.41 635.95 2.2457 2.2115 7.3327 173.71 0.12665 19.447 0.054708
119.38 828.48 undefined 607.62 638.50 2.2513 185.00 0.0054054 607.62 638.50 2.2513 2.2092 7.1017 175.11 0.12459 19.480 0.054512 185.00 0.0054054 607.62 638.50 2.2513 2.2092 7.1017 175.11 0.12459 19.480 0.054512
120.38 837.73 undefined 609.83 641.05 2.2569 185.00 0.0054054 609.83 641.05 2.2569 2.2072 6.8904 176.49 0.12258 19.513 0.054338 185.00 0.0054054 609.83 641.05 2.2569 2.2072 6.8904 176.49 0.12258 19.513 0.054338
121.38 846.97 undefined 612.04 643.61 2.2625 185.00 0.0054054 612.04 643.61 2.2625 2.2056 6.6964 177.86 0.12062 19.545 0.054183 185.00 0.0054054 612.04 643.61 2.2625 2.2056 6.6964 177.86 0.12062 19.545 0.054183
122.38 856.21 undefined 614.24 646.15 2.2681 185.00 0.0054054 614.24 646.15 2.2681 2.2042 6.5179 179.23 0.11870 19.578 0.054046 185.00 0.0054054 614.24 646.15 2.2681 2.2042 6.5179 179.23 0.11870 19.578 0.054046
123.38 865.44 undefined 616.45 648.70 2.2737 185.00 0.0054054 616.45 648.70 2.2737 2.2030 6.3529 180.58 0.11682 19.610 0.053925 185.00 0.0054054 616.45 648.70 2.2737 2.2030 6.3529 180.58 0.11682 19.610 0.053925
124.38 874.67 undefined 618.65 651.25 2.2792 185.00 0.0054054 618.65 651.25 2.2792 2.2021 6.2002 181.92 0.11499 19.643 0.053818 185.00 0.0054054 618.65 651.25 2.2792 2.2021 6.2002 181.92 0.11499 19.643 0.053818
125.38 883.89 undefined 620.85 653.79 2.2848 185.00 0.0054054 620.85 653.79 2.2848 2.2013 6.0585 183.26 0.11320 19.675 0.053726 185.00 0.0054054 620.85 653.79 2.2848 2.2013 6.0585 183.26 0.11320 19.675 0.053726
126.38 893.11 undefined 623.05 656.34 2.2903 185.00 0.0054054 623.05 656.34 2.2903 2.2008 5.9266 184.58 0.11146 19.707 0.053646 185.00 0.0054054 623.05 656.34 2.2903 2.2008 5.9266 184.58 0.11146 19.707 0.053646
127.38 902.33 undefined 625.25 658.88 2.2958 185.00 0.0054054 625.25 658.88 2.2958 2.2005 5.8036 185.90 0.10975 19.740 0.053577 185.00 0.0054054 625.25 658.88 2.2958 2.2005 5.8036 185.90 0.10975 19.740 0.053577
128.38 911.54 undefined 627.45 661.43 2.3013 185.00 0.0054054 627.45 661.43 2.3013 2.2004 5.6887 187.21 0.10807 19.772 0.053519 185.00 0.0054054 627.45 661.43 2.3013 2.2004 5.6887 187.21 0.10807 19.772 0.053519
129.38 920.74 undefined 629.65 663.97 2.3068 185.00 0.0054054 629.65 663.97 2.3068 2.2004 5.5812 188.51 0.10644 19.804 0.053471 185.00 0.0054054 629.65 663.97 2.3068 2.2004 5.5812 188.51 0.10644 19.804 0.053471
130.38 929.95 undefined 631.86 666.51 2.3122 185.00 0.0054054 631.86 666.51 2.3122 2.2006 5.4803 189.80 0.10484 19.836 0.053433 185.00 0.0054054 631.86 666.51 2.3122 2.2006 5.4803 189.80 0.10484 19.836 0.053433
131.38 939.14 undefined 634.06 669.06 2.3177 185.00 0.0054054 634.06 669.06 2.3177 2.2009 5.3855 191.09 0.10328 19.869 0.053402 185.00 0.0054054 634.06 669.06 2.3177 2.2009 5.3855 191.09 0.10328 19.869 0.053402
132.38 948.34 undefined 636.26 671.60 2.3231 185.00 0.0054054 636.26 671.60 2.3231 2.2014 5.2964 192.36 0.10175 19.901 0.053380 185.00 0.0054054 636.26 671.60 2.3231 2.2014 5.2964 192.36 0.10175 19.901 0.053380
133.38 957.53 undefined 638.46 674.14 2.3285 185.00 0.0054054 638.46 674.14 2.3285 2.2020 5.2124 193.63 0.10026 19.933 0.053365 185.00 0.0054054 638.46 674.14 2.3285 2.2020 5.2124 193.63 0.10026 19.933 0.053365
134.38 966.72 undefined 640.66 676.69 2.3339 185.00 0.0054054 640.66 676.69 2.3339 2.2028 5.1332 194.89 0.098793 19.965 0.053357 185.00 0.0054054 640.66 676.69 2.3339 2.2028 5.1332 194.89 0.098793 19.965 0.053357
135.38 975.90 undefined 642.86 679.24 2.3393 185.00 0.0054054 642.86 679.24 2.3393 2.2036 5.0583 196.15 0.097361 19.997 0.053356 185.00 0.0054054 642.86 679.24 2.3393 2.2036 5.0583 196.15 0.097361 19.997 0.053356
136.38 985.08 undefined 645.07 681.78 2.3447 185.00 0.0054054 645.07 681.78 2.3447 2.2046 4.9874 197.40 0.095960 20.029 0.053360 185.00 0.0054054 645.07 681.78 2.3447 2.2046 4.9874 197.40 0.095960 20.029 0.053360
137.38 994.26 undefined 647.27 684.33 2.3501 185.00 0.0054054 647.27 684.33 2.3501 2.2057 4.9203 198.63 0.094588 20.061 0.053370 185.00 0.0054054 647.27 684.33 2.3501 2.2057 4.9203 198.63 0.094588 20.061 0.053370
138.38 1003.4 undefined 649.48 686.88 2.3555 185.00 0.0054054 649.48 686.88 2.3555 2.2069 4.8567 199.87 0.093246 20.092 0.053386 185.00 0.0054054 649.48 686.88 2.3555 2.2069 4.8567 199.87 0.093246 20.092 0.053386
139.38 1012.6 undefined 651.69 689.43 2.3608 185.00 0.0054054 651.69 689.43 2.3608 2.2082 4.7963 201.09 0.091931 20.124 0.053407 185.00 0.0054054 651.69 689.43 2.3608 2.2082 4.7963 201.09 0.091931 20.124 0.053407
140.38 1021.8 undefined 653.90 691.98 2.3662 185.00 0.0054054 653.90 691.98 2.3662 2.2096 4.7389 202.31 0.090644 20.156 0.053432 185.00 0.0054054 653.90 691.98 2.3662 2.2096 4.7389 202.31 0.090644 20.156 0.053432
141.38 1030.9 undefined 656.11 694.53 2.3715 185.00 0.0054054 656.11 694.53 2.3715 2.2110 4.6843 203.52 0.089383 20.188 0.053462 185.00 0.0054054 656.11 694.53 2.3715 2.2110 4.6843 203.52 0.089383 20.188 0.053462
142.38 1040.1 undefined 658.32 697.08 2.3768 185.00 0.0054054 658.32 697.08 2.3768 2.2126 4.6323 204.73 0.088149 20.219 0.053496 185.00 0.0054054 658.32 697.08 2.3768 2.2126 4.6323 204.73 0.088149 20.219 0.053496
143.38 1049.3 undefined 660.53 699.64 2.3822 185.00 0.0054054 660.53 699.64 2.3822 2.2142 4.5828 205.93 0.086939 20.251 0.053534 185.00 0.0054054 660.53 699.64 2.3822 2.2142 4.5828 205.93 0.086939 20.251 0.053534
144.38 1058.4 undefined 662.75 702.19 2.3875 185.00 0.0054054 662.75 702.19 2.3875 2.2159 4.5355 207.12 0.085754 20.283 0.053576 185.00 0.0054054 662.75 702.19 2.3875 2.2159 4.5355 207.12 0.085754 20.283 0.053576
145.38 1067.6 undefined 664.96 704.75 2.3928 185.00 0.0054054 664.96 704.75 2.3928 2.2177 4.4904 208.31 0.084593 20.314 0.053622 185.00 0.0054054 664.96 704.75 2.3928 2.2177 4.4904 208.31 0.084593 20.314 0.053622
146.38 1076.7 undefined 667.18 707.31 2.3981 185.00 0.0054054 667.18 707.31 2.3981 2.2195 4.4474 209.49 0.083455 20.346 0.053671 185.00 0.0054054 667.18 707.31 2.3981 2.2195 4.4474 209.49 0.083455 20.346 0.053671
147.38 1085.9 undefined 669.40 709.87 2.4034 185.00 0.0054054 669.40 709.87 2.4034 2.2214 4.4062 210.66 0.082340 20.377 0.053723 185.00 0.0054054 669.40 709.87 2.4034 2.2214 4.4062 210.66 0.082340 20.377 0.053723
148.38 1095.0 undefined 671.62 712.44 2.4086 185.00 0.0054054 671.62 712.44 2.4086 2.2233 4.3668 211.83 0.081246 20.409 0.053779 185.00 0.0054054 671.62 712.44 2.4086 2.2233 4.3668 211.83 0.081246 20.409 0.053779
149.38 1104.2 undefined 673.85 715.00 2.4139 185.00 0.0054054 673.85 715.00 2.4139 2.2253 4.3290 212.99 0.080174 20.440 0.053837 185.00 0.0054054 673.85 715.00 2.4139 2.2253 4.3290 212.99 0.080174 20.440 0.053837
150.38 1113.3 undefined 676.08 717.57 2.4192 185.00 0.0054054 676.08 717.57 2.4192 2.2274 4.2929 214.15 0.079123 20.472 0.053898 185.00 0.0054054 676.08 717.57 2.4192 2.2274 4.2929 214.15 0.079123 20.472 0.053898
151.38 1122.5 undefined 678.30 720.14 2.4244 185.00 0.0054054 678.30 720.14 2.4244 2.2295 4.2583 215.30 0.078092 20.503 0.053962 185.00 0.0054054 678.30 720.14 2.4244 2.2295 4.2583 215.30 0.078092 20.503 0.053962
152.38 1131.6 undefined 680.53 722.71 2.4297 185.00 0.0054054 680.53 722.71 2.4297 2.2317 4.2250 216.45 0.077081 20.534 0.054028 185.00 0.0054054 680.53 722.71 2.4297 2.2317 4.2250 216.45 0.077081 20.534 0.054028
153.38 1140.7 undefined 682.77 725.28 2.4349 185.00 0.0054054 682.77 725.28 2.4349 2.2339 4.1931 217.59 0.076089 20.566 0.054097 185.00 0.0054054 682.77 725.28 2.4349 2.2339 4.1931 217.59 0.076089 20.566 0.054097
154.38 1149.9 undefined 685.00 727.86 2.4401 185.00 0.0054054 685.00 727.86 2.4401 2.2361 4.1625 218.72 0.075116 20.597 0.054168 185.00 0.0054054 685.00 727.86 2.4401 2.2361 4.1625 218.72 0.075116 20.597 0.054168
155.38 1159.0 undefined 687.24 730.43 2.4454 185.00 0.0054054 687.24 730.43 2.4454 2.2384 4.1331 219.85 0.074162 20.628 0.054241 185.00 0.0054054 687.24 730.43 2.4454 2.2384 4.1331 219.85 0.074162 20.628 0.054241
156.38 1168.1 undefined 689.48 733.01 2.4506 185.00 0.0054054 689.48 733.01 2.4506 2.2408 4.1048 220.98 0.073225 20.659 0.054317 185.00 0.0054054 689.48 733.01 2.4506 2.2408 4.1048 220.98 0.073225 20.659 0.054317
157.38 1177.2 undefined 691.72 735.60 2.4558 185.00 0.0054054 691.72 735.60 2.4558 2.2431 4.0776 222.10 0.072305 20.690 0.054395 185.00 0.0054054 691.72 735.60 2.4558 2.2431 4.0776 222.10 0.072305 20.690 0.054395
158.38 1186.4 undefined 693.97 738.18 2.4610 185.00 0.0054054 693.97 738.18 2.4610 2.2455 4.0514 223.21 0.071403 20.721 0.054474 185.00 0.0054054 693.97 738.18 2.4610 2.2455 4.0514 223.21 0.071403 20.721 0.054474
159.38 1195.5 undefined 696.21 740.77 2.4662 185.00 0.0054054 696.21 740.77 2.4662 2.2480 4.0262 224.32 0.070517 20.752 0.054556 185.00 0.0054054 696.21 740.77 2.4662 2.2480 4.0262 224.32 0.070517 20.752 0.054556
160.38 1204.6 undefined 698.46 743.36 2.4714 185.00 0.0054054 698.46 743.36 2.4714 2.2504 4.0019 225.42 0.069647 20.783 0.054639 185.00 0.0054054 698.46 743.36 2.4714 2.2504 4.0019 225.42 0.069647 20.783 0.054639
161.38 1213.7 undefined 700.71 745.95 2.4766 185.00 0.0054054 700.71 745.95 2.4766 2.2529 3.9786 226.52 0.068793 20.814 0.054724 185.00 0.0054054 700.71 745.95 2.4766 2.2529 3.9786 226.52 0.068793 20.814 0.054724
162.38 1222.8 undefined 702.97 748.54 2.4818 185.00 0.0054054 702.97 748.54 2.4818 2.2555 3.9560 227.62 0.067955 20.845 0.054811 185.00 0.0054054 702.97 748.54 2.4818 2.2555 3.9560 227.62 0.067955 20.845 0.054811
163.38 1231.9 undefined 705.22 751.14 2.4869 185.00 0.0054054 705.22 751.14 2.4869 2.2580 3.9343 228.71 0.067131 20.876 0.054899 185.00 0.0054054 705.22 751.14 2.4869 2.2580 3.9343 228.71 0.067131 20.876 0.054899
164.38 1241.0 undefined 707.48 753.74 2.4921 185.00 0.0054054 707.48 753.74 2.4921 2.2606 3.9133 229.79 0.066322 20.907 0.054989 185.00 0.0054054 707.48 753.74 2.4921 2.2606 3.9133 229.79 0.066322 20.907 0.054989
165.38 1250.2 undefined 709.75 756.34 2.4973 185.00 0.0054054 709.75 756.34 2.4973 2.2632 3.8931 230.87 0.065527 20.938 0.055080 185.00 0.0054054 709.75 756.34 2.4973 2.2632 3.8931 230.87 0.065527 20.938 0.055080
166.38 1259.3 undefined 712.01 758.94 2.5024 185.00 0.0054054 712.01 758.94 2.5024 2.2659 3.8736 231.95 0.064746 20.968 0.055173 185.00 0.0054054 712.01 758.94 2.5024 2.2659 3.8736 231.95 0.064746 20.968 0.055173
167.38 1268.4 undefined 714.28 761.55 2.5076 185.00 0.0054054 714.28 761.55 2.5076 2.2685 3.8547 233.02 0.063979 20.999 0.055268 185.00 0.0054054 714.28 761.55 2.5076 2.2685 3.8547 233.02 0.063979 20.999 0.055268
168.38 1277.5 undefined 716.55 764.16 2.5127 185.00 0.0054054 716.55 764.16 2.5127 2.2712 3.8365 234.09 0.063224 21.030 0.055364 185.00 0.0054054 716.55 764.16 2.5127 2.2712 3.8365 234.09 0.063224 21.030 0.055364
169.38 1286.6 undefined 718.82 766.77 2.5179 185.00 0.0054054 718.82 766.77 2.5179 2.2739 3.8190 235.15 0.062483 21.060 0.055461 185.00 0.0054054 718.82 766.77 2.5179 2.2739 3.8190 235.15 0.062483 21.060 0.055461
170.38 1295.7 undefined 721.09 769.38 2.5230 185.00 0.0054054 721.09 769.38 2.5230 2.2766 3.8020 236.21 0.061755 21.091 0.055559 185.00 0.0054054 721.09 769.38 2.5230 2.2766 3.8020 236.21 0.061755 21.091 0.055559
171.38 1304.7 undefined 723.37 772.00 2.5281 185.00 0.0054054 723.37 772.00 2.5281 2.2794 3.7855 237.26 0.061039 21.122 0.055659 185.00 0.0054054 723.37 772.00 2.5281 2.2794 3.7855 237.26 0.061039 21.122 0.055659
172.38 1313.8 undefined 725.65 774.62 2.5333 185.00 0.0054054 725.65 774.62 2.5333 2.2821 3.7696 238.31 0.060335 21.152 0.055760 185.00 0.0054054 725.65 774.62 2.5333 2.2821 3.7696 238.31 0.060335 21.152 0.055760
173.38 1322.9 undefined 727.94 777.24 2.5384 185.00 0.0054054 727.94 777.24 2.5384 2.2849 3.7543 239.35 0.059642 21.183 0.055862 185.00 0.0054054 727.94 777.24 2.5384 2.2849 3.7543 239.35 0.059642 21.183 0.055862
174.38 1332.0 undefined 730.22 779.87 2.5435 185.00 0.0054054 730.22 779.87 2.5435 2.2877 3.7394 240.40 0.058961 21.213 0.055965 185.00 0.0054054 730.22 779.87 2.5435 2.2877 3.7394 240.40 0.058961 21.213 0.055965
175.38 1341.1 undefined 732.51 782.49 2.5486 185.00 0.0054054 732.51 782.49 2.5486 2.2905 3.7250 241.43 0.058292 21.244 0.056069 185.00 0.0054054 732.51 782.49 2.5486 2.2905 3.7250 241.43 0.058292 21.244 0.056069
176.38 1350.2 undefined 734.80 785.12 2.5537 185.00 0.0054054 734.80 785.12 2.5537 2.2934 3.7111 242.47 0.057633 21.274 0.056174 185.00 0.0054054 734.80 785.12 2.5537 2.2934 3.7111 242.47 0.057633 21.274 0.056174
177.38 1359.3 undefined 737.10 787.76 2.5588 185.00 0.0054054 737.10 787.76 2.5588 2.2962 3.6976 243.49 0.056986 21.304 0.056281 185.00 0.0054054 737.10 787.76 2.5588 2.2962 3.6976 243.49 0.056986 21.304 0.056281
178.38 1368.3 undefined 739.40 790.39 2.5639 185.00 0.0054054 739.40 790.39 2.5639 2.2991 3.6846 244.52 0.056348 21.335 0.056388 185.00 0.0054054 739.40 790.39 2.5639 2.2991 3.6846 244.52 0.056348 21.335 0.056388
179.38 1377.4 undefined 741.70 793.03 2.5690 185.00 0.0054054 741.70 793.03 2.5690 2.3020 3.6720 245.54 0.055721 21.365 0.056496 185.00 0.0054054 741.70 793.03 2.5690 2.3020 3.6720 245.54 0.055721 21.365 0.056496
180.38 1386.5 undefined 744.00 795.67 2.5741 185.00 0.0054054 744.00 795.67 2.5741 2.3049 3.6597 246.56 0.055104 21.395 0.056606 185.00 0.0054054 744.00 795.67 2.5741 2.3049 3.6597 246.56 0.055104 21.395 0.056606
181.38 1395.6 undefined 746.31 798.32 2.5792 185.00 0.0054054 746.31 798.32 2.5792 2.3078 3.6479 247.57 0.054497 21.425 0.056716 185.00 0.0054054 746.31 798.32 2.5792 2.3078 3.6479 247.57 0.054497 21.425 0.056716
182.38 1404.6 undefined 748.62 800.97 2.5842 185.00 0.0054054 748.62 800.97 2.5842 2.3107 3.6364 248.58 0.053900 21.455 0.056827 185.00 0.0054054 748.62 800.97 2.5842 2.3107 3.6364 248.58 0.053900 21.455 0.056827
183.38 1413.7 undefined 750.93 803.62 2.5893 185.00 0.0054054 750.93 803.62 2.5893 2.3136 3.6253 249.59 0.053312 21.486 0.056939 185.00 0.0054054 750.93 803.62 2.5893 2.3136 3.6253 249.59 0.053312 21.486 0.056939
184.38 1422.8 undefined 753.24 806.27 2.5944 185.00 0.0054054 753.24 806.27 2.5944 2.3166 3.6145 250.59 0.052733 21.516 0.057052 185.00 0.0054054 753.24 806.27 2.5944 2.3166 3.6145 250.59 0.052733 21.516 0.057052
185.38 1431.8 undefined 755.56 808.93 2.5994 185.00 0.0054054 755.56 808.93 2.5994 2.3195 3.6040 251.59 0.052163 21.546 0.057166 185.00 0.0054054 755.56 808.93 2.5994 2.3195 3.6040 251.59 0.052163 21.546 0.057166
186.38 1440.9 undefined 757.88 811.58 2.6045 185.00 0.0054054 757.88 811.58 2.6045 2.3225 3.5939 252.58 0.051602 21.576 0.057281 185.00 0.0054054 757.88 811.58 2.6045 2.3225 3.5939 252.58 0.051602 21.576 0.057281
187.38 1450.0 undefined 760.21 814.25 2.6095 185.00 0.0054054 760.21 814.25 2.6095 2.3255 3.5841 253.57 0.051049 21.606 0.057396 185.00 0.0054054 760.21 814.25 2.6095 2.3255 3.5841 253.57 0.051049 21.606 0.057396
188.38 1459.0 undefined 762.53 816.91 2.6146 185.00 0.0054054 762.53 816.91 2.6146 2.3284 3.5746 254.56 0.050505 21.636 0.057513 185.00 0.0054054 762.53 816.91 2.6146 2.3284 3.5746 254.56 0.050505 21.636 0.057513
189.38 1468.1 undefined 764.86 819.58 2.6196 185.00 0.0054054 764.86 819.58 2.6196 2.3314 3.5653 255.55 0.049970 21.666 0.057630 185.00 0.0054054 764.86 819.58 2.6196 2.3314 3.5653 255.55 0.049970 21.666 0.057630
190.38 1477.1 undefined 767.20 822.25 2.6247 185.00 0.0054054 767.20 822.25 2.6247 2.3344 3.5564 256.53 0.049442 21.695 0.057748 185.00 0.0054054 767.20 822.25 2.6247 2.3344 3.5564 256.53 0.049442 21.695 0.057748
191.38 1486.2 undefined 769.53 824.92 2.6297 185.00 0.0054054 769.53 824.92 2.6297 2.3375 3.5477 257.50 0.048922 21.725 0.057866 185.00 0.0054054 769.53 824.92 2.6297 2.3375 3.5477 257.50 0.048922 21.725 0.057866
192.38 1495.3 undefined 771.87 827.60 2.6347 185.00 0.0054054 771.87 827.60 2.6347 2.3405 3.5393 258.48 0.048410 21.755 0.057985 185.00 0.0054054 771.87 827.60 2.6347 2.3405 3.5393 258.48 0.048410 21.755 0.057985
193.38 1504.3 undefined 774.21 830.28 2.6398 185.00 0.0054054 774.21 830.28 2.6398 2.3435 3.5311 259.45 0.047906 21.785 0.058105 185.00 0.0054054 774.21 830.28 2.6398 2.3435 3.5311 259.45 0.047906 21.785 0.058105
194.38 1513.3 undefined 776.56 832.96 2.6448 185.00 0.0054054 776.56 832.96 2.6448 2.3466 3.5232 260.42 0.047409 21.815 0.058226 185.00 0.0054054 776.56 832.96 2.6448 2.3466 3.5232 260.42 0.047409 21.815 0.058226
195.38 1522.4 undefined 778.91 835.64 2.6498 185.00 0.0054054 778.91 835.64 2.6498 2.3496 3.5155 261.38 0.046920 21.844 0.058347 185.00 0.0054054 778.91 835.64 2.6498 2.3496 3.5155 261.38 0.046920 21.844 0.058347
196.38 1531.4 undefined 781.26 838.33 2.6548 185.00 0.0054054 781.26 838.33 2.6548 2.3527 3.5081 262.34 0.046437 21.874 0.058469 185.00 0.0054054 781.26 838.33 2.6548 2.3527 3.5081 262.34 0.046437 21.874 0.058469
197.38 1540.5 undefined 783.61 841.02 2.6598 185.00 0.0054054 783.61 841.02 2.6598 2.3557 3.5008 263.30 0.045962 21.904 0.058592 185.00 0.0054054 783.61 841.02 2.6598 2.3557 3.5008 263.30 0.045962 21.904 0.058592
198.38 1549.5 undefined 785.97 843.72 2.6648 185.00 0.0054054 785.97 843.72 2.6648 2.3588 3.4938 264.25 0.045493 21.933 0.058716 185.00 0.0054054 785.97 843.72 2.6648 2.3588 3.4938 264.25 0.045493 21.933 0.058716
199.38 1558.6 undefined 788.33 846.42 2.6698 185.00 0.0054054 788.33 846.42 2.6698 2.3619 3.4870 265.20 0.045032 21.963 0.058840 185.00 0.0054054 788.33 846.42 2.6698 2.3619 3.4870 265.20 0.045032 21.963 0.058840
200.38 1567.6 undefined 790.69 849.12 2.6748 185.00 0.0054054 790.69 849.12 2.6748 2.3650 3.4805 266.15 0.044576 21.992 0.058964 185.00 0.0054054 790.69 849.12 2.6748 2.3650 3.4805 266.15 0.044576 21.992 0.058964
201.38 1576.6 undefined 793.06 851.82 2.6798 185.00 0.0054054 793.06 851.82 2.6798 2.3681 3.4741 267.09 0.044128 22.022 0.059089 185.00 0.0054054 793.06 851.82 2.6798 2.3681 3.4741 267.09 0.044128 22.022 0.059089
202.38 1585.7 undefined 795.43 854.53 2.6848 185.00 0.0054054 795.43 854.53 2.6848 2.3712 3.4679 268.03 0.043685 22.051 0.059215 185.00 0.0054054 795.43 854.53 2.6848 2.3712 3.4679 268.03 0.043685 22.051 0.059215
203.38 1594.7 undefined 797.80 857.23 2.6898 185.00 0.0054054 797.80 857.23 2.6898 2.3743 3.4618 268.97 0.043249 22.081 0.059342 185.00 0.0054054 797.80 857.23 2.6898 2.3743 3.4618 268.97 0.043249 22.081 0.059342
204.38 1603.7 undefined 800.18 859.95 2.6948 185.00 0.0054054 800.18 859.95 2.6948 2.3774 3.4560 269.91 0.042819 22.110 0.059469 185.00 0.0054054 800.18 859.95 2.6948 2.3774 3.4560 269.91 0.042819 22.110 0.059469
205.38 1612.7 undefined 802.56 862.66 2.6997 185.00 0.0054054 802.56 862.66 2.6997 2.3805 3.4504 270.84 0.042395 22.139 0.059596 185.00 0.0054054 802.56 862.66 2.6997 2.3805 3.4504 270.84 0.042395 22.139 0.059596
206.38 1621.8 undefined 804.94 865.38 2.7047 185.00 0.0054054 804.94 865.38 2.7047 2.3836 3.4449 271.77 0.041977 22.169 0.059724 185.00 0.0054054 804.94 865.38 2.7047 2.3836 3.4449 271.77 0.041977 22.169 0.059724
207.38 1630.8 undefined 807.32 868.10 2.7097 185.00 0.0054054 807.32 868.10 2.7097 2.3868 3.4396 272.69 0.041565 22.198 0.059853 185.00 0.0054054 807.32 868.10 2.7097 2.3868 3.4396 272.69 0.041565 22.198 0.059853
208.38 1639.8 undefined 809.71 870.83 2.7147 185.00 0.0054054 809.71 870.83 2.7147 2.3899 3.4344 273.62 0.041158 22.227 0.059982 185.00 0.0054054 809.71 870.83 2.7147 2.3899 3.4344 273.62 0.041158 22.227 0.059982
209.38 1648.8 undefined 812.10 873.55 2.7196 185.00 0.0054054 812.10 873.55 2.7196 2.3930 3.4294 274.54 0.040757 22.256 0.060112 185.00 0.0054054 812.10 873.55 2.7196 2.3930 3.4294 274.54 0.040757 22.256 0.060112
210.38 1657.8 undefined 814.50 876.28 2.7246 185.00 0.0054054 814.50 876.28 2.7246 2.3962 3.4246 275.46 0.040361 22.285 0.060242 185.00 0.0054054 814.50 876.28 2.7246 2.3962 3.4246 275.46 0.040361 22.285 0.060242
211.38 1666.9 undefined 816.90 879.02 2.7295 185.00 0.0054054 816.90 879.02 2.7295 2.3993 3.4199 276.37 0.039971 22.315 0.060373 185.00 0.0054054 816.90 879.02 2.7295 2.3993 3.4199 276.37 0.039971 22.315 0.060373
212.38 1675.9 undefined 819.30 881.76 2.7345 185.00 0.0054054 819.30 881.76 2.7345 2.4025 3.4153 277.28 0.039585 22.344 0.060504 185.00 0.0054054 819.30 881.76 2.7345 2.4025 3.4153 277.28 0.039585 22.344 0.060504
213.38 1684.9 undefined 821.70 884.50 2.7394 185.00 0.0054054 821.70 884.50 2.7394 2.4057 3.4109 278.19 0.039205 22.373 0.060636 185.00 0.0054054 821.70 884.50 2.7394 2.4057 3.4109 278.19 0.039205 22.373 0.060636
214.38 1693.9 undefined 824.11 887.24 2.7444 185.00 0.0054054 824.11 887.24 2.7444 2.4088 3.4067 279.10 0.038831 22.402 0.060768 185.00 0.0054054 824.11 887.24 2.7444 2.4088 3.4067 279.10 0.038831 22.402 0.060768
215.38 1702.9 undefined 826.52 889.98 2.7493 185.00 0.0054054 826.52 889.98 2.7493 2.4120 3.4025 280.00 0.038461 22.431 0.060901 185.00 0.0054054 826.52 889.98 2.7493 2.4120 3.4025 280.00 0.038461 22.431 0.060901
216.38 1711.9 undefined 828.93 892.73 2.7542 185.00 0.0054054 828.93 892.73 2.7542 2.4152 3.3985 280.90 0.038096 22.460 0.061034 185.00 0.0054054 828.93 892.73 2.7542 2.4152 3.3985 280.90 0.038096 22.460 0.061034
217.38 1720.9 undefined 831.35 895.49 2.7592 185.00 0.0054054 831.35 895.49 2.7592 2.4184 3.3947 281.80 0.037735 22.489 0.061168 185.00 0.0054054 831.35 895.49 2.7592 2.4184 3.3947 281.80 0.037735 22.489 0.061168
218.38 1729.9 undefined 833.77 898.24 2.7641 185.00 0.0054054 833.77 898.24 2.7641 2.4215 3.3909 282.69 0.037380 22.517 0.061302 185.00 0.0054054 833.77 898.24 2.7641 2.4215 3.3909 282.69 0.037380 22.517 0.061302
219.38 1738.9 undefined 836.19 901.00 2.7690 185.00 0.0054054 836.19 901.00 2.7690 2.4247 3.3873 283.58 0.037029 22.546 0.061436 185.00 0.0054054 836.19 901.00 2.7690 2.4247 3.3873 283.58 0.037029 22.546 0.061436
220.38 1747.9 undefined 838.62 903.76 2.7739 185.00 0.0054054 838.62 903.76 2.7739 2.4279 3.3838 284.47 0.036682 22.575 0.061571 185.00 0.0054054 838.62 903.76 2.7739 2.4279 3.3838 284.47 0.036682 22.575 0.061571
221.38 1756.9 undefined 841.05 906.53 2.7789 185.00 0.0054054 841.05 906.53 2.7789 2.4311 3.3804 285.36 0.036340 22.604 0.061707 185.00 0.0054054 841.05 906.53 2.7789 2.4311 3.3804 285.36 0.036340 22.604 0.061707
222.38 1765.9 undefined 843.48 909.29 2.7838 185.00 0.0054054 843.48 909.29 2.7838 2.4343 3.3771 286.25 0.036003 22.633 0.061843 185.00 0.0054054 843.48 909.29 2.7838 2.4343 3.3771 286.25 0.036003 22.633 0.061843
223.38 1774.9 undefined 845.92 912.07 2.7887 185.00 0.0054054 845.92 912.07 2.7887 2.4375 3.3739 287.13 0.035670 22.661 0.061979 185.00 0.0054054 845.92 912.07 2.7887 2.4375 3.3739 287.13 0.035670 22.661 0.061979
224.38 1783.9 undefined 848.36 914.84 2.7936 185.00 0.0054054 848.36 914.84 2.7936 2.4407 3.3709 288.01 0.035341 22.690 0.062116 185.00 0.0054054 848.36 914.84 2.7936 2.4407 3.3709 288.01 0.035341 22.690 0.062116
225.38 1792.9 undefined 850.80 917.62 2.7985 185.00 0.0054054 850.80 917.62 2.7985 2.4439 3.3679 288.88 0.035016 22.719 0.062253 185.00 0.0054054 850.80 917.62 2.7985 2.4439 3.3679 288.88 0.035016 22.719 0.062253
226.38 1801.9 undefined 853.24 920.40 2.8034 185.00 0.0054054 853.24 920.40 2.8034 2.4472 3.3650 289.76 0.034695 22.747 0.062390 185.00 0.0054054 853.24 920.40 2.8034 2.4472 3.3650 289.76 0.034695 22.747 0.062390
227.38 1810.9 undefined 855.69 923.18 2.8083 185.00 0.0054054 855.69 923.18 2.8083 2.4504 3.3623 290.63 0.034378 22.776 0.062528 185.00 0.0054054 855.69 923.18 2.8083 2.4504 3.3623 290.63 0.034378 22.776 0.062528
228.38 1819.8 undefined 858.14 925.97 2.8132 185.00 0.0054054 858.14 925.97 2.8132 2.4536 3.3596 291.50 0.034065 22.805 0.062667 185.00 0.0054054 858.14 925.97 2.8132 2.4536 3.3596 291.50 0.034065 22.805 0.062667
229.38 1828.8 undefined 860.60 928.76 2.8181 185.00 0.0054054 860.60 928.76 2.8181 2.4568 3.3571 292.36 0.033756 22.833 0.062805 185.00 0.0054054 860.60 928.76 2.8181 2.4568 3.3571 292.36 0.033756 22.833 0.062805
230.38 1837.8 undefined 863.06 931.55 2.8230 185.00 0.0054054 863.06 931.55 2.8230 2.4600 3.3546 293.23 0.033451 22.862 0.062944 185.00 0.0054054 863.06 931.55 2.8230 2.4600 3.3546 293.23 0.033451 22.862 0.062944
231.38 1846.8 undefined 865.52 934.35 2.8279 185.00 0.0054054 865.52 934.35 2.8279 2.4633 3.3522 294.09 0.033150 22.890 0.063084 185.00 0.0054054 865.52 934.35 2.8279 2.4633 3.3522 294.09 0.033150 22.890 0.063084
232.38 1855.8 undefined 867.98 937.15 2.8327 185.00 0.0054054 867.98 937.15 2.8327 2.4665 3.3499 294.95 0.032852 22.918 0.063224 185.00 0.0054054 867.98 937.15 2.8327 2.4665 3.3499 294.95 0.032852 22.918 0.063224
233.38 1864.7 undefined 870.45 939.95 2.8376 185.00 0.0054054 870.45 939.95 2.8376 2.4697 3.3477 295.80 0.032558 22.947 0.063364 185.00 0.0054054 870.45 939.95 2.8376 2.4697 3.3477 295.80 0.032558 22.947 0.063364
234.38 1873.7 undefined 872.92 942.76 2.8425 185.00 0.0054054 872.92 942.76 2.8425 2.4729 3.3456 296.66 0.032268 22.975 0.063504 185.00 0.0054054 872.92 942.76 2.8425 2.4729 3.3456 296.66 0.032268 22.975 0.063504
235.38 1882.7 undefined 875.40 945.56 2.8474 185.00 0.0054054 875.40 945.56 2.8474 2.4762 3.3435 297.51 0.031981 23.003 0.063645 185.00 0.0054054 875.40 945.56 2.8474 2.4762 3.3435 297.51 0.031981 23.003 0.063645
236.38 1891.7 undefined 877.88 948.38 2.8522 185.00 0.0054054 877.88 948.38 2.8522 2.4794 3.3416 298.36 0.031697 23.032 0.063787 185.00 0.0054054 877.88 948.38 2.8522 2.4794 3.3416 298.36 0.031697 23.032 0.063787
237.38 1900.6 undefined 880.36 951.19 2.8571 185.00 0.0054054 880.36 951.19 2.8571 2.4827 3.3397 299.21 0.031417 23.060 0.063928 185.00 0.0054054 880.36 951.19 2.8571 2.4827 3.3397 299.21 0.031417 23.060 0.063928
238.38 1909.6 undefined 882.84 954.01 2.8620 185.00 0.0054054 882.84 954.01 2.8620 2.4859 3.3379 300.05 0.031141 23.088 0.064070 185.00 0.0054054 882.84 954.01 2.8620 2.4859 3.3379 300.05 0.031141 23.088 0.064070
239.38 1918.6 undefined 885.33 956.83 2.8668 185.00 0.0054054 885.33 956.83 2.8668 2.4891 3.3362 300.89 0.030867 23.116 0.064212 185.00 0.0054054 885.33 956.83 2.8668 2.4891 3.3362 300.89 0.030867 23.116 0.064212
240.38 1927.5 undefined 887.82 959.66 2.8717 185.00 0.0054054 887.82 959.66 2.8717 2.4924 3.3345 301.74 0.030597 23.145 0.064355 185.00 0.0054054 887.82 959.66 2.8717 2.4924 3.3345 301.74 0.030597 23.145 0.064355
241.38 1936.5 undefined 890.31 962.49 2.8765 185.00 0.0054054 890.31 962.49 2.8765 2.4956 3.3329 302.57 0.030330 23.173 0.064498 185.00 0.0054054 890.31 962.49 2.8765 2.4956 3.3329 302.57 0.030330 23.173 0.064498
242.38 1945.5 undefined 892.81 965.32 2.8814 185.00 0.0054054 892.81 965.32 2.8814 2.4989 3.3314 303.41 0.030066 23.201 0.064641 185.00 0.0054054 892.81 965.32 2.8814 2.4989 3.3314 303.41 0.030066 23.201 0.064641
243.38 1954.4 undefined 895.31 968.15 2.8862 185.00 0.0054054 895.31 968.15 2.8862 2.5021 3.3300 304.24 0.029805 23.229 0.064784 185.00 0.0054054 895.31 968.15 2.8862 2.5021 3.3300 304.24 0.029805 23.229 0.064784
244.38 1963.4 undefined 897.82 970.99 2.8911 185.00 0.0054054 897.82 970.99 2.8911 2.5054 3.3286 305.07 0.029547 23.257 0.064928 185.00 0.0054054 897.82 970.99 2.8911 2.5054 3.3286 305.07 0.029547 23.257 0.064928
245.38 1972.3 undefined 900.32 973.83 2.8959 185.00 0.0054054 900.32 973.83 2.8959 2.5086 3.3273 305.90 0.029293 23.285 0.065072 185.00 0.0054054 900.32 973.83 2.8959 2.5086 3.3273 305.90 0.029293 23.285 0.065072
246.38 1981.3 undefined 902.83 976.67 2.9007 185.00 0.0054054 902.83 976.67 2.9007 2.5119 3.3260 306.73 0.029041 23.313 0.065216 185.00 0.0054054 902.83 976.67 2.9007 2.5119 3.3260 306.73 0.029041 23.313 0.065216
247.38 1990.2 undefined 905.35 979.52 2.9056 185.00 0.0054054 905.35 979.52 2.9056 2.5152 3.3249 307.55 0.028792 23.341 0.065360 185.00 0.0054054 905.35 979.52 2.9056 2.5152 3.3249 307.55 0.028792 23.341 0.065360
248.38 1999.2 undefined 907.86 982.37 2.9104 185.00 0.0054054 907.86 982.37 2.9104 2.5184 3.3238 308.38 0.028546 23.369 0.065505 185.00 0.0054054 907.86 982.37 2.9104 2.5184 3.3238 308.38 0.028546 23.369 0.065505
249.38 2008.1 undefined 910.38 985.22 2.9152 185.00 0.0054054 910.38 985.22 2.9152 2.5217 3.3227 309.20 0.028303 23.396 0.065650 185.00 0.0054054 910.38 985.22 2.9152 2.5217 3.3227 309.20 0.028303 23.396 0.065650
250.38 2017.1 undefined 912.91 988.08 2.9200 185.00 0.0054054 912.91 988.08 2.9200 2.5249 3.3217 310.01 0.028062 23.424 0.065795 185.00 0.0054054 912.91 988.08 2.9200 2.5249 3.3217 310.01 0.028062 23.424 0.065795
251.38 2026.0 undefined 915.43 990.94 2.9249 185.00 0.0054054 915.43 990.94 2.9249 2.5282 3.3208 310.83 0.027824 23.452 0.065941 185.00 0.0054054 915.43 990.94 2.9249 2.5282 3.3208 310.83 0.027824 23.452 0.065941
252.38 2035.0 undefined 917.96 993.80 2.9297 185.00 0.0054054 917.96 993.80 2.9297 2.5314 3.3199 311.64 0.027589 23.480 0.066086 185.00 0.0054054 917.96 993.80 2.9297 2.5314 3.3199 311.64 0.027589 23.480 0.066086
253.38 2043.9 undefined 920.50 996.67 2.9345 185.00 0.0054054 920.50 996.67 2.9345 2.5347 3.3190 312.46 0.027357 23.508 0.066232 185.00 0.0054054 920.50 996.67 2.9345 2.5347 3.3190 312.46 0.027357 23.508 0.066232
254.38 2052.9 undefined 923.03 999.54 2.9393 185.00 0.0054054 923.03 999.54 2.9393 2.5380 3.3183 313.27 0.027127 23.535 0.066378 185.00 0.0054054 923.03 999.54 2.9393 2.5380 3.3183 313.27 0.027127 23.535 0.066378
255.38 2061.8 undefined 925.57 1002.4 2.9441 185.00 0.0054054 925.57 1002.4 2.9441 2.5412 3.3176 314.07 0.026900 23.563 0.066524 185.00 0.0054054 925.57 1002.4 2.9441 2.5412 3.3176 314.07 0.026900 23.563 0.066524
256.38 2070.7 undefined 928.11 1005.3 2.9489 185.00 0.0054054 928.11 1005.3 2.9489 2.5445 3.3169 314.88 0.026675 23.591 0.066670 185.00 0.0054054 928.11 1005.3 2.9489 2.5445 3.3169 314.88 0.026675 23.591 0.066670
257.38 2079.7 undefined 930.66 1008.2 2.9537 185.00 0.0054054 930.66 1008.2 2.9537 2.5478 3.3163 315.68 0.026453 23.618 0.066817 185.00 0.0054054 930.66 1008.2 2.9537 2.5478 3.3163 315.68 0.026453 23.618 0.066817
258.38 2088.6 undefined 933.21 1011.1 2.9585 185.00 0.0054054 933.21 1011.1 2.9585 2.5510 3.3157 316.48 0.026233 23.646 0.066963 185.00 0.0054054 933.21 1011.1 2.9585 2.5510 3.3157 316.48 0.026233 23.646 0.066963
259.38 2097.5 undefined 935.76 1013.9 2.9633 185.00 0.0054054 935.76 1013.9 2.9633 2.5543 3.3152 317.28 0.026015 23.673 0.067110 185.00 0.0054054 935.76 1013.9 2.9633 2.5543 3.3152 317.28 0.026015 23.673 0.067110
260.38 2106.5 undefined 938.32 1016.8 2.9681 185.00 0.0054054 938.32 1016.8 2.9681 2.5576 3.3147 318.08 0.025800 23.701 0.067256 185.00 0.0054054 938.32 1016.8 2.9681 2.5576 3.3147 318.08 0.025800 23.701 0.067256
261.38 2115.4 undefined 940.88 1019.7 2.9729 185.00 0.0054054 940.88 1019.7 2.9729 2.5608 3.3143 318.88 0.025588 23.728 0.067403 185.00 0.0054054 940.88 1019.7 2.9729 2.5608 3.3143 318.88 0.025588 23.728 0.067403
262.38 2124.3 undefined 943.44 1022.6 2.9777 185.00 0.0054054 943.44 1022.6 2.9777 2.5641 3.3139 319.67 0.025377 23.756 0.067550 185.00 0.0054054 943.44 1022.6 2.9777 2.5641 3.3139 319.67 0.025377 23.756 0.067550
263.38 2133.3 undefined 946.01 1025.5 2.9825 185.00 0.0054054 946.01 1025.5 2.9825 2.5674 3.3136 320.46 0.025169 23.783 0.067696 185.00 0.0054054 946.01 1025.5 2.9825 2.5674 3.3136 320.46 0.025169 23.783 0.067696
264.38 2142.2 undefined 948.58 1028.4 2.9873 185.00 0.0054054 948.58 1028.4 2.9873 2.5706 3.3133 321.25 0.024963 23.810 0.067843 185.00 0.0054054 948.58 1028.4 2.9873 2.5706 3.3133 321.25 0.024963 23.810 0.067843
265.38 2151.1 undefined 951.15 1031.3 2.9921 185.00 0.0054054 951.15 1031.3 2.9921 2.5739 3.3131 322.04 0.024760 23.838 0.067989 185.00 0.0054054 951.15 1031.3 2.9921 2.5739 3.3131 322.04 0.024760 23.838 0.067989
266.38 2160.0 undefined 953.72 1034.2 2.9968 185.00 0.0054054 953.72 1034.2 2.9968 2.5771 3.3129 322.83 0.024558 23.865 0.068136 185.00 0.0054054 953.72 1034.2 2.9968 2.5771 3.3129 322.83 0.024558 23.865 0.068136
267.38 2169.0 undefined 956.30 1037.1 3.0016 185.00 0.0054054 956.30 1037.1 3.0016 2.5804 3.3128 323.61 0.024359 23.892 0.068282 185.00 0.0054054 956.30 1037.1 3.0016 2.5804 3.3128 323.61 0.024359 23.892 0.068282
268.38 2177.9 undefined 958.88 1040.1 3.0064 185.00 0.0054054 958.88 1040.1 3.0064 2.5837 3.3127 324.39 0.024162 23.920 0.068428 185.00 0.0054054 958.88 1040.1 3.0064 2.5837 3.3127 324.39 0.024162 23.920 0.068428
269.38 2186.8 undefined 961.47 1043.0 3.0112 185.00 0.0054054 961.47 1043.0 3.0112 2.5869 3.3126 325.17 0.023967 23.947 0.068573 185.00 0.0054054 961.47 1043.0 3.0112 2.5869 3.3126 325.17 0.023967 23.947 0.068573
270.38 2195.7 undefined 964.06 1045.9 3.0159 185.00 0.0054054 964.06 1045.9 3.0159 2.5902 3.3126 325.95 0.023774 23.974 0.068718 185.00 0.0054054 964.06 1045.9 3.0159 2.5902 3.3126 325.95 0.023774 23.974 0.068718
271.38 2204.6 undefined 966.65 1048.8 3.0207 185.00 0.0054054 966.65 1048.8 3.0207 2.5935 3.3126 326.73 0.023583 24.001 0.068863 185.00 0.0054054 966.65 1048.8 3.0207 2.5935 3.3126 326.73 0.023583 24.001 0.068863
272.38 2213.5 undefined 969.24 1051.7 3.0255 185.00 0.0054054 969.24 1051.7 3.0255 2.5967 3.3126 327.50 0.023394 24.028 0.069006 185.00 0.0054054 969.24 1051.7 3.0255 2.5967 3.3126 327.50 0.023394 24.028 0.069006
273.38 2222.4 undefined 971.84 1054.7 3.0302 185.00 0.0054054 971.84 1054.7 3.0302 2.6000 3.3127 328.27 0.023207 24.055 0.069149 185.00 0.0054054 971.84 1054.7 3.0302 2.6000 3.3127 328.27 0.023207 24.055 0.069149
274.38 2231.4 undefined 974.44 1057.6 3.0350 185.00 0.0054054 974.44 1057.6 3.0350 2.6033 3.3128 329.04 0.023022 24.082 0.069291 185.00 0.0054054 974.44 1057.6 3.0350 2.6033 3.3128 329.04 0.023022 24.082 0.069291
275.38 2240.3 undefined 977.05 1060.5 3.0397 185.00 0.0054054 977.05 1060.5 3.0397 2.6065 3.3130 329.81 0.022838 24.110 0.069431 185.00 0.0054054 977.05 1060.5 3.0397 2.6065 3.3130 329.81 0.022838 24.110 0.069431
276.38 2249.2 undefined 979.66 1063.5 3.0445 185.00 0.0054054 979.66 1063.5 3.0445 2.6098 3.3132 330.58 0.022657 24.137 0.069570 185.00 0.0054054 979.66 1063.5 3.0445 2.6098 3.3132 330.58 0.022657 24.137 0.069570
277.38 2258.1 undefined 982.27 1066.4 3.0492 185.00 0.0054054 982.27 1066.4 3.0492 2.6131 3.3134 331.35 0.022478 24.163 0.069705 185.00 0.0054054 982.27 1066.4 3.0492 2.6131 3.3134 331.35 0.022478 24.163 0.069705
278.38 2267.0 undefined 984.88 1069.4 3.0540 185.00 0.0054054 984.88 1069.4 3.0540 2.6163 3.3137 332.11 0.022300 24.190 0.069837 185.00 0.0054054 984.88 1069.4 3.0540 2.6163 3.3137 332.11 0.022300 24.190 0.069837
279.38 2275.9 undefined 987.50 1072.3 3.0587 185.00 0.0054054 987.50 1072.3 3.0587 2.6196 3.3140 332.87 0.022124 24.217 0.069963 185.00 0.0054054 987.50 1072.3 3.0587 2.6196 3.3140 332.87 0.022124 24.217 0.069963
280.38 2284.8 undefined 990.12 1075.3 3.0634 185.00 0.0054054 990.12 1075.3 3.0634 2.6228 3.3143 333.63 0.021950 24.244 0.070077 185.00 0.0054054 990.12 1075.3 3.0634 2.6228 3.3143 333.63 0.021950 24.244 0.070077
281.38 2293.7 undefined 992.75 1078.2 3.0682 185.00 0.0054054 992.75 1078.2 3.0682 2.6261 3.3147 334.39 0.021778 24.271 0.070154 185.00 0.0054054 992.75 1078.2 3.0682 2.6261 3.3147 334.39 0.021778 24.271 0.070154
282.38 2302.6 undefined 995.38 1081.2 3.0729 185.00 0.0054054 995.38 1081.2 3.0729 2.6294 3.3150 335.15 0.021608 24.298 0.070261 185.00 0.0054054 995.38 1081.2 3.0729 2.6294 3.3150 335.15 0.021608 24.298 0.070261
283.38 2311.5 undefined 998.01 1084.2 3.0776 185.00 0.0054054 998.01 1084.2 3.0776 2.6326 3.3155 335.90 0.021439 24.325 0.070433 185.00 0.0054054 998.01 1084.2 3.0776 2.6326 3.3155 335.90 0.021439 24.325 0.070433
284.38 2320.4 undefined 1000.6 1087.1 3.0824 185.00 0.0054054 1000.6 1087.1 3.0824 2.6359 3.3159 336.66 0.021272 24.351 0.070605 185.00 0.0054054 1000.6 1087.1 3.0824 2.6359 3.3159 336.66 0.021272 24.351 0.070605
285.38 2329.3 undefined 1003.3 1090.1 3.0871 185.00 0.0054054 1003.3 1090.1 3.0871 2.6391 3.3164 337.41 0.021107 24.378 0.070777 185.00 0.0054054 1003.3 1090.1 3.0871 2.6391 3.3164 337.41 0.021107 24.378 0.070777
286.38 2338.2 undefined 1005.9 1093.1 3.0918 185.00 0.0054054 1005.9 1093.1 3.0918 2.6424 3.3169 338.16 0.020943 24.405 0.070949 185.00 0.0054054 1005.9 1093.1 3.0918 2.6424 3.3169 338.16 0.020943 24.405 0.070949
287.38 2347.1 undefined 1008.6 1096.0 3.0965 185.00 0.0054054 1008.6 1096.0 3.0965 2.6456 3.3175 338.90 0.020781 24.431 0.071122 185.00 0.0054054 1008.6 1096.0 3.0965 2.6456 3.3175 338.90 0.020781 24.431 0.071122
288.38 2355.9 undefined 1011.2 1099.0 3.1013 185.00 0.0054054 1011.2 1099.0 3.1013 2.6489 3.3180 339.65 0.020620 24.458 0.071295 185.00 0.0054054 1011.2 1099.0 3.1013 2.6489 3.3180 339.65 0.020620 24.458 0.071295
289.38 2364.8 undefined 1013.9 1102.0 3.1060 185.00 0.0054054 1013.9 1102.0 3.1060 2.6521 3.3186 340.40 0.020461 24.485 0.071469 185.00 0.0054054 1013.9 1102.0 3.1060 2.6521 3.3186 340.40 0.020461 24.485 0.071469
290.38 2373.7 undefined 1016.5 1105.0 3.1107 185.00 0.0054054 1016.5 1105.0 3.1107 2.6554 3.3193 341.14 0.020304 24.511 0.071642 185.00 0.0054054 1016.5 1105.0 3.1107 2.6554 3.3193 341.14 0.020304 24.511 0.071642
291.38 2382.6 undefined 1019.2 1108.0 3.1154 185.00 0.0054054 1019.2 1108.0 3.1154 2.6586 3.3199 341.88 0.020148 24.538 0.071816 185.00 0.0054054 1019.2 1108.0 3.1154 2.6586 3.3199 341.88 0.020148 24.538 0.071816
292.38 2391.5 undefined 1021.8 1111.0 3.1201 185.00 0.0054054 1021.8 1111.0 3.1201 2.6619 3.3206 342.62 0.019994 24.564 0.071991 185.00 0.0054054 1021.8 1111.0 3.1201 2.6619 3.3206 342.62 0.019994 24.564 0.071991
293.38 2400.4 undefined 1024.5 1114.0 3.1248 185.00 0.0054054 1024.5 1114.0 3.1248 2.6651 3.3213 343.36 0.019841 24.591 0.072165 185.00 0.0054054 1024.5 1114.0 3.1248 2.6651 3.3213 343.36 0.019841 24.591 0.072165
294.38 2409.3 undefined 1027.2 1117.0 3.1295 185.00 0.0054054 1027.2 1117.0 3.1295 2.6684 3.3220 344.10 0.019690 24.617 0.072340 185.00 0.0054054 1027.2 1117.0 3.1295 2.6684 3.3220 344.10 0.019690 24.617 0.072340
295.38 2418.1 undefined 1029.8 1120.0 3.1342 185.00 0.0054054 1029.8 1120.0 3.1342 2.6716 3.3228 344.83 0.019540 24.644 0.072515 185.00 0.0054054 1029.8 1120.0 3.1342 2.6716 3.3228 344.83 0.019540 24.644 0.072515
296.38 2427.0 undefined 1032.5 1123.0 3.1389 185.00 0.0054054 1032.5 1123.0 3.1389 2.6748 3.3236 345.56 0.019392 24.670 0.072691 185.00 0.0054054 1032.5 1123.0 3.1389 2.6748 3.3236 345.56 0.019392 24.670 0.072691
297.38 2435.9 undefined 1035.2 1126.0 3.1436 185.00 0.0054054 1035.2 1126.0 3.1436 2.6781 3.3244 346.30 0.019245 24.696 0.072867 185.00 0.0054054 1035.2 1126.0 3.1436 2.6781 3.3244 346.30 0.019245 24.696 0.072867
298.38 2444.8 undefined 1037.9 1129.0 3.1483 185.00 0.0054054 1037.9 1129.0 3.1483 2.6813 3.3252 347.03 0.019099 24.723 0.073043 185.00 0.0054054 1037.9 1129.0 3.1483 2.6813 3.3252 347.03 0.019099 24.723 0.073043
299.38 2453.6 undefined 1040.5 1132.0 3.1530 185.00 0.0054054 1040.5 1132.0 3.1530 2.6846 3.3261 347.75 0.018955 24.749 0.073219 185.00 0.0054054 1040.5 1132.0 3.1530 2.6846 3.3261 347.75 0.018955 24.749 0.073219
300.38 2462.5 undefined 1043.2 1135.0 3.1577 185.00 0.0054054 1043.2 1135.0 3.1577 2.6878 3.3270 348.48 0.018812 24.775 0.073396 185.00 0.0054054 1043.2 1135.0 3.1577 2.6878 3.3270 348.48 0.018812 24.775 0.073396