Temperature (C) Pressure (psia) Quality (l+v) Internal Energy (l+v, kJ/kg) Enthalpy (l+v, kJ/kg) Entropy (l+v, J/g*K) Density (l, kg/m3) Volume (l, m3/kg) Internal Energy (l, kJ/kg) Enthalpy (l, kJ/kg) Entropy (l, J/g*K) Cv (l, J/g*K) Cp (l, J/g*K) Sound Spd. (l, m/s) Joule-Thomson (l, F/psia) Viscosity (l, uPa*s) Therm. Cond. (l, W/m*K) Density (v, kg/m3) Volume (v, m3/kg) Internal Energy (v, kJ/kg) Enthalpy (v, kJ/kg) Entropy (v, J/g*K) Cv (v, J/g*K) Cp (v, J/g*K) Sound Spd. (v, m/s) Joule-Thomson (v, F/psia) Viscosity (v, uPa*s) Therm. Cond. (v, W/m*K)
-187.62 2.4953e-08 4.0159e-11 -196.64 -196.64 -1.3959 733.13 0.0013640 -196.64 -196.64 -1.3959 1.3553 1.9158 2136.4 -0.0077592 10960. 0.20792 1.0669e-08 9.3732e+07 350.13 366.26 5.1858 0.69067 0.87923 143.28 6.1051 2.3259 0.0017061
-186.62 3.7339e-08 5.9368e-11 -194.73 -194.73 -1.3736 732.08 0.0013660 -194.73 -194.73 -1.3736 1.3539 1.9166 2129.6 -0.0077546 10073. 0.20765 1.5780e-08 6.3371e+07 350.82 367.14 5.1200 0.69462 0.88317 144.03 5.9178 2.3534 0.0017533
-185.62 5.5322e-08 8.6909e-11 -192.81 -192.81 -1.3516 731.04 0.0013679 -192.81 -192.81 -1.3516 1.3525 1.9174 2122.9 -0.0077498 9276.1 0.20737 2.3112e-08 4.3267e+07 351.52 368.02 5.0561 0.69857 0.88713 144.77 5.7383 2.3808 0.0018007
-184.62 8.1182e-08 1.2603e-10 -190.89 -190.89 -1.3298 730.00 0.0013699 -190.89 -190.89 -1.3298 1.3513 1.9182 2116.1 -0.0077448 8557.8 0.20708 3.3533e-08 2.9821e+07 352.22 368.91 4.9939 0.70253 0.89108 145.51 5.5662 2.4083 0.0018485
-183.62 1.1803e-07 1.8110e-10 -188.97 -188.97 -1.3083 728.96 0.0013718 -188.97 -188.97 -1.3083 1.3501 1.9191 2109.3 -0.0077395 7909.8 0.20678 4.8211e-08 2.0742e+07 352.92 369.81 4.9333 0.70648 0.89504 146.24 5.4011 2.4357 0.0018965
-182.62 1.7009e-07 2.5794e-10 -187.05 -187.05 -1.2869 727.92 0.0013738 -187.05 -187.05 -1.2869 1.3490 1.9201 2102.5 -0.0077340 7324.3 0.20647 6.8704e-08 1.4555e+07 353.63 370.70 4.8744 0.71043 0.89899 146.97 5.2426 2.4632 0.0019448
-181.62 2.4299e-07 3.6428e-10 -185.13 -185.13 -1.2658 726.88 0.0013757 -185.13 -185.13 -1.2658 1.3480 1.9210 2095.7 -0.0077283 6794.5 0.20616 9.7079e-08 1.0301e+07 354.35 371.60 4.8170 0.71438 0.90294 147.69 5.0904 2.4906 0.0019934
-180.62 3.4425e-07 5.1025e-10 -183.21 -183.21 -1.2450 725.85 0.0013777 -183.21 -183.21 -1.2450 1.3470 1.9220 2088.9 -0.0077225 6314.4 0.20584 1.3605e-07 7.3504e+06 355.06 372.51 4.7612 0.71833 0.90688 148.41 4.9442 2.5181 0.0020423
-179.62 4.8378e-07 7.0903e-10 -181.29 -181.29 -1.2243 724.81 0.0013797 -181.29 -181.29 -1.2243 1.3461 1.9231 2082.0 -0.0077164 5878.8 0.20551 1.8915e-07 5.2868e+06 355.78 373.42 4.7068 0.72227 0.91082 149.13 4.8038 2.5456 0.0020915
-178.62 6.7459e-07 9.7771e-10 -179.37 -179.37 -1.2038 723.78 0.0013816 -179.37 -179.37 -1.2038 1.3453 1.9241 2075.2 -0.0077102 5482.9 0.20517 2.6096e-07 3.8320e+06 356.51 374.33 4.6538 0.72620 0.91475 149.84 4.6688 2.5731 0.0021410
-177.62 9.3358e-07 1.3382e-09 -177.44 -177.44 -1.1836 722.75 0.0013836 -177.44 -177.44 -1.1836 1.3445 1.9252 2068.4 -0.0077039 5122.6 0.20483 3.5737e-07 2.7982e+06 357.23 375.25 4.6022 0.73012 0.91867 150.54 4.5390 2.6005 0.0021907
-176.62 1.2826e-06 1.8185e-09 -175.52 -175.52 -1.1635 721.72 0.0013856 -175.52 -175.52 -1.1635 1.3437 1.9263 2061.5 -0.0076973 4794.1 0.20447 4.8588e-07 2.0581e+06 357.97 376.17 4.5519 0.73403 0.92258 151.25 4.4142 2.6280 0.0022408
-175.62 1.7496e-06 2.4539e-09 -173.59 -173.59 -1.1437 720.69 0.0013876 -173.59 -173.59 -1.1437 1.3430 1.9274 2054.7 -0.0076907 4494.3 0.20411 6.5601e-07 1.5244e+06 358.70 377.09 4.5029 0.73792 0.92648 151.95 4.2941 2.6555 0.0022912
-174.62 2.3705e-06 3.2891e-09 -171.66 -171.66 -1.1240 719.66 0.0013895 -171.66 -171.66 -1.1240 1.3423 1.9286 2047.9 -0.0076838 4220.2 0.20375 8.7976e-07 1.1367e+06 359.44 378.02 4.4551 0.74181 0.93036 152.64 4.1784 2.6830 0.0023418
-173.62 3.1903e-06 4.3799e-09 -169.73 -169.73 -1.1045 718.64 0.0013915 -169.73 -169.73 -1.1045 1.3417 1.9298 2041.0 -0.0076769 3969.3 0.20338 1.1721e-06 8.5314e+05 360.19 378.95 4.4085 0.74568 0.93423 153.33 4.0671 2.7105 0.0023928
-172.62 4.2661e-06 5.7955e-09 -167.80 -167.80 -1.0852 717.61 0.0013935 -167.80 -167.80 -1.0852 1.3411 1.9310 2034.2 -0.0076698 3739.3 0.20300 1.5518e-06 6.4441e+05 360.93 379.89 4.3631 0.74953 0.93809 154.02 3.9599 2.7379 0.0024440
-171.62 5.6692e-06 7.6218e-09 -165.87 -165.87 -1.0661 716.58 0.0013955 -165.87 -165.87 -1.0661 1.3405 1.9322 2027.3 -0.0076625 3528.0 0.20261 2.0419e-06 4.8974e+05 361.69 380.83 4.3188 0.75337 0.94193 154.71 3.8566 2.7654 0.0024955
-170.62 7.4884e-06 9.9639e-09 -163.94 -163.94 -1.0472 715.56 0.0013975 -163.94 -163.94 -1.0472 1.3400 1.9334 2020.5 -0.0076552 3333.8 0.20222 2.6708e-06 3.7442e+05 362.44 381.77 4.2755 0.75720 0.94575 155.39 3.7570 2.7929 0.0025473
-169.62 9.8334e-06 1.2951e-08 -162.00 -162.00 -1.0284 714.54 0.0013995 -162.00 -162.00 -1.0284 1.3395 1.9347 2013.6 -0.0076477 3154.9 0.20182 3.4733e-06 2.8791e+05 363.20 382.72 4.2334 0.76100 0.94956 156.07 3.6609 2.8204 0.0025994
-168.62 1.2839e-05 1.6739e-08 -160.07 -160.07 -1.0098 713.52 0.0014015 -160.07 -160.07 -1.0098 1.3390 1.9359 2006.8 -0.0076401 2989.9 0.20141 4.4917e-06 2.2263e+05 363.96 383.67 4.1922 0.76479 0.95335 156.74 3.5683 2.8479 0.0026518
-167.62 1.6672e-05 2.1518e-08 -158.13 -158.13 -0.99134 712.49 0.0014035 -158.13 -158.13 -0.99134 1.3386 1.9372 2000.0 -0.0076323 2837.5 0.20100 5.7771e-06 1.7310e+05 364.73 384.63 4.1521 0.76856 0.95712 157.41 3.4790 2.8754 0.0027045
-166.62 2.1533e-05 2.7516e-08 -156.19 -156.19 -0.97306 711.47 0.0014055 -156.19 -156.19 -0.97306 1.3382 1.9385 1993.1 -0.0076245 2696.5 0.20058 7.3914e-06 1.3529e+05 365.50 385.59 4.1129 0.77232 0.96087 158.08 3.3927 2.9029 0.0027575
-165.62 2.7666e-05 3.5005e-08 -154.25 -154.25 -0.95494 710.45 0.0014075 -154.25 -154.25 -0.95494 1.3378 1.9398 1986.3 -0.0076165 2566.0 0.20016 9.4084e-06 1.0629e+05 366.27 386.55 4.0746 0.77605 0.96460 158.75 3.3095 2.9304 0.0028108
-164.62 3.5367e-05 4.4313e-08 -152.31 -152.31 -0.93698 709.44 0.0014096 -152.31 -152.31 -0.93698 1.3375 1.9411 1979.4 -0.0076084 2444.9 0.19973 1.1916e-05 83918. 367.05 387.52 4.0372 0.77976 0.96832 159.41 3.2291 2.9579 0.0028643
-163.62 4.4989e-05 5.5824e-08 -150.37 -150.37 -0.91917 708.42 0.0014116 -150.37 -150.37 -0.91917 1.3371 1.9424 1972.6 -0.0076002 2332.3 0.19930 1.5020e-05 66577. 367.83 388.49 4.0008 0.78346 0.97201 160.07 3.1514 2.9854 0.0029182
-162.62 5.6956e-05 6.9996e-08 -148.43 -148.43 -0.90151 707.40 0.0014136 -148.43 -148.43 -0.90151 1.3368 1.9437 1965.8 -0.0075919 2227.7 0.19886 1.8844e-05 53068. 368.62 389.46 3.9651 0.78713 0.97569 160.72 3.0764 3.0129 0.0029723
-161.62 7.1773e-05 8.7366e-08 -146.48 -146.48 -0.88400 706.38 0.0014157 -146.48 -146.48 -0.88400 1.3365 1.9451 1959.0 -0.0075834 2130.2 0.19841 2.3533e-05 42494. 369.41 390.44 3.9304 0.79079 0.97935 161.38 3.0038 3.0404 0.0030268
-160.62 9.0036e-05 1.0856e-07 -144.54 -144.54 -0.86663 705.37 0.0014177 -144.54 -144.54 -0.86663 1.3363 1.9465 1952.1 -0.0075748 2039.2 0.19796 2.9258e-05 34178. 370.20 391.42 3.8964 0.79443 0.98298 162.03 2.9337 3.0679 0.0030815
-159.62 0.00011245 1.3432e-07 -142.59 -142.59 -0.84940 704.35 0.0014197 -142.59 -142.59 -0.84940 1.3360 1.9478 1945.3 -0.0075661 1954.2 0.19751 3.6221e-05 27609. 371.00 392.40 3.8632 0.79805 0.98660 162.68 2.8658 3.0955 0.0031365
-158.62 0.00013985 1.6550e-07 -140.64 -140.64 -0.83231 703.34 0.0014218 -140.64 -140.64 -0.83231 1.3358 1.9492 1938.5 -0.0075573 1874.8 0.19705 4.4652e-05 22395. 371.80 393.39 3.8307 0.80164 0.99020 163.32 2.8002 3.1230 0.0031918
-157.62 0.00017320 2.0308e-07 -138.69 -138.69 -0.81536 702.32 0.0014238 -138.69 -138.69 -0.81536 1.3356 1.9506 1931.7 -0.0075484 1800.3 0.19658 5.4822e-05 18241. 372.60 394.38 3.7990 0.80522 0.99378 163.96 2.7367 3.1505 0.0032474
-156.62 0.00021364 2.4820e-07 -136.74 -136.74 -0.79854 701.31 0.0014259 -136.74 -136.74 -0.79854 1.3354 1.9520 1924.9 -0.0075393 1730.5 0.19611 6.7040e-05 14916. 373.41 395.38 3.7680 0.80878 0.99734 164.60 2.6752 3.1780 0.0033033
-155.62 0.00026248 3.0219e-07 -134.79 -134.79 -0.78185 700.30 0.0014280 -134.79 -134.79 -0.78185 1.3352 1.9534 1918.1 -0.0075302 1664.9 0.19564 8.1666e-05 12245. 374.22 396.38 3.7377 0.81232 1.0009 165.24 2.6157 3.2055 0.0033595
-154.62 0.00032125 3.6652e-07 -132.83 -132.83 -0.76530 699.29 0.0014300 -132.83 -132.83 -0.76530 1.3350 1.9548 1911.3 -0.0075209 1603.3 0.19516 9.9109e-05 10090. 375.03 397.38 3.7081 0.81585 1.0044 165.87 2.5580 3.2330 0.0034160
-153.62 0.00039171 4.4293e-07 -130.88 -130.88 -0.74887 698.27 0.0014321 -130.88 -130.88 -0.74887 1.3349 1.9563 1904.5 -0.0075114 1545.3 0.19468 0.00011984 8344.6 375.85 398.39 3.6792 0.81935 1.0079 166.50 2.5022 3.2606 0.0034727
-152.62 0.00047590 5.3336e-07 -128.92 -128.92 -0.73256 697.26 0.0014342 -128.92 -128.92 -0.73256 1.3348 1.9577 1897.8 -0.0075019 1490.6 0.19419 0.00014439 6925.9 376.67 399.40 3.6509 0.82284 1.0114 167.13 2.4481 3.2881 0.0035298
-151.62 0.00057613 6.4003e-07 -126.96 -126.96 -0.71638 696.25 0.0014363 -126.96 -126.96 -0.71638 1.3346 1.9592 1891.0 -0.0074922 1438.9 0.19370 0.00017336 5768.4 377.49 400.41 3.6232 0.82631 1.0149 167.76 2.3957 3.3156 0.0035872
-150.62 0.00069507 7.6542e-07 -125.00 -125.00 -0.70032 695.24 0.0014384 -125.00 -125.00 -0.70032 1.3345 1.9606 1884.2 -0.0074824 1390.2 0.19320 0.00020744 4820.7 378.32 401.42 3.5962 0.82976 1.0183 168.38 2.3448 3.3431 0.0036448
-149.62 0.00083574 9.1236e-07 -123.04 -123.04 -0.68437 694.23 0.0014404 -123.04 -123.04 -0.68438 1.3345 1.9621 1877.4 -0.0074724 1344.0 0.19270 0.00024740 4042.0 379.15 402.44 3.5697 0.83319 1.0218 169.00 2.2956 3.3706 0.0037027
-148.62 0.0010016 1.0840e-06 -121.08 -121.08 -0.66854 693.22 0.0014425 -121.08 -121.08 -0.66855 1.3344 1.9636 1870.7 -0.0074623 1300.3 0.19220 0.00029412 3400.0 379.99 403.47 3.5438 0.83661 1.0252 169.62 2.2478 3.3982 0.0037610
-147.62 0.0011965 1.2839e-06 -119.11 -119.11 -0.65283 692.21 0.0014447 -119.11 -119.11 -0.65284 1.3343 1.9651 1863.9 -0.0074521 1258.9 0.19169 0.00034856 2869.0 380.83 404.49 3.5185 0.84001 1.0286 170.24 2.2014 3.4257 0.0038195
-146.62 0.0014249 1.5161e-06 -117.15 -117.15 -0.63723 691.20 0.0014468 -117.15 -117.15 -0.63724 1.3343 1.9666 1857.2 -0.0074417 1219.6 0.19117 0.00041181 2428.3 381.67 405.52 3.4938 0.84340 1.0320 170.85 2.1565 3.4532 0.0038783
-145.62 0.0016917 1.7848e-06 -115.18 -115.18 -0.62174 690.19 0.0014489 -115.18 -115.18 -0.62175 1.3343 1.9682 1850.4 -0.0074312 1182.3 0.19066 0.00048510 2061.4 382.51 406.56 3.4695 0.84677 1.0353 171.46 2.1128 3.4807 0.0039374
-144.62 0.0020026 2.0951e-06 -113.21 -113.21 -0.60636 689.18 0.0014510 -113.21 -113.21 -0.60637 1.3343 1.9697 1843.7 -0.0074206 1146.8 0.19014 0.00056976 1755.1 383.36 407.59 3.4458 0.85012 1.0387 172.07 2.0705 3.5082 0.0039967
-143.62 0.0023637 2.4524e-06 -111.24 -111.24 -0.59109 688.17 0.0014531 -111.24 -111.24 -0.59110 1.3343 1.9713 1836.9 -0.0074098 1113.0 0.18962 0.00066731 1498.6 384.21 408.63 3.4226 0.85346 1.0420 172.68 2.0294 3.5358 0.0040564
-142.62 0.0027820 2.8627e-06 -109.27 -109.27 -0.57592 687.16 0.0014553 -109.27 -109.27 -0.57593 1.3343 1.9728 1830.2 -0.0073988 1080.8 0.18909 0.00077939 1283.1 385.07 409.68 3.3999 0.85679 1.0454 173.28 1.9896 3.5633 0.0041164
-141.62 0.0032653 3.3325e-06 -107.29 -107.29 -0.56086 686.15 0.0014574 -107.30 -107.30 -0.56087 1.3343 1.9744 1823.5 -0.0073878 1050.1 0.18856 0.00090784 1101.5 385.93 410.72 3.3777 0.86011 1.0487 173.88 1.9508 3.5908 0.0041766
-140.62 0.0038222 3.8692e-06 -105.32 -105.32 -0.54589 685.14 0.0014596 -105.32 -105.32 -0.54591 1.3344 1.9760 1816.7 -0.0073765 1020.7 0.18803 0.0010547 948.16 386.79 411.77 3.3560 0.86341 1.0520 174.48 1.9133 3.6183 0.0042372
-139.62 0.0044623 4.4808e-06 -103.34 -103.34 -0.53103 684.13 0.0014617 -103.34 -103.34 -0.53105 1.3344 1.9776 1810.0 -0.0073651 992.74 0.18749 0.0012221 818.26 387.65 412.83 3.3347 0.86670 1.0553 175.08 1.8768 3.6459 0.0042980
-138.62 0.0051963 5.1761e-06 -101.36 -101.36 -0.51627 683.12 0.0014639 -101.37 -101.37 -0.51629 1.3345 1.9792 1803.3 -0.0073536 965.97 0.18695 0.0014125 707.94 388.52 413.88 3.3139 0.86998 1.0586 175.67 1.8413 3.6734 0.0043592
-137.62 0.0060358 5.9645e-06 -99.383 -99.383 -0.50160 682.11 0.0014660 -99.386 -99.386 -0.50162 1.3346 1.9808 1796.6 -0.0073419 940.35 0.18641 0.0016287 614.00 389.39 414.94 3.2935 0.87325 1.0619 176.26 1.8069 3.7009 0.0044206
-136.62 0.0069938 6.8564e-06 -97.401 -97.401 -0.48703 681.10 0.0014682 -97.404 -97.404 -0.48705 1.3347 1.9825 1789.9 -0.0073301 915.81 0.18586 0.0018733 533.80 390.26 416.00 3.2735 0.87650 1.0651 176.85 1.7734 3.7284 0.0044823
-135.62 0.0080843 7.8634e-06 -95.417 -95.417 -0.47255 680.09 0.0014704 -95.421 -95.421 -0.47258 1.3348 1.9841 1783.2 -0.0073180 892.30 0.18531 0.0021497 465.17 391.14 417.07 3.2540 0.87975 1.0684 177.44 1.7409 3.7559 0.0045443
-134.62 0.0093230 8.9975e-06 -93.432 -93.431 -0.45816 679.08 0.0014726 -93.436 -93.436 -0.45820 1.3350 1.9858 1776.5 -0.0073059 869.75 0.18476 0.0024613 406.30 392.02 418.14 3.2348 0.88299 1.0716 178.02 1.7093 3.7834 0.0046066
-133.62 0.010727 1.0272e-05 -91.445 -91.444 -0.44387 678.07 0.0014748 -91.450 -91.449 -0.44391 1.3351 1.9875 1769.8 -0.0072935 848.11 0.18421 0.0028116 355.67 392.91 419.21 3.2161 0.88622 1.0749 178.61 1.6786 3.8109 0.0046691
-132.62 0.012315 1.1702e-05 -89.456 -89.455 -0.42967 677.06 0.0014770 -89.461 -89.461 -0.42971 1.3353 1.9892 1763.1 -0.0072810 827.32 0.18365 0.0032049 312.03 393.79 420.29 3.1977 0.88944 1.0781 179.19 1.6488 3.8385 0.0047320
-131.62 0.014106 1.3302e-05 -87.465 -87.464 -0.41555 676.04 0.0014792 -87.471 -87.471 -0.41560 1.3354 1.9909 1756.4 -0.0072684 807.34 0.18309 0.0036453 274.33 394.68 421.36 3.1798 0.89266 1.0813 179.76 1.6197 3.8660 0.0047951
-130.62 0.016124 1.5089e-05 -85.472 -85.472 -0.40152 675.03 0.0014814 -85.479 -85.479 -0.40157 1.3356 1.9926 1749.7 -0.0072555 788.12 0.18253 0.0041375 241.69 395.58 422.44 3.1622 0.89586 1.0846 180.34 1.5915 3.8935 0.0048586
-129.62 0.018392 1.7081e-05 -83.478 -83.477 -0.38757 674.02 0.0014836 -83.486 -83.486 -0.38763 1.3358 1.9944 1743.0 -0.0072425 769.63 0.18196 0.0046867 213.37 396.47 423.53 3.1450 0.89906 1.0878 180.91 1.5641 3.9210 0.0049223
-128.62 0.020935 1.9298e-05 -81.481 -81.481 -0.37371 673.01 0.0014859 -81.491 -81.490 -0.37378 1.3360 1.9961 1736.3 -0.0072294 751.83 0.18140 0.0052981 188.75 397.37 424.62 3.1281 0.90226 1.0910 181.48 1.5374 3.9485 0.0049863
-127.62 0.023783 2.1759e-05 -79.483 -79.482 -0.35994 672.00 0.0014881 -79.494 -79.493 -0.36001 1.3363 1.9979 1729.6 -0.0072160 734.67 0.18083 0.0059776 167.29 398.27 425.71 3.1116 0.90545 1.0942 182.05 1.5114 3.9760 0.0050506
-126.62 0.026966 2.4488e-05 -77.483 -77.482 -0.34624 670.98 0.0014904 -77.495 -77.495 -0.34632 1.3365 1.9997 1722.9 -0.0072025 718.14 0.18025 0.0067313 148.56 399.18 426.80 3.0954 0.90863 1.0974 182.62 1.4861 4.0035 0.0051152
-125.62 0.030515 2.7507e-05 -75.481 -75.480 -0.33262 669.97 0.0014926 -75.494 -75.494 -0.33272 1.3368 2.0015 1716.2 -0.0071888 702.18 0.17968 0.0075660 132.17 400.09 427.89 3.0795 0.91181 1.1006 183.18 1.4615 4.0310 0.0051800
-124.62 0.034467 3.0842e-05 -73.477 -73.476 -0.31908 668.95 0.0014949 -73.492 -73.492 -0.31919 1.3371 2.0033 1709.5 -0.0071749 686.79 0.17910 0.0084885 117.81 401.00 428.99 3.0640 0.91499 1.1038 183.74 1.4375 4.0584 0.0052452
-123.62 0.038859 3.4519e-05 -71.471 -71.470 -0.30562 667.94 0.0014971 -71.488 -71.487 -0.30574 1.3374 2.0051 1702.8 -0.0071609 671.93 0.17852 0.0095065 105.19 401.91 430.10 3.0488 0.91816 1.1070 184.30 1.4141 4.0859 0.0053106
-122.62 0.043731 3.8567e-05 -69.463 -69.462 -0.29224 666.92 0.0014994 -69.482 -69.481 -0.29237 1.3377 2.0070 1696.2 -0.0071466 657.57 0.17794 0.010628 94.092 402.83 431.20 3.0339 0.92134 1.1102 184.86 1.3913 4.1134 0.0053764
-121.62 0.049128 4.3015e-05 -67.453 -67.452 -0.27893 665.91 0.0015017 -67.474 -67.473 -0.27907 1.3380 2.0089 1689.5 -0.0071322 643.70 0.17736 0.011861 84.309 403.75 432.31 3.0193 0.92451 1.1134 185.41 1.3691 4.1409 0.0054424
-120.62 0.055096 4.7896e-05 -65.441 -65.439 -0.26570 664.89 0.0015040 -65.464 -65.463 -0.26585 1.3384 2.0107 1682.8 -0.0071176 630.28 0.17678 0.013215 75.669 404.67 433.42 3.0050 0.92767 1.1166 185.96 1.3475 4.1683 0.0055087
-119.62 0.061684 5.3243e-05 -63.427 -63.425 -0.25253 663.87 0.0015063 -63.452 -63.452 -0.25271 1.3387 2.0126 1676.1 -0.0071028 617.30 0.17619 0.014700 68.027 405.60 434.53 2.9909 0.93084 1.1198 186.51 1.3264 4.1958 0.0055752
-118.62 0.068946 5.9091e-05 -61.411 -61.409 -0.23944 662.86 0.0015086 -61.439 -61.438 -0.23963 1.3391 2.0146 1669.4 -0.0070878 604.74 0.17560 0.016325 61.255 406.53 435.64 2.9772 0.93401 1.1231 187.06 1.3058 4.2233 0.0056421
-117.62 0.076937 6.5479e-05 -59.393 -59.390 -0.22642 661.84 0.0015109 -59.423 -59.422 -0.22663 1.3395 2.0165 1662.8 -0.0070726 592.58 0.17501 0.018101 55.245 407.46 436.76 2.9638 0.93718 1.1263 187.60 1.2857 4.2507 0.0057092
-116.62 0.085718 7.2444e-05 -57.372 -57.369 -0.21347 660.82 0.0015133 -57.406 -57.405 -0.21370 1.3400 2.0184 1656.1 -0.0070573 580.80 0.17442 0.020040 49.901 408.39 437.88 2.9506 0.94035 1.1295 188.14 1.2660 4.2782 0.0057767
-115.62 0.095353 8.0029e-05 -55.349 -55.346 -0.20059 659.80 0.0015156 -55.386 -55.385 -0.20084 1.3404 2.0204 1649.4 -0.0070417 569.38 0.17383 0.022152 45.142 409.33 439.01 2.9377 0.94352 1.1327 188.68 1.2468 4.3056 0.0058444
-114.62 0.10591 8.8277e-05 -53.324 -53.320 -0.18778 658.78 0.0015180 -53.365 -53.364 -0.18805 1.3409 2.0224 1642.7 -0.0070260 558.32 0.17323 0.024451 40.898 410.27 440.13 2.9250 0.94669 1.1360 189.22 1.2281 4.3330 0.0059123
-113.62 0.11746 9.7234e-05 -51.297 -51.292 -0.17503 657.76 0.0015203 -51.342 -51.340 -0.17533 1.3413 2.0244 1636.0 -0.0070100 547.59 0.17264 0.026949 37.107 411.21 441.26 2.9126 0.94987 1.1392 189.75 1.2097 4.3604 0.0059806
-112.62 0.13008 0.00010695 -49.267 -49.262 -0.16234 656.73 0.0015227 -49.316 -49.315 -0.16267 1.3418 2.0264 1629.3 -0.0069938 537.18 0.17204 0.029661 33.715 412.16 442.39 2.9005 0.95305 1.1424 190.28 1.1918 4.3879 0.0060491
-111.62 0.14384 0.00011747 -47.235 -47.230 -0.14972 655.71 0.0015251 -47.289 -47.287 -0.15008 1.3424 2.0285 1622.7 -0.0069774 527.08 0.17144 0.032600 30.675 413.10 443.53 2.8885 0.95623 1.1457 190.81 1.1742 4.4153 0.0061180
-110.62 0.15884 0.00012884 -45.200 -45.194 -0.13716 654.69 0.0015274 -45.259 -45.258 -0.13755 1.3429 2.0305 1616.0 -0.0069609 517.28 0.17084 0.035781 27.948 414.06 444.66 2.8769 0.95942 1.1490 191.34 1.1570 4.4427 0.0061871
-109.62 0.17516 0.00014113 -43.163 -43.157 -0.12467 653.66 0.0015298 -43.228 -43.226 -0.12509 1.3435 2.0326 1609.3 -0.0069441 507.76 0.17024 0.039220 25.497 415.01 445.80 2.8654 0.96261 1.1522 191.86 1.1402 4.4701 0.0062564
-108.62 0.19290 0.00015439 -41.124 -41.117 -0.11223 652.64 0.0015322 -41.194 -41.192 -0.11269 1.3441 2.0347 1602.6 -0.0069271 498.51 0.16964 0.042933 23.292 415.96 446.94 2.8542 0.96581 1.1555 192.38 1.1236 4.4974 0.0063261
-107.62 0.21215 0.00016868 -39.081 -39.074 -0.099860 651.61 0.0015347 -39.158 -39.156 -0.10036 1.3447 2.0369 1595.9 -0.0069098 489.52 0.16903 0.046937 21.305 416.92 448.09 2.8433 0.96901 1.1588 192.90 1.1075 4.5248 0.0063960
-106.62 0.23301 0.00018406 -37.037 -37.029 -0.087545 650.58 0.0015371 -37.120 -37.118 -0.088082 1.3453 2.0390 1589.2 -0.0068924 480.79 0.16843 0.051250 19.512 417.88 449.23 2.8325 0.97222 1.1621 193.41 1.0916 4.5522 0.0064662
-105.62 0.25561 0.00020059 -34.989 -34.980 -0.075287 649.55 0.0015395 -35.080 -35.078 -0.075868 1.3460 2.0412 1582.6 -0.0068747 472.30 0.16782 0.055891 17.892 418.85 450.38 2.8220 0.97544 1.1655 193.93 1.0760 4.5795 0.0065367
-104.62 0.28004 0.00021834 -32.939 -32.929 -0.063086 648.52 0.0015420 -33.038 -33.035 -0.063714 1.3467 2.0434 1575.9 -0.0068569 464.04 0.16721 0.060878 16.426 419.81 451.53 2.8116 0.97867 1.1688 194.44 1.0608 4.6069 0.0066074
-103.62 0.30643 0.00023738 -30.887 -30.876 -0.050942 647.49 0.0015444 -30.994 -30.991 -0.051619 1.3474 2.0456 1569.2 -0.0068387 456.00 0.16660 0.066231 15.099 420.78 452.68 2.8015 0.98191 1.1722 194.94 1.0458 4.6342 0.0066785
-102.62 0.33490 0.00025778 -28.831 -28.819 -0.038852 646.46 0.0015469 -28.947 -28.944 -0.039582 1.3481 2.0478 1562.5 -0.0068204 448.18 0.16600 0.071971 13.894 421.75 453.84 2.7916 0.98516 1.1755 195.44 1.0310 4.6615 0.0067498
-101.62 0.36558 0.00027961 -26.773 -26.760 -0.026816 645.43 0.0015494 -26.898 -26.894 -0.027602 1.3489 2.0501 1555.8 -0.0068018 440.57 0.16539 0.078120 12.801 422.73 454.99 2.7818 0.98841 1.1789 195.95 1.0166 4.6888 0.0068213
-100.62 0.39862 0.00030295 -24.711 -24.697 -0.014834 644.39 0.0015519 -24.847 -24.843 -0.015678 1.3497 2.0524 1549.1 -0.0067830 433.16 0.16478 0.084699 11.807 423.70 456.15 2.7723 0.99168 1.1823 196.44 1.0024 4.7161 0.0068932
-99.625 0.43414 0.00032788 -22.647 -22.632 -0.0029031 643.36 0.0015544 -22.794 -22.789 -0.0038103 1.3505 2.0547 1542.4 -0.0067639 425.95 0.16416 0.091731 10.901 424.68 457.31 2.7630 0.99496 1.1858 196.94 0.98838 4.7434 0.0069653
-98.625 0.47230 0.00035448 -20.580 -20.563 0.0089761 642.32 0.0015569 -20.738 -20.733 0.0080027 1.3514 2.0570 1535.7 -0.0067447 418.92 0.16355 0.099240 10.077 425.66 458.48 2.7538 0.99825 1.1892 197.43 0.97464 4.7707 0.0070377
-97.625 0.51325 0.00038282 -18.509 -18.491 0.020805 641.28 0.0015594 -18.680 -18.674 0.019762 1.3522 2.0594 1529.0 -0.0067251 412.07 0.16294 0.10725 9.3239 426.65 459.64 2.7448 1.0016 1.1927 197.92 0.96112 4.7979 0.0071103
-96.625 0.55714 0.00041301 -16.436 -16.416 0.032584 640.24 0.0015619 -16.620 -16.614 0.031467 1.3531 2.0618 1522.3 -0.0067053 405.39 0.16233 0.11579 8.6365 427.63 460.81 2.7360 1.0049 1.1962 198.40 0.94783 4.8251 0.0071832
-95.625 0.60416 0.00044512 -14.359 -14.338 0.044315 639.20 0.0015645 -14.557 -14.550 0.043120 1.3540 2.0642 1515.7 -0.0066853 398.88 0.16171 0.12488 8.0078 428.62 461.98 2.7274 1.0082 1.1997 198.88 0.93475 4.8524 0.0072564
-94.625 0.65446 0.00047925 -12.280 -12.256 0.055998 638.16 0.0015670 -12.491 -12.484 0.054721 1.3550 2.0667 1509.0 -0.0066650 392.53 0.16110 0.13455 7.4323 429.61 463.15 2.7189 1.0116 1.2032 199.36 0.92188 4.8796 0.0073299
-93.625 0.70822 0.00051549 -10.196 -10.171 0.067634 637.12 0.0015696 -10.424 -10.416 0.066271 1.3560 2.0691 1502.3 -0.0066444 386.34 0.16048 0.14482 6.9050 430.60 464.32 2.7107 1.0149 1.2068 199.83 0.90921 4.9068 0.0074036
-92.625 0.76564 0.00055394 -8.1098 -8.0827 0.079224 636.07 0.0015722 -8.3535 -8.3452 0.077771 1.3570 2.0716 1495.6 -0.0066236 380.31 0.15987 0.15573 6.4212 431.60 465.49 2.7025 1.0183 1.2104 200.30 0.89673 4.9340 0.0074776
-91.625 0.82689 0.00059469 -6.0198 -5.9906 0.090770 635.02 0.0015747 -6.2808 -6.2719 0.089220 1.3580 2.0742 1488.9 -0.0066025 374.41 0.15925 0.16731 5.9769 432.59 466.67 2.6946 1.0217 1.2140 200.77 0.88445 4.9611 0.0075518
-90.625 0.89218 0.00063785 -3.9264 -3.8948 0.10227 633.98 0.0015773 -4.2056 -4.1959 0.10062 1.3591 2.0767 1482.2 -0.0065811 368.66 0.15864 0.17958 5.5685 433.59 467.84 2.6868 1.0251 1.2177 201.24 0.87236 4.9883 0.0076263
-89.625 0.96172 0.00068352 -1.8294 -1.7954 0.11373 632.93 0.0015800 -2.1279 -2.1174 0.11197 1.3602 2.0793 1475.5 -0.0065595 363.05 0.15802 0.19258 5.1928 434.59 469.02 2.6791 1.0285 1.2213 201.70 0.86045 5.0154 0.0077011
-88.625 1.0357 0.00073180 0.27129 0.30791 0.12514 631.88 0.0015826 -0.047516 -0.036215 0.12328 1.3613 2.0819 1468.8 -0.0065375 357.56 0.15740 0.20633 4.8466 435.59 470.20 2.6717 1.0320 1.2250 202.15 0.84873 5.0425 0.0077761
-87.625 1.1144 0.00078281 2.3756 2.4150 0.13652 630.83 0.0015852 2.0355 2.0476 0.13454 1.3625 2.0846 1462.1 -0.0065153 352.21 0.15679 0.22087 4.5276 436.60 471.39 2.6643 1.0354 1.2288 202.61 0.83718 5.0696 0.0078514
-86.625 1.1979 0.00083665 4.4837 4.5261 0.14785 629.77 0.0015879 4.1211 4.1342 0.14575 1.3637 2.0873 1455.4 -0.0064928 346.98 0.15617 0.23623 4.2331 437.61 472.57 2.6571 1.0389 1.2325 203.06 0.82580 5.0967 0.0079270
-85.625 1.2866 0.00089345 6.5957 6.6412 0.15914 628.72 0.0015905 6.2094 6.2235 0.15691 1.3649 2.0900 1448.8 -0.0064701 341.87 0.15555 0.25245 3.9612 438.61 473.75 2.6501 1.0424 1.2363 203.50 0.81460 5.1237 0.0080028
-84.625 1.3806 0.00095330 8.7115 8.7604 0.17039 627.66 0.0015932 8.3004 8.3155 0.16803 1.3661 2.0927 1442.1 -0.0064470 336.87 0.15494 0.26956 3.7097 439.63 474.94 2.6432 1.0460 1.2402 203.95 0.80356 5.1508 0.0080789
-83.625 1.4803 0.0010163 10.831 10.884 0.18161 626.60 0.0015959 10.394 10.410 0.17911 1.3674 2.0955 1435.4 -0.0064236 331.99 0.15432 0.28760 3.4771 440.64 476.13 2.6364 1.0495 1.2440 204.38 0.79269 5.1778 0.0081553
-82.625 1.5858 0.0010827 12.955 13.011 0.19279 625.54 0.0015986 12.491 12.508 0.19014 1.3687 2.0983 1428.7 -0.0063999 327.22 0.15370 0.30659 3.2616 441.65 477.31 2.6298 1.0531 1.2479 204.82 0.78199 5.2048 0.0082319
-81.625 1.6975 0.0011525 15.083 15.143 0.20393 624.48 0.0016013 14.590 14.609 0.20113 1.3700 2.1012 1422.0 -0.0063759 322.55 0.15309 0.32659 3.0619 442.67 478.50 2.6233 1.0567 1.2519 205.25 0.77144 5.2318 0.0083088
-80.625 1.8155 0.0012258 17.215 17.280 0.21503 623.42 0.0016041 16.692 16.712 0.21208 1.3714 2.1041 1415.4 -0.0063516 317.99 0.15247 0.34763 2.8766 443.69 479.70 2.6169 1.0603 1.2558 205.67 0.76106 5.2587 0.0083860
-79.625 1.9402 0.0013028 19.352 19.421 0.22610 622.36 0.0016068 18.797 18.819 0.22299 1.3728 2.1070 1408.7 -0.0063270 313.52 0.15186 0.36974 2.7046 444.71 480.89 2.6106 1.0639 1.2598 206.10 0.75083 5.2857 0.0084634
-78.625 2.0718 0.0013836 21.493 21.566 0.23713 621.29 0.0016096 20.905 20.928 0.23385 1.3742 2.1099 1402.0 -0.0063021 309.15 0.15124 0.39296 2.5448 445.73 482.08 2.6045 1.0676 1.2639 206.51 0.74076 5.3126 0.0085411
-77.625 2.2107 0.0014683 23.638 23.716 0.24813 620.22 0.0016123 23.016 23.040 0.24468 1.3757 2.1129 1395.3 -0.0062768 304.88 0.15062 0.41735 2.3961 446.75 483.27 2.5985 1.0712 1.2680 206.93 0.73084 5.3395 0.0086190
-76.625 2.3571 0.0015571 25.788 25.871 0.25910 619.15 0.0016151 25.130 25.156 0.25546 1.3772 2.1159 1388.7 -0.0062512 300.69 0.15001 0.44292 2.2577 447.78 484.47 2.5926 1.0749 1.2721 207.34 0.72107 5.3664 0.0086972
-75.625 2.5113 0.0016502 27.942 28.031 0.27003 618.08 0.0016179 27.247 27.275 0.26620 1.3787 2.1190 1382.0 -0.0062253 296.59 0.14939 0.46974 2.1288 448.81 485.67 2.5869 1.0787 1.2762 207.74 0.71146 5.3933 0.0087757
-74.625 2.6736 0.0017476 30.101 30.196 0.28094 617.01 0.0016207 29.366 29.396 0.27691 1.3802 2.1221 1375.4 -0.0061990 292.58 0.14878 0.49783 2.0087 449.83 486.86 2.5812 1.0824 1.2804 208.14 0.70200 5.4201 0.0088544
-73.625 2.8444 0.0018494 32.265 32.366 0.29181 615.93 0.0016236 31.489 31.521 0.28758 1.3818 2.1252 1368.7 -0.0061724 288.65 0.14816 0.52725 1.8966 450.86 488.06 2.5757 1.0862 1.2847 208.54 0.69268 5.4469 0.0089334
-72.625 3.0240 0.0019559 34.434 34.540 0.30265 614.85 0.0016264 33.615 33.649 0.29821 1.3834 2.1284 1362.0 -0.0061454 284.81 0.14755 0.55804 1.7920 451.90 489.26 2.5703 1.0900 1.2889 208.93 0.68351 5.4737 0.0090126
-71.625 3.2127 0.0020672 36.607 36.721 0.31346 613.78 0.0016293 35.745 35.781 0.30880 1.3851 2.1316 1355.4 -0.0061181 281.03 0.14694 0.59024 1.6942 452.93 490.46 2.5650 1.0938 1.2932 209.32 0.67448 5.5005 0.0090922
-70.625 3.4108 0.0021834 38.786 38.906 0.32424 612.69 0.0016321 37.877 37.915 0.31935 1.3867 2.1349 1348.7 -0.0060904 277.34 0.14632 0.62390 1.6028 453.96 491.66 2.5598 1.0976 1.2976 209.70 0.66560 5.5273 0.0091720
-69.625 3.6187 0.0023047 40.969 41.097 0.33500 611.61 0.0016350 40.013 40.053 0.32987 1.3884 2.1382 1342.1 -0.0060624 273.72 0.14571 0.65906 1.5173 455.00 492.86 2.5547 1.1015 1.3020 210.08 0.65687 5.5540 0.0092520
-68.625 3.8367 0.0024312 43.158 43.293 0.34573 610.53 0.0016379 42.152 42.195 0.34036 1.3902 2.1415 1335.5 -0.0060339 270.17 0.14510 0.69577 1.4372 456.04 494.06 2.5497 1.1054 1.3064 210.45 0.64827 5.5807 0.0093324
-67.625 4.0652 0.0025631 45.352 45.495 0.35643 609.44 0.0016409 44.294 44.340 0.35080 1.3919 2.1449 1328.8 -0.0060051 266.69 0.14449 0.73408 1.3622 457.08 495.26 2.5448 1.1093 1.3109 210.82 0.63981 5.6074 0.0094130
-66.625 4.3046 0.0027005 47.551 47.703 0.36710 608.35 0.0016438 46.439 46.488 0.36122 1.3937 2.1483 1322.2 -0.0059760 263.28 0.14388 0.77404 1.2919 458.12 496.46 2.5400 1.1133 1.3154 211.18 0.63150 5.6341 0.0094939
-65.625 4.5551 0.0028436 49.756 49.917 0.37775 607.26 0.0016467 48.588 48.640 0.37160 1.3955 2.1518 1315.6 -0.0059464 259.93 0.14327 0.81570 1.2259 459.16 497.67 2.5353 1.1172 1.3200 211.54 0.62332 5.6608 0.0095750
-64.625 4.8173 0.0029926 51.966 52.136 0.38838 606.16 0.0016497 50.740 50.795 0.38195 1.3974 2.1553 1308.9 -0.0059164 256.65 0.14266 0.85910 1.1640 460.21 498.87 2.5307 1.1212 1.3246 211.89 0.61527 5.6874 0.0096564
-63.625 5.0915 0.0031476 54.181 54.362 0.39898 605.07 0.0016527 52.896 52.954 0.39226 1.3993 2.1588 1302.3 -0.0058861 253.42 0.14205 0.90429 1.1058 461.25 500.07 2.5262 1.1252 1.3293 212.24 0.60736 5.7140 0.0097382
-62.625 5.3781 0.0033087 56.403 56.593 0.40955 603.97 0.0016557 55.055 55.117 0.40254 1.4012 2.1624 1295.7 -0.0058553 250.26 0.14144 0.95134 1.0511 462.30 501.28 2.5218 1.1293 1.3340 212.58 0.59958 5.7406 0.0098201
-61.625 5.6774 0.0034762 58.630 58.831 0.42011 602.87 0.0016587 57.218 57.283 0.41279 1.4031 2.1660 1289.1 -0.0058241 247.16 0.14084 1.0003 0.99972 463.35 502.48 2.5175 1.1333 1.3387 212.92 0.59194 5.7672 0.0099024
-60.625 5.9899 0.0036502 60.863 61.075 0.43064 601.77 0.0016618 59.385 59.453 0.42301 1.4051 2.1697 1282.5 -0.0057925 244.12 0.14023 1.0512 0.95131 464.40 503.68 2.5133 1.1374 1.3435 213.26 0.58442 5.7938 0.0099850
-59.625 6.3160 0.0038309 63.102 63.325 0.44115 600.66 0.0016648 61.554 61.627 0.43320 1.4071 2.1734 1275.9 -0.0057605 241.13 0.13962 1.1041 0.90573 465.45 504.89 2.5091 1.1415 1.3483 213.58 0.57704 5.8203 0.010068
-58.625 6.6561 0.0040184 65.347 65.582 0.45164 599.55 0.0016679 63.728 63.805 0.44335 1.4091 2.1772 1269.3 -0.0057280 238.19 0.13902 1.1591 0.86277 466.50 506.09 2.5051 1.1457 1.3532 213.90 0.56978 5.8468 0.010151
-57.625 7.0107 0.0042130 67.598 67.845 0.46211 598.44 0.0016710 65.905 65.986 0.45348 1.4111 2.1810 1262.7 -0.0056951 235.31 0.13842 1.2161 0.82228 467.55 507.30 2.5011 1.1498 1.3581 214.22 0.56265 5.8733 0.010234
-56.625 7.3801 0.0044147 69.855 70.116 0.47255 597.33 0.0016741 68.086 68.172 0.46358 1.4132 2.1848 1256.1 -0.0056617 232.48 0.13781 1.2754 0.78408 468.60 508.50 2.4972 1.1540 1.3631 214.53 0.55564 5.8998 0.010318
-55.625 7.7648 0.0046239 72.118 72.393 0.48298 596.22 0.0016772 70.271 70.361 0.47364 1.4153 2.1887 1249.5 -0.0056279 229.69 0.13721 1.3369 0.74802 469.66 509.71 2.4934 1.1582 1.3681 214.84 0.54875 5.9263 0.010402
-54.625 8.1652 0.0048405 74.388 74.676 0.49339 595.10 0.0016804 72.460 72.554 0.48368 1.4174 2.1927 1242.9 -0.0055937 226.96 0.13661 1.4006 0.71396 470.72 510.91 2.4897 1.1624 1.3731 215.14 0.54199 5.9527 0.010486
-53.625 8.5819 0.0050649 76.664 76.967 0.50379 593.98 0.0016836 74.652 74.752 0.49369 1.4196 2.1967 1236.3 -0.0055589 224.27 0.13601 1.4667 0.68178 471.77 512.11 2.4860 1.1667 1.3782 215.43 0.53535 5.9792 0.010571
-52.625 9.0151 0.0052972 78.946 79.265 0.51416 592.86 0.0016867 76.849 76.954 0.50368 1.4218 2.2007 1229.8 -0.0055237 221.63 0.13541 1.5353 0.65136 472.83 513.32 2.4824 1.1710 1.3834 215.72 0.52882 6.0056 0.010656
-51.625 9.4655 0.0055376 81.236 81.570 0.52452 591.73 0.0016900 79.049 79.159 0.51363 1.4240 2.2048 1223.2 -0.0054880 219.04 0.13482 1.6062 0.62258 473.89 514.52 2.4789 1.1752 1.3886 216.00 0.52241 6.0320 0.010741
-50.625 9.9335 0.0057863 83.531 83.883 0.53486 590.60 0.0016932 81.253 81.369 0.52356 1.4262 2.2089 1216.6 -0.0054519 216.48 0.13422 1.6797 0.59534 474.95 515.73 2.4755 1.1796 1.3938 216.28 0.51612 6.0584 0.010827
-49.625 10.419 0.0060435 85.834 86.202 0.54518 589.47 0.0016964 83.462 83.584 0.53347 1.4285 2.2131 1210.1 -0.0054152 213.98 0.13363 1.7558 0.56954 476.01 516.93 2.4722 1.1839 1.3991 216.55 0.50994 6.0848 0.010913
-48.625 10.924 0.0063093 88.144 88.530 0.55549 588.34 0.0016997 85.674 85.802 0.54334 1.4308 2.2173 1203.5 -0.0053780 211.51 0.13303 1.8345 0.54510 477.07 518.13 2.4689 1.1883 1.4044 216.82 0.50387 6.1112 0.010999
-47.625 11.448 0.0065840 90.460 90.865 0.56578 587.20 0.0017030 87.891 88.025 0.55319 1.4331 2.2216 1196.9 -0.0053403 209.08 0.13244 1.9159 0.52194 478.14 519.33 2.4657 1.1927 1.4098 217.08 0.49792 6.1375 0.011085
-46.625 11.991 0.0068677 92.783 93.207 0.57606 586.06 0.0017063 90.111 90.252 0.56302 1.4354 2.2259 1190.4 -0.0053020 206.69 0.13185 2.0001 0.49997 479.20 520.53 2.4625 1.1971 1.4153 217.33 0.49207 6.1639 0.011172
-45.625 12.554 0.0071607 95.114 95.558 0.58633 584.92 0.0017096 92.336 92.484 0.57282 1.4378 2.2303 1183.8 -0.0052633 204.34 0.13126 2.0872 0.47912 480.27 521.74 2.4594 1.2015 1.4207 217.58 0.48633 6.1902 0.011259
-44.625 13.137 0.0074631 97.452 97.916 0.59658 583.77 0.0017130 94.565 94.720 0.58260 1.4402 2.2347 1177.3 -0.0052240 202.03 0.13067 2.1771 0.45933 481.33 522.94 2.4564 1.2060 1.4263 217.82 0.48069 6.2165 0.011347
-43.625 13.741 0.0077751 99.797 100.28 0.60682 582.62 0.0017164 96.799 96.961 0.59235 1.4426 2.2392 1170.7 -0.0051841 199.75 0.13008 2.2700 0.44053 482.40 524.14 2.4535 1.2104 1.4319 218.05 0.47516 6.2429 0.011435
-42.625 14.367 0.0080970 102.15 102.66 0.61705 581.47 0.0017198 99.036 99.207 0.60208 1.4450 2.2437 1164.2 -0.0051437 197.51 0.12949 2.3659 0.42267 483.46 525.33 2.4506 1.2149 1.4375 218.28 0.46973 6.2692 0.011523
-41.625 15.015 0.0084289 104.51 105.04 0.62726 580.32 0.0017232 101.28 101.46 0.61179 1.4475 2.2483 1157.7 -0.0051027 195.30 0.12891 2.4649 0.40569 484.53 526.53 2.4478 1.2195 1.4432 218.50 0.46440 6.2955 0.011612
-40.625 15.686 0.0087711 106.88 107.43 0.63747 579.16 0.0017266 103.52 103.71 0.62147 1.4500 2.2529 1151.1 -0.0050611 193.13 0.12832 2.5671 0.38954 485.60 527.73 2.4450 1.2240 1.4489 218.72 0.45917 6.3218 0.011701
-39.625 16.380 0.0091237 109.25 109.83 0.64766 578.00 0.0017301 105.78 105.97 0.63113 1.4525 2.2576 1144.6 -0.0050189 190.99 0.12774 2.6725 0.37418 486.67 528.93 2.4423 1.2286 1.4547 218.93 0.45403 6.3481 0.011790
-38.625 17.097 0.0094870 111.63 112.24 0.65784 576.83 0.0017336 108.03 108.24 0.64077 1.4550 2.2623 1138.0 -0.0049761 188.88 0.12716 2.7813 0.35955 487.74 530.12 2.4397 1.2332 1.4606 219.13 0.44900 6.3744 0.011880
-37.625 17.838 0.0098612 114.02 114.65 0.66801 575.66 0.0017371 110.29 110.51 0.65039 1.4576 2.2671 1131.5 -0.0049327 186.81 0.12658 2.8934 0.34562 488.81 531.32 2.4371 1.2378 1.4665 219.33 0.44405 6.4007 0.011970
-36.625 18.604 0.010246 116.42 117.08 0.67817 574.49 0.0017407 112.56 112.78 0.65999 1.4602 2.2719 1125.0 -0.0048887 184.76 0.12600 3.0089 0.33235 489.88 532.51 2.4346 1.2424 1.4724 219.52 0.43920 6.4270 0.012060
-35.625 19.395 0.010643 118.83 119.51 0.68832 573.32 0.0017442 114.83 115.06 0.66956 1.4628 2.2768 1118.5 -0.0048440 182.75 0.12542 3.1280 0.31969 490.95 533.70 2.4321 1.2471 1.4784 219.70 0.43444 6.4533 0.012151
-34.625 20.212 0.011051 121.24 121.96 0.69846 572.14 0.0017478 117.10 117.34 0.67912 1.4654 2.2818 1111.9 -0.0047987 180.76 0.12485 3.2506 0.30763 492.02 534.89 2.4297 1.2517 1.4845 219.88 0.42977 6.4797 0.012243
-33.625 21.056 0.011471 123.66 124.41 0.70860 570.96 0.0017514 119.38 119.63 0.68865 1.4681 2.2868 1105.4 -0.0047527 178.80 0.12427 3.3770 0.29612 493.09 536.08 2.4273 1.2564 1.4906 220.05 0.42519 6.5060 0.012334
-32.625 21.926 0.011903 126.10 126.87 0.71872 569.77 0.0017551 121.66 121.93 0.69817 1.4708 2.2918 1098.9 -0.0047061 176.87 0.12370 3.5071 0.28514 494.17 537.27 2.4250 1.2611 1.4968 220.21 0.42070 6.5323 0.012426
-31.625 22.823 0.012347 128.53 129.34 0.72884 568.58 0.0017588 123.95 124.23 0.70767 1.4735 2.2970 1092.3 -0.0046587 174.97 0.12313 3.6410 0.27465 495.24 538.46 2.4227 1.2659 1.5031 220.36 0.41629 6.5587 0.012519
-30.625 23.749 0.012804 130.98 131.82 0.73895 567.39 0.0017625 126.24 126.53 0.71714 1.4762 2.3021 1085.8 -0.0046107 173.09 0.12256 3.7787 0.26464 496.31 539.64 2.4205 1.2706 1.5094 220.51 0.41196 6.5850 0.012612
-29.625 24.703 0.013273 133.44 134.31 0.74906 566.19 0.0017662 128.54 128.84 0.72660 1.4790 2.3074 1079.3 -0.0045619 171.24 0.12200 3.9205 0.25507 497.38 540.83 2.4184 1.2754 1.5157 220.65 0.40772 6.6114 0.012706
-28.625 25.687 0.013755 135.90 136.81 0.75915 564.99 0.0017699 130.84 131.16 0.73604 1.4818 2.3126 1072.8 -0.0045124 169.42 0.12143 4.0663 0.24592 498.46 542.01 2.4162 1.2802 1.5222 220.79 0.40356 6.6378 0.012800
-27.625 26.700 0.014250 138.37 139.32 0.76924 563.78 0.0017737 133.15 133.48 0.74547 1.4846 2.3180 1066.2 -0.0044621 167.62 0.12087 4.2163 0.23717 499.53 543.19 2.4142 1.2850 1.5286 220.91 0.39947 6.6642 0.012894
-26.625 27.743 0.014759 140.85 141.84 0.77933 562.57 0.0017775 135.47 135.81 0.75487 1.4874 2.3234 1059.7 -0.0044111 165.84 0.12031 4.3705 0.22881 500.60 544.37 2.4122 1.2899 1.5352 221.03 0.39547 6.6906 0.012989
-25.625 28.817 0.015281 143.34 144.36 0.78941 561.36 0.0017814 137.78 138.14 0.76426 1.4902 2.3289 1053.2 -0.0043593 164.09 0.11975 4.5290 0.22080 501.68 545.55 2.4102 1.2947 1.5418 221.14 0.39154 6.7171 0.013084
-24.625 29.923 0.015817 145.84 146.90 0.79948 560.14 0.0017853 140.11 140.48 0.77363 1.4931 2.3344 1046.7 -0.0043067 162.36 0.11919 4.6918 0.21314 502.75 546.72 2.4083 1.2996 1.5485 221.25 0.38768 6.7436 0.013180
-23.625 31.061 0.016367 148.35 149.45 0.80955 558.92 0.0017892 142.44 142.82 0.78298 1.4960 2.3400 1040.1 -0.0042533 160.65 0.11863 4.8592 0.20580 503.82 547.90 2.4064 1.3045 1.5552 221.35 0.38391 6.7701 0.013277
-22.625 32.232 0.016932 150.87 152.01 0.81962 557.69 0.0017931 144.77 145.17 0.79232 1.4990 2.3457 1033.6 -0.0041990 158.97 0.11807 5.0311 0.19877 504.90 549.07 2.4045 1.3095 1.5621 221.44 0.38020 6.7967 0.013374
-21.625 33.435 0.017511 153.39 154.58 0.82968 556.46 0.0017971 147.11 147.52 0.80164 1.5019 2.3514 1027.1 -0.0041439 157.30 0.11752 5.2076 0.19203 505.97 550.24 2.4027 1.3144 1.5690 221.52 0.37656 6.8232 0.013471
-20.625 34.673 0.018105 155.93 157.15 0.83974 555.23 0.0018011 149.45 149.88 0.81095 1.5049 2.3572 1020.6 -0.0040879 155.66 0.11697 5.3889 0.18557 507.04 551.40 2.4010 1.3194 1.5759 221.59 0.37300 6.8499 0.013569
-19.625 35.946 0.018715 158.47 159.74 0.84979 553.99 0.0018051 151.80 152.25 0.82024 1.5079 2.3630 1014.0 -0.0040311 154.04 0.11642 5.5750 0.17937 508.11 552.57 2.3992 1.3244 1.5829 221.66 0.36950 6.8765 0.013668
-18.625 37.253 0.019339 161.03 162.34 0.85985 552.74 0.0018092 154.16 154.62 0.82952 1.5109 2.3689 1007.5 -0.0039733 152.44 0.11587 5.7660 0.17343 509.19 553.73 2.3976 1.3294 1.5901 221.72 0.36608 6.9032 0.013767
-17.625 38.596 0.019980 163.59 164.95 0.86989 551.49 0.0018133 156.52 157.00 0.83878 1.5140 2.3749 1001.0 -0.0039145 150.86 0.11532 5.9621 0.16773 510.26 554.89 2.3959 1.3345 1.5972 221.77 0.36272 6.9300 0.013867
-16.625 39.976 0.020636 166.16 167.57 0.87994 550.24 0.0018174 158.89 159.39 0.84803 1.5171 2.3810 994.44 -0.0038549 149.29 0.11478 6.1632 0.16225 511.33 556.05 2.3943 1.3395 1.6045 221.81 0.35942 6.9568 0.013968
-15.625 41.392 0.021309 168.74 170.21 0.88998 548.98 0.0018216 161.26 161.78 0.85726 1.5202 2.3871 987.91 -0.0037942 147.75 0.11423 6.3696 0.15700 512.40 557.20 2.3927 1.3446 1.6119 221.85 0.35619 6.9836 0.014069
-14.625 42.846 0.021998 171.33 172.85 0.90003 547.71 0.0018258 163.64 164.18 0.86649 1.5233 2.3933 981.37 -0.0037325 146.22 0.11369 6.5812 0.15195 513.47 558.36 2.3912 1.3497 1.6193 221.87 0.35302 7.0105 0.014170
-13.625 44.338 0.022704 173.93 175.50 0.91007 546.44 0.0018300 166.02 166.58 0.87569 1.5264 2.3996 974.83 -0.0036698 144.72 0.11315 6.7983 0.14710 514.54 559.51 2.3897 1.3549 1.6268 221.89 0.34992 7.0375 0.014273
-12.625 45.870 0.023428 176.54 178.17 0.92011 545.17 0.0018343 168.41 168.99 0.88489 1.5296 2.4059 968.29 -0.0036061 143.23 0.11261 7.0208 0.14243 515.61 560.65 2.3883 1.3600 1.6344 221.90 0.34688 7.0646 0.014376
-11.625 47.440 0.024168 179.17 180.84 0.93015 543.89 0.0018386 170.81 171.41 0.89407 1.5328 2.4124 961.75 -0.0035413 141.76 0.11208 7.2490 0.13795 516.68 561.80 2.3868 1.3652 1.6421 221.91 0.34389 7.0917 0.014479
-10.625 49.051 0.024927 181.80 183.53 0.94019 542.60 0.0018430 173.21 173.83 0.90324 1.5360 2.4189 955.20 -0.0034753 140.30 0.11154 7.4829 0.13364 517.75 562.94 2.3854 1.3704 1.6498 221.90 0.34097 7.1188 0.014584
-9.6250 50.703 0.025704 184.44 186.23 0.95022 541.31 0.0018474 175.61 176.26 0.91240 1.5393 2.4255 948.65 -0.0034082 138.86 0.11101 7.7226 0.12949 518.81 564.08 2.3841 1.3757 1.6577 221.88 0.33810 7.1461 0.014689
-8.6250 52.396 0.026498 187.09 188.94 0.96026 540.02 0.0018518 178.03 178.70 0.92154 1.5426 2.4321 942.10 -0.0033400 137.44 0.11048 7.9683 0.12550 519.88 565.21 2.3827 1.3809 1.6657 221.86 0.33529 7.1734 0.014795
-7.6250 54.131 0.027312 189.75 191.66 0.97030 538.72 0.0018563 180.45 181.14 0.93068 1.5459 2.4389 935.55 -0.0032705 136.03 0.10995 8.2200 0.12165 520.94 566.35 2.3814 1.3862 1.6737 221.83 0.33254 7.2008 0.014902
-6.6250 55.909 0.028145 192.42 194.39 0.98034 537.41 0.0018608 182.87 183.59 0.93980 1.5492 2.4457 928.99 -0.0031998 134.64 0.10942 8.4779 0.11795 522.01 567.48 2.3801 1.3915 1.6819 221.79 0.32984 7.2284 0.015009
-5.6250 57.730 0.028997 195.10 197.14 0.99038 536.10 0.0018653 185.30 186.05 0.94892 1.5525 2.4526 922.43 -0.0031279 133.27 0.10889 8.7420 0.11439 523.07 568.60 2.3789 1.3969 1.6902 221.74 0.32720 7.2560 0.015117
-4.6250 59.595 0.029869 197.79 199.90 1.0004 534.78 0.0018699 187.74 188.51 0.95802 1.5559 2.4596 915.87 -0.0030546 131.91 0.10837 9.0126 0.11096 524.13 569.72 2.3777 1.4022 1.6985 221.68 0.32461 7.2837 0.015226
-3.6250 61.505 0.030760 200.49 202.67 1.0105 533.45 0.0018746 190.19 190.98 0.96711 1.5593 2.4667 909.30 -0.0029800 130.56 0.10785 9.2896 0.10765 525.19 570.84 2.3765 1.4076 1.7070 221.62 0.32207 7.3115 0.015336
-2.6250 63.461 0.031673 203.20 205.45 1.0205 532.12 0.0018793 192.64 193.46 0.97620 1.5627 2.4739 902.73 -0.0029041 129.23 0.10733 9.5733 0.10446 526.25 571.96 2.3753 1.4131 1.7156 221.54 0.31958 7.3394 0.015447
-1.6250 65.462 0.032606 205.93 208.24 1.0306 530.78 0.0018840 195.10 195.95 0.98527 1.5662 2.4811 896.16 -0.0028267 127.91 0.10681 9.8638 0.10138 527.31 573.07 2.3742 1.4185 1.7243 221.45 0.31715 7.3674 0.015559
-0.62500 67.510 0.033560 208.66 211.05 1.0406 529.44 0.0018888 197.56 198.44 0.99434 1.5696 2.4885 889.58 -0.0027478 126.61 0.10629 10.161 0.098414 528.37 574.18 2.3731 1.4240 1.7331 221.36 0.31476 7.3956 0.015671
0.37500 69.606 0.034536 211.41 213.87 1.0507 528.09 0.0018936 200.03 200.94 1.0034 1.5731 2.4960 883.00 -0.0026675 125.32 0.10578 10.466 0.095552 529.42 575.28 2.3720 1.4295 1.7421 221.26 0.31242 7.4239 0.015785
1.3750 71.749 0.035534 214.16 216.70 1.0607 526.73 0.0018985 202.51 203.45 1.0124 1.5767 2.5035 876.42 -0.0025856 124.04 0.10527 10.777 0.092790 530.48 576.38 2.3709 1.4350 1.7512 221.14 0.31013 7.4523 0.015899
2.3750 73.941 0.036554 216.93 219.54 1.0708 525.37 0.0019034 204.99 205.96 1.0215 1.5802 2.5112 869.83 -0.0025022 122.78 0.10476 11.096 0.090123 531.53 577.47 2.3699 1.4406 1.7604 221.02 0.30789 7.4808 0.016015
3.3750 76.183 0.037597 219.70 222.40 1.0808 523.99 0.0019084 207.48 208.48 1.0305 1.5838 2.5190 863.24 -0.0024171 121.53 0.10425 11.422 0.087549 532.58 578.56 2.3688 1.4462 1.7697 220.89 0.30569 7.5095 0.016131
4.3750 78.475 0.038663 222.49 225.27 1.0909 522.62 0.0019134 209.98 211.01 1.0395 1.5874 2.5268 856.64 -0.0023303 120.29 0.10374 11.756 0.085062 533.63 579.65 2.3678 1.4518 1.7792 220.75 0.30354 7.5384 0.016249
5.3750 80.817 0.039752 225.29 228.15 1.1010 521.23 0.0019185 212.48 213.55 1.0486 1.5910 2.5348 850.04 -0.0022417 119.06 0.10324 12.098 0.082660 534.67 580.73 2.3669 1.4575 1.7888 220.60 0.30144 7.5674 0.016368
6.3750 83.211 0.040866 228.10 231.04 1.1110 519.84 0.0019237 215.00 216.10 1.0576 1.5946 2.5429 843.43 -0.0021514 117.85 0.10273 12.447 0.080340 535.72 581.81 2.3659 1.4632 1.7986 220.44 0.29938 7.5966 0.016487
7.3750 85.657 0.042004 230.92 233.95 1.1211 518.44 0.0019289 217.51 218.65 1.0666 1.5983 2.5511 836.82 -0.0020593 116.65 0.10223 12.805 0.078096 536.76 582.88 2.3650 1.4689 1.8085 220.27 0.29736 7.6259 0.016608
8.3750 88.156 0.043167 233.76 236.87 1.1312 517.03 0.0019341 220.04 221.22 1.0756 1.6020 2.5595 830.20 -0.0019652 115.46 0.10173 13.170 0.075928 537.80 583.95 2.3640 1.4746 1.8186 220.08 0.29538 7.6555 0.016730
9.3750 90.708 0.044356 236.60 239.81 1.1413 515.62 0.0019394 222.57 223.79 1.0846 1.6057 2.5679 823.58 -0.0018691 114.28 0.10124 13.545 0.073830 538.84 585.01 2.3631 1.4804 1.8288 219.89 0.29345 7.6852 0.016853
10.375 93.315 0.045570 239.46 242.76 1.1514 514.19 0.0019448 225.11 226.37 1.0936 1.6095 2.5765 816.96 -0.0017710 113.11 0.10074 13.927 0.071802 539.87 586.07 2.3622 1.4863 1.8392 219.69 0.29156 7.7151 0.016978
11.375 95.977 0.046811 242.33 245.72 1.1615 512.76 0.0019502 227.66 228.95 1.1025 1.6132 2.5852 810.32 -0.0016708 111.95 0.10025 14.319 0.069840 540.90 587.12 2.3614 1.4921 1.8498 219.48 0.28971 7.7452 0.017103
12.375 98.694 0.048079 245.20 248.69 1.1716 511.32 0.0019557 230.22 231.55 1.1115 1.6170 2.5940 803.68 -0.0015685 110.80 0.099756 14.719 0.067941 541.93 588.17 2.3605 1.4980 1.8605 219.26 0.28790 7.7756 0.017230
13.375 101.47 0.049374 248.10 251.68 1.1817 509.87 0.0019613 232.78 234.15 1.1205 1.6208 2.6030 797.04 -0.0014639 109.67 0.099267 15.128 0.066103 542.96 589.21 2.3597 1.5040 1.8715 219.03 0.28612 7.8061 0.017359
14.375 104.30 0.050698 251.00 254.69 1.1918 508.42 0.0019669 235.35 236.77 1.1295 1.6247 2.6121 790.39 -0.0013569 108.54 0.098779 15.547 0.064323 543.99 590.24 2.3588 1.5099 1.8826 218.79 0.28439 7.8369 0.017488
15.375 107.19 0.052050 253.91 257.70 1.2019 506.95 0.0019726 237.93 239.39 1.1384 1.6286 2.6214 783.73 -0.0012476 107.43 0.098294 15.974 0.062600 545.01 591.27 2.3580 1.5159 1.8940 218.53 0.28270 7.8680 0.017619
16.375 110.13 0.053431 256.84 260.74 1.2120 505.48 0.0019783 240.52 242.02 1.1474 1.6324 2.6308 777.07 -0.0011357 106.32 0.097810 16.412 0.060931 546.03 592.29 2.3572 1.5220 1.9055 218.27 0.28104 7.8993 0.017752
17.375 113.14 0.054842 259.78 263.78 1.2222 504.00 0.0019841 243.11 244.66 1.1564 1.6364 2.6403 770.40 -0.0010213 105.22 0.097328 16.859 0.059314 547.04 593.31 2.3564 1.5281 1.9172 217.99 0.27942 7.9308 0.017886
18.375 116.21 0.056283 262.73 266.84 1.2323 502.50 0.0019900 245.72 247.31 1.1653 1.6403 2.6501 763.72 -0.00090422 104.14 0.096848 17.317 0.057747 548.05 594.32 2.3557 1.5342 1.9292 217.71 0.27783 7.9626 0.018021
19.375 119.33 0.057755 265.70 269.91 1.2425 501.00 0.0019960 248.33 249.97 1.1743 1.6443 2.6599 757.04 -0.00078435 103.06 0.096371 17.785 0.056228 549.06 595.33 2.3549 1.5404 1.9414 217.41 0.27628 7.9947 0.018159
20.375 122.52 0.059259 268.67 273.00 1.2526 499.49 0.0020020 250.95 252.64 1.1832 1.6483 2.6700 750.35 -0.00066161 101.99 0.095895 18.263 0.054756 550.07 596.32 2.3541 1.5466 1.9538 217.10 0.27477 8.0272 0.018297
21.375 125.77 0.060796 271.66 276.11 1.2628 497.97 0.0020082 253.57 255.32 1.1922 1.6523 2.6802 743.64 -0.00053589 100.93 0.095420 18.752 0.053328 551.07 597.31 2.3534 1.5528 1.9665 216.78 0.27329 8.0599 0.018438
22.375 129.08 0.062365 274.66 279.23 1.2730 496.43 0.0020144 256.21 258.00 1.2012 1.6563 2.6906 736.94 -0.00040708 99.877 0.094948 19.252 0.051943 552.07 598.30 2.3526 1.5591 1.9795 216.45 0.27184 8.0929 0.018580
23.375 132.46 0.063969 277.67 282.36 1.2831 494.89 0.0020206 258.86 260.70 1.2101 1.6604 2.7012 730.22 -0.00027505 98.834 0.094478 19.763 0.050600 553.06 599.27 2.3519 1.5655 1.9927 216.11 0.27043 8.1263 0.018724
24.375 135.90 0.065607 280.70 285.51 1.2933 493.34 0.0020270 261.51 263.41 1.2191 1.6645 2.7120 723.49 -0.00013968 97.800 0.094009 20.285 0.049297 554.05 600.24 2.3512 1.5718 2.0061 215.75 0.26906 8.1600 0.018870
25.375 139.41 0.067280 283.74 288.67 1.3035 491.77 0.0020335 264.17 266.13 1.2280 1.6686 2.7230 716.76 -8.3775e-07 96.773 0.093543 20.820 0.048032 555.03 601.20 2.3504 1.5783 2.0199 215.39 0.26771 8.1941 0.019017
26.375 142.98 0.068989 286.79 291.85 1.3137 490.20 0.0020400 266.84 268.85 1.2370 1.6728 2.7342 710.01 0.00014161 95.755 0.093078 21.366 0.046804 556.01 602.15 2.3497 1.5847 2.0340 215.01 0.26640 8.2286 0.019167
27.375 146.62 0.070736 289.86 295.04 1.3240 488.61 0.0020466 269.52 271.59 1.2459 1.6770 2.7456 703.26 0.00028782 94.745 0.092615 21.924 0.045612 556.99 603.10 2.3490 1.5913 2.0484 214.62 0.26512 8.2634 0.019319
28.375 150.33 0.072520 292.94 298.25 1.3342 487.01 0.0020533 272.21 274.34 1.2549 1.6812 2.7573 696.49 0.00043793 93.742 0.092154 22.495 0.044454 557.96 604.03 2.3483 1.5978 2.0631 214.21 0.26387 8.2987 0.019472
29.375 154.10 0.074343 296.03 301.48 1.3444 485.40 0.0020601 274.91 277.10 1.2638 1.6854 2.7691 689.72 0.00059212 92.747 0.091695 23.079 0.043329 558.92 604.96 2.3476 1.6044 2.0781 213.80 0.26265 8.3344 0.019628
30.375 157.94 0.076206 299.13 304.72 1.3547 483.78 0.0020671 277.62 279.87 1.2728 1.6897 2.7813 682.93 0.00075055 91.760 0.091238 23.676 0.042237 559.88 605.88 2.3469 1.6111 2.0935 213.37 0.26147 8.3705 0.019786
31.375 161.86 0.078109 302.25 307.97 1.3649 482.15 0.0020741 280.34 282.66 1.2818 1.6939 2.7936 676.13 0.00091340 90.779 0.090782 24.287 0.041175 560.84 606.79 2.3462 1.6178 2.1092 212.93 0.26031 8.4071 0.019947
32.375 165.84 0.080055 305.38 311.25 1.3752 480.50 0.0020812 283.07 285.45 1.2908 1.6983 2.8063 669.32 0.0010809 89.806 0.090328 24.911 0.040143 561.79 607.69 2.3455 1.6246 2.1254 212.48 0.25919 8.4442 0.020110
33.375 169.90 0.082043 308.53 314.54 1.3855 478.83 0.0020884 285.81 288.26 1.2997 1.7026 2.8192 662.50 0.0012532 88.840 0.089876 25.549 0.039140 562.73 608.58 2.3448 1.6314 2.1419 212.01 0.25809 8.4818 0.020275
34.375 174.02 0.084075 311.69 317.84 1.3958 477.16 0.0020957 288.56 291.07 1.3087 1.7070 2.8324 655.67 0.0014305 87.880 0.089426 26.202 0.038164 563.67 609.46 2.3440 1.6383 2.1589 211.53 0.25702 8.5199 0.020443
35.375 178.22 0.086152 314.86 321.16 1.4061 475.47 0.0021032 291.32 293.90 1.3177 1.7114 2.8459 648.82 0.0016131 86.927 0.088977 26.870 0.037216 564.60 610.33 2.3433 1.6452 2.1763 211.04 0.25599 8.5586 0.020613
36.375 182.50 0.088275 318.05 324.50 1.4164 473.77 0.0021107 294.09 296.74 1.3267 1.7158 2.8597 641.96 0.0018012 85.980 0.088531 27.553 0.036293 565.52 611.19 2.3426 1.6522 2.1942 210.53 0.25498 8.5978 0.020786
37.375 186.84 0.090446 321.25 327.86 1.4267 472.05 0.0021184 296.87 299.60 1.3357 1.7203 2.8739 635.08 0.0019950 85.040 0.088085 28.252 0.035395 566.44 612.04 2.3419 1.6592 2.2125 210.01 0.25400 8.6376 0.020962
38.375 191.27 0.092666 324.46 331.23 1.4370 470.31 0.0021262 299.66 302.46 1.3447 1.7248 2.8884 628.19 0.0021949 84.105 0.087642 28.967 0.034522 567.35 612.88 2.3411 1.6663 2.2314 209.47 0.25305 8.6780 0.021141
39.375 195.77 0.094936 327.69 334.62 1.4474 468.56 0.0021342 302.46 305.34 1.3537 1.7293 2.9033 621.29 0.0024011 83.177 0.087200 29.699 0.033671 568.26 613.70 2.3404 1.6734 2.2508 208.92 0.25213 8.7190 0.021323
40.375 200.34 0.097258 330.94 338.02 1.4578 466.80 0.0021423 305.27 308.23 1.3627 1.7339 2.9185 614.37 0.0026140 82.254 0.086760 30.447 0.032844 569.15 614.52 2.3396 1.6806 2.2708 208.36 0.25123 8.7608 0.021508
41.375 205.00 0.099633 334.20 341.45 1.4681 465.01 0.0021505 308.10 311.14 1.3718 1.7385 2.9342 607.43 0.0028338 81.338 0.086322 31.214 0.032037 570.04 615.32 2.3389 1.6879 2.2913 207.78 0.25037 8.8032 0.021696
42.375 209.73 0.10206 337.47 344.89 1.4785 463.21 0.0021588 310.94 314.06 1.3808 1.7432 2.9502 600.47 0.0030609 80.426 0.085885 31.998 0.031252 570.92 616.11 2.3381 1.6952 2.3125 207.19 0.24953 8.8463 0.021888
43.375 214.54 0.10455 340.76 348.35 1.4889 461.40 0.0021673 313.79 316.99 1.3899 1.7478 2.9667 593.50 0.0032957 79.520 0.085449 32.800 0.030488 571.79 616.88 2.3373 1.7027 2.3344 206.58 0.24871 8.8902 0.022084
44.375 219.43 0.10709 344.06 351.82 1.4993 459.56 0.0021760 316.65 319.94 1.3989 1.7525 2.9837 586.51 0.0035386 78.619 0.085015 33.622 0.029742 572.65 617.65 2.3365 1.7101 2.3569 205.96 0.24793 8.9349 0.022283
45.375 224.41 0.10970 347.38 355.32 1.5098 457.71 0.0021848 319.52 322.90 1.4080 1.7573 3.0012 579.50 0.0037900 77.723 0.084583 34.463 0.029016 573.50 618.40 2.3357 1.7177 2.3802 205.32 0.24717 8.9805 0.022485
46.375 229.46 0.11237 350.72 358.83 1.5202 455.83 0.0021938 322.41 325.88 1.4171 1.7621 3.0192 572.46 0.0040504 76.832 0.084152 35.325 0.028308 574.34 619.13 2.3349 1.7253 2.4042 204.67 0.24644 9.0269 0.022692
47.375 234.60 0.11510 354.07 362.36 1.5307 453.94 0.0022029 325.31 328.87 1.4262 1.7669 3.0377 565.41 0.0043202 75.946 0.083723 36.208 0.027618 575.17 619.85 2.3340 1.7329 2.4291 204.00 0.24573 9.0742 0.022903
48.375 239.83 0.11790 357.43 365.91 1.5412 452.03 0.0022123 328.22 331.88 1.4353 1.7718 3.0569 558.34 0.0046000 75.064 0.083295 37.112 0.026945 576.00 620.55 2.3332 1.7407 2.4548 203.31 0.24505 9.1224 0.023119
49.375 245.13 0.12076 360.81 369.48 1.5517 450.09 0.0022218 331.15 334.90 1.4445 1.7767 3.0766 551.24 0.0048904 74.186 0.082868 38.039 0.026289 576.81 621.24 2.3323 1.7485 2.4815 202.61 0.24440 9.1716 0.023339
50.375 250.53 0.12370 364.21 373.07 1.5622 448.13 0.0022315 334.09 337.94 1.4536 1.7817 3.0970 544.13 0.0051920 73.313 0.082442 38.989 0.025648 577.61 621.91 2.3314 1.7564 2.5092 201.89 0.24377 9.2219 0.023564
51.375 256.01 0.12671 367.63 376.68 1.5727 446.15 0.0022414 337.04 341.00 1.4628 1.7867 3.1181 536.98 0.0055054 72.443 0.082018 39.962 0.025024 578.39 622.56 2.3304 1.7644 2.5379 201.16 0.24317 9.2733 0.023794
52.375 261.57 0.12980 371.06 380.30 1.5833 444.15 0.0022515 340.01 344.07 1.4720 1.7918 3.1400 529.82 0.0058313 71.577 0.081595 40.961 0.024414 579.17 623.20 2.3295 1.7724 2.5677 200.41 0.24260 9.3258 0.024029
53.375 267.23 0.13297 374.50 383.95 1.5939 442.12 0.0022618 343.00 347.17 1.4812 1.7969 3.1627 522.62 0.0061705 70.715 0.081174 41.985 0.023818 579.93 623.81 2.3285 1.7805 2.5987 199.63 0.24205 9.3795 0.024270
54.375 272.97 0.13622 377.97 387.62 1.6045 440.06 0.0022724 346.00 350.28 1.4904 1.8021 3.1862 515.40 0.0065239 69.856 0.080753 43.036 0.023237 580.68 624.41 2.3274 1.7887 2.6310 198.85 0.24154 9.4344 0.024516
55.375 278.81 0.13956 381.45 391.31 1.6151 437.98 0.0022832 349.02 353.40 1.4997 1.8073 3.2106 508.15 0.0068923 69.001 0.080334 44.114 0.022669 581.41 624.99 2.3264 1.7969 2.6646 198.04 0.24105 9.4907 0.024769
56.375 284.74 0.14299 384.95 395.01 1.6257 435.87 0.0022943 352.05 356.55 1.5090 1.8126 3.2360 500.87 0.0072767 68.148 0.079915 45.221 0.022114 582.13 625.54 2.3253 1.8052 2.6998 197.22 0.24059 9.5484 0.025028
57.375 290.76 0.14651 388.46 398.74 1.6364 433.73 0.0023056 355.10 359.72 1.5183 1.8179 3.2624 493.56 0.0076782 67.299 0.079498 46.358 0.021571 582.83 626.07 2.3241 1.8136 2.7365 196.37 0.24016 9.6075 0.025294
58.375 296.87 0.15013 392.00 402.49 1.6470 431.56 0.0023172 358.17 362.91 1.5276 1.8233 3.2900 486.22 0.0080980 66.451 0.079082 47.525 0.021041 583.52 626.58 2.3230 1.8220 2.7749 195.51 0.23976 9.6682 0.025568
59.375 303.08 0.15385 395.55 406.27 1.6577 429.36 0.0023290 361.25 366.12 1.5370 1.8288 3.3188 478.84 0.0085373 65.606 0.078666 48.726 0.020523 584.18 627.07 2.3218 1.8305 2.8152 194.63 0.23939 9.7305 0.025849
60.375 309.38 0.15768 399.12 410.06 1.6685 427.13 0.0023412 364.36 369.35 1.5464 1.8343 3.3489 471.43 0.0089976 64.763 0.078251 49.960 0.020016 584.83 627.53 2.3205 1.8391 2.8576 193.73 0.23905 9.7945 0.026138
61.375 315.78 0.16162 402.71 413.88 1.6792 424.87 0.0023537 367.48 372.60 1.5558 1.8400 3.3805 463.99 0.0094803 63.922 0.077838 51.229 0.019520 585.46 627.96 2.3192 1.8479 2.9022 192.82 0.23873 9.8603 0.026436
62.375 322.28 0.16568 406.32 417.71 1.6900 422.56 0.0023665 370.62 375.88 1.5653 1.8457 3.4136 456.50 0.0099871 63.083 0.077425 52.535 0.019035 586.07 628.37 2.3178 1.8567 2.9492 191.88 0.23845 9.9281 0.026744
63.375 328.88 0.16987 409.95 421.58 1.7008 420.22 0.0023797 373.79 379.18 1.5748 1.8514 3.4483 448.97 0.010520 62.244 0.077012 53.879 0.018560 586.66 628.74 2.3164 1.8656 2.9989 190.92 0.23819 9.9979 0.027061
64.375 335.58 0.17419 413.60 425.46 1.7116 417.85 0.0023932 376.97 382.51 1.5844 1.8573 3.4850 441.40 0.011081 61.407 0.076600 55.265 0.018095 587.22 629.09 2.3149 1.8747 3.0517 189.95 0.23796 10.070 0.027389
65.375 342.38 0.17864 417.26 429.37 1.7225 415.42 0.0024072 380.18 385.86 1.5939 1.8633 3.5236 433.79 0.011672 60.570 0.076189 56.692 0.017639 587.76 629.40 2.3133 1.8839 3.1077 188.95 0.23775 10.144 0.027729
66.375 349.28 0.18324 420.95 433.30 1.7333 412.96 0.0024215 383.41 389.25 1.6036 1.8693 3.5645 426.12 0.012296 59.733 0.075779 58.165 0.017193 588.28 629.68 2.3117 1.8933 3.1674 187.93 0.23757 10.221 0.028080
67.375 356.28 0.18800 424.66 437.26 1.7442 410.45 0.0024363 386.67 392.65 1.6133 1.8755 3.6078 418.41 0.012956 58.897 0.075368 59.684 0.016755 588.76 629.92 2.3100 1.9030 3.2311 186.89 0.23740 10.300 0.028446
68.375 363.40 0.19292 428.40 441.24 1.7552 407.89 0.0024516 389.95 396.09 1.6230 1.8818 3.6537 410.64 0.013655 58.059 0.074959 61.253 0.016326 589.22 630.13 2.3082 1.9129 3.2994 185.83 0.23724 10.382 0.028825
69.375 370.61 0.19802 432.15 445.25 1.7662 405.28 0.0024674 393.26 399.57 1.6328 1.8882 3.7027 402.81 0.014396 57.221 0.074549 62.875 0.015905 589.65 630.29 2.3064 1.9231 3.3727 184.74 0.23710 10.467 0.029221
70.375 377.94 0.20330 435.93 449.29 1.7772 402.62 0.0024838 396.60 403.07 1.6426 1.8947 3.7550 394.92 0.015183 56.381 0.074141 64.552 0.015491 590.04 630.41 2.3044 1.9336 3.4518 183.63 0.23697 10.555 0.029633
71.375 385.37 0.20878 439.72 453.35 1.7882 399.89 0.0025007 399.96 406.61 1.6525 1.9014 3.8109 386.97 0.016021 55.540 0.073732 66.288 0.015086 590.40 630.49 2.3024 1.9444 3.5371 182.50 0.23684 10.647 0.030064
72.375 392.92 0.21448 443.55 457.44 1.7993 397.11 0.0025182 403.36 410.18 1.6625 1.9083 3.8711 378.95 0.016915 54.696 0.073324 68.087 0.014687 590.73 630.51 2.3002 1.9556 3.6297 181.34 0.23671 10.743 0.030515
73.375 400.57 0.22041 447.40 461.56 1.8104 394.26 0.0025364 406.79 413.80 1.6726 1.9153 3.9359 370.85 0.017871 53.848 0.072917 69.953 0.014295 591.01 630.49 2.2979 1.9673 3.7303 180.16 0.23658 10.842 0.030989
74.375 408.34 0.22659 451.27 465.71 1.8216 391.34 0.0025553 410.26 417.45 1.6827 1.9226 4.0060 362.67 0.018894 52.997 0.072510 71.890 0.013910 591.25 630.41 2.2955 1.9793 3.8401 178.95 0.23643 10.946 0.031488
75.375 416.23 0.23304 455.17 469.89 1.8328 388.34 0.0025751 413.76 421.15 1.6930 1.9301 4.0822 354.41 0.019993 52.142 0.072104 73.904 0.013531 591.44 630.27 2.2930 1.9919 3.9604 177.71 0.23627 11.054 0.032014
76.375 424.23 0.23978 459.10 474.09 1.8440 385.26 0.0025957 417.31 424.90 1.7033 1.9378 4.1654 346.06 0.021177 51.281 0.071699 76.001 0.013158 591.59 630.07 2.2903 2.0050 4.0927 176.44 0.23609 11.168 0.032570
77.375 432.35 0.24684 463.05 478.34 1.8553 382.09 0.0026172 420.89 428.70 1.7137 1.9459 4.2565 337.60 0.022455 50.414 0.071295 78.187 0.012790 591.68 629.80 2.2874 2.0186 4.2389 175.15 0.23588 11.287 0.033161
78.375 440.59 0.25425 467.03 482.61 1.8667 378.83 0.0026397 424.53 432.54 1.7243 1.9543 4.3570 329.05 0.023838 49.539 0.070893 80.469 0.012427 591.71 629.46 2.2844 2.0328 4.4012 173.82 0.23563 11.412 0.033789
79.375 448.95 0.26205 471.05 486.92 1.8781 375.46 0.0026634 428.21 436.45 1.7349 1.9631 4.4684 320.38 0.025341 48.657 0.070494 82.856 0.012069 591.68 629.04 2.2812 2.0475 4.5824 172.46 0.23535 11.544 0.034461
80.375 457.44 0.27028 475.09 491.27 1.8895 371.97 0.0026884 431.94 440.42 1.7457 1.9723 4.5928 311.58 0.026980 47.764 0.070099 85.359 0.011715 591.58 628.53 2.2778 2.0630 4.7859 171.07 0.23501 11.684 0.035181
81.375 466.05 0.27900 479.17 495.65 1.9011 368.36 0.0027147 435.74 444.46 1.7567 1.9820 4.7327 302.66 0.028773 46.860 0.069708 87.988 0.011365 591.40 627.92 2.2742 2.0791 5.0161 169.64 0.23461 11.832 0.035957
82.375 474.79 0.28825 483.28 500.07 1.9126 364.61 0.0027427 439.60 448.58 1.7678 1.9924 4.8914 293.60 0.030744 45.942 0.069323 90.757 0.011018 591.14 627.21 2.2703 2.0959 5.2786 168.17 0.23413 11.989 0.036797
83.375 483.66 0.29813 487.43 504.53 1.9243 360.70 0.0027724 443.53 452.78 1.7791 2.0034 5.0731 284.38 0.032920 45.010 0.068948 93.681 0.010674 590.79 626.38 2.2661 2.1136 5.5807 166.67 0.23357 12.157 0.037711
84.375 492.67 0.30870 491.62 509.04 1.9360 356.61 0.0028041 447.54 457.07 1.7907 2.0153 5.2834 275.00 0.035335 44.059 0.068586 96.781 0.010333 590.33 625.42 2.2616 2.1321 5.9321 165.13 0.23290 12.338 0.038713
85.375 501.81 0.32011 495.85 513.60 1.9479 352.33 0.0028382 451.65 461.47 1.8025 2.0281 5.5302 265.44 0.038030 43.088 0.068241 100.08 0.0099920 589.74 624.31 2.2567 2.1517 6.3459 163.54 0.23209 12.532 0.039819
86.375 511.09 0.33247 500.13 518.20 1.9598 347.82 0.0028751 455.85 465.98 1.8145 2.0420 5.8240 255.69 0.041058 42.092 0.067923 103.61 0.0096520 589.03 623.04 2.2514 2.1723 6.8405 161.91 0.23112 12.743 0.041051
87.375 520.51 0.34600 504.45 522.86 1.9718 343.04 0.0029151 460.18 470.64 1.8269 2.0574 6.1803 245.72 0.044485 41.066 0.067640 107.40 0.0093114 588.15 621.56 2.2456 2.1943 7.4422 160.23 0.22995 12.973 0.042436
88.375 530.07 0.36093 508.83 527.57 1.9839 337.95 0.0029590 464.64 475.45 1.8397 2.0745 6.6221 235.52 0.048397 40.005 0.067412 111.50 0.0089689 587.08 619.86 2.2392 2.2178 8.1900 158.49 0.22854 13.226 0.044014
89.375 539.79 0.37764 513.27 532.36 1.9962 332.48 0.0030077 469.27 480.46 1.8530 2.0936 7.1851 225.04 0.052906 38.901 0.067265 115.97 0.0086228 585.79 617.88 2.2321 2.2433 9.1445 156.69 0.22681 13.508 0.045839
90.375 549.66 0.39663 517.78 537.21 2.0086 326.55 0.0030623 474.10 485.71 1.8669 2.1156 7.9284 214.26 0.058166 37.742 0.067243 120.91 0.0082708 584.22 615.56 2.2241 2.2711 10.405 154.82 0.22467 13.825 0.047992
91.375 559.68 0.41870 522.36 542.15 2.0212 320.03 0.0031247 479.19 491.25 1.8815 2.1412 8.9568 203.11 0.064389 36.514 0.067421 126.43 0.0079097 582.29 612.82 2.2150 2.3019 12.146 152.85 0.22200 14.189 0.050600
92.375 569.87 0.44515 527.03 547.18 2.0340 312.73 0.0031976 484.62 497.18 1.8972 2.1718 10.475 191.54 0.071885 35.195 0.067931 132.72 0.0075346 579.91 609.51 2.2045 2.3370 14.705 150.75 0.21862 14.618 0.053877
93.375 580.24 0.47836 531.83 552.34 2.0471 304.34 0.0032858 490.52 503.67 1.9143 2.2100 12.945 179.43 0.081133 33.755 0.069025 140.11 0.0071373 576.87 605.42 2.1919 2.3779 18.828 148.48 0.21421 15.146 0.058225
94.375 590.79 0.52352 536.77 557.66 2.0605 294.25 0.0033985 497.17 511.01 1.9336 2.2603 17.657 166.61 0.092934 32.154 0.071243 149.20 0.0067025 572.82 600.12 2.1761 2.4283 26.557 145.93 0.20825 15.847 0.064529
95.375 601.53 0.59560 541.97 563.23 2.0746 280.99 0.0035589 505.21 519.97 1.9572 2.3343 30.014 152.73 0.10888 30.366 0.076197 161.45 0.0061937 566.92 592.61 2.1544 2.4956 46.113 142.79 0.19953 16.960 0.075419
96.375 612.50 0.79444 547.70 569.36 2.0902 258.02 0.0038757 517.56 533.93 1.9943 2.4799 125.86 136.81 0.13399 28.436 0.097271 183.41 0.0054523 555.50 578.53 2.1150 2.6070 182.91 137.67 0.18336 19.789 0.10964
97.375 622.91 undefined 551.29 573.32 2.0999 195.00 0.0051282 551.29 573.32 2.0999 2.5948 144.18 137.05 0.17345 21.148 0.10153 195.00 0.0051282 551.29 573.32 2.0999 2.5948 144.18 137.05 0.17345 21.148 0.10153
98.375 633.05 undefined 553.86 576.24 2.1068 195.00 0.0051282 553.86 576.24 2.1068 2.5315 73.249 139.47 0.17090 20.466 0.086333 195.00 0.0051282 553.86 576.24 2.1068 2.5315 73.249 139.47 0.17090 20.466 0.086333
99.375 643.15 undefined 556.36 579.10 2.1135 195.00 0.0051282 556.36 579.10 2.1135 2.4788 48.907 141.79 0.16824 20.132 0.078935 195.00 0.0051282 556.36 579.10 2.1135 2.4788 48.907 141.79 0.16824 20.132 0.078935
100.38 653.21 undefined 558.82 581.91 2.1201 195.00 0.0051282 558.82 581.91 2.1201 2.4350 36.685 144.00 0.16552 19.976 0.074227 195.00 0.0051282 558.82 581.91 2.1201 2.4350 36.685 144.00 0.16552 19.976 0.074227
101.38 663.24 undefined 561.23 584.68 2.1266 195.00 0.0051282 561.23 584.68 2.1266 2.3987 29.377 146.12 0.16276 19.911 0.070874 195.00 0.0051282 561.23 584.68 2.1266 2.3987 29.377 146.12 0.16276 19.911 0.070874
102.38 673.26 undefined 563.62 587.42 2.1329 195.00 0.0051282 563.62 587.42 2.1329 2.3686 24.536 148.16 0.15999 19.894 0.068336 195.00 0.0051282 563.62 587.42 2.1329 2.3686 24.536 148.16 0.15999 19.894 0.068336
103.38 683.25 undefined 565.97 590.13 2.1392 195.00 0.0051282 565.97 590.13 2.1392 2.3436 21.107 150.11 0.15722 19.900 0.066338 195.00 0.0051282 565.97 590.13 2.1392 2.3436 21.107 150.11 0.15722 19.900 0.066338
104.38 693.23 undefined 568.31 592.82 2.1454 195.00 0.0051282 568.31 592.82 2.1454 2.3228 18.556 151.99 0.15447 19.919 0.064720 195.00 0.0051282 568.31 592.82 2.1454 2.3228 18.556 151.99 0.15447 19.919 0.064720
105.38 703.20 undefined 570.62 595.48 2.1515 195.00 0.0051282 570.62 595.48 2.1515 2.3054 16.590 153.81 0.15174 19.944 0.063383 195.00 0.0051282 570.62 595.48 2.1515 2.3054 16.590 153.81 0.15174 19.944 0.063383
106.38 713.15 undefined 572.92 598.13 2.1576 195.00 0.0051282 572.92 598.13 2.1576 2.2908 15.031 155.58 0.14906 19.972 0.062258 195.00 0.0051282 572.92 598.13 2.1576 2.2908 15.031 155.58 0.14906 19.972 0.062258
107.38 723.10 undefined 575.20 600.77 2.1636 195.00 0.0051282 575.20 600.77 2.1636 2.2784 13.765 157.31 0.14642 20.003 0.061300 195.00 0.0051282 575.20 600.77 2.1636 2.2784 13.765 157.31 0.14642 20.003 0.061300
108.38 733.04 undefined 577.47 603.39 2.1696 195.00 0.0051282 577.47 603.39 2.1696 2.2678 12.719 159.00 0.14382 20.034 0.060474 195.00 0.0051282 577.47 603.39 2.1696 2.2678 12.719 159.00 0.14382 20.034 0.060474
109.38 742.98 undefined 579.74 606.01 2.1755 195.00 0.0051282 579.74 606.01 2.1755 2.2587 11.841 160.65 0.14128 20.066 0.059758 195.00 0.0051282 579.74 606.01 2.1755 2.2587 11.841 160.65 0.14128 20.066 0.059758
110.38 752.91 undefined 581.99 608.61 2.1814 195.00 0.0051282 581.99 608.61 2.1814 2.2509 11.093 162.28 0.13879 20.099 0.059130 195.00 0.0051282 581.99 608.61 2.1814 2.2509 11.093 162.28 0.13879 20.099 0.059130
111.38 762.83 undefined 584.24 611.21 2.1872 195.00 0.0051282 584.24 611.21 2.1872 2.2441 10.450 163.88 0.13636 20.131 0.058579 195.00 0.0051282 584.24 611.21 2.1872 2.2441 10.450 163.88 0.13636 20.131 0.058579
112.38 772.75 undefined 586.48 613.80 2.1930 195.00 0.0051282 586.48 613.80 2.1930 2.2382 9.8906 165.46 0.13398 20.164 0.058091 195.00 0.0051282 586.48 613.80 2.1930 2.2382 9.8906 165.46 0.13398 20.164 0.058091
113.38 782.67 undefined 588.72 616.39 2.1988 195.00 0.0051282 588.72 616.39 2.1988 2.2329 9.4002 167.03 0.13166 20.196 0.057659 195.00 0.0051282 588.72 616.39 2.1988 2.2329 9.4002 167.03 0.13166 20.196 0.057659
114.38 792.58 undefined 590.95 618.97 2.2046 195.00 0.0051282 590.95 618.97 2.2046 2.2283 8.9670 168.57 0.12939 20.229 0.057274 195.00 0.0051282 590.95 618.97 2.2046 2.2283 8.9670 168.57 0.12939 20.229 0.057274
115.38 802.49 undefined 593.17 621.55 2.2103 195.00 0.0051282 593.17 621.55 2.2103 2.2243 8.5816 170.10 0.12718 20.261 0.056931 195.00 0.0051282 593.17 621.55 2.2103 2.2243 8.5816 170.10 0.12718 20.261 0.056931
116.38 812.40 undefined 595.40 624.12 2.2160 195.00 0.0051282 595.40 624.12 2.2160 2.2207 8.2367 171.61 0.12501 20.294 0.056626 195.00 0.0051282 595.40 624.12 2.2160 2.2207 8.2367 171.61 0.12501 20.294 0.056626
117.38 822.30 undefined 597.61 626.69 2.2217 195.00 0.0051282 597.61 626.69 2.2217 2.2176 7.9264 173.11 0.12290 20.326 0.056353 195.00 0.0051282 597.61 626.69 2.2217 2.2176 7.9264 173.11 0.12290 20.326 0.056353
118.38 832.20 undefined 599.83 629.26 2.2274 195.00 0.0051282 599.83 629.26 2.2274 2.2148 7.6459 174.60 0.12084 20.359 0.056109 195.00 0.0051282 599.83 629.26 2.2274 2.2148 7.6459 174.60 0.12084 20.359 0.056109
119.38 842.10 undefined 602.04 631.82 2.2330 195.00 0.0051282 602.04 631.82 2.2330 2.2124 7.3911 176.07 0.11883 20.391 0.055891 195.00 0.0051282 602.04 631.82 2.2330 2.2124 7.3911 176.07 0.11883 20.391 0.055891
120.38 851.99 undefined 604.26 634.38 2.2387 195.00 0.0051282 604.26 634.38 2.2387 2.2103 7.1587 177.53 0.11687 20.424 0.055697 195.00 0.0051282 604.26 634.38 2.2387 2.2103 7.1587 177.53 0.11687 20.424 0.055697
121.38 861.88 undefined 606.46 636.94 2.2443 195.00 0.0051282 606.46 636.94 2.2443 2.2085 6.9461 178.98 0.11496 20.456 0.055524 195.00 0.0051282 606.46 636.94 2.2443 2.2085 6.9461 178.98 0.11496 20.456 0.055524
122.38 871.77 undefined 608.67 639.50 2.2499 195.00 0.0051282 608.67 639.50 2.2499 2.2070 6.7508 180.42 0.11309 20.489 0.055370 195.00 0.0051282 608.67 639.50 2.2499 2.2070 6.7508 180.42 0.11309 20.489 0.055370
123.38 881.66 undefined 610.88 642.05 2.2554 195.00 0.0051282 610.88 642.05 2.2554 2.2057 6.5710 181.85 0.11126 20.521 0.055234 195.00 0.0051282 610.88 642.05 2.2554 2.2057 6.5710 181.85 0.11126 20.521 0.055234
124.38 891.55 undefined 613.08 644.61 2.2610 195.00 0.0051282 613.08 644.61 2.2610 2.2047 6.4048 183.26 0.10948 20.553 0.055114 195.00 0.0051282 613.08 644.61 2.2610 2.2047 6.4048 183.26 0.10948 20.553 0.055114
125.38 901.43 undefined 615.29 647.16 2.2665 195.00 0.0051282 615.29 647.16 2.2665 2.2039 6.2509 184.67 0.10774 20.585 0.055009 195.00 0.0051282 615.29 647.16 2.2665 2.2039 6.2509 184.67 0.10774 20.585 0.055009
126.38 911.31 undefined 617.49 649.71 2.2721 195.00 0.0051282 617.49 649.71 2.2721 2.2033 6.1080 186.06 0.10604 20.618 0.054917 195.00 0.0051282 617.49 649.71 2.2721 2.2033 6.1080 186.06 0.10604 20.618 0.054917
127.38 921.19 undefined 619.69 652.27 2.2776 195.00 0.0051282 619.69 652.27 2.2776 2.2029 5.9750 187.45 0.10438 20.650 0.054837 195.00 0.0051282 619.69 652.27 2.2776 2.2029 5.9750 187.45 0.10438 20.650 0.054837
128.38 931.07 undefined 621.90 654.82 2.2831 195.00 0.0051282 621.90 654.82 2.2831 2.2027 5.8509 188.82 0.10276 20.682 0.054769 195.00 0.0051282 621.90 654.82 2.2831 2.2027 5.8509 188.82 0.10276 20.682 0.054769
129.38 940.94 undefined 624.10 657.37 2.2885 195.00 0.0051282 624.10 657.37 2.2885 2.2026 5.7350 190.19 0.10117 20.714 0.054712 195.00 0.0051282 624.10 657.37 2.2885 2.2026 5.7350 190.19 0.10117 20.714 0.054712
130.38 950.82 undefined 626.30 659.92 2.2940 195.00 0.0051282 626.30 659.92 2.2940 2.2028 5.6265 191.54 0.099624 20.746 0.054664 195.00 0.0051282 626.30 659.92 2.2940 2.2028 5.6265 191.54 0.099624 20.746 0.054664
131.38 960.69 undefined 628.51 662.47 2.2995 195.00 0.0051282 628.51 662.47 2.2995 2.2030 5.5246 192.89 0.098109 20.778 0.054626 195.00 0.0051282 628.51 662.47 2.2995 2.2030 5.5246 192.89 0.098109 20.778 0.054626
132.38 970.56 undefined 630.71 665.03 2.3049 195.00 0.0051282 630.71 665.03 2.3049 2.2035 5.4290 194.23 0.096629 20.810 0.054596 195.00 0.0051282 630.71 665.03 2.3049 2.2035 5.4290 194.23 0.096629 20.810 0.054596
133.38 980.43 undefined 632.91 667.58 2.3103 195.00 0.0051282 632.91 667.58 2.3103 2.2040 5.3390 195.56 0.095181 20.842 0.054573 195.00 0.0051282 632.91 667.58 2.3103 2.2040 5.3390 195.56 0.095181 20.842 0.054573
134.38 990.30 undefined 635.12 670.13 2.3157 195.00 0.0051282 635.12 670.13 2.3157 2.2047 5.2541 196.88 0.093765 20.874 0.054558 195.00 0.0051282 635.12 670.13 2.3157 2.2047 5.2541 196.88 0.093765 20.874 0.054558
135.38 1000.2 undefined 637.32 672.69 2.3211 195.00 0.0051282 637.32 672.69 2.3211 2.2056 5.1741 198.19 0.092381 20.906 0.054550 195.00 0.0051282 637.32 672.69 2.3211 2.2056 5.1741 198.19 0.092381 20.906 0.054550
136.38 1010.0 undefined 639.53 675.24 2.3265 195.00 0.0051282 639.53 675.24 2.3265 2.2065 5.0984 199.50 0.091026 20.938 0.054549 195.00 0.0051282 639.53 675.24 2.3265 2.2065 5.0984 199.50 0.091026 20.938 0.054549
137.38 1019.9 undefined 641.74 677.80 2.3319 195.00 0.0051282 641.74 677.80 2.3319 2.2076 5.0268 200.79 0.089701 20.969 0.054553 195.00 0.0051282 641.74 677.80 2.3319 2.2076 5.0268 200.79 0.089701 20.969 0.054553
138.38 1029.8 undefined 643.94 680.35 2.3373 195.00 0.0051282 643.94 680.35 2.3373 2.2087 4.9590 202.08 0.088405 21.001 0.054563 195.00 0.0051282 643.94 680.35 2.3373 2.2087 4.9590 202.08 0.088405 21.001 0.054563
139.38 1039.6 undefined 646.15 682.91 2.3426 195.00 0.0051282 646.15 682.91 2.3426 2.2100 4.8947 203.36 0.087136 21.033 0.054578 195.00 0.0051282 646.15 682.91 2.3426 2.2100 4.8947 203.36 0.087136 21.033 0.054578
140.38 1049.5 undefined 648.36 685.47 2.3480 195.00 0.0051282 648.36 685.47 2.3480 2.2113 4.8336 204.64 0.085894 21.064 0.054599 195.00 0.0051282 648.36 685.47 2.3480 2.2113 4.8336 204.64 0.085894 21.064 0.054599
141.38 1059.3 undefined 650.58 688.03 2.3533 195.00 0.0051282 650.58 688.03 2.3533 2.2128 4.7756 205.90 0.084678 21.096 0.054624 195.00 0.0051282 650.58 688.03 2.3533 2.2128 4.7756 205.90 0.084678 21.096 0.054624
142.38 1069.2 undefined 652.79 690.59 2.3587 195.00 0.0051282 652.79 690.59 2.3587 2.2143 4.7204 207.16 0.083487 21.128 0.054653 195.00 0.0051282 652.79 690.59 2.3587 2.2143 4.7204 207.16 0.083487 21.128 0.054653
143.38 1079.0 undefined 655.00 693.16 2.3640 195.00 0.0051282 655.00 693.16 2.3640 2.2159 4.6678 208.41 0.082322 21.159 0.054687 195.00 0.0051282 655.00 693.16 2.3640 2.2159 4.6678 208.41 0.082322 21.159 0.054687
144.38 1088.9 undefined 657.22 695.72 2.3693 195.00 0.0051282 657.22 695.72 2.3693 2.2176 4.6177 209.66 0.081180 21.191 0.054724 195.00 0.0051282 657.22 695.72 2.3693 2.2176 4.6177 209.66 0.081180 21.191 0.054724
145.38 1098.7 undefined 659.44 698.29 2.3746 195.00 0.0051282 659.44 698.29 2.3746 2.2193 4.5699 210.90 0.080062 21.222 0.054765 195.00 0.0051282 659.44 698.29 2.3746 2.2193 4.5699 210.90 0.080062 21.222 0.054765
146.38 1108.6 undefined 661.66 700.86 2.3799 195.00 0.0051282 661.66 700.86 2.3799 2.2211 4.5242 212.13 0.078966 21.254 0.054810 195.00 0.0051282 661.66 700.86 2.3799 2.2211 4.5242 212.13 0.078966 21.254 0.054810
147.38 1118.4 undefined 663.88 703.43 2.3852 195.00 0.0051282 663.88 703.43 2.3852 2.2230 4.4807 213.35 0.077893 21.285 0.054858 195.00 0.0051282 663.88 703.43 2.3852 2.2230 4.4807 213.35 0.077893 21.285 0.054858
148.38 1128.3 undefined 666.11 706.00 2.3905 195.00 0.0051282 666.11 706.00 2.3905 2.2249 4.4390 214.57 0.076841 21.316 0.054910 195.00 0.0051282 666.11 706.00 2.3905 2.2249 4.4390 214.57 0.076841 21.316 0.054910
149.38 1138.1 undefined 668.33 708.57 2.3958 195.00 0.0051282 668.33 708.57 2.3958 2.2269 4.3991 215.78 0.075810 21.348 0.054964 195.00 0.0051282 668.33 708.57 2.3958 2.2269 4.3991 215.78 0.075810 21.348 0.054964
150.38 1148.0 undefined 670.56 711.15 2.4010 195.00 0.0051282 670.56 711.15 2.4010 2.2290 4.3609 216.99 0.074799 21.379 0.055022 195.00 0.0051282 670.56 711.15 2.4010 2.2290 4.3609 216.99 0.074799 21.379 0.055022
151.38 1157.8 undefined 672.79 713.73 2.4063 195.00 0.0051282 672.79 713.73 2.4063 2.2311 4.3243 218.19 0.073809 21.410 0.055082 195.00 0.0051282 672.79 713.73 2.4063 2.2311 4.3243 218.19 0.073809 21.410 0.055082
152.38 1167.7 undefined 675.02 716.31 2.4115 195.00 0.0051282 675.02 716.31 2.4115 2.2332 4.2893 219.38 0.072837 21.441 0.055145 195.00 0.0051282 675.02 716.31 2.4115 2.2332 4.2893 219.38 0.072837 21.441 0.055145
153.38 1177.5 undefined 677.26 718.89 2.4168 195.00 0.0051282 677.26 718.89 2.4168 2.2354 4.2556 220.57 0.071885 21.472 0.055210 195.00 0.0051282 677.26 718.89 2.4168 2.2354 4.2556 220.57 0.071885 21.472 0.055210
154.38 1187.3 undefined 679.49 721.47 2.4220 195.00 0.0051282 679.49 721.47 2.4220 2.2377 4.2233 221.75 0.070951 21.503 0.055278 195.00 0.0051282 679.49 721.47 2.4220 2.2377 4.2233 221.75 0.070951 21.503 0.055278
155.38 1197.2 undefined 681.73 724.06 2.4273 195.00 0.0051282 681.73 724.06 2.4273 2.2400 4.1923 222.92 0.070034 21.534 0.055348 195.00 0.0051282 681.73 724.06 2.4273 2.2400 4.1923 222.92 0.070034 21.534 0.055348
156.38 1207.0 undefined 683.97 726.65 2.4325 195.00 0.0051282 683.97 726.65 2.4325 2.2423 4.1625 224.09 0.069135 21.565 0.055420 195.00 0.0051282 683.97 726.65 2.4325 2.2423 4.1625 224.09 0.069135 21.565 0.055420
157.38 1216.9 undefined 686.22 729.24 2.4377 195.00 0.0051282 686.22 729.24 2.4377 2.2447 4.1339 225.26 0.068253 21.596 0.055494 195.00 0.0051282 686.22 729.24 2.4377 2.2447 4.1339 225.26 0.068253 21.596 0.055494
158.38 1226.7 undefined 688.46 731.83 2.4429 195.00 0.0051282 688.46 731.83 2.4429 2.2471 4.1063 226.42 0.067388 21.627 0.055571 195.00 0.0051282 688.46 731.83 2.4429 2.2471 4.1063 226.42 0.067388 21.627 0.055571
159.38 1236.5 undefined 690.71 734.43 2.4481 195.00 0.0051282 690.71 734.43 2.4481 2.2495 4.0798 227.57 0.066538 21.658 0.055649 195.00 0.0051282 690.71 734.43 2.4481 2.2495 4.0798 227.57 0.066538 21.658 0.055649
160.38 1246.3 undefined 692.96 737.03 2.4533 195.00 0.0051282 692.96 737.03 2.4533 2.2520 4.0543 228.72 0.065705 21.689 0.055729 195.00 0.0051282 692.96 737.03 2.4533 2.2520 4.0543 228.72 0.065705 21.689 0.055729
161.38 1256.2 undefined 695.21 739.63 2.4585 195.00 0.0051282 695.21 739.63 2.4585 2.2545 4.0297 229.86 0.064886 21.720 0.055811 195.00 0.0051282 695.21 739.63 2.4585 2.2545 4.0297 229.86 0.064886 21.720 0.055811
162.38 1266.0 undefined 697.47 742.23 2.4637 195.00 0.0051282 697.47 742.23 2.4637 2.2570 4.0060 231.00 0.064083 21.751 0.055895 195.00 0.0051282 697.47 742.23 2.4637 2.2570 4.0060 231.00 0.064083 21.751 0.055895
163.38 1275.8 undefined 699.73 744.84 2.4689 195.00 0.0051282 699.73 744.84 2.4689 2.2596 3.9832 232.13 0.063294 21.782 0.055980 195.00 0.0051282 699.73 744.84 2.4689 2.2596 3.9832 232.13 0.063294 21.782 0.055980
164.38 1285.7 undefined 701.99 747.45 2.4740 195.00 0.0051282 701.99 747.45 2.4740 2.2621 3.9611 233.26 0.062519 21.812 0.056067 195.00 0.0051282 701.99 747.45 2.4740 2.2621 3.9611 233.26 0.062519 21.812 0.056067
165.38 1295.5 undefined 704.25 750.06 2.4792 195.00 0.0051282 704.25 750.06 2.4792 2.2648 3.9399 234.38 0.061758 21.843 0.056156 195.00 0.0051282 704.25 750.06 2.4792 2.2648 3.9399 234.38 0.061758 21.843 0.056156
166.38 1305.3 undefined 706.52 752.67 2.4844 195.00 0.0051282 706.52 752.67 2.4844 2.2674 3.9194 235.50 0.061011 21.874 0.056246 195.00 0.0051282 706.52 752.67 2.4844 2.2674 3.9194 235.50 0.061011 21.874 0.056246
167.38 1315.1 undefined 708.79 755.29 2.4895 195.00 0.0051282 708.79 755.29 2.4895 2.2701 3.8996 236.61 0.060276 21.904 0.056337 195.00 0.0051282 708.79 755.29 2.4895 2.2701 3.8996 236.61 0.060276 21.904 0.056337
168.38 1324.9 undefined 711.06 757.91 2.4947 195.00 0.0051282 711.06 757.91 2.4947 2.2727 3.8805 237.72 0.059555 21.935 0.056430 195.00 0.0051282 711.06 757.91 2.4947 2.2727 3.8805 237.72 0.059555 21.935 0.056430
169.38 1334.8 undefined 713.33 760.53 2.4998 195.00 0.0051282 713.33 760.53 2.4998 2.2754 3.8620 238.82 0.058846 21.965 0.056525 195.00 0.0051282 713.33 760.53 2.4998 2.2754 3.8620 238.82 0.058846 21.965 0.056525
170.38 1344.6 undefined 715.61 763.15 2.5050 195.00 0.0051282 715.61 763.15 2.5050 2.2782 3.8442 239.92 0.058149 21.996 0.056620 195.00 0.0051282 715.61 763.15 2.5050 2.2782 3.8442 239.92 0.058149 21.996 0.056620
171.38 1354.4 undefined 717.89 765.78 2.5101 195.00 0.0051282 717.89 765.78 2.5101 2.2809 3.8270 241.02 0.057465 22.026 0.056717 195.00 0.0051282 717.89 765.78 2.5101 2.2809 3.8270 241.02 0.057465 22.026 0.056717
172.38 1364.2 undefined 720.17 768.41 2.5152 195.00 0.0051282 720.17 768.41 2.5152 2.2837 3.8103 242.11 0.056792 22.057 0.056815 195.00 0.0051282 720.17 768.41 2.5152 2.2837 3.8103 242.11 0.056792 22.057 0.056815
173.38 1374.0 undefined 722.46 771.04 2.5203 195.00 0.0051282 722.46 771.04 2.5203 2.2865 3.7942 243.19 0.056130 22.087 0.056914 195.00 0.0051282 722.46 771.04 2.5203 2.2865 3.7942 243.19 0.056130 22.087 0.056914
174.38 1383.8 undefined 724.74 773.67 2.5255 195.00 0.0051282 724.74 773.67 2.5255 2.2893 3.7786 244.27 0.055480 22.117 0.057015 195.00 0.0051282 724.74 773.67 2.5255 2.2893 3.7786 244.27 0.055480 22.117 0.057015
175.38 1393.6 undefined 727.03 776.31 2.5306 195.00 0.0051282 727.03 776.31 2.5306 2.2921 3.7635 245.35 0.054840 22.148 0.057116 195.00 0.0051282 727.03 776.31 2.5306 2.2921 3.7635 245.35 0.054840 22.148 0.057116
176.38 1403.4 undefined 729.33 778.95 2.5357 195.00 0.0051282 729.33 778.95 2.5357 2.2949 3.7489 246.42 0.054211 22.178 0.057219 195.00 0.0051282 729.33 778.95 2.5357 2.2949 3.7489 246.42 0.054211 22.178 0.057219
177.38 1413.2 undefined 731.62 781.59 2.5408 195.00 0.0051282 731.62 781.59 2.5408 2.2978 3.7348 247.49 0.053593 22.208 0.057323 195.00 0.0051282 731.62 781.59 2.5408 2.2978 3.7348 247.49 0.053593 22.208 0.057323
178.38 1423.1 undefined 733.92 784.24 2.5459 195.00 0.0051282 733.92 784.24 2.5459 2.3006 3.7211 248.55 0.052985 22.239 0.057427 195.00 0.0051282 733.92 784.24 2.5459 2.3006 3.7211 248.55 0.052985 22.239 0.057427
179.38 1432.9 undefined 736.23 786.89 2.5510 195.00 0.0051282 736.23 786.89 2.5510 2.3035 3.7079 249.61 0.052386 22.269 0.057533 195.00 0.0051282 736.23 786.89 2.5510 2.3035 3.7079 249.61 0.052386 22.269 0.057533
180.38 1442.7 undefined 738.53 789.54 2.5561 195.00 0.0051282 738.53 789.54 2.5561 2.3064 3.6951 250.67 0.051797 22.299 0.057640 195.00 0.0051282 738.53 789.54 2.5561 2.3064 3.6951 250.67 0.051797 22.299 0.057640
181.38 1452.5 undefined 740.84 792.19 2.5612 195.00 0.0051282 740.84 792.19 2.5612 2.3093 3.6827 251.72 0.051218 22.329 0.057747 195.00 0.0051282 740.84 792.19 2.5612 2.3093 3.6827 251.72 0.051218 22.329 0.057747
182.38 1462.3 undefined 743.15 794.85 2.5662 195.00 0.0051282 743.15 794.85 2.5662 2.3122 3.6706 252.76 0.050648 22.359 0.057856 195.00 0.0051282 743.15 794.85 2.5662 2.3122 3.6706 252.76 0.050648 22.359 0.057856
183.38 1472.1 undefined 745.46 797.51 2.5713 195.00 0.0051282 745.46 797.51 2.5713 2.3152 3.6590 253.81 0.050087 22.389 0.057965 195.00 0.0051282 745.46 797.51 2.5713 2.3152 3.6590 253.81 0.050087 22.389 0.057965
184.38 1481.9 undefined 747.78 800.17 2.5764 195.00 0.0051282 747.78 800.17 2.5764 2.3181 3.6477 254.85 0.049535 22.419 0.058076 195.00 0.0051282 747.78 800.17 2.5764 2.3181 3.6477 254.85 0.049535 22.419 0.058076
185.38 1491.6 undefined 750.10 802.84 2.5814 195.00 0.0051282 750.10 802.84 2.5814 2.3211 3.6367 255.88 0.048992 22.449 0.058187 195.00 0.0051282 750.10 802.84 2.5814 2.3211 3.6367 255.88 0.048992 22.449 0.058187
186.38 1501.4 undefined 752.42 805.51 2.5865 195.00 0.0051282 752.42 805.51 2.5865 2.3240 3.6261 256.91 0.048457 22.479 0.058299 195.00 0.0051282 752.42 805.51 2.5865 2.3240 3.6261 256.91 0.048457 22.479 0.058299
187.38 1511.2 undefined 754.75 808.18 2.5916 195.00 0.0051282 754.75 808.18 2.5916 2.3270 3.6158 257.94 0.047931 22.509 0.058412 195.00 0.0051282 754.75 808.18 2.5916 2.3270 3.6158 257.94 0.047931 22.509 0.058412
188.38 1521.0 undefined 757.08 810.86 2.5966 195.00 0.0051282 757.08 810.86 2.5966 2.3300 3.6058 258.96 0.047412 22.539 0.058525 195.00 0.0051282 757.08 810.86 2.5966 2.3300 3.6058 258.96 0.047412 22.539 0.058525
189.38 1530.8 undefined 759.41 813.53 2.6016 195.00 0.0051282 759.41 813.53 2.6016 2.3330 3.5962 259.98 0.046902 22.568 0.058640 195.00 0.0051282 759.41 813.53 2.6016 2.3330 3.5962 259.98 0.046902 22.568 0.058640
190.38 1540.6 undefined 761.74 816.21 2.6067 195.00 0.0051282 761.74 816.21 2.6067 2.3360 3.5868 261.00 0.046399 22.598 0.058755 195.00 0.0051282 761.74 816.21 2.6067 2.3360 3.5868 261.00 0.046399 22.598 0.058755
191.38 1550.4 undefined 764.08 818.90 2.6117 195.00 0.0051282 764.08 818.90 2.6117 2.3390 3.5777 262.01 0.045904 22.628 0.058871 195.00 0.0051282 764.08 818.90 2.6117 2.3390 3.5777 262.01 0.045904 22.628 0.058871
192.38 1560.2 undefined 766.42 821.58 2.6168 195.00 0.0051282 766.42 821.58 2.6168 2.3420 3.5688 263.02 0.045417 22.658 0.058987 195.00 0.0051282 766.42 821.58 2.6168 2.3420 3.5688 263.02 0.045417 22.658 0.058987
193.38 1569.9 undefined 768.76 824.27 2.6218 195.00 0.0051282 768.76 824.27 2.6218 2.3451 3.5603 264.03 0.044937 22.687 0.059105 195.00 0.0051282 768.76 824.27 2.6218 2.3451 3.5603 264.03 0.044937 22.687 0.059105
194.38 1579.7 undefined 771.11 826.97 2.6268 195.00 0.0051282 771.11 826.97 2.6268 2.3481 3.5520 265.03 0.044464 22.717 0.059223 195.00 0.0051282 771.11 826.97 2.6268 2.3481 3.5520 265.03 0.044464 22.717 0.059223
195.38 1589.5 undefined 773.46 829.66 2.6318 195.00 0.0051282 773.46 829.66 2.6318 2.3512 3.5439 266.03 0.043998 22.746 0.059342 195.00 0.0051282 773.46 829.66 2.6318 2.3512 3.5439 266.03 0.043998 22.746 0.059342
196.38 1599.3 undefined 775.81 832.36 2.6369 195.00 0.0051282 775.81 832.36 2.6369 2.3542 3.5361 267.02 0.043538 22.776 0.059461 195.00 0.0051282 775.81 832.36 2.6369 2.3542 3.5361 267.02 0.043538 22.776 0.059461
197.38 1609.1 undefined 778.17 835.06 2.6419 195.00 0.0051282 778.17 835.06 2.6419 2.3573 3.5285 268.01 0.043086 22.806 0.059581 195.00 0.0051282 778.17 835.06 2.6419 2.3573 3.5285 268.01 0.043086 22.806 0.059581
198.38 1618.8 undefined 780.53 837.77 2.6469 195.00 0.0051282 780.53 837.77 2.6469 2.3604 3.5212 269.00 0.042640 22.835 0.059702 195.00 0.0051282 780.53 837.77 2.6469 2.3604 3.5212 269.00 0.042640 22.835 0.059702
199.38 1628.6 undefined 782.89 840.47 2.6519 195.00 0.0051282 782.89 840.47 2.6519 2.3635 3.5140 269.99 0.042201 22.864 0.059823 195.00 0.0051282 782.89 840.47 2.6519 2.3635 3.5140 269.99 0.042201 22.864 0.059823
200.38 1638.4 undefined 785.25 843.18 2.6569 195.00 0.0051282 785.25 843.18 2.6569 2.3665 3.5071 270.97 0.041768 22.894 0.059945 195.00 0.0051282 785.25 843.18 2.6569 2.3665 3.5071 270.97 0.041768 22.894 0.059945
201.38 1648.1 undefined 787.62 845.90 2.6619 195.00 0.0051282 787.62 845.90 2.6619 2.3696 3.5004 271.95 0.041341 22.923 0.060068 195.00 0.0051282 787.62 845.90 2.6619 2.3696 3.5004 271.95 0.041341 22.923 0.060068
202.38 1657.9 undefined 789.99 848.61 2.6669 195.00 0.0051282 789.99 848.61 2.6669 2.3727 3.4939 272.92 0.040921 22.953 0.060191 195.00 0.0051282 789.99 848.61 2.6669 2.3727 3.4939 272.92 0.040921 22.953 0.060191
203.38 1667.7 undefined 792.37 851.33 2.6718 195.00 0.0051282 792.37 851.33 2.6718 2.3759 3.4876 273.89 0.040506 22.982 0.060315 195.00 0.0051282 792.37 851.33 2.6718 2.3759 3.4876 273.89 0.040506 22.982 0.060315
204.38 1677.4 undefined 794.75 854.06 2.6768 195.00 0.0051282 794.75 854.06 2.6768 2.3790 3.4814 274.86 0.040097 23.011 0.060439 195.00 0.0051282 794.75 854.06 2.6768 2.3790 3.4814 274.86 0.040097 23.011 0.060439
205.38 1687.2 undefined 797.13 856.78 2.6818 195.00 0.0051282 797.13 856.78 2.6818 2.3821 3.4755 275.83 0.039694 23.040 0.060564 195.00 0.0051282 797.13 856.78 2.6818 2.3821 3.4755 275.83 0.039694 23.040 0.060564
206.38 1697.0 undefined 799.51 859.51 2.6868 195.00 0.0051282 799.51 859.51 2.6868 2.3852 3.4697 276.79 0.039296 23.070 0.060690 195.00 0.0051282 799.51 859.51 2.6868 2.3852 3.4697 276.79 0.039296 23.070 0.060690
207.38 1706.7 undefined 801.90 862.24 2.6918 195.00 0.0051282 801.90 862.24 2.6918 2.3884 3.4641 277.75 0.038905 23.099 0.060816 195.00 0.0051282 801.90 862.24 2.6918 2.3884 3.4641 277.75 0.038905 23.099 0.060816
208.38 1716.5 undefined 804.29 864.98 2.6967 195.00 0.0051282 804.29 864.98 2.6967 2.3915 3.4587 278.70 0.038518 23.128 0.060942 195.00 0.0051282 804.29 864.98 2.6967 2.3915 3.4587 278.70 0.038518 23.128 0.060942
209.38 1726.2 undefined 806.68 867.72 2.7017 195.00 0.0051282 806.68 867.72 2.7017 2.3946 3.4534 279.65 0.038137 23.157 0.061070 195.00 0.0051282 806.68 867.72 2.7017 2.3946 3.4534 279.65 0.038137 23.157 0.061070
210.38 1736.0 undefined 809.08 870.46 2.7067 195.00 0.0051282 809.08 870.46 2.7067 2.3978 3.4483 280.60 0.037761 23.186 0.061197 195.00 0.0051282 809.08 870.46 2.7067 2.3978 3.4483 280.60 0.037761 23.186 0.061197
211.38 1745.8 undefined 811.47 873.20 2.7116 195.00 0.0051282 811.47 873.20 2.7116 2.4009 3.4434 281.55 0.037390 23.215 0.061325 195.00 0.0051282 811.47 873.20 2.7116 2.4009 3.4434 281.55 0.037390 23.215 0.061325
212.38 1755.5 undefined 813.88 875.95 2.7166 195.00 0.0051282 813.88 875.95 2.7166 2.4041 3.4386 282.49 0.037024 23.244 0.061454 195.00 0.0051282 813.88 875.95 2.7166 2.4041 3.4386 282.49 0.037024 23.244 0.061454
213.38 1765.3 undefined 816.28 878.70 2.7215 195.00 0.0051282 816.28 878.70 2.7215 2.4073 3.4339 283.43 0.036663 23.273 0.061583 195.00 0.0051282 816.28 878.70 2.7215 2.4073 3.4339 283.43 0.036663 23.273 0.061583
214.38 1775.0 undefined 818.69 881.45 2.7265 195.00 0.0051282 818.69 881.45 2.7265 2.4104 3.4294 284.37 0.036307 23.302 0.061713 195.00 0.0051282 818.69 881.45 2.7265 2.4104 3.4294 284.37 0.036307 23.302 0.061713
215.38 1784.7 undefined 821.10 884.21 2.7314 195.00 0.0051282 821.10 884.21 2.7314 2.4136 3.4251 285.31 0.035956 23.331 0.061843 195.00 0.0051282 821.10 884.21 2.7314 2.4136 3.4251 285.31 0.035956 23.331 0.061843
216.38 1794.5 undefined 823.52 886.97 2.7363 195.00 0.0051282 823.52 886.97 2.7363 2.4168 3.4208 286.24 0.035609 23.360 0.061974 195.00 0.0051282 823.52 886.97 2.7363 2.4168 3.4208 286.24 0.035609 23.360 0.061974
217.38 1804.2 undefined 825.94 889.73 2.7413 195.00 0.0051282 825.94 889.73 2.7413 2.4200 3.4167 287.17 0.035267 23.389 0.062105 195.00 0.0051282 825.94 889.73 2.7413 2.4200 3.4167 287.17 0.035267 23.389 0.062105
218.38 1814.0 undefined 828.36 892.50 2.7462 195.00 0.0051282 828.36 892.50 2.7462 2.4231 3.4128 288.09 0.034930 23.418 0.062236 195.00 0.0051282 828.36 892.50 2.7462 2.4231 3.4128 288.09 0.034930 23.418 0.062236
219.38 1823.7 undefined 830.78 895.27 2.7511 195.00 0.0051282 830.78 895.27 2.7511 2.4263 3.4089 289.01 0.034597 23.446 0.062368 195.00 0.0051282 830.78 895.27 2.7511 2.4263 3.4089 289.01 0.034597 23.446 0.062368
220.38 1833.5 undefined 833.21 898.04 2.7561 195.00 0.0051282 833.21 898.04 2.7561 2.4295 3.4052 289.93 0.034268 23.475 0.062501 195.00 0.0051282 833.21 898.04 2.7561 2.4295 3.4052 289.93 0.034268 23.475 0.062501
221.38 1843.2 undefined 835.64 900.81 2.7610 195.00 0.0051282 835.64 900.81 2.7610 2.4327 3.4016 290.85 0.033943 23.504 0.062633 195.00 0.0051282 835.64 900.81 2.7610 2.4327 3.4016 290.85 0.033943 23.504 0.062633
222.38 1852.9 undefined 838.08 903.59 2.7659 195.00 0.0051282 838.08 903.59 2.7659 2.4359 3.3981 291.77 0.033623 23.532 0.062767 195.00 0.0051282 838.08 903.59 2.7659 2.4359 3.3981 291.77 0.033623 23.532 0.062767
223.38 1862.7 undefined 840.51 906.37 2.7708 195.00 0.0051282 840.51 906.37 2.7708 2.4391 3.3947 292.68 0.033307 23.561 0.062900 195.00 0.0051282 840.51 906.37 2.7708 2.4391 3.3947 292.68 0.033307 23.561 0.062900
224.38 1872.4 undefined 842.96 909.16 2.7757 195.00 0.0051282 842.96 909.16 2.7757 2.4423 3.3915 293.59 0.032995 23.590 0.063035 195.00 0.0051282 842.96 909.16 2.7757 2.4423 3.3915 293.59 0.032995 23.590 0.063035
225.38 1882.1 undefined 845.40 911.95 2.7806 195.00 0.0051282 845.40 911.95 2.7806 2.4455 3.3883 294.49 0.032687 23.618 0.063169 195.00 0.0051282 845.40 911.95 2.7806 2.4455 3.3883 294.49 0.032687 23.618 0.063169
226.38 1891.9 undefined 847.85 914.74 2.7855 195.00 0.0051282 847.85 914.74 2.7855 2.4487 3.3853 295.40 0.032382 23.647 0.063304 195.00 0.0051282 847.85 914.74 2.7855 2.4487 3.3853 295.40 0.032382 23.647 0.063304
227.38 1901.6 undefined 850.30 917.53 2.7904 195.00 0.0051282 850.30 917.53 2.7904 2.4520 3.3823 296.30 0.032082 23.675 0.063439 195.00 0.0051282 850.30 917.53 2.7904 2.4520 3.3823 296.30 0.032082 23.675 0.063439
228.38 1911.3 undefined 852.75 920.33 2.7953 195.00 0.0051282 852.75 920.33 2.7953 2.4552 3.3795 297.20 0.031785 23.704 0.063575 195.00 0.0051282 852.75 920.33 2.7953 2.4552 3.3795 297.20 0.031785 23.704 0.063575
229.38 1921.0 undefined 855.21 923.13 2.8002 195.00 0.0051282 855.21 923.13 2.8002 2.4584 3.3767 298.09 0.031492 23.732 0.063711 195.00 0.0051282 855.21 923.13 2.8002 2.4584 3.3767 298.09 0.031492 23.732 0.063711
230.38 1930.8 undefined 857.67 925.93 2.8051 195.00 0.0051282 857.67 925.93 2.8051 2.4616 3.3741 298.99 0.031203 23.760 0.063848 195.00 0.0051282 857.67 925.93 2.8051 2.4616 3.3741 298.99 0.031203 23.760 0.063848
231.38 1940.5 undefined 860.13 928.74 2.8100 195.00 0.0051282 860.13 928.74 2.8100 2.4649 3.3715 299.88 0.030917 23.789 0.063984 195.00 0.0051282 860.13 928.74 2.8100 2.4649 3.3715 299.88 0.030917 23.789 0.063984
232.38 1950.2 undefined 862.60 931.55 2.8149 195.00 0.0051282 862.60 931.55 2.8149 2.4681 3.3691 300.76 0.030635 23.817 0.064122 195.00 0.0051282 862.60 931.55 2.8149 2.4681 3.3691 300.76 0.030635 23.817 0.064122
233.38 1959.9 undefined 865.07 934.37 2.8198 195.00 0.0051282 865.07 934.37 2.8198 2.4713 3.3667 301.65 0.030356 23.845 0.064259 195.00 0.0051282 865.07 934.37 2.8198 2.4713 3.3667 301.65 0.030356 23.845 0.064259
234.38 1969.7 undefined 867.54 937.18 2.8246 195.00 0.0051282 867.54 937.18 2.8246 2.4745 3.3644 302.53 0.030081 23.874 0.064397 195.00 0.0051282 867.54 937.18 2.8246 2.4745 3.3644 302.53 0.030081 23.874 0.064397
235.38 1979.4 undefined 870.02 940.00 2.8295 195.00 0.0051282 870.02 940.00 2.8295 2.4778 3.3622 303.41 0.029809 23.902 0.064535 195.00 0.0051282 870.02 940.00 2.8295 2.4778 3.3622 303.41 0.029809 23.902 0.064535
236.38 1989.1 undefined 872.49 942.82 2.8344 195.00 0.0051282 872.49 942.82 2.8344 2.4810 3.3601 304.29 0.029540 23.930 0.064674 195.00 0.0051282 872.49 942.82 2.8344 2.4810 3.3601 304.29 0.029540 23.930 0.064674
237.38 1998.8 undefined 874.98 945.65 2.8393 195.00 0.0051282 874.98 945.65 2.8393 2.4843 3.3581 305.17 0.029275 23.958 0.064813 195.00 0.0051282 874.98 945.65 2.8393 2.4843 3.3581 305.17 0.029275 23.958 0.064813
238.38 2008.5 undefined 877.46 948.48 2.8441 195.00 0.0051282 877.46 948.48 2.8441 2.4875 3.3561 306.04 0.029013 23.986 0.064952 195.00 0.0051282 877.46 948.48 2.8441 2.4875 3.3561 306.04 0.029013 23.986 0.064952
239.38 2018.2 undefined 879.95 951.31 2.8490 195.00 0.0051282 879.95 951.31 2.8490 2.4907 3.3542 306.91 0.028754 24.015 0.065092 195.00 0.0051282 879.95 951.31 2.8490 2.4907 3.3542 306.91 0.028754 24.015 0.065092
240.38 2027.9 undefined 882.44 954.15 2.8538 195.00 0.0051282 882.44 954.15 2.8538 2.4940 3.3524 307.78 0.028498 24.043 0.065231 195.00 0.0051282 882.44 954.15 2.8538 2.4940 3.3524 307.78 0.028498 24.043 0.065231
241.38 2037.6 undefined 884.94 956.99 2.8587 195.00 0.0051282 884.94 956.99 2.8587 2.4972 3.3507 308.64 0.028245 24.071 0.065372 195.00 0.0051282 884.94 956.99 2.8587 2.4972 3.3507 308.64 0.028245 24.071 0.065372
242.38 2047.3 undefined 887.44 959.83 2.8636 195.00 0.0051282 887.44 959.83 2.8636 2.5005 3.3490 309.51 0.027995 24.099 0.065512 195.00 0.0051282 887.44 959.83 2.8636 2.5005 3.3490 309.51 0.027995 24.099 0.065512
243.38 2057.0 undefined 889.94 962.67 2.8684 195.00 0.0051282 889.94 962.67 2.8684 2.5037 3.3475 310.37 0.027748 24.127 0.065653 195.00 0.0051282 889.94 962.67 2.8684 2.5037 3.3475 310.37 0.027748 24.127 0.065653
244.38 2066.7 undefined 892.45 965.52 2.8732 195.00 0.0051282 892.45 965.52 2.8732 2.5070 3.3460 311.23 0.027503 24.155 0.065794 195.00 0.0051282 892.45 965.52 2.8732 2.5070 3.3460 311.23 0.027503 24.155 0.065794
245.38 2076.4 undefined 894.96 968.37 2.8781 195.00 0.0051282 894.96 968.37 2.8781 2.5102 3.3445 312.08 0.027262 24.183 0.065935 195.00 0.0051282 894.96 968.37 2.8781 2.5102 3.3445 312.08 0.027262 24.183 0.065935
246.38 2086.1 undefined 897.47 971.23 2.8829 195.00 0.0051282 897.47 971.23 2.8829 2.5135 3.3431 312.94 0.027024 24.210 0.066077 195.00 0.0051282 897.47 971.23 2.8829 2.5135 3.3431 312.94 0.027024 24.210 0.066077
247.38 2095.8 undefined 899.98 974.09 2.8878 195.00 0.0051282 899.98 974.09 2.8878 2.5167 3.3418 313.79 0.026788 24.238 0.066218 195.00 0.0051282 899.98 974.09 2.8878 2.5167 3.3418 313.79 0.026788 24.238 0.066218
248.38 2105.5 undefined 902.50 976.95 2.8926 195.00 0.0051282 902.50 976.95 2.8926 2.5200 3.3406 314.64 0.026555 24.266 0.066360 195.00 0.0051282 902.50 976.95 2.8926 2.5200 3.3406 314.64 0.026555 24.266 0.066360
249.38 2115.2 undefined 905.02 979.81 2.8974 195.00 0.0051282 905.02 979.81 2.8974 2.5233 3.3394 315.49 0.026325 24.294 0.066503 195.00 0.0051282 905.02 979.81 2.8974 2.5233 3.3394 315.49 0.026325 24.294 0.066503
250.38 2124.9 undefined 907.55 982.68 2.9023 195.00 0.0051282 907.55 982.68 2.9023 2.5265 3.3383 316.33 0.026097 24.322 0.066645 195.00 0.0051282 907.55 982.68 2.9023 2.5265 3.3383 316.33 0.026097 24.322 0.066645
251.38 2134.6 undefined 910.08 985.55 2.9071 195.00 0.0051282 910.08 985.55 2.9071 2.5298 3.3372 317.17 0.025872 24.349 0.066788 195.00 0.0051282 910.08 985.55 2.9071 2.5298 3.3372 317.17 0.025872 24.349 0.066788
252.38 2144.3 undefined 912.61 988.42 2.9119 195.00 0.0051282 912.61 988.42 2.9119 2.5330 3.3362 318.01 0.025649 24.377 0.066931 195.00 0.0051282 912.61 988.42 2.9119 2.5330 3.3362 318.01 0.025649 24.377 0.066931
253.38 2154.0 undefined 915.14 991.30 2.9167 195.00 0.0051282 915.14 991.30 2.9167 2.5363 3.3352 318.85 0.025429 24.405 0.067074 195.00 0.0051282 915.14 991.30 2.9167 2.5363 3.3352 318.85 0.025429 24.405 0.067074
254.38 2163.7 undefined 917.68 994.18 2.9215 195.00 0.0051282 917.68 994.18 2.9215 2.5396 3.3344 319.69 0.025212 24.432 0.067217 195.00 0.0051282 917.68 994.18 2.9215 2.5396 3.3344 319.69 0.025212 24.432 0.067217
255.38 2173.4 undefined 920.22 997.07 2.9263 195.00 0.0051282 920.22 997.07 2.9263 2.5428 3.3335 320.52 0.024997 24.460 0.067360 195.00 0.0051282 920.22 997.07 2.9263 2.5428 3.3335 320.52 0.024997 24.460 0.067360
256.38 2183.0 undefined 922.77 999.95 2.9312 195.00 0.0051282 922.77 999.95 2.9312 2.5461 3.3327 321.35 0.024784 24.487 0.067504 195.00 0.0051282 922.77 999.95 2.9312 2.5461 3.3327 321.35 0.024784 24.487 0.067504
257.38 2192.7 undefined 925.31 1002.8 2.9360 195.00 0.0051282 925.31 1002.8 2.9360 2.5493 3.3320 322.18 0.024574 24.515 0.067647 195.00 0.0051282 925.31 1002.8 2.9360 2.5493 3.3320 322.18 0.024574 24.515 0.067647
258.38 2202.4 undefined 927.86 1005.7 2.9408 195.00 0.0051282 927.86 1005.7 2.9408 2.5526 3.3313 323.01 0.024366 24.542 0.067791 195.00 0.0051282 927.86 1005.7 2.9408 2.5526 3.3313 323.01 0.024366 24.542 0.067791
259.38 2212.1 undefined 930.42 1008.6 2.9456 195.00 0.0051282 930.42 1008.6 2.9456 2.5559 3.3307 323.84 0.024160 24.570 0.067935 195.00 0.0051282 930.42 1008.6 2.9456 2.5559 3.3307 323.84 0.024160 24.570 0.067935
260.38 2221.8 undefined 932.98 1011.5 2.9504 195.00 0.0051282 932.98 1011.5 2.9504 2.5591 3.3301 324.66 0.023956 24.597 0.068079 195.00 0.0051282 932.98 1011.5 2.9504 2.5591 3.3301 324.66 0.023956 24.597 0.068079
261.38 2231.4 undefined 935.54 1014.4 2.9552 195.00 0.0051282 935.54 1014.4 2.9552 2.5624 3.3296 325.48 0.023755 24.625 0.068222 195.00 0.0051282 935.54 1014.4 2.9552 2.5624 3.3296 325.48 0.023755 24.625 0.068222
262.38 2241.1 undefined 938.10 1017.3 2.9600 195.00 0.0051282 938.10 1017.3 2.9600 2.5657 3.3291 326.30 0.023556 24.652 0.068366 195.00 0.0051282 938.10 1017.3 2.9600 2.5657 3.3291 326.30 0.023556 24.652 0.068366
263.38 2250.8 undefined 940.67 1020.2 2.9647 195.00 0.0051282 940.67 1020.2 2.9647 2.5689 3.3287 327.12 0.023359 24.679 0.068510 195.00 0.0051282 940.67 1020.2 2.9647 2.5689 3.3287 327.12 0.023359 24.679 0.068510
264.38 2260.4 undefined 943.24 1023.2 2.9695 195.00 0.0051282 943.24 1023.2 2.9695 2.5722 3.3283 327.93 0.023165 24.707 0.068654 195.00 0.0051282 943.24 1023.2 2.9695 2.5722 3.3283 327.93 0.023165 24.707 0.068654
265.38 2270.1 undefined 945.81 1026.1 2.9743 195.00 0.0051282 945.81 1026.1 2.9743 2.5755 3.3280 328.75 0.022972 24.734 0.068797 195.00 0.0051282 945.81 1026.1 2.9743 2.5755 3.3280 328.75 0.022972 24.734 0.068797
266.38 2279.8 undefined 948.39 1029.0 2.9791 195.00 0.0051282 948.39 1029.0 2.9791 2.5787 3.3277 329.56 0.022781 24.761 0.068941 195.00 0.0051282 948.39 1029.0 2.9791 2.5787 3.3277 329.56 0.022781 24.761 0.068941
267.38 2289.5 undefined 950.97 1031.9 2.9839 195.00 0.0051282 950.97 1031.9 2.9839 2.5820 3.3274 330.37 0.022593 24.788 0.069084 195.00 0.0051282 950.97 1031.9 2.9839 2.5820 3.3274 330.37 0.022593 24.788 0.069084
268.38 2299.1 undefined 953.55 1034.8 2.9886 195.00 0.0051282 953.55 1034.8 2.9886 2.5853 3.3272 331.17 0.022407 24.816 0.069227 195.00 0.0051282 953.55 1034.8 2.9886 2.5853 3.3272 331.17 0.022407 24.816 0.069227
269.38 2308.8 undefined 956.14 1037.8 2.9934 195.00 0.0051282 956.14 1037.8 2.9934 2.5885 3.3271 331.98 0.022222 24.843 0.069369 195.00 0.0051282 956.14 1037.8 2.9934 2.5885 3.3271 331.98 0.022222 24.843 0.069369
270.38 2318.4 undefined 958.73 1040.7 2.9982 195.00 0.0051282 958.73 1040.7 2.9982 2.5918 3.3269 332.78 0.022039 24.870 0.069511 195.00 0.0051282 958.73 1040.7 2.9982 2.5918 3.3269 332.78 0.022039 24.870 0.069511
271.38 2328.1 undefined 961.32 1043.6 3.0030 195.00 0.0051282 961.32 1043.6 3.0030 2.5950 3.3268 333.58 0.021859 24.897 0.069653 195.00 0.0051282 961.32 1043.6 3.0030 2.5950 3.3268 333.58 0.021859 24.897 0.069653
272.38 2337.8 undefined 963.92 1046.6 3.0077 195.00 0.0051282 963.92 1046.6 3.0077 2.5983 3.3268 334.38 0.021680 24.924 0.069794 195.00 0.0051282 963.92 1046.6 3.0077 2.5983 3.3268 334.38 0.021680 24.924 0.069794
273.38 2347.4 undefined 966.52 1049.5 3.0125 195.00 0.0051282 966.52 1049.5 3.0125 2.6016 3.3268 335.18 0.021503 24.951 0.069933 195.00 0.0051282 966.52 1049.5 3.0125 2.6016 3.3268 335.18 0.021503 24.951 0.069933
274.38 2357.1 undefined 969.12 1052.5 3.0172 195.00 0.0051282 969.12 1052.5 3.0172 2.6048 3.3268 335.98 0.021328 24.978 0.070072 195.00 0.0051282 969.12 1052.5 3.0172 2.6048 3.3268 335.98 0.021328 24.978 0.070072
275.38 2366.7 undefined 971.73 1055.4 3.0220 195.00 0.0051282 971.73 1055.4 3.0220 2.6081 3.3269 336.77 0.021155 25.005 0.070209 195.00 0.0051282 971.73 1055.4 3.0220 2.6081 3.3269 336.77 0.021155 25.005 0.070209
276.38 2376.4 undefined 974.34 1058.4 3.0268 195.00 0.0051282 974.34 1058.4 3.0268 2.6114 3.3270 337.56 0.020984 25.032 0.070344 195.00 0.0051282 974.34 1058.4 3.0268 2.6114 3.3270 337.56 0.020984 25.032 0.070344
277.38 2386.0 undefined 976.95 1061.3 3.0315 195.00 0.0051282 976.95 1061.3 3.0315 2.6146 3.3271 338.35 0.020814 25.059 0.070476 195.00 0.0051282 976.95 1061.3 3.0315 2.6146 3.3271 338.35 0.020814 25.059 0.070476
278.38 2395.7 undefined 979.57 1064.3 3.0363 195.00 0.0051282 979.57 1064.3 3.0363 2.6179 3.3273 339.14 0.020646 25.086 0.070604 195.00 0.0051282 979.57 1064.3 3.0363 2.6179 3.3273 339.14 0.020646 25.086 0.070604
279.38 2405.3 undefined 982.19 1067.2 3.0410 195.00 0.0051282 982.19 1067.2 3.0410 2.6211 3.3275 339.92 0.020480 25.112 0.070726 195.00 0.0051282 982.19 1067.2 3.0410 2.6211 3.3275 339.92 0.020480 25.112 0.070726
280.38 2415.0 undefined 984.81 1070.2 3.0457 195.00 0.0051282 984.81 1070.2 3.0457 2.6244 3.3278 340.71 0.020316 25.139 0.070836 195.00 0.0051282 984.81 1070.2 3.0457 2.6244 3.3278 340.71 0.020316 25.139 0.070836
281.38 2424.6 undefined 987.44 1073.2 3.0505 195.00 0.0051282 987.44 1073.2 3.0505 2.6277 3.3281 341.49 0.020153 25.166 0.070908 195.00 0.0051282 987.44 1073.2 3.0505 2.6277 3.3281 341.49 0.020153 25.166 0.070908
282.38 2434.3 undefined 990.07 1076.1 3.0552 195.00 0.0051282 990.07 1076.1 3.0552 2.6309 3.3284 342.27 0.019992 25.193 0.071009 195.00 0.0051282 990.07 1076.1 3.0552 2.6309 3.3284 342.27 0.019992 25.193 0.071009
283.38 2443.9 undefined 992.70 1079.1 3.0600 195.00 0.0051282 992.70 1079.1 3.0600 2.6342 3.3287 343.05 0.019833 25.219 0.071179 195.00 0.0051282 992.70 1079.1 3.0600 2.6342 3.3287 343.05 0.019833 25.219 0.071179
284.38 2453.6 undefined 995.33 1082.1 3.0647 195.00 0.0051282 995.33 1082.1 3.0647 2.6374 3.3291 343.83 0.019675 25.246 0.071349 195.00 0.0051282 995.33 1082.1 3.0647 2.6374 3.3291 343.83 0.019675 25.246 0.071349
285.38 2463.2 undefined 997.97 1085.1 3.0694 195.00 0.0051282 997.97 1085.1 3.0694 2.6407 3.3295 344.60 0.019519 25.273 0.071519 195.00 0.0051282 997.97 1085.1 3.0694 2.6407 3.3295 344.60 0.019519 25.273 0.071519
286.38 2472.8 undefined 1000.6 1088.0 3.0741 195.00 0.0051282 1000.6 1088.0 3.0741 2.6439 3.3299 345.37 0.019364 25.299 0.071689 195.00 0.0051282 1000.6 1088.0 3.0741 2.6439 3.3299 345.37 0.019364 25.299 0.071689
287.38 2482.5 undefined 1003.3 1091.0 3.0789 195.00 0.0051282 1003.3 1091.0 3.0789 2.6472 3.3304 346.15 0.019211 25.326 0.071860 195.00 0.0051282 1003.3 1091.0 3.0789 2.6472 3.3304 346.15 0.019211 25.326 0.071860
288.38 2492.1 undefined 1005.9 1094.0 3.0836 195.00 0.0051282 1005.9 1094.0 3.0836 2.6504 3.3309 346.92 0.019059 25.353 0.072030 195.00 0.0051282 1005.9 1094.0 3.0836 2.6504 3.3309 346.92 0.019059 25.353 0.072030
289.38 2501.7 undefined 1008.6 1097.0 3.0883 195.00 0.0051282 1008.6 1097.0 3.0883 2.6537 3.3314 347.68 0.018909 25.379 0.072202 195.00 0.0051282 1008.6 1097.0 3.0883 2.6537 3.3314 347.68 0.018909 25.379 0.072202
290.38 2511.4 undefined 1011.2 1100.0 3.0930 195.00 0.0051282 1011.2 1100.0 3.0930 2.6569 3.3320 348.45 0.018761 25.406 0.072373 195.00 0.0051282 1011.2 1100.0 3.0930 2.6569 3.3320 348.45 0.018761 25.406 0.072373
291.38 2521.0 undefined 1013.9 1103.0 3.0977 195.00 0.0051282 1013.9 1103.0 3.0977 2.6602 3.3325 349.21 0.018613 25.432 0.072545 195.00 0.0051282 1013.9 1103.0 3.0977 2.6602 3.3325 349.21 0.018613 25.432 0.072545
292.38 2530.6 undefined 1016.5 1106.0 3.1024 195.00 0.0051282 1016.5 1106.0 3.1024 2.6634 3.3332 349.98 0.018468 25.458 0.072717 195.00 0.0051282 1016.5 1106.0 3.1024 2.6634 3.3332 349.98 0.018468 25.458 0.072717
293.38 2540.3 undefined 1019.2 1109.0 3.1072 195.00 0.0051282 1019.2 1109.0 3.1072 2.6667 3.3338 350.74 0.018323 25.485 0.072889 195.00 0.0051282 1019.2 1109.0 3.1072 2.6667 3.3338 350.74 0.018323 25.485 0.072889
294.38 2549.9 undefined 1021.9 1112.0 3.1119 195.00 0.0051282 1021.9 1112.0 3.1119 2.6699 3.3344 351.50 0.018181 25.511 0.073062 195.00 0.0051282 1021.9 1112.0 3.1119 2.6699 3.3344 351.50 0.018181 25.511 0.073062
295.38 2559.5 undefined 1024.5 1115.0 3.1166 195.00 0.0051282 1024.5 1115.0 3.1166 2.6731 3.3351 352.26 0.018039 25.538 0.073235 195.00 0.0051282 1024.5 1115.0 3.1166 2.6731 3.3351 352.26 0.018039 25.538 0.073235
296.38 2569.1 undefined 1027.2 1118.1 3.1213 195.00 0.0051282 1027.2 1118.1 3.1213 2.6764 3.3358 353.01 0.017899 25.564 0.073408 195.00 0.0051282 1027.2 1118.1 3.1213 2.6764 3.3358 353.01 0.017899 25.564 0.073408
297.38 2578.8 undefined 1029.9 1121.1 3.1260 195.00 0.0051282 1029.9 1121.1 3.1260 2.6796 3.3366 353.77 0.017760 25.590 0.073582 195.00 0.0051282 1029.9 1121.1 3.1260 2.6796 3.3366 353.77 0.017760 25.590 0.073582
298.38 2588.4 undefined 1032.6 1124.1 3.1307 195.00 0.0051282 1032.6 1124.1 3.1307 2.6829 3.3373 354.52 0.017623 25.616 0.073755 195.00 0.0051282 1032.6 1124.1 3.1307 2.6829 3.3373 354.52 0.017623 25.616 0.073755
299.38 2598.0 undefined 1035.3 1127.1 3.1353 195.00 0.0051282 1035.3 1127.1 3.1353 2.6861 3.3381 355.27 0.017487 25.643 0.073929 195.00 0.0051282 1035.3 1127.1 3.1353 2.6861 3.3381 355.27 0.017487 25.643 0.073929
300.38 2607.6 undefined 1037.9 1130.1 3.1400 195.00 0.0051282 1037.9 1130.1 3.1400 2.6893 3.3389 356.02 0.017352 25.669 0.074104 195.00 0.0051282 1037.9 1130.1 3.1400 2.6893 3.3389 356.02 0.017352 25.669 0.074104