Temperature (C) Pressure (psia) Quality (l+v) Internal Energy (l+v, kJ/kg) Enthalpy (l+v, kJ/kg) Entropy (l+v, J/g*K) Density (l, kg/m3) Volume (l, m3/kg) Internal Energy (l, kJ/kg) Enthalpy (l, kJ/kg) Entropy (l, J/g*K) Cv (l, J/g*K) Cp (l, J/g*K) Sound Spd. (l, m/s) Joule-Thomson (l, F/psia) Viscosity (l, uPa*s) Therm. Cond. (l, W/m*K) Density (v, kg/m3) Volume (v, m3/kg) Internal Energy (v, kJ/kg) Enthalpy (v, kJ/kg) Entropy (v, J/g*K) Cv (v, J/g*K) Cp (v, J/g*K) Sound Spd. (v, m/s) Joule-Thomson (v, F/psia) Viscosity (v, uPa*s) Therm. Cond. (v, W/m*K)
-187.62 2.4953e-08 3.8791e-11 -196.64 -196.64 -1.3959 733.13 0.0013640 -196.64 -196.64 -1.3959 1.3553 1.9158 2136.4 -0.0077592 10960. 0.20792 1.0669e-08 9.3732e+07 350.13 366.26 5.1858 0.69067 0.87923 143.28 6.1051 2.3259 0.0017061
-186.62 3.7339e-08 5.7345e-11 -194.73 -194.73 -1.3736 732.08 0.0013660 -194.73 -194.73 -1.3736 1.3539 1.9166 2129.6 -0.0077546 10073. 0.20765 1.5780e-08 6.3371e+07 350.82 367.14 5.1200 0.69462 0.88317 144.03 5.9178 2.3534 0.0017533
-185.62 5.5322e-08 8.3946e-11 -192.81 -192.81 -1.3516 731.04 0.0013679 -192.81 -192.81 -1.3516 1.3525 1.9174 2122.9 -0.0077498 9276.1 0.20737 2.3112e-08 4.3267e+07 351.52 368.02 5.0561 0.69857 0.88713 144.77 5.7383 2.3808 0.0018007
-184.62 8.1182e-08 1.2173e-10 -190.89 -190.89 -1.3298 730.00 0.0013699 -190.89 -190.89 -1.3298 1.3513 1.9182 2116.1 -0.0077448 8557.8 0.20708 3.3533e-08 2.9821e+07 352.22 368.91 4.9939 0.70253 0.89108 145.51 5.5662 2.4083 0.0018485
-183.62 1.1803e-07 1.7492e-10 -188.97 -188.97 -1.3083 728.96 0.0013718 -188.97 -188.97 -1.3083 1.3501 1.9191 2109.3 -0.0077395 7909.8 0.20678 4.8211e-08 2.0742e+07 352.92 369.81 4.9333 0.70648 0.89504 146.24 5.4011 2.4357 0.0018965
-182.62 1.7009e-07 2.4914e-10 -187.05 -187.05 -1.2869 727.92 0.0013738 -187.05 -187.05 -1.2869 1.3490 1.9201 2102.5 -0.0077340 7324.3 0.20647 6.8704e-08 1.4555e+07 353.63 370.70 4.8744 0.71043 0.89899 146.97 5.2426 2.4632 0.0019448
-181.62 2.4299e-07 3.5184e-10 -185.13 -185.13 -1.2658 726.88 0.0013757 -185.13 -185.13 -1.2658 1.3480 1.9210 2095.7 -0.0077283 6794.5 0.20616 9.7079e-08 1.0301e+07 354.35 371.60 4.8170 0.71438 0.90294 147.69 5.0904 2.4906 0.0019934
-180.62 3.4425e-07 4.9281e-10 -183.21 -183.21 -1.2450 725.85 0.0013777 -183.21 -183.21 -1.2450 1.3470 1.9220 2088.9 -0.0077225 6314.4 0.20584 1.3605e-07 7.3504e+06 355.06 372.51 4.7612 0.71833 0.90688 148.41 4.9442 2.5181 0.0020423
-179.62 4.8378e-07 6.8478e-10 -181.29 -181.29 -1.2243 724.81 0.0013797 -181.29 -181.29 -1.2243 1.3461 1.9231 2082.0 -0.0077164 5878.8 0.20551 1.8915e-07 5.2868e+06 355.78 373.42 4.7068 0.72227 0.91082 149.13 4.8038 2.5456 0.0020915
-178.62 6.7459e-07 9.4425e-10 -179.37 -179.37 -1.2038 723.78 0.0013816 -179.37 -179.37 -1.2038 1.3453 1.9241 2075.2 -0.0077102 5482.9 0.20517 2.6096e-07 3.8320e+06 356.51 374.33 4.6538 0.72620 0.91475 149.84 4.6688 2.5731 0.0021410
-177.62 9.3358e-07 1.2924e-09 -177.44 -177.44 -1.1836 722.75 0.0013836 -177.44 -177.44 -1.1836 1.3445 1.9252 2068.4 -0.0077039 5122.6 0.20483 3.5737e-07 2.7982e+06 357.23 375.25 4.6022 0.73012 0.91867 150.54 4.5390 2.6005 0.0021907
-176.62 1.2826e-06 1.7562e-09 -175.52 -175.52 -1.1635 721.72 0.0013856 -175.52 -175.52 -1.1635 1.3437 1.9263 2061.5 -0.0076973 4794.1 0.20447 4.8588e-07 2.0581e+06 357.97 376.17 4.5519 0.73403 0.92258 151.25 4.4142 2.6280 0.0022408
-175.62 1.7496e-06 2.3698e-09 -173.59 -173.59 -1.1437 720.69 0.0013876 -173.59 -173.59 -1.1437 1.3430 1.9274 2054.7 -0.0076907 4494.3 0.20411 6.5601e-07 1.5244e+06 358.70 377.09 4.5029 0.73792 0.92648 151.95 4.2941 2.6555 0.0022912
-174.62 2.3705e-06 3.1763e-09 -171.66 -171.66 -1.1240 719.66 0.0013895 -171.66 -171.66 -1.1240 1.3423 1.9286 2047.9 -0.0076838 4220.2 0.20375 8.7976e-07 1.1367e+06 359.44 378.02 4.4551 0.74181 0.93036 152.64 4.1784 2.6830 0.0023418
-173.62 3.1903e-06 4.2296e-09 -169.73 -169.73 -1.1045 718.64 0.0013915 -169.73 -169.73 -1.1045 1.3417 1.9298 2041.0 -0.0076769 3969.3 0.20338 1.1721e-06 8.5314e+05 360.19 378.95 4.4085 0.74568 0.93423 153.33 4.0671 2.7105 0.0023928
-172.62 4.2661e-06 5.5966e-09 -167.80 -167.80 -1.0852 717.61 0.0013935 -167.80 -167.80 -1.0852 1.3411 1.9310 2034.2 -0.0076698 3739.3 0.20300 1.5518e-06 6.4441e+05 360.93 379.89 4.3631 0.74953 0.93809 154.02 3.9599 2.7379 0.0024440
-171.62 5.6692e-06 7.3600e-09 -165.87 -165.87 -1.0661 716.58 0.0013955 -165.87 -165.87 -1.0661 1.3405 1.9322 2027.3 -0.0076625 3528.0 0.20261 2.0419e-06 4.8974e+05 361.69 380.83 4.3188 0.75337 0.94193 154.71 3.8566 2.7654 0.0024955
-170.62 7.4884e-06 9.6215e-09 -163.94 -163.94 -1.0472 715.56 0.0013975 -163.94 -163.94 -1.0472 1.3400 1.9334 2020.5 -0.0076552 3333.8 0.20222 2.6708e-06 3.7442e+05 362.44 381.77 4.2755 0.75720 0.94575 155.39 3.7570 2.7929 0.0025473
-169.62 9.8334e-06 1.2506e-08 -162.00 -162.00 -1.0284 714.54 0.0013995 -162.00 -162.00 -1.0284 1.3395 1.9347 2013.6 -0.0076477 3154.9 0.20182 3.4733e-06 2.8791e+05 363.20 382.72 4.2334 0.76100 0.94956 156.07 3.6609 2.8204 0.0025994
-168.62 1.2839e-05 1.6163e-08 -160.07 -160.07 -1.0098 713.52 0.0014015 -160.07 -160.07 -1.0098 1.3390 1.9359 2006.8 -0.0076401 2989.9 0.20141 4.4917e-06 2.2263e+05 363.96 383.67 4.1922 0.76479 0.95335 156.74 3.5683 2.8479 0.0026518
-167.62 1.6672e-05 2.0777e-08 -158.13 -158.13 -0.99134 712.49 0.0014035 -158.13 -158.13 -0.99134 1.3386 1.9372 2000.0 -0.0076323 2837.5 0.20100 5.7771e-06 1.7310e+05 364.73 384.63 4.1521 0.76856 0.95712 157.41 3.4790 2.8754 0.0027045
-166.62 2.1533e-05 2.6568e-08 -156.19 -156.19 -0.97306 711.47 0.0014055 -156.19 -156.19 -0.97306 1.3382 1.9385 1993.1 -0.0076245 2696.5 0.20058 7.3914e-06 1.3529e+05 365.50 385.59 4.1129 0.77232 0.96087 158.08 3.3927 2.9029 0.0027575
-165.62 2.7666e-05 3.3799e-08 -154.25 -154.25 -0.95494 710.45 0.0014075 -154.25 -154.25 -0.95494 1.3378 1.9398 1986.3 -0.0076165 2566.0 0.20016 9.4084e-06 1.0629e+05 366.27 386.55 4.0746 0.77605 0.96460 158.75 3.3095 2.9304 0.0028108
-164.62 3.5367e-05 4.2785e-08 -152.31 -152.31 -0.93698 709.44 0.0014096 -152.31 -152.31 -0.93698 1.3375 1.9411 1979.4 -0.0076084 2444.9 0.19973 1.1916e-05 83918. 367.05 387.52 4.0372 0.77976 0.96832 159.41 3.2291 2.9579 0.0028643
-163.62 4.4989e-05 5.3898e-08 -150.37 -150.37 -0.91917 708.42 0.0014116 -150.37 -150.37 -0.91917 1.3371 1.9424 1972.6 -0.0076002 2332.3 0.19930 1.5020e-05 66577. 367.83 388.49 4.0008 0.78346 0.97201 160.07 3.1514 2.9854 0.0029182
-162.62 5.6956e-05 6.7580e-08 -148.43 -148.43 -0.90151 707.40 0.0014136 -148.43 -148.43 -0.90151 1.3368 1.9437 1965.8 -0.0075919 2227.7 0.19886 1.8844e-05 53068. 368.62 389.46 3.9651 0.78713 0.97569 160.72 3.0764 3.0129 0.0029723
-161.62 7.1773e-05 8.4349e-08 -146.48 -146.48 -0.88400 706.38 0.0014157 -146.48 -146.48 -0.88400 1.3365 1.9451 1959.0 -0.0075834 2130.2 0.19841 2.3533e-05 42494. 369.41 390.44 3.9304 0.79079 0.97935 161.38 3.0038 3.0404 0.0030268
-160.62 9.0036e-05 1.0481e-07 -144.54 -144.54 -0.86663 705.37 0.0014177 -144.54 -144.54 -0.86663 1.3363 1.9465 1952.1 -0.0075748 2039.2 0.19796 2.9258e-05 34178. 370.20 391.42 3.8964 0.79443 0.98298 162.03 2.9337 3.0679 0.0030815
-159.62 0.00011245 1.2968e-07 -142.59 -142.59 -0.84940 704.35 0.0014197 -142.59 -142.59 -0.84940 1.3360 1.9478 1945.3 -0.0075661 1954.2 0.19751 3.6221e-05 27609. 371.00 392.40 3.8632 0.79805 0.98660 162.68 2.8658 3.0955 0.0031365
-158.62 0.00013985 1.5977e-07 -140.64 -140.64 -0.83231 703.34 0.0014218 -140.64 -140.64 -0.83231 1.3358 1.9492 1938.5 -0.0075573 1874.8 0.19705 4.4652e-05 22395. 371.80 393.39 3.8307 0.80164 0.99020 163.32 2.8002 3.1230 0.0031918
-157.62 0.00017320 1.9605e-07 -138.69 -138.69 -0.81536 702.32 0.0014238 -138.69 -138.69 -0.81536 1.3356 1.9506 1931.7 -0.0075484 1800.3 0.19658 5.4822e-05 18241. 372.60 394.38 3.7990 0.80522 0.99378 163.96 2.7367 3.1505 0.0032474
-156.62 0.00021364 2.3961e-07 -136.74 -136.74 -0.79854 701.31 0.0014259 -136.74 -136.74 -0.79854 1.3354 1.9520 1924.9 -0.0075393 1730.5 0.19611 6.7040e-05 14916. 373.41 395.38 3.7680 0.80878 0.99734 164.60 2.6752 3.1780 0.0033033
-155.62 0.00026248 2.9172e-07 -134.79 -134.79 -0.78185 700.30 0.0014280 -134.79 -134.79 -0.78185 1.3352 1.9534 1918.1 -0.0075302 1664.9 0.19564 8.1666e-05 12245. 374.22 396.38 3.7377 0.81232 1.0009 165.24 2.6157 3.2055 0.0033595
-154.62 0.00032125 3.5382e-07 -132.83 -132.83 -0.76530 699.29 0.0014300 -132.83 -132.83 -0.76530 1.3350 1.9548 1911.3 -0.0075209 1603.3 0.19516 9.9109e-05 10090. 375.03 397.38 3.7081 0.81585 1.0044 165.87 2.5580 3.2330 0.0034160
-153.62 0.00039171 4.2757e-07 -130.88 -130.88 -0.74887 698.27 0.0014321 -130.88 -130.88 -0.74887 1.3349 1.9563 1904.5 -0.0075114 1545.3 0.19468 0.00011984 8344.6 375.85 398.39 3.6792 0.81935 1.0079 166.50 2.5022 3.2606 0.0034727
-152.62 0.00047590 5.1485e-07 -128.92 -128.92 -0.73256 697.26 0.0014342 -128.92 -128.92 -0.73256 1.3348 1.9577 1897.8 -0.0075019 1490.6 0.19419 0.00014439 6925.9 376.67 399.40 3.6509 0.82284 1.0114 167.13 2.4481 3.2881 0.0035298
-151.62 0.00057613 6.1780e-07 -126.96 -126.96 -0.71638 696.25 0.0014363 -126.96 -126.96 -0.71638 1.3346 1.9592 1891.0 -0.0074922 1438.9 0.19370 0.00017336 5768.4 377.49 400.41 3.6232 0.82631 1.0149 167.76 2.3957 3.3156 0.0035872
-150.62 0.00069507 7.3882e-07 -125.00 -125.00 -0.70032 695.24 0.0014384 -125.00 -125.00 -0.70032 1.3345 1.9606 1884.2 -0.0074824 1390.2 0.19320 0.00020744 4820.7 378.32 401.42 3.5962 0.82976 1.0183 168.38 2.3448 3.3431 0.0036448
-149.62 0.00083574 8.8064e-07 -123.04 -123.04 -0.68437 694.23 0.0014404 -123.04 -123.04 -0.68438 1.3345 1.9621 1877.4 -0.0074724 1344.0 0.19270 0.00024740 4042.0 379.15 402.44 3.5697 0.83319 1.0218 169.00 2.2956 3.3706 0.0037027
-148.62 0.0010016 1.0463e-06 -121.08 -121.08 -0.66854 693.22 0.0014425 -121.08 -121.08 -0.66855 1.3344 1.9636 1870.7 -0.0074623 1300.3 0.19220 0.00029412 3400.0 379.99 403.47 3.5438 0.83661 1.0252 169.62 2.2478 3.3982 0.0037610
-147.62 0.0011965 1.2392e-06 -119.11 -119.11 -0.65283 692.21 0.0014447 -119.11 -119.11 -0.65284 1.3343 1.9651 1863.9 -0.0074521 1258.9 0.19169 0.00034856 2869.0 380.83 404.49 3.5185 0.84001 1.0286 170.24 2.2014 3.4257 0.0038195
-146.62 0.0014249 1.4633e-06 -117.15 -117.15 -0.63723 691.20 0.0014468 -117.15 -117.15 -0.63724 1.3343 1.9666 1857.2 -0.0074417 1219.6 0.19117 0.00041181 2428.3 381.67 405.52 3.4938 0.84340 1.0320 170.85 2.1565 3.4532 0.0038783
-145.62 0.0016917 1.7226e-06 -115.18 -115.18 -0.62174 690.19 0.0014489 -115.18 -115.18 -0.62175 1.3343 1.9682 1850.4 -0.0074312 1182.3 0.19066 0.00048510 2061.4 382.51 406.56 3.4695 0.84677 1.0353 171.46 2.1128 3.4807 0.0039374
-144.62 0.0020026 2.0221e-06 -113.21 -113.21 -0.60636 689.18 0.0014510 -113.21 -113.21 -0.60637 1.3343 1.9697 1843.7 -0.0074206 1146.8 0.19014 0.00056976 1755.1 383.36 407.59 3.4458 0.85012 1.0387 172.07 2.0705 3.5082 0.0039967
-143.62 0.0023637 2.3669e-06 -111.24 -111.24 -0.59109 688.17 0.0014531 -111.24 -111.24 -0.59110 1.3343 1.9713 1836.9 -0.0074098 1113.0 0.18962 0.00066731 1498.6 384.21 408.63 3.4226 0.85346 1.0420 172.68 2.0294 3.5358 0.0040564
-142.62 0.0027820 2.7627e-06 -109.27 -109.27 -0.57592 687.16 0.0014553 -109.27 -109.27 -0.57593 1.3343 1.9728 1830.2 -0.0073988 1080.8 0.18909 0.00077939 1283.1 385.07 409.68 3.3999 0.85679 1.0454 173.28 1.9896 3.5633 0.0041164
-141.62 0.0032653 3.2161e-06 -107.29 -107.29 -0.56086 686.15 0.0014574 -107.30 -107.30 -0.56087 1.3343 1.9744 1823.5 -0.0073878 1050.1 0.18856 0.00090784 1101.5 385.93 410.72 3.3777 0.86011 1.0487 173.88 1.9508 3.5908 0.0041766
-140.62 0.0038222 3.7340e-06 -105.32 -105.32 -0.54589 685.14 0.0014596 -105.32 -105.32 -0.54591 1.3344 1.9760 1816.7 -0.0073765 1020.7 0.18803 0.0010547 948.16 386.79 411.77 3.3560 0.86341 1.0520 174.48 1.9133 3.6183 0.0042372
-139.62 0.0044623 4.3241e-06 -103.34 -103.34 -0.53103 684.13 0.0014617 -103.34 -103.34 -0.53105 1.3344 1.9776 1810.0 -0.0073651 992.74 0.18749 0.0012221 818.26 387.65 412.83 3.3347 0.86670 1.0553 175.08 1.8768 3.6459 0.0042980
-138.62 0.0051963 4.9950e-06 -101.36 -101.36 -0.51627 683.12 0.0014639 -101.37 -101.37 -0.51629 1.3345 1.9792 1803.3 -0.0073536 965.97 0.18695 0.0014125 707.94 388.52 413.88 3.3139 0.86998 1.0586 175.67 1.8413 3.6734 0.0043592
-137.62 0.0060358 5.7556e-06 -99.383 -99.383 -0.50160 682.11 0.0014660 -99.386 -99.386 -0.50162 1.3346 1.9808 1796.6 -0.0073419 940.35 0.18641 0.0016287 614.00 389.39 414.94 3.2935 0.87325 1.0619 176.26 1.8069 3.7009 0.0044206
-136.62 0.0069938 6.6163e-06 -97.401 -97.401 -0.48703 681.10 0.0014682 -97.404 -97.404 -0.48705 1.3347 1.9825 1789.9 -0.0073301 915.81 0.18586 0.0018733 533.80 390.26 416.00 3.2735 0.87650 1.0651 176.85 1.7734 3.7284 0.0044823
-135.62 0.0080843 7.5877e-06 -95.417 -95.417 -0.47255 680.09 0.0014704 -95.421 -95.421 -0.47258 1.3348 1.9841 1783.2 -0.0073180 892.30 0.18531 0.0021497 465.17 391.14 417.07 3.2540 0.87975 1.0684 177.44 1.7409 3.7559 0.0045443
-134.62 0.0093230 8.6819e-06 -93.432 -93.432 -0.45817 679.08 0.0014726 -93.436 -93.436 -0.45820 1.3350 1.9858 1776.5 -0.0073059 869.75 0.18476 0.0024613 406.30 392.02 418.14 3.2348 0.88299 1.0716 178.02 1.7093 3.7834 0.0046066
-133.62 0.010727 9.9117e-06 -91.445 -91.444 -0.44387 678.07 0.0014748 -91.450 -91.449 -0.44391 1.3351 1.9875 1769.8 -0.0072935 848.11 0.18421 0.0028116 355.67 392.91 419.21 3.2161 0.88622 1.0749 178.61 1.6786 3.8109 0.0046691
-132.62 0.012315 1.1291e-05 -89.456 -89.455 -0.42967 677.06 0.0014770 -89.461 -89.461 -0.42971 1.3353 1.9892 1763.1 -0.0072810 827.32 0.18365 0.0032049 312.03 393.79 420.29 3.1977 0.88944 1.0781 179.19 1.6488 3.8385 0.0047320
-131.62 0.014106 1.2834e-05 -87.465 -87.464 -0.41555 676.04 0.0014792 -87.471 -87.471 -0.41560 1.3354 1.9909 1756.4 -0.0072684 807.34 0.18309 0.0036453 274.33 394.68 421.36 3.1798 0.89266 1.0813 179.76 1.6197 3.8660 0.0047951
-130.62 0.016124 1.4558e-05 -85.472 -85.472 -0.40152 675.03 0.0014814 -85.479 -85.479 -0.40157 1.3356 1.9926 1749.7 -0.0072555 788.12 0.18253 0.0041375 241.69 395.58 422.44 3.1622 0.89586 1.0846 180.34 1.5915 3.8935 0.0048586
-129.62 0.018392 1.6480e-05 -83.478 -83.477 -0.38758 674.02 0.0014836 -83.486 -83.486 -0.38763 1.3358 1.9944 1743.0 -0.0072425 769.63 0.18196 0.0046867 213.37 396.47 423.53 3.1450 0.89906 1.0878 180.91 1.5641 3.9210 0.0049223
-128.62 0.020935 1.8618e-05 -81.482 -81.481 -0.37372 673.01 0.0014859 -81.491 -81.490 -0.37378 1.3360 1.9961 1736.3 -0.0072294 751.83 0.18140 0.0052981 188.75 397.37 424.62 3.1281 0.90226 1.0910 181.48 1.5374 3.9485 0.0049863
-127.62 0.023783 2.0993e-05 -79.484 -79.483 -0.35994 672.00 0.0014881 -79.494 -79.493 -0.36001 1.3363 1.9979 1729.6 -0.0072160 734.67 0.18083 0.0059776 167.29 398.27 425.71 3.1116 0.90545 1.0942 182.05 1.5114 3.9760 0.0050506
-126.62 0.026966 2.3625e-05 -77.484 -77.483 -0.34624 670.98 0.0014904 -77.495 -77.495 -0.34632 1.3365 1.9997 1722.9 -0.0072025 718.14 0.18025 0.0067313 148.56 399.18 426.80 3.0954 0.90863 1.0974 182.62 1.4861 4.0035 0.0051152
-125.62 0.030515 2.6537e-05 -75.482 -75.481 -0.33263 669.97 0.0014926 -75.494 -75.494 -0.33272 1.3368 2.0015 1716.2 -0.0071888 702.18 0.17968 0.0075660 132.17 400.09 427.89 3.0795 0.91181 1.1006 183.18 1.4615 4.0310 0.0051800
-124.62 0.034467 2.9754e-05 -73.478 -73.477 -0.31909 668.95 0.0014949 -73.492 -73.492 -0.31919 1.3371 2.0033 1709.5 -0.0071749 686.79 0.17910 0.0084885 117.81 401.00 428.99 3.0640 0.91499 1.1038 183.74 1.4375 4.0584 0.0052452
-123.62 0.038859 3.3300e-05 -71.472 -71.471 -0.30563 667.94 0.0014971 -71.488 -71.487 -0.30574 1.3374 2.0051 1702.8 -0.0071609 671.93 0.17852 0.0095065 105.19 401.91 430.10 3.0488 0.91816 1.1070 184.30 1.4141 4.0859 0.0053106
-122.62 0.043731 3.7204e-05 -69.464 -69.463 -0.29224 666.92 0.0014994 -69.482 -69.481 -0.29237 1.3377 2.0070 1696.2 -0.0071466 657.57 0.17794 0.010628 94.092 402.83 431.20 3.0339 0.92134 1.1102 184.86 1.3913 4.1134 0.0053764
-121.62 0.049128 4.1495e-05 -67.454 -67.452 -0.27894 665.91 0.0015017 -67.474 -67.473 -0.27907 1.3380 2.0089 1689.5 -0.0071322 643.70 0.17736 0.011861 84.309 403.75 432.31 3.0193 0.92451 1.1134 185.41 1.3691 4.1409 0.0054424
-120.62 0.055096 4.6202e-05 -65.442 -65.440 -0.26570 664.89 0.0015040 -65.464 -65.463 -0.26585 1.3384 2.0107 1682.8 -0.0071176 630.28 0.17678 0.013215 75.669 404.67 433.42 3.0050 0.92767 1.1166 185.96 1.3475 4.1683 0.0055087
-119.62 0.061684 5.1358e-05 -63.428 -63.426 -0.25254 663.87 0.0015063 -63.452 -63.452 -0.25271 1.3387 2.0126 1676.1 -0.0071028 617.30 0.17619 0.014700 68.027 405.60 434.53 2.9909 0.93084 1.1198 186.51 1.3264 4.1958 0.0055752
-118.62 0.068946 5.6998e-05 -61.412 -61.410 -0.23945 662.86 0.0015086 -61.439 -61.438 -0.23963 1.3391 2.0146 1669.4 -0.0070878 604.74 0.17560 0.016325 61.255 406.53 435.64 2.9772 0.93401 1.1231 187.06 1.3058 4.2233 0.0056421
-117.62 0.076937 6.3158e-05 -59.394 -59.391 -0.22643 661.84 0.0015109 -59.423 -59.422 -0.22663 1.3395 2.0165 1662.8 -0.0070726 592.58 0.17501 0.018101 55.245 407.46 436.76 2.9638 0.93718 1.1263 187.60 1.2857 4.2507 0.0057092
-116.62 0.085718 6.9875e-05 -57.373 -57.370 -0.21348 660.82 0.0015133 -57.406 -57.405 -0.21370 1.3400 2.0184 1656.1 -0.0070573 580.80 0.17442 0.020040 49.901 408.39 437.88 2.9506 0.94035 1.1295 188.14 1.2660 4.2782 0.0057767
-115.62 0.095353 7.7189e-05 -55.350 -55.347 -0.20060 659.80 0.0015156 -55.386 -55.385 -0.20084 1.3404 2.0204 1649.4 -0.0070417 569.38 0.17383 0.022152 45.142 409.33 439.01 2.9377 0.94352 1.1327 188.68 1.2468 4.3056 0.0058444
-114.62 0.10591 8.5143e-05 -53.325 -53.322 -0.18778 658.78 0.0015180 -53.365 -53.364 -0.18805 1.3409 2.0224 1642.7 -0.0070260 558.32 0.17323 0.024451 40.898 410.27 440.13 2.9250 0.94669 1.1360 189.22 1.2281 4.3330 0.0059123
-113.62 0.11746 9.3779e-05 -51.298 -51.294 -0.17504 657.76 0.0015203 -51.342 -51.340 -0.17533 1.3413 2.0244 1636.0 -0.0070100 547.59 0.17264 0.026949 37.107 411.21 441.26 2.9126 0.94987 1.1392 189.75 1.2097 4.3604 0.0059806
-112.62 0.13008 0.00010314 -49.269 -49.264 -0.16235 656.73 0.0015227 -49.316 -49.315 -0.16267 1.3418 2.0264 1629.3 -0.0069938 537.18 0.17204 0.029661 33.715 412.16 442.39 2.9005 0.95305 1.1424 190.28 1.1918 4.3879 0.0060491
-111.62 0.14384 0.00011329 -47.237 -47.232 -0.14973 655.71 0.0015251 -47.289 -47.287 -0.15008 1.3424 2.0285 1622.7 -0.0069774 527.08 0.17144 0.032600 30.675 413.10 443.53 2.8885 0.95623 1.1457 190.81 1.1742 4.4153 0.0061180
-110.62 0.15884 0.00012426 -45.202 -45.197 -0.13718 654.69 0.0015274 -45.259 -45.258 -0.13755 1.3429 2.0305 1616.0 -0.0069609 517.28 0.17084 0.035781 27.948 414.06 444.66 2.8769 0.95942 1.1490 191.34 1.1570 4.4427 0.0061871
-109.62 0.17516 0.00013611 -43.165 -43.159 -0.12468 653.66 0.0015298 -43.228 -43.226 -0.12509 1.3435 2.0326 1609.3 -0.0069441 507.76 0.17024 0.039220 25.497 415.01 445.80 2.8654 0.96261 1.1522 191.86 1.1402 4.4701 0.0062564
-108.62 0.19290 0.00014889 -41.126 -41.119 -0.11225 652.64 0.0015322 -41.194 -41.192 -0.11269 1.3441 2.0347 1602.6 -0.0069271 498.51 0.16964 0.042933 23.292 415.96 446.94 2.8542 0.96581 1.1555 192.38 1.1236 4.4974 0.0063261
-107.62 0.21215 0.00016266 -39.084 -39.077 -0.099878 651.61 0.0015347 -39.158 -39.156 -0.10036 1.3447 2.0369 1595.9 -0.0069098 489.52 0.16903 0.046937 21.305 416.92 448.09 2.8433 0.96901 1.1588 192.90 1.1075 4.5248 0.0063960
-106.62 0.23301 0.00017749 -37.040 -37.032 -0.087564 650.58 0.0015371 -37.120 -37.118 -0.088082 1.3453 2.0390 1589.2 -0.0068924 480.79 0.16843 0.051250 19.512 417.88 449.23 2.8325 0.97222 1.1621 193.41 1.0916 4.5522 0.0064662
-105.62 0.25561 0.00019343 -34.993 -34.984 -0.075308 649.55 0.0015395 -35.080 -35.078 -0.075868 1.3460 2.0412 1582.6 -0.0068747 472.30 0.16782 0.055891 17.892 418.85 450.38 2.8220 0.97544 1.1655 193.93 1.0760 4.5795 0.0065367
-104.62 0.28004 0.00021054 -32.943 -32.933 -0.063109 648.52 0.0015420 -33.038 -33.035 -0.063714 1.3467 2.0434 1575.9 -0.0068569 464.04 0.16721 0.060878 16.426 419.81 451.53 2.8116 0.97867 1.1688 194.44 1.0608 4.6069 0.0066074
-103.62 0.30643 0.00022889 -30.890 -30.880 -0.050966 647.49 0.0015444 -30.994 -30.991 -0.051619 1.3474 2.0456 1569.2 -0.0068387 456.00 0.16660 0.066231 15.099 420.78 452.68 2.8015 0.98191 1.1722 194.94 1.0458 4.6342 0.0066785
-102.62 0.33490 0.00024855 -28.835 -28.824 -0.038878 646.46 0.0015469 -28.947 -28.944 -0.039582 1.3481 2.0478 1562.5 -0.0068204 448.18 0.16600 0.071971 13.894 421.75 453.84 2.7916 0.98516 1.1755 195.44 1.0310 4.6615 0.0067498
-101.62 0.36558 0.00026960 -26.777 -26.765 -0.026844 645.43 0.0015494 -26.898 -26.894 -0.027602 1.3489 2.0501 1555.8 -0.0068018 440.57 0.16539 0.078120 12.801 422.73 454.99 2.7818 0.98841 1.1789 195.95 1.0166 4.6888 0.0068213
-100.62 0.39862 0.00029209 -24.716 -24.702 -0.014864 644.39 0.0015519 -24.847 -24.843 -0.015678 1.3497 2.0524 1549.1 -0.0067830 433.16 0.16478 0.084699 11.807 423.70 456.15 2.7723 0.99168 1.1823 196.44 1.0024 4.7161 0.0068932
-99.625 0.43414 0.00031612 -22.652 -22.637 -0.0029356 643.36 0.0015544 -22.794 -22.789 -0.0038103 1.3505 2.0547 1542.4 -0.0067639 425.95 0.16416 0.091731 10.901 424.68 457.31 2.7630 0.99496 1.1858 196.94 0.98838 4.7434 0.0069653
-98.625 0.47230 0.00034175 -20.585 -20.569 0.0089411 642.32 0.0015569 -20.738 -20.733 0.0080027 1.3514 2.0570 1535.7 -0.0067447 418.92 0.16355 0.099240 10.077 425.66 458.48 2.7538 0.99825 1.1892 197.43 0.97464 4.7707 0.0070377
-97.625 0.51325 0.00036907 -18.516 -18.498 0.020767 641.28 0.0015594 -18.680 -18.674 0.019762 1.3522 2.0594 1529.0 -0.0067251 412.07 0.16294 0.10725 9.3239 426.65 459.64 2.7448 1.0016 1.1927 197.92 0.96112 4.7979 0.0071103
-96.625 0.55714 0.00039816 -16.443 -16.423 0.032544 640.24 0.0015619 -16.620 -16.614 0.031467 1.3531 2.0618 1522.3 -0.0067053 405.39 0.16233 0.11579 8.6365 427.63 460.81 2.7360 1.0049 1.1962 198.40 0.94783 4.8251 0.0071832
-95.625 0.60416 0.00042911 -14.366 -14.346 0.044272 639.20 0.0015645 -14.557 -14.550 0.043120 1.3540 2.0642 1515.7 -0.0066853 398.88 0.16171 0.12488 8.0078 428.62 461.98 2.7274 1.0082 1.1997 198.88 0.93475 4.8524 0.0072564
-94.625 0.65446 0.00046200 -12.287 -12.265 0.055952 638.16 0.0015670 -12.491 -12.484 0.054721 1.3550 2.0667 1509.0 -0.0066650 392.53 0.16110 0.13455 7.4323 429.61 463.15 2.7189 1.0116 1.2032 199.36 0.92188 4.8796 0.0073299
-93.625 0.70822 0.00049692 -10.205 -10.180 0.067585 637.12 0.0015696 -10.424 -10.416 0.066271 1.3560 2.0691 1502.3 -0.0066444 386.34 0.16048 0.14482 6.9050 430.60 464.32 2.7107 1.0149 1.2068 199.83 0.90921 4.9068 0.0074036
-92.625 0.76564 0.00053397 -8.1186 -8.0922 0.079172 636.07 0.0015722 -8.3535 -8.3452 0.077771 1.3570 2.0716 1495.6 -0.0066236 380.31 0.15987 0.15573 6.4212 431.60 465.49 2.7025 1.0183 1.2104 200.30 0.89673 4.9340 0.0074776
-91.625 0.82689 0.00057323 -6.0293 -6.0008 0.090714 635.02 0.0015747 -6.2808 -6.2719 0.089220 1.3580 2.0742 1488.9 -0.0066025 374.41 0.15925 0.16731 5.9769 432.59 466.67 2.6946 1.0217 1.2140 200.77 0.88445 4.9611 0.0075518
-90.625 0.89218 0.00061482 -3.9365 -3.9057 0.10221 633.98 0.0015773 -4.2056 -4.1959 0.10062 1.3591 2.0767 1482.2 -0.0065811 368.66 0.15864 0.17958 5.5685 433.59 467.84 2.6868 1.0251 1.2177 201.24 0.87236 4.9883 0.0076263
-89.625 0.96172 0.00065882 -1.8401 -1.8070 0.11366 632.93 0.0015800 -2.1279 -2.1174 0.11197 1.3602 2.0793 1475.5 -0.0065595 363.05 0.15802 0.19258 5.1928 434.59 469.02 2.6791 1.0285 1.2213 201.70 0.86045 5.0154 0.0077011
-88.625 1.0357 0.00070534 0.25976 0.29546 0.12508 631.88 0.0015826 -0.047516 -0.036215 0.12328 1.3613 2.0819 1468.8 -0.0065375 357.56 0.15740 0.20633 4.8466 435.59 470.20 2.6717 1.0320 1.2250 202.15 0.84873 5.0425 0.0077761
-87.625 1.1144 0.00075448 2.3633 2.4017 0.13644 630.83 0.0015852 2.0355 2.0476 0.13454 1.3625 2.0846 1462.1 -0.0065153 352.21 0.15679 0.22087 4.5276 436.60 471.39 2.6643 1.0354 1.2288 202.61 0.83718 5.0696 0.0078514
-86.625 1.1979 0.00080636 4.4706 4.5119 0.14777 629.77 0.0015879 4.1211 4.1342 0.14575 1.3637 2.0873 1455.4 -0.0064928 346.98 0.15617 0.23623 4.2331 437.61 472.57 2.6571 1.0389 1.2325 203.06 0.82580 5.0967 0.0079270
-85.625 1.2866 0.00086107 6.5817 6.6260 0.15906 628.72 0.0015905 6.2094 6.2235 0.15691 1.3649 2.0900 1448.8 -0.0064701 341.87 0.15555 0.25245 3.9612 438.61 473.75 2.6501 1.0424 1.2363 203.50 0.81460 5.1237 0.0080028
-84.625 1.3806 0.00091873 8.6966 8.7442 0.17031 627.66 0.0015932 8.3004 8.3155 0.16803 1.3661 2.0927 1442.1 -0.0064470 336.87 0.15494 0.26956 3.7097 439.63 474.94 2.6432 1.0460 1.2402 203.95 0.80356 5.1508 0.0080789
-83.625 1.4803 0.00097946 10.815 10.867 0.18152 626.60 0.0015959 10.394 10.410 0.17911 1.3674 2.0955 1435.4 -0.0064236 331.99 0.15432 0.28760 3.4771 440.64 476.13 2.6364 1.0495 1.2440 204.38 0.79269 5.1778 0.0081553
-82.625 1.5858 0.0010434 12.938 12.993 0.19269 625.54 0.0015986 12.491 12.508 0.19014 1.3687 2.0983 1428.7 -0.0063999 327.22 0.15370 0.30659 3.2616 441.65 477.31 2.6298 1.0531 1.2479 204.82 0.78199 5.2048 0.0082319
-81.625 1.6975 0.0011106 15.065 15.124 0.20382 624.48 0.0016013 14.590 14.609 0.20113 1.3700 2.1012 1422.0 -0.0063759 322.55 0.15309 0.32659 3.0619 442.67 478.50 2.6233 1.0567 1.2519 205.25 0.77144 5.2318 0.0083088
-80.625 1.8155 0.0011812 17.196 17.259 0.21492 623.42 0.0016041 16.692 16.712 0.21208 1.3714 2.1041 1415.4 -0.0063516 317.99 0.15247 0.34763 2.8766 443.69 479.70 2.6169 1.0603 1.2558 205.67 0.76106 5.2587 0.0083860
-79.625 1.9402 0.0012553 19.332 19.399 0.22598 622.36 0.0016068 18.797 18.819 0.22299 1.3728 2.1070 1408.7 -0.0063270 313.52 0.15186 0.36974 2.7046 444.71 480.89 2.6106 1.0639 1.2598 206.10 0.75083 5.2857 0.0084634
-78.625 2.0718 0.0013332 21.471 21.543 0.23701 621.29 0.0016096 20.905 20.928 0.23385 1.3742 2.1099 1402.0 -0.0063021 309.15 0.15124 0.39296 2.5448 445.73 482.08 2.6045 1.0676 1.2639 206.51 0.74076 5.3126 0.0085411
-77.625 2.2107 0.0014148 23.615 23.692 0.24801 620.22 0.0016123 23.016 23.040 0.24468 1.3757 2.1129 1395.3 -0.0062768 304.88 0.15062 0.41735 2.3961 446.75 483.27 2.5985 1.0712 1.2680 206.93 0.73084 5.3395 0.0086190
-76.625 2.3571 0.0015003 25.764 25.845 0.25897 619.15 0.0016151 25.130 25.156 0.25546 1.3772 2.1159 1388.7 -0.0062512 300.69 0.15001 0.44292 2.2577 447.78 484.47 2.5926 1.0749 1.2721 207.34 0.72107 5.3664 0.0086972
-75.625 2.5113 0.0015899 27.917 28.003 0.26989 618.08 0.0016179 27.247 27.275 0.26620 1.3787 2.1190 1382.0 -0.0062253 296.59 0.14939 0.46974 2.1288 448.81 485.67 2.5869 1.0787 1.2762 207.74 0.71146 5.3933 0.0087757
-74.625 2.6736 0.0016837 30.074 30.166 0.28079 617.01 0.0016207 29.366 29.396 0.27691 1.3802 2.1221 1375.4 -0.0061990 292.58 0.14878 0.49783 2.0087 449.83 486.86 2.5812 1.0824 1.2804 208.14 0.70200 5.4201 0.0088544
-73.625 2.8444 0.0017818 32.237 32.335 0.29165 615.93 0.0016236 31.489 31.521 0.28758 1.3818 2.1252 1368.7 -0.0061724 288.65 0.14816 0.52725 1.8966 450.86 488.06 2.5757 1.0862 1.2847 208.54 0.69268 5.4469 0.0089334
-72.625 3.0240 0.0018843 34.404 34.508 0.30249 614.85 0.0016264 33.615 33.649 0.29821 1.3834 2.1284 1362.0 -0.0061454 284.81 0.14755 0.55804 1.7920 451.90 489.26 2.5703 1.0900 1.2889 208.93 0.68351 5.4737 0.0090126
-71.625 3.2127 0.0019915 36.575 36.686 0.31329 613.78 0.0016293 35.745 35.781 0.30880 1.3851 2.1316 1355.4 -0.0061181 281.03 0.14694 0.59024 1.6942 452.93 490.46 2.5650 1.0938 1.2932 209.32 0.67448 5.5005 0.0090922
-70.625 3.4108 0.0021034 38.752 38.870 0.32407 612.69 0.0016321 37.877 37.915 0.31935 1.3867 2.1349 1348.7 -0.0060904 277.34 0.14632 0.62390 1.6028 453.96 491.66 2.5598 1.0976 1.2976 209.70 0.66560 5.5273 0.0091720
-69.625 3.6187 0.0022201 40.934 41.059 0.33481 611.61 0.0016350 40.013 40.053 0.32987 1.3884 2.1382 1342.1 -0.0060624 273.72 0.14571 0.65906 1.5173 455.00 492.86 2.5547 1.1015 1.3020 210.08 0.65687 5.5540 0.0092520
-68.625 3.8367 0.0023419 43.121 43.253 0.34553 610.53 0.0016379 42.152 42.195 0.34036 1.3902 2.1415 1335.5 -0.0060339 270.17 0.14510 0.69577 1.4372 456.04 494.06 2.5497 1.1054 1.3064 210.45 0.64827 5.5807 0.0093324
-67.625 4.0652 0.0024689 45.313 45.453 0.35622 609.44 0.0016409 44.294 44.340 0.35080 1.3919 2.1449 1328.8 -0.0060051 266.69 0.14449 0.73408 1.3622 457.08 495.26 2.5448 1.1093 1.3109 210.82 0.63981 5.6074 0.0094130
-66.625 4.3046 0.0026012 47.510 47.658 0.36689 608.35 0.0016438 46.439 46.488 0.36122 1.3937 2.1483 1322.2 -0.0059760 263.28 0.14388 0.77404 1.2919 458.12 496.46 2.5400 1.1133 1.3154 211.18 0.63150 5.6341 0.0094939
-65.625 4.5551 0.0027389 49.713 49.870 0.37753 607.26 0.0016467 48.588 48.640 0.37160 1.3955 2.1518 1315.6 -0.0059464 259.93 0.14327 0.81570 1.2259 459.16 497.67 2.5353 1.1172 1.3200 211.54 0.62332 5.6608 0.0095750
-64.625 4.8173 0.0028823 51.921 52.087 0.38814 606.16 0.0016497 50.740 50.795 0.38195 1.3974 2.1553 1308.9 -0.0059164 256.65 0.14266 0.85910 1.1640 460.21 498.87 2.5307 1.1212 1.3246 211.89 0.61527 5.6874 0.0096564
-63.625 5.0915 0.0030315 54.134 54.310 0.39873 605.07 0.0016527 52.896 52.954 0.39226 1.3993 2.1588 1302.3 -0.0058861 253.42 0.14205 0.90429 1.1058 461.25 500.07 2.5262 1.1252 1.3293 212.24 0.60736 5.7140 0.0097382
-62.625 5.3781 0.0031866 56.353 56.539 0.40929 603.97 0.0016557 55.055 55.117 0.40254 1.4012 2.1624 1295.7 -0.0058553 250.26 0.14144 0.95134 1.0511 462.30 501.28 2.5218 1.1293 1.3340 212.58 0.59958 5.7406 0.0098201
-61.625 5.6774 0.0033478 58.578 58.774 0.41984 602.87 0.0016587 57.218 57.283 0.41279 1.4031 2.1660 1289.1 -0.0058241 247.16 0.14084 1.0003 0.99972 463.35 502.48 2.5175 1.1333 1.3387 212.92 0.59194 5.7672 0.0099024
-60.625 5.9899 0.0035152 60.808 61.015 0.43036 601.77 0.0016618 59.385 59.453 0.42301 1.4051 2.1697 1282.5 -0.0057925 244.12 0.14023 1.0512 0.95131 464.40 503.68 2.5133 1.1374 1.3435 213.26 0.58442 5.7938 0.0099850
-59.625 6.3160 0.0036891 63.044 63.262 0.44085 600.66 0.0016648 61.554 61.627 0.43320 1.4071 2.1734 1275.9 -0.0057605 241.13 0.13962 1.1041 0.90573 465.45 504.89 2.5091 1.1415 1.3483 213.58 0.57704 5.8203 0.010068
-58.625 6.6561 0.0038696 65.287 65.516 0.45133 599.55 0.0016679 63.728 63.805 0.44335 1.4091 2.1772 1269.3 -0.0057280 238.19 0.13902 1.1591 0.86277 466.50 506.09 2.5051 1.1457 1.3532 213.90 0.56978 5.8468 0.010151
-57.625 7.0107 0.0040568 67.535 67.776 0.46179 598.44 0.0016710 65.905 65.986 0.45348 1.4111 2.1810 1262.7 -0.0056951 235.31 0.13842 1.2161 0.82228 467.55 507.30 2.5011 1.1498 1.3581 214.22 0.56265 5.8733 0.010234
-56.625 7.3801 0.0042509 69.789 70.043 0.47222 597.33 0.0016741 68.086 68.172 0.46358 1.4132 2.1848 1256.1 -0.0056617 232.48 0.13781 1.2754 0.78408 468.60 508.50 2.4972 1.1540 1.3631 214.53 0.55564 5.8998 0.010318
-55.625 7.7648 0.0044521 72.049 72.317 0.48264 596.22 0.0016772 70.271 70.361 0.47364 1.4153 2.1887 1249.5 -0.0056279 229.69 0.13721 1.3369 0.74802 469.66 509.71 2.4934 1.1582 1.3681 214.84 0.54875 5.9263 0.010402
-54.625 8.1652 0.0046605 74.316 74.597 0.49303 595.10 0.0016804 72.460 72.554 0.48368 1.4174 2.1927 1242.9 -0.0055937 226.96 0.13661 1.4006 0.71396 470.72 510.91 2.4897 1.1624 1.3731 215.14 0.54199 5.9527 0.010486
-53.625 8.5819 0.0048764 76.589 76.885 0.50341 593.98 0.0016836 74.652 74.752 0.49369 1.4196 2.1967 1236.3 -0.0055589 224.27 0.13601 1.4667 0.68178 471.77 512.11 2.4860 1.1667 1.3782 215.43 0.53535 5.9792 0.010571
-52.625 9.0151 0.0050999 78.868 79.179 0.51377 592.86 0.0016867 76.849 76.954 0.50368 1.4218 2.2007 1229.8 -0.0055237 221.63 0.13541 1.5353 0.65136 472.83 513.32 2.4824 1.1710 1.3834 215.72 0.52882 6.0056 0.010656
-51.625 9.4655 0.0053311 81.154 81.480 0.52411 591.73 0.0016900 79.049 79.159 0.51363 1.4240 2.2048 1223.2 -0.0054880 219.04 0.13482 1.6062 0.62258 473.89 514.52 2.4789 1.1752 1.3886 216.00 0.52241 6.0320 0.010741
-50.625 9.9335 0.0055704 83.446 83.789 0.53444 590.60 0.0016932 81.253 81.369 0.52356 1.4262 2.2089 1216.6 -0.0054519 216.48 0.13422 1.6797 0.59534 474.95 515.73 2.4755 1.1796 1.3938 216.28 0.51612 6.0584 0.010827
-49.625 10.419 0.0058177 85.745 86.105 0.54474 589.47 0.0016964 83.462 83.584 0.53347 1.4285 2.2131 1210.1 -0.0054152 213.98 0.13363 1.7558 0.56954 476.01 516.93 2.4722 1.1839 1.3991 216.55 0.50994 6.0848 0.010913
-48.625 10.924 0.0060734 88.051 88.428 0.55504 588.34 0.0016997 85.674 85.802 0.54334 1.4308 2.2173 1203.5 -0.0053780 211.51 0.13303 1.8345 0.54510 477.07 518.13 2.4689 1.1883 1.4044 216.82 0.50387 6.1112 0.010999
-47.625 11.448 0.0063375 90.364 90.758 0.56531 587.20 0.0017030 87.891 88.025 0.55319 1.4331 2.2216 1196.9 -0.0053403 209.08 0.13244 1.9159 0.52194 478.14 519.33 2.4657 1.1927 1.4098 217.08 0.49792 6.1375 0.011085
-46.625 11.991 0.0066104 92.683 93.097 0.57558 586.06 0.0017063 90.111 90.252 0.56302 1.4354 2.2259 1190.4 -0.0053020 206.69 0.13185 2.0001 0.49997 479.20 520.53 2.4625 1.1971 1.4153 217.33 0.49207 6.1639 0.011172
-45.625 12.554 0.0068921 95.010 95.443 0.58582 584.92 0.0017096 92.336 92.484 0.57282 1.4378 2.2303 1183.8 -0.0052633 204.34 0.13126 2.0872 0.47912 480.27 521.74 2.4594 1.2015 1.4207 217.58 0.48633 6.1902 0.011259
-44.625 13.137 0.0071829 97.343 97.796 0.59606 583.77 0.0017130 94.565 94.720 0.58260 1.4402 2.2347 1177.3 -0.0052240 202.03 0.13067 2.1771 0.45933 481.33 522.94 2.4564 1.2060 1.4263 217.82 0.48069 6.2165 0.011347
-43.625 13.741 0.0074829 99.684 100.16 0.60628 582.62 0.0017164 96.799 96.961 0.59235 1.4426 2.2392 1170.7 -0.0051841 199.75 0.13008 2.2700 0.44053 482.40 524.14 2.4535 1.2104 1.4319 218.05 0.47516 6.2429 0.011435
-42.625 14.367 0.0077924 102.03 102.53 0.61648 581.47 0.0017198 99.036 99.207 0.60208 1.4450 2.2437 1164.2 -0.0051437 197.51 0.12949 2.3659 0.42267 483.46 525.33 2.4506 1.2149 1.4375 218.28 0.46973 6.2692 0.011523
-41.625 15.015 0.0081115 104.39 104.90 0.62668 580.32 0.0017232 101.28 101.46 0.61179 1.4475 2.2483 1157.7 -0.0051027 195.30 0.12891 2.4649 0.40569 484.53 526.53 2.4478 1.2195 1.4432 218.50 0.46440 6.2955 0.011612
-40.625 15.686 0.0084405 106.75 107.29 0.63686 579.16 0.0017266 103.52 103.71 0.62147 1.4500 2.2529 1151.1 -0.0050611 193.13 0.12832 2.5671 0.38954 485.60 527.73 2.4450 1.2240 1.4489 218.72 0.45917 6.3218 0.011701
-39.625 16.380 0.0087795 109.12 109.68 0.64703 578.00 0.0017301 105.78 105.97 0.63113 1.4525 2.2576 1144.6 -0.0050189 190.99 0.12774 2.6725 0.37418 486.67 528.93 2.4423 1.2286 1.4547 218.93 0.45403 6.3481 0.011790
-38.625 17.097 0.0091287 111.50 112.09 0.65719 576.83 0.0017336 108.03 108.24 0.64077 1.4550 2.2623 1138.0 -0.0049761 188.88 0.12716 2.7813 0.35955 487.74 530.12 2.4397 1.2332 1.4606 219.13 0.44900 6.3744 0.011880
-37.625 17.838 0.0094884 113.88 114.50 0.66734 575.66 0.0017371 110.29 110.51 0.65039 1.4576 2.2671 1131.5 -0.0049327 186.81 0.12658 2.8934 0.34562 488.81 531.32 2.4371 1.2378 1.4665 219.33 0.44405 6.4007 0.011970
-36.625 18.604 0.0098587 116.28 116.92 0.67748 574.49 0.0017407 112.56 112.78 0.65999 1.4602 2.2719 1125.0 -0.0048887 184.76 0.12600 3.0089 0.33235 489.88 532.51 2.4346 1.2424 1.4724 219.52 0.43920 6.4270 0.012060
-35.625 19.395 0.010240 118.68 119.35 0.68761 573.32 0.0017442 114.83 115.06 0.66956 1.4628 2.2768 1118.5 -0.0048440 182.75 0.12542 3.1280 0.31969 490.95 533.70 2.4321 1.2471 1.4784 219.70 0.43444 6.4533 0.012151
-34.625 20.212 0.010632 121.09 121.78 0.69773 572.14 0.0017478 117.10 117.34 0.67912 1.4654 2.2818 1111.9 -0.0047987 180.76 0.12485 3.2506 0.30763 492.02 534.89 2.4297 1.2517 1.4845 219.88 0.42977 6.4797 0.012243
-33.625 21.056 0.011036 123.50 124.23 0.70784 570.96 0.0017514 119.38 119.63 0.68865 1.4681 2.2868 1105.4 -0.0047527 178.80 0.12427 3.3770 0.29612 493.09 536.08 2.4273 1.2564 1.4906 220.05 0.42519 6.5060 0.012334
-32.625 21.926 0.011451 125.93 126.68 0.71794 569.77 0.0017551 121.66 121.93 0.69817 1.4708 2.2918 1098.9 -0.0047061 176.87 0.12370 3.5071 0.28514 494.17 537.27 2.4250 1.2611 1.4968 220.21 0.42070 6.5323 0.012426
-31.625 22.823 0.011877 128.36 129.15 0.72804 568.58 0.0017588 123.95 124.23 0.70767 1.4735 2.2970 1092.3 -0.0046587 174.97 0.12313 3.6410 0.27465 495.24 538.46 2.4227 1.2659 1.5031 220.36 0.41629 6.5587 0.012519
-30.625 23.749 0.012316 130.80 131.62 0.73812 567.39 0.0017625 126.24 126.53 0.71714 1.4762 2.3021 1085.8 -0.0046107 173.09 0.12256 3.7787 0.26464 496.31 539.64 2.4205 1.2706 1.5094 220.51 0.41196 6.5850 0.012612
-29.625 24.703 0.012767 133.25 134.10 0.74820 566.19 0.0017662 128.54 128.84 0.72660 1.4790 2.3074 1079.3 -0.0045619 171.24 0.12200 3.9205 0.25507 497.38 540.83 2.4184 1.2754 1.5157 220.65 0.40772 6.6114 0.012706
-28.625 25.687 0.013230 135.71 136.59 0.75827 564.99 0.0017699 130.84 131.16 0.73604 1.4818 2.3126 1072.8 -0.0045124 169.42 0.12143 4.0663 0.24592 498.46 542.01 2.4162 1.2802 1.5222 220.79 0.40356 6.6378 0.012800
-27.625 26.700 0.013705 138.17 139.09 0.76834 563.78 0.0017737 133.15 133.48 0.74547 1.4846 2.3180 1066.2 -0.0044621 167.62 0.12087 4.2163 0.23717 499.53 543.19 2.4142 1.2850 1.5286 220.91 0.39947 6.6642 0.012894
-26.625 27.743 0.014194 140.65 141.60 0.77839 562.57 0.0017775 135.47 135.81 0.75487 1.4874 2.3234 1059.7 -0.0044111 165.84 0.12031 4.3705 0.22881 500.60 544.37 2.4122 1.2899 1.5352 221.03 0.39547 6.6906 0.012989
-25.625 28.817 0.014696 143.13 144.12 0.78845 561.36 0.0017814 137.78 138.14 0.76426 1.4902 2.3289 1053.2 -0.0043593 164.09 0.11975 4.5290 0.22080 501.68 545.55 2.4102 1.2947 1.5418 221.14 0.39154 6.7171 0.013084
-24.625 29.923 0.015210 145.62 146.65 0.79849 560.14 0.0017853 140.11 140.48 0.77363 1.4931 2.3344 1046.7 -0.0043067 162.36 0.11919 4.6918 0.21314 502.75 546.72 2.4083 1.2996 1.5485 221.25 0.38768 6.7436 0.013180
-23.625 31.061 0.015739 148.12 149.19 0.80853 558.92 0.0017892 142.44 142.82 0.78298 1.4960 2.3400 1040.1 -0.0042533 160.65 0.11863 4.8592 0.20580 503.82 547.90 2.4064 1.3045 1.5552 221.35 0.38391 6.7701 0.013277
-22.625 32.232 0.016281 150.63 151.74 0.81857 557.69 0.0017931 144.77 145.17 0.79232 1.4990 2.3457 1033.6 -0.0041990 158.97 0.11807 5.0311 0.19877 504.90 549.07 2.4045 1.3095 1.5621 221.44 0.38020 6.7967 0.013374
-21.625 33.435 0.016837 153.15 154.30 0.82860 556.46 0.0017971 147.11 147.52 0.80164 1.5019 2.3514 1027.1 -0.0041439 157.30 0.11752 5.2076 0.19203 505.97 550.24 2.4027 1.3144 1.5690 221.52 0.37656 6.8232 0.013471
-20.625 34.673 0.017408 155.68 156.87 0.83863 555.23 0.0018011 149.45 149.88 0.81095 1.5049 2.3572 1020.6 -0.0040879 155.66 0.11697 5.3889 0.18557 507.04 551.40 2.4010 1.3194 1.5759 221.59 0.37300 6.8499 0.013569
-19.625 35.946 0.017993 158.21 159.45 0.84865 553.99 0.0018051 151.80 152.25 0.82024 1.5079 2.3630 1014.0 -0.0040311 154.04 0.11642 5.5750 0.17937 508.11 552.57 2.3992 1.3244 1.5829 221.66 0.36950 6.8765 0.013668
-18.625 37.253 0.018592 160.76 162.04 0.85867 552.74 0.0018092 154.16 154.62 0.82952 1.5109 2.3689 1007.5 -0.0039733 152.44 0.11587 5.7660 0.17343 509.19 553.73 2.3976 1.3294 1.5901 221.72 0.36608 6.9032 0.013767
-17.625 38.596 0.019207 163.31 164.65 0.86869 551.49 0.0018133 156.52 157.00 0.83878 1.5140 2.3749 1001.0 -0.0039145 150.86 0.11532 5.9621 0.16773 510.26 554.89 2.3959 1.3345 1.5972 221.77 0.36272 6.9300 0.013867
-16.625 39.976 0.019837 165.88 167.26 0.87870 550.24 0.0018174 158.89 159.39 0.84803 1.5171 2.3810 994.44 -0.0038549 149.29 0.11478 6.1632 0.16225 511.33 556.05 2.3943 1.3395 1.6045 221.81 0.35942 6.9568 0.013968
-15.625 41.392 0.020483 168.45 169.88 0.88872 548.98 0.0018216 161.26 161.78 0.85726 1.5202 2.3871 987.91 -0.0037942 147.75 0.11423 6.3696 0.15700 512.40 557.20 2.3927 1.3446 1.6119 221.85 0.35619 6.9836 0.014069
-14.625 42.846 0.021144 171.03 172.51 0.89873 547.71 0.0018258 163.64 164.18 0.86649 1.5233 2.3933 981.37 -0.0037325 146.22 0.11369 6.5812 0.15195 513.47 558.36 2.3912 1.3497 1.6193 221.87 0.35302 7.0105 0.014170
-13.625 44.338 0.021822 173.63 175.15 0.90873 546.44 0.0018300 166.02 166.58 0.87569 1.5264 2.3996 974.83 -0.0036698 144.72 0.11315 6.7983 0.14710 514.54 559.51 2.3897 1.3549 1.6268 221.89 0.34992 7.0375 0.014273
-12.625 45.870 0.022516 176.23 177.81 0.91874 545.17 0.0018343 168.41 168.99 0.88489 1.5296 2.4059 968.29 -0.0036061 143.23 0.11261 7.0208 0.14243 515.61 560.65 2.3883 1.3600 1.6344 221.90 0.34688 7.0646 0.014376
-11.625 47.440 0.023227 178.84 180.47 0.92874 543.89 0.0018386 170.81 171.41 0.89407 1.5328 2.4124 961.75 -0.0035413 141.76 0.11208 7.2490 0.13795 516.68 561.80 2.3868 1.3652 1.6421 221.91 0.34389 7.0917 0.014479
-10.625 49.051 0.023954 181.46 183.15 0.93874 542.60 0.0018430 173.21 173.83 0.90324 1.5360 2.4189 955.20 -0.0034753 140.30 0.11154 7.4829 0.13364 517.75 562.94 2.3854 1.3704 1.6498 221.90 0.34097 7.1188 0.014584
-9.6250 50.703 0.024699 184.09 185.84 0.94875 541.31 0.0018474 175.61 176.26 0.91240 1.5393 2.4255 948.65 -0.0034082 138.86 0.11101 7.7226 0.12949 518.81 564.08 2.3841 1.3757 1.6577 221.88 0.33810 7.1461 0.014689
-8.6250 52.396 0.025462 186.73 188.54 0.95875 540.02 0.0018518 178.03 178.70 0.92154 1.5426 2.4321 942.10 -0.0033400 137.44 0.11048 7.9683 0.12550 519.88 565.21 2.3827 1.3809 1.6657 221.86 0.33529 7.1734 0.014795
-7.6250 54.131 0.026242 189.38 191.25 0.96875 538.72 0.0018563 180.45 181.14 0.93068 1.5459 2.4389 935.55 -0.0032705 136.03 0.10995 8.2200 0.12165 520.94 566.35 2.3814 1.3862 1.6737 221.83 0.33254 7.2008 0.014902
-6.6250 55.909 0.027040 192.04 193.97 0.97875 537.41 0.0018608 182.87 183.59 0.93980 1.5492 2.4457 928.99 -0.0031998 134.64 0.10942 8.4779 0.11795 522.01 567.48 2.3801 1.3915 1.6819 221.79 0.32984 7.2284 0.015009
-5.6250 57.730 0.027858 194.71 196.70 0.98875 536.10 0.0018653 185.30 186.05 0.94892 1.5525 2.4526 922.43 -0.0031279 133.27 0.10889 8.7420 0.11439 523.07 568.60 2.3789 1.3969 1.6902 221.74 0.32720 7.2560 0.015117
-4.6250 59.595 0.028693 197.39 199.45 0.99876 534.78 0.0018699 187.74 188.51 0.95802 1.5559 2.4596 915.87 -0.0030546 131.91 0.10837 9.0126 0.11096 524.13 569.72 2.3777 1.4022 1.6985 221.68 0.32461 7.2837 0.015226
-3.6250 61.505 0.029548 200.09 202.21 1.0088 533.45 0.0018746 190.19 190.98 0.96711 1.5593 2.4667 909.30 -0.0029800 130.56 0.10785 9.2896 0.10765 525.19 570.84 2.3765 1.4076 1.7070 221.62 0.32207 7.3115 0.015336
-2.6250 63.461 0.030423 202.79 204.98 1.0188 532.12 0.0018793 192.64 193.46 0.97620 1.5627 2.4739 902.73 -0.0029041 129.23 0.10733 9.5733 0.10446 526.25 571.96 2.3753 1.4131 1.7156 221.54 0.31958 7.3394 0.015447
-1.6250 65.462 0.031317 205.50 207.76 1.0288 530.78 0.0018840 195.10 195.95 0.98527 1.5662 2.4811 896.16 -0.0028267 127.91 0.10681 9.8638 0.10138 527.31 573.07 2.3742 1.4185 1.7243 221.45 0.31715 7.3674 0.015559
-0.62500 67.510 0.032232 208.22 210.55 1.0388 529.44 0.0018888 197.56 198.44 0.99434 1.5696 2.4885 889.58 -0.0027478 126.61 0.10629 10.161 0.098414 528.37 574.18 2.3731 1.4240 1.7331 221.36 0.31476 7.3956 0.015671
0.37500 69.606 0.033167 210.95 213.35 1.0488 528.09 0.0018936 200.03 200.94 1.0034 1.5731 2.4960 883.00 -0.0026675 125.32 0.10578 10.466 0.095552 529.42 575.28 2.3720 1.4295 1.7421 221.26 0.31242 7.4239 0.015785
1.3750 71.749 0.034123 213.70 216.17 1.0588 526.73 0.0018985 202.51 203.45 1.0124 1.5767 2.5035 876.42 -0.0025856 124.04 0.10527 10.777 0.092790 530.48 576.38 2.3709 1.4350 1.7512 221.14 0.31013 7.4523 0.015899
2.3750 73.941 0.035100 216.45 219.00 1.0688 525.37 0.0019034 204.99 205.96 1.0215 1.5802 2.5112 869.83 -0.0025022 122.78 0.10476 11.096 0.090123 531.53 577.47 2.3699 1.4406 1.7604 221.02 0.30789 7.4808 0.016015
3.3750 76.183 0.036100 219.22 221.84 1.0788 523.99 0.0019084 207.48 208.48 1.0305 1.5838 2.5190 863.24 -0.0024171 121.53 0.10425 11.422 0.087549 532.58 578.56 2.3688 1.4462 1.7697 220.89 0.30569 7.5095 0.016131
4.3750 78.475 0.037121 221.99 224.70 1.0889 522.62 0.0019134 209.98 211.01 1.0395 1.5874 2.5268 856.64 -0.0023303 120.29 0.10374 11.756 0.085062 533.63 579.65 2.3678 1.4518 1.7792 220.75 0.30354 7.5384 0.016249
5.3750 80.817 0.038164 224.78 227.57 1.0989 521.23 0.0019185 212.48 213.55 1.0486 1.5910 2.5348 850.04 -0.0022417 119.06 0.10324 12.098 0.082660 534.67 580.73 2.3669 1.4575 1.7888 220.60 0.30144 7.5674 0.016368
6.3750 83.211 0.039231 227.58 230.45 1.1089 519.84 0.0019237 215.00 216.10 1.0576 1.5946 2.5429 843.43 -0.0021514 117.85 0.10273 12.447 0.080340 535.72 581.81 2.3659 1.4632 1.7986 220.44 0.29938 7.5966 0.016487
7.3750 85.657 0.040321 230.39 233.34 1.1189 518.44 0.0019289 217.51 218.65 1.0666 1.5983 2.5511 836.82 -0.0020593 116.65 0.10223 12.805 0.078096 536.76 582.88 2.3650 1.4689 1.8085 220.27 0.29736 7.6259 0.016608
8.3750 88.156 0.041435 233.21 236.25 1.1290 517.03 0.0019341 220.04 221.22 1.0756 1.6020 2.5595 830.20 -0.0019652 115.46 0.10173 13.170 0.075928 537.80 583.95 2.3640 1.4746 1.8186 220.08 0.29538 7.6555 0.016730
9.3750 90.708 0.042572 236.04 239.16 1.1390 515.62 0.0019394 222.57 223.79 1.0846 1.6057 2.5679 823.58 -0.0018691 114.28 0.10124 13.545 0.073830 538.84 585.01 2.3631 1.4804 1.8288 219.89 0.29345 7.6852 0.016853
10.375 93.315 0.043735 238.88 242.10 1.1490 514.19 0.0019448 225.11 226.37 1.0936 1.6095 2.5765 816.96 -0.0017710 113.11 0.10074 13.927 0.071802 539.87 586.07 2.3622 1.4863 1.8392 219.69 0.29156 7.7151 0.016978
11.375 95.977 0.044923 241.73 245.04 1.1591 512.76 0.0019502 227.66 228.95 1.1025 1.6132 2.5852 810.32 -0.0016708 111.95 0.10025 14.319 0.069840 540.90 587.12 2.3614 1.4921 1.8498 219.48 0.28971 7.7452 0.017103
12.375 98.694 0.046136 244.60 248.00 1.1691 511.32 0.0019557 230.22 231.55 1.1115 1.6170 2.5940 803.68 -0.0015685 110.80 0.099756 14.719 0.067941 541.93 588.17 2.3605 1.4980 1.8605 219.26 0.28790 7.7756 0.017230
13.375 101.47 0.047376 247.48 250.97 1.1792 509.87 0.0019613 232.78 234.15 1.1205 1.6208 2.6030 797.04 -0.0014639 109.67 0.099267 15.128 0.066103 542.96 589.21 2.3597 1.5040 1.8715 219.03 0.28612 7.8061 0.017359
14.375 104.30 0.048642 250.36 253.96 1.1893 508.42 0.0019669 235.35 236.77 1.1295 1.6247 2.6121 790.39 -0.0013569 108.54 0.098779 15.547 0.064323 543.99 590.24 2.3588 1.5099 1.8826 218.79 0.28439 7.8369 0.017488
15.375 107.19 0.049935 253.26 256.96 1.1993 506.95 0.0019726 237.93 239.39 1.1384 1.6286 2.6214 783.73 -0.0012476 107.43 0.098294 15.974 0.062600 545.01 591.27 2.3580 1.5159 1.8940 218.53 0.28270 7.8680 0.017619
16.375 110.13 0.051256 256.18 259.97 1.2094 505.48 0.0019783 240.52 242.02 1.1474 1.6324 2.6308 777.07 -0.0011357 106.32 0.097810 16.412 0.060931 546.03 592.29 2.3572 1.5220 1.9055 218.27 0.28104 7.8993 0.017752
17.375 113.14 0.052605 259.10 263.00 1.2195 504.00 0.0019841 243.11 244.66 1.1564 1.6364 2.6403 770.40 -0.0010213 105.22 0.097328 16.859 0.059314 547.04 593.31 2.3564 1.5281 1.9172 217.99 0.27942 7.9308 0.017886
18.375 116.21 0.053984 262.04 266.04 1.2296 502.50 0.0019900 245.72 247.31 1.1653 1.6403 2.6501 763.72 -0.00090422 104.14 0.096848 17.317 0.057747 548.05 594.32 2.3557 1.5342 1.9292 217.71 0.27783 7.9626 0.018021
19.375 119.33 0.055391 264.98 269.10 1.2397 501.00 0.0019960 248.33 249.97 1.1743 1.6443 2.6599 757.04 -0.00078435 103.06 0.096371 17.785 0.056228 549.06 595.33 2.3549 1.5404 1.9414 217.41 0.27628 7.9947 0.018159
20.375 122.52 0.056829 267.94 272.17 1.2498 499.49 0.0020020 250.95 252.64 1.1832 1.6483 2.6700 750.35 -0.00066161 101.99 0.095895 18.263 0.054756 550.07 596.32 2.3541 1.5466 1.9538 217.10 0.27477 8.0272 0.018297
21.375 125.77 0.058298 270.92 275.25 1.2599 497.97 0.0020082 253.57 255.32 1.1922 1.6523 2.6802 743.64 -0.00053589 100.93 0.095420 18.752 0.053328 551.07 597.31 2.3534 1.5528 1.9665 216.78 0.27329 8.0599 0.018438
22.375 129.08 0.059798 273.90 278.35 1.2700 496.43 0.0020144 256.21 258.00 1.2012 1.6563 2.6906 736.94 -0.00040708 99.877 0.094948 19.252 0.051943 552.07 598.30 2.3526 1.5591 1.9795 216.45 0.27184 8.0929 0.018580
23.375 132.46 0.061330 276.90 281.46 1.2801 494.89 0.0020206 258.86 260.70 1.2101 1.6604 2.7012 730.22 -0.00027505 98.834 0.094478 19.763 0.050600 553.06 599.27 2.3519 1.5655 1.9927 216.11 0.27043 8.1263 0.018724
24.375 135.90 0.062894 279.91 284.59 1.2903 493.34 0.0020270 261.51 263.41 1.2191 1.6645 2.7120 723.49 -0.00013968 97.800 0.094009 20.285 0.049297 554.05 600.24 2.3512 1.5718 2.0061 215.75 0.26906 8.1600 0.018870
25.375 139.41 0.064493 282.93 287.74 1.3004 491.77 0.0020335 264.17 266.13 1.2280 1.6686 2.7230 716.76 -8.3775e-07 96.773 0.093543 20.820 0.048032 555.03 601.20 2.3504 1.5783 2.0199 215.39 0.26771 8.1941 0.019017
26.375 142.98 0.066125 285.96 290.89 1.3106 490.20 0.0020400 266.84 268.85 1.2370 1.6728 2.7342 710.01 0.00014161 95.755 0.093078 21.366 0.046804 556.01 602.15 2.3497 1.5847 2.0340 215.01 0.26640 8.2286 0.019167
27.375 146.62 0.067793 289.01 294.07 1.3207 488.61 0.0020466 269.52 271.59 1.2459 1.6770 2.7456 703.26 0.00028782 94.745 0.092615 21.924 0.045612 556.99 603.10 2.3490 1.5913 2.0484 214.62 0.26512 8.2634 0.019319
28.375 150.33 0.069496 292.07 297.25 1.3309 487.01 0.0020533 272.21 274.34 1.2549 1.6812 2.7573 696.49 0.00043793 93.742 0.092154 22.495 0.044454 557.96 604.03 2.3483 1.5978 2.0631 214.21 0.26387 8.2987 0.019472
29.375 154.10 0.071236 295.15 300.46 1.3411 485.40 0.0020601 274.91 277.10 1.2638 1.6854 2.7691 689.72 0.00059212 92.747 0.091695 23.079 0.043329 558.92 604.96 2.3476 1.6044 2.0781 213.80 0.26265 8.3344 0.019628
30.375 157.94 0.073014 298.23 303.68 1.3512 483.78 0.0020671 277.62 279.87 1.2728 1.6897 2.7813 682.93 0.00075055 91.760 0.091238 23.676 0.042237 559.88 605.88 2.3469 1.6111 2.0935 213.37 0.26147 8.3705 0.019786
31.375 161.86 0.074831 301.33 306.91 1.3614 482.15 0.0020741 280.34 282.66 1.2818 1.6939 2.7936 676.13 0.00091340 90.779 0.090782 24.287 0.041175 560.84 606.79 2.3462 1.6178 2.1092 212.93 0.26031 8.4071 0.019947
32.375 165.84 0.076686 304.44 310.16 1.3716 480.50 0.0020812 283.07 285.45 1.2908 1.6983 2.8063 669.32 0.0010809 89.806 0.090328 24.911 0.040143 561.79 607.69 2.3455 1.6246 2.1254 212.48 0.25919 8.4442 0.020110
33.375 169.90 0.078583 307.57 313.43 1.3819 478.83 0.0020884 285.81 288.26 1.2997 1.7026 2.8192 662.50 0.0012532 88.840 0.089876 25.549 0.039140 562.73 608.58 2.3448 1.6314 2.1419 212.01 0.25809 8.4818 0.020275
34.375 174.02 0.080520 310.71 316.71 1.3921 477.16 0.0020957 288.56 291.07 1.3087 1.7070 2.8324 655.67 0.0014305 87.880 0.089426 26.202 0.038164 563.67 609.46 2.3440 1.6383 2.1589 211.53 0.25702 8.5199 0.020443
35.375 178.22 0.082501 313.86 320.01 1.4023 475.47 0.0021032 291.32 293.90 1.3177 1.7114 2.8459 648.82 0.0016131 86.927 0.088977 26.870 0.037216 564.60 610.33 2.3433 1.6452 2.1763 211.04 0.25599 8.5586 0.020613
36.375 182.50 0.084525 317.03 323.32 1.4126 473.77 0.0021107 294.09 296.74 1.3267 1.7158 2.8597 641.96 0.0018012 85.980 0.088531 27.553 0.036293 565.52 611.19 2.3426 1.6522 2.1942 210.53 0.25498 8.5978 0.020786
37.375 186.84 0.086594 320.21 326.65 1.4228 472.05 0.0021184 296.87 299.60 1.3357 1.7203 2.8739 635.08 0.0019950 85.040 0.088085 28.252 0.035395 566.44 612.04 2.3419 1.6592 2.2125 210.01 0.25400 8.6376 0.020962
38.375 191.27 0.088709 323.41 330.00 1.4331 470.31 0.0021262 299.66 302.46 1.3447 1.7248 2.8884 628.19 0.0021949 84.105 0.087642 28.967 0.034522 567.35 612.88 2.3411 1.6663 2.2314 209.47 0.25305 8.6780 0.021141
39.375 195.77 0.090871 326.61 333.36 1.4434 468.56 0.0021342 302.46 305.34 1.3537 1.7293 2.9033 621.29 0.0024011 83.177 0.087200 29.699 0.033671 568.26 613.70 2.3404 1.6734 2.2508 208.92 0.25213 8.7190 0.021323
40.375 200.34 0.093082 329.84 336.74 1.4537 466.80 0.0021423 305.27 308.23 1.3627 1.7339 2.9185 614.37 0.0026140 82.254 0.086760 30.447 0.032844 569.15 614.52 2.3396 1.6806 2.2708 208.36 0.25123 8.7608 0.021508
41.375 205.00 0.095344 333.07 340.14 1.4640 465.01 0.0021505 308.10 311.14 1.3718 1.7385 2.9342 607.43 0.0028338 81.338 0.086322 31.214 0.032037 570.04 615.32 2.3389 1.6879 2.2913 207.78 0.25037 8.8032 0.021696
42.375 209.73 0.097657 336.33 343.56 1.4743 463.21 0.0021588 310.94 314.06 1.3808 1.7432 2.9502 600.47 0.0030609 80.426 0.085885 31.998 0.031252 570.92 616.11 2.3381 1.6952 2.3125 207.19 0.24953 8.8463 0.021888
43.375 214.54 0.10002 339.59 346.99 1.4846 461.40 0.0021673 313.79 316.99 1.3899 1.7478 2.9667 593.50 0.0032957 79.520 0.085449 32.800 0.030488 571.79 616.88 2.3373 1.7027 2.3344 206.58 0.24871 8.8902 0.022084
44.375 219.43 0.10244 342.87 350.44 1.4950 459.56 0.0021760 316.65 319.94 1.3989 1.7525 2.9837 586.51 0.0035386 78.619 0.085015 33.622 0.029742 572.65 617.65 2.3365 1.7101 2.3569 205.96 0.24793 8.9349 0.022283
45.375 224.41 0.10492 346.17 353.91 1.5054 457.71 0.0021848 319.52 322.90 1.4080 1.7573 3.0012 579.50 0.0037900 77.723 0.084583 34.463 0.029016 573.50 618.40 2.3357 1.7177 2.3802 205.32 0.24717 8.9805 0.022485
46.375 229.46 0.10746 349.48 357.39 1.5157 455.83 0.0021938 322.41 325.88 1.4171 1.7621 3.0192 572.46 0.0040504 76.832 0.084152 35.325 0.028308 574.34 619.13 2.3349 1.7253 2.4042 204.67 0.24644 9.0269 0.022692
47.375 234.60 0.11005 352.81 360.89 1.5261 453.94 0.0022029 325.31 328.87 1.4262 1.7669 3.0377 565.41 0.0043202 75.946 0.083723 36.208 0.027618 575.17 619.85 2.3340 1.7329 2.4291 204.00 0.24573 9.0742 0.022903
48.375 239.83 0.11271 356.15 364.42 1.5365 452.03 0.0022123 328.22 331.88 1.4353 1.7718 3.0569 558.34 0.0046000 75.064 0.083295 37.112 0.026945 576.00 620.55 2.3332 1.7407 2.4548 203.31 0.24505 9.1224 0.023119
49.375 245.13 0.11544 359.51 367.96 1.5470 450.09 0.0022218 331.15 334.90 1.4445 1.7767 3.0766 551.24 0.0048904 74.186 0.082868 38.039 0.026289 576.81 621.24 2.3323 1.7485 2.4815 202.61 0.24440 9.1716 0.023339
50.375 250.53 0.11823 362.88 371.52 1.5574 448.13 0.0022315 334.09 337.94 1.4536 1.7817 3.0970 544.13 0.0051920 73.313 0.082442 38.989 0.025648 577.61 621.91 2.3314 1.7564 2.5092 201.89 0.24377 9.2219 0.023564
51.375 256.01 0.12109 366.27 375.09 1.5679 446.15 0.0022414 337.04 341.00 1.4628 1.7867 3.1181 536.98 0.0055054 72.443 0.082018 39.962 0.025024 578.39 622.56 2.3304 1.7644 2.5379 201.16 0.24317 9.2733 0.023794
52.375 261.57 0.12402 369.67 378.69 1.5783 444.15 0.0022515 340.01 344.07 1.4720 1.7918 3.1400 529.82 0.0058313 71.577 0.081595 40.961 0.024414 579.17 623.20 2.3295 1.7724 2.5677 200.41 0.24260 9.3258 0.024029
53.375 267.23 0.12702 373.09 382.31 1.5888 442.12 0.0022618 343.00 347.17 1.4812 1.7969 3.1627 522.62 0.0061705 70.715 0.081174 41.985 0.023818 579.93 623.81 2.3285 1.7805 2.5987 199.63 0.24205 9.3795 0.024270
54.375 272.97 0.13011 376.53 385.94 1.5993 440.06 0.0022724 346.00 350.28 1.4904 1.8021 3.1862 515.40 0.0065239 69.856 0.080753 43.036 0.023237 580.68 624.41 2.3274 1.7887 2.6310 198.85 0.24154 9.4344 0.024516
55.375 278.81 0.13327 379.99 389.60 1.6099 437.98 0.0022832 349.02 353.40 1.4997 1.8073 3.2106 508.15 0.0068923 69.001 0.080334 44.114 0.022669 581.41 624.99 2.3264 1.7969 2.6646 198.04 0.24105 9.4907 0.024769
56.375 284.74 0.13652 383.46 393.27 1.6204 435.87 0.0022943 352.05 356.55 1.5090 1.8126 3.2360 500.87 0.0072767 68.148 0.079915 45.221 0.022114 582.13 625.54 2.3253 1.8052 2.6998 197.22 0.24059 9.5484 0.025028
57.375 290.76 0.13986 386.95 396.97 1.6310 433.73 0.0023056 355.10 359.72 1.5183 1.8179 3.2624 493.56 0.0076782 67.299 0.079498 46.358 0.021571 582.83 626.07 2.3241 1.8136 2.7365 196.37 0.24016 9.6075 0.025294
58.375 296.87 0.14328 390.45 400.69 1.6416 431.56 0.0023172 358.17 362.91 1.5276 1.8233 3.2900 486.22 0.0080980 66.451 0.079082 47.525 0.021041 583.52 626.58 2.3230 1.8220 2.7749 195.51 0.23976 9.6682 0.025568
59.375 303.08 0.14680 393.98 404.43 1.6522 429.36 0.0023290 361.25 366.12 1.5370 1.8288 3.3188 478.84 0.0085373 65.606 0.078666 48.726 0.020523 584.18 627.07 2.3218 1.8305 2.8152 194.63 0.23939 9.7305 0.025849
60.375 309.38 0.15043 397.52 408.19 1.6628 427.13 0.0023412 364.36 369.35 1.5464 1.8343 3.3489 471.43 0.0089976 64.763 0.078251 49.960 0.020016 584.83 627.53 2.3205 1.8391 2.8576 193.73 0.23905 9.7945 0.026138
61.375 315.78 0.15415 401.08 411.97 1.6735 424.87 0.0023537 367.48 372.60 1.5558 1.8400 3.3805 463.99 0.0094803 63.922 0.077838 51.229 0.019520 585.46 627.96 2.3192 1.8479 2.9022 192.82 0.23873 9.8603 0.026436
62.375 322.28 0.15799 404.66 415.77 1.6842 422.56 0.0023665 370.62 375.88 1.5653 1.8457 3.4136 456.50 0.0099871 63.083 0.077425 52.535 0.019035 586.07 628.37 2.3178 1.8567 2.9492 191.88 0.23845 9.9281 0.026744
63.375 328.88 0.16195 408.26 419.60 1.6949 420.22 0.0023797 373.79 379.18 1.5748 1.8514 3.4483 448.97 0.010520 62.244 0.077012 53.879 0.018560 586.66 628.74 2.3164 1.8656 2.9989 190.92 0.23819 9.9979 0.027061
64.375 335.58 0.16602 411.88 423.45 1.7056 417.85 0.0023932 376.97 382.51 1.5844 1.8573 3.4850 441.40 0.011081 61.407 0.076600 55.265 0.018095 587.22 629.09 2.3149 1.8747 3.0517 189.95 0.23796 10.070 0.027389
65.375 342.38 0.17022 415.52 427.32 1.7164 415.42 0.0024072 380.18 385.86 1.5939 1.8633 3.5236 433.79 0.011672 60.570 0.076189 56.692 0.017639 587.76 629.40 2.3133 1.8839 3.1077 188.95 0.23775 10.144 0.027729
66.375 349.28 0.17456 419.18 431.22 1.7272 412.96 0.0024215 383.41 389.25 1.6036 1.8693 3.5645 426.12 0.012296 59.733 0.075779 58.165 0.017193 588.28 629.68 2.3117 1.8933 3.1674 187.93 0.23757 10.221 0.028080
67.375 356.28 0.17904 422.85 435.14 1.7380 410.45 0.0024363 386.67 392.65 1.6133 1.8755 3.6078 418.41 0.012956 58.897 0.075368 59.684 0.016755 588.76 629.92 2.3100 1.9030 3.2311 186.89 0.23740 10.300 0.028446
68.375 363.40 0.18368 426.55 439.08 1.7489 407.89 0.0024516 389.95 396.09 1.6230 1.8818 3.6537 410.64 0.013655 58.059 0.074959 61.253 0.016326 589.22 630.13 2.3082 1.9129 3.2994 185.83 0.23724 10.382 0.028825
69.375 370.61 0.18847 430.28 443.05 1.7597 405.28 0.0024674 393.26 399.57 1.6328 1.8882 3.7027 402.81 0.014396 57.221 0.074549 62.875 0.015905 589.65 630.29 2.3064 1.9231 3.3727 184.74 0.23710 10.467 0.029221
70.375 377.94 0.19344 434.02 447.05 1.7707 402.62 0.0024838 396.60 403.07 1.6426 1.8947 3.7550 394.92 0.015183 56.381 0.074141 64.552 0.015491 590.04 630.41 2.3044 1.9336 3.4518 183.63 0.23697 10.555 0.029633
71.375 385.37 0.19860 437.78 451.07 1.7816 399.89 0.0025007 399.96 406.61 1.6525 1.9014 3.8109 386.97 0.016021 55.540 0.073732 66.288 0.015086 590.40 630.49 2.3024 1.9444 3.5371 182.50 0.23684 10.647 0.030064
72.375 392.92 0.20395 441.57 455.12 1.7926 397.11 0.0025182 403.36 410.18 1.6625 1.9083 3.8711 378.95 0.016915 54.696 0.073324 68.087 0.014687 590.73 630.51 2.3002 1.9556 3.6297 181.34 0.23671 10.743 0.030515
73.375 400.57 0.20951 445.39 459.20 1.8036 394.26 0.0025364 406.79 413.80 1.6726 1.9153 3.9359 370.85 0.017871 53.848 0.072917 69.953 0.014295 591.01 630.49 2.2979 1.9673 3.7303 180.16 0.23658 10.842 0.030989
74.375 408.34 0.21530 449.23 463.30 1.8147 391.34 0.0025553 410.26 417.45 1.6827 1.9226 4.0060 362.67 0.018894 52.997 0.072510 71.890 0.013910 591.25 630.41 2.2955 1.9793 3.8401 178.95 0.23643 10.946 0.031488
75.375 416.23 0.22133 453.09 467.44 1.8258 388.34 0.0025751 413.76 421.15 1.6930 1.9301 4.0822 354.41 0.019993 52.142 0.072104 73.904 0.013531 591.44 630.27 2.2930 1.9919 3.9604 177.71 0.23627 11.054 0.032014
76.375 424.23 0.22764 456.98 471.60 1.8369 385.26 0.0025957 417.31 424.90 1.7033 1.9378 4.1654 346.06 0.021177 51.281 0.071699 76.001 0.013158 591.59 630.07 2.2903 2.0050 4.0927 176.44 0.23609 11.168 0.032570
77.375 432.35 0.23424 460.90 475.80 1.8481 382.09 0.0026172 420.89 428.70 1.7137 1.9459 4.2565 337.60 0.022455 50.414 0.071295 78.187 0.012790 591.68 629.80 2.2874 2.0186 4.2389 175.15 0.23588 11.287 0.033161
78.375 440.59 0.24115 464.84 480.03 1.8593 378.83 0.0026397 424.53 432.54 1.7243 1.9543 4.3570 329.05 0.023838 49.539 0.070893 80.469 0.012427 591.71 629.46 2.2844 2.0328 4.4012 173.82 0.23563 11.412 0.033789
79.375 448.95 0.24842 468.82 484.29 1.8706 375.46 0.0026634 428.21 436.45 1.7349 1.9631 4.4684 320.38 0.025341 48.657 0.070494 82.856 0.012069 591.68 629.04 2.2812 2.0475 4.5824 172.46 0.23535 11.544 0.034461
80.375 457.44 0.25608 472.82 488.59 1.8820 371.97 0.0026884 431.94 440.42 1.7457 1.9723 4.5928 311.58 0.026980 47.764 0.070099 85.359 0.011715 591.58 628.53 2.2778 2.0630 4.7859 171.07 0.23501 11.684 0.035181
81.375 466.05 0.26418 476.86 492.93 1.8934 368.36 0.0027147 435.74 444.46 1.7567 1.9820 4.7327 302.66 0.028773 46.860 0.069708 87.988 0.011365 591.40 627.92 2.2742 2.0791 5.0161 169.64 0.23461 11.832 0.035957
82.375 474.79 0.27276 480.94 497.30 1.9049 364.61 0.0027427 439.60 448.58 1.7678 1.9924 4.8914 293.60 0.030744 45.942 0.069323 90.757 0.011018 591.14 627.21 2.2703 2.0959 5.2786 168.17 0.23413 11.989 0.036797
83.375 483.66 0.28190 485.04 501.72 1.9164 360.70 0.0027724 443.53 452.78 1.7791 2.0034 5.0731 284.38 0.032920 45.010 0.068948 93.681 0.010674 590.79 626.38 2.2661 2.1136 5.5807 166.67 0.23357 12.157 0.037711
84.375 492.67 0.29168 489.19 506.17 1.9280 356.61 0.0028041 447.54 457.07 1.7907 2.0153 5.2834 275.00 0.035335 44.059 0.068586 96.781 0.010333 590.33 625.42 2.2616 2.1321 5.9321 165.13 0.23290 12.338 0.038713
85.375 501.81 0.30218 493.38 510.68 1.9397 352.33 0.0028382 451.65 461.47 1.8025 2.0281 5.5302 265.44 0.038030 43.088 0.068241 100.08 0.0099920 589.74 624.31 2.2567 2.1517 6.3459 163.54 0.23209 12.532 0.039819
86.375 511.09 0.31355 497.61 515.23 1.9515 347.82 0.0028751 455.85 465.98 1.8145 2.0420 5.8240 255.69 0.041058 42.092 0.067923 103.61 0.0096520 589.03 623.04 2.2514 2.1723 6.8405 161.91 0.23112 12.743 0.041051
87.375 520.51 0.32595 501.89 519.83 1.9634 343.04 0.0029151 460.18 470.64 1.8269 2.0574 6.1803 245.72 0.044485 41.066 0.067640 107.40 0.0093114 588.15 621.56 2.2456 2.1943 7.4422 160.23 0.22995 12.973 0.042436
88.375 530.07 0.33960 506.22 524.49 1.9754 337.95 0.0029590 464.64 475.45 1.8397 2.0745 6.6221 235.52 0.048397 40.005 0.067412 111.50 0.0089689 587.08 619.86 2.2392 2.2178 8.1900 158.49 0.22854 13.226 0.044014
89.375 539.79 0.35481 510.61 529.22 1.9875 332.48 0.0030077 469.27 480.46 1.8530 2.0936 7.1851 225.04 0.052906 38.901 0.067265 115.97 0.0086228 585.79 617.88 2.2321 2.2433 9.1445 156.69 0.22681 13.508 0.045839
90.375 549.66 0.37202 515.07 534.01 1.9998 326.55 0.0030623 474.10 485.71 1.8669 2.1156 7.9284 214.26 0.058166 37.742 0.067243 120.91 0.0082708 584.22 615.56 2.2241 2.2711 10.405 154.82 0.22467 13.825 0.047992
91.375 559.68 0.39191 519.60 538.89 2.0122 320.03 0.0031247 479.19 491.25 1.8815 2.1412 8.9568 203.11 0.064389 36.514 0.067421 126.43 0.0079097 582.29 612.82 2.2150 2.3019 12.146 152.85 0.22200 14.189 0.050600
92.375 569.87 0.41559 524.22 543.86 2.0249 312.73 0.0031976 484.62 497.18 1.8972 2.1718 10.475 191.54 0.071885 35.195 0.067931 132.72 0.0075346 579.91 609.51 2.2045 2.3370 14.705 150.75 0.21862 14.618 0.053877
93.375 580.24 0.44508 528.95 548.96 2.0378 304.34 0.0032858 490.52 503.67 1.9143 2.2100 12.945 179.43 0.081133 33.755 0.069025 140.11 0.0071373 576.87 605.42 2.1919 2.3779 18.828 148.48 0.21421 15.146 0.058225
94.375 590.79 0.48471 533.84 554.21 2.0511 294.25 0.0033985 497.17 511.01 1.9336 2.2603 17.657 166.61 0.092934 32.154 0.071243 149.20 0.0067025 572.82 600.12 2.1761 2.4283 26.557 145.93 0.20825 15.847 0.064529
95.375 601.53 0.54694 538.96 559.70 2.0651 280.99 0.0035589 505.21 519.97 1.9572 2.3343 30.014 152.73 0.10888 30.366 0.076197 161.45 0.0061937 566.92 592.61 2.1544 2.4956 46.113 142.79 0.19953 16.960 0.075419
96.375 612.50 0.71313 544.62 565.73 2.0804 258.02 0.0038757 517.56 533.93 1.9943 2.4799 125.86 136.81 0.13399 28.436 0.097271 183.41 0.0054523 555.50 578.53 2.1150 2.6070 182.91 137.67 0.18336 19.789 0.10964
97.375 623.13 undefined 548.48 569.96 2.0908 200.00 0.0050000 548.48 569.96 2.0908 2.6104 180.82 136.02 0.17029 21.836 0.10764 200.00 0.0050000 548.48 569.96 2.0908 2.6104 180.82 136.02 0.17029 21.836 0.10764
98.375 633.50 undefined 551.05 572.89 2.0978 200.00 0.0050000 551.05 572.89 2.0978 2.5440 83.164 138.62 0.16769 21.058 0.089094 200.00 0.0050000 551.05 572.89 2.0978 2.5440 83.164 138.62 0.16769 21.058 0.089094
99.375 643.85 undefined 553.57 575.77 2.1045 200.00 0.0050000 553.57 575.77 2.1045 2.4887 53.599 141.10 0.16499 20.673 0.080835 200.00 0.0050000 553.57 575.77 2.1045 2.4887 53.599 141.10 0.16499 20.673 0.080835
100.38 654.17 undefined 556.03 578.59 2.1111 200.00 0.0050000 556.03 578.59 2.1111 2.4429 39.443 143.47 0.16223 20.490 0.075737 200.00 0.0050000 556.03 578.59 2.1111 2.4429 39.443 143.47 0.16223 20.490 0.075737
101.38 664.47 undefined 558.46 581.36 2.1176 200.00 0.0050000 558.46 581.36 2.1176 2.4050 31.197 145.72 0.15944 20.411 0.072159 200.00 0.0050000 558.46 581.36 2.1176 2.4050 31.197 145.72 0.15944 20.411 0.072159
102.38 674.75 undefined 560.85 584.11 2.1240 200.00 0.0050000 560.85 584.11 2.1240 2.3737 25.829 147.88 0.15665 20.384 0.069473 200.00 0.0050000 560.85 584.11 2.1240 2.3737 25.829 147.88 0.15665 20.384 0.069473
103.38 685.02 undefined 563.21 586.82 2.1303 200.00 0.0050000 563.21 586.82 2.1303 2.3477 22.071 149.93 0.15387 20.386 0.067371 200.00 0.0050000 563.21 586.82 2.1303 2.3477 22.071 149.93 0.15387 20.386 0.067371
104.38 695.28 undefined 565.54 589.51 2.1365 200.00 0.0050000 565.54 589.51 2.1365 2.3261 19.304 151.91 0.15112 20.401 0.065675 200.00 0.0050000 565.54 589.51 2.1365 2.3261 19.304 151.91 0.15112 20.401 0.065675
105.38 705.54 undefined 567.86 592.18 2.1426 200.00 0.0050000 567.86 592.18 2.1426 2.3081 17.187 153.82 0.14839 20.425 0.064277 200.00 0.0050000 567.86 592.18 2.1426 2.3081 17.187 153.82 0.14839 20.425 0.064277
106.38 715.79 undefined 570.16 594.84 2.1487 200.00 0.0050000 570.16 594.84 2.1487 2.2929 15.517 155.67 0.14571 20.452 0.063105 200.00 0.0050000 570.16 594.84 2.1487 2.2929 15.517 155.67 0.14571 20.452 0.063105
107.38 726.03 undefined 572.45 597.48 2.1547 200.00 0.0050000 572.45 597.48 2.1547 2.2802 14.170 157.47 0.14308 20.482 0.062108 200.00 0.0050000 572.45 597.48 2.1547 2.2802 14.170 157.47 0.14308 20.482 0.062108
108.38 736.27 undefined 574.72 600.10 2.1606 200.00 0.0050000 574.72 600.10 2.1606 2.2694 13.062 159.22 0.14050 20.512 0.061251 200.00 0.0050000 574.72 600.10 2.1606 2.2694 13.062 159.22 0.14050 20.512 0.061251
109.38 746.51 undefined 576.99 602.72 2.1666 200.00 0.0050000 576.99 602.72 2.1666 2.2601 12.134 160.94 0.13797 20.544 0.060508 200.00 0.0050000 576.99 602.72 2.1666 2.2601 12.134 160.94 0.13797 20.544 0.060508
110.38 756.75 undefined 579.24 605.33 2.1725 200.00 0.0050000 579.24 605.33 2.1725 2.2521 11.348 162.63 0.13550 20.576 0.059858 200.00 0.0050000 579.24 605.33 2.1725 2.2521 11.348 162.63 0.13550 20.576 0.059858
111.38 766.98 undefined 581.49 607.93 2.1783 200.00 0.0050000 581.49 607.93 2.1783 2.2451 10.673 164.29 0.13309 20.608 0.059287 200.00 0.0050000 581.49 607.93 2.1783 2.2451 10.673 164.29 0.13309 20.608 0.059287
112.38 777.21 undefined 583.73 610.53 2.1841 200.00 0.0050000 583.73 610.53 2.1841 2.2391 10.088 165.93 0.13073 20.640 0.058783 200.00 0.0050000 583.73 610.53 2.1841 2.2391 10.088 165.93 0.13073 20.640 0.058783
113.38 787.44 undefined 585.97 613.12 2.1899 200.00 0.0050000 585.97 613.12 2.1899 2.2338 9.5763 167.54 0.12843 20.673 0.058337 200.00 0.0050000 585.97 613.12 2.1899 2.2338 9.5763 167.54 0.12843 20.673 0.058337
114.38 797.67 undefined 588.20 615.70 2.1957 200.00 0.0050000 588.20 615.70 2.1957 2.2291 9.1251 169.13 0.12618 20.705 0.057940 200.00 0.0050000 588.20 615.70 2.1957 2.2291 9.1251 169.13 0.12618 20.705 0.057940
115.38 807.90 undefined 590.43 618.28 2.2014 200.00 0.0050000 590.43 618.28 2.2014 2.2250 8.7246 170.71 0.12399 20.737 0.057586 200.00 0.0050000 590.43 618.28 2.2014 2.2250 8.7246 170.71 0.12399 20.737 0.057586
116.38 818.13 undefined 592.65 620.85 2.2071 200.00 0.0050000 592.65 620.85 2.2071 2.2214 8.3667 172.27 0.12185 20.770 0.057271 200.00 0.0050000 592.65 620.85 2.2071 2.2214 8.3667 172.27 0.12185 20.770 0.057271
117.38 828.36 undefined 594.87 623.43 2.2128 200.00 0.0050000 594.87 623.43 2.2128 2.2182 8.0452 173.82 0.11977 20.802 0.056989 200.00 0.0050000 594.87 623.43 2.2128 2.2182 8.0452 173.82 0.11977 20.802 0.056989
118.38 838.58 undefined 597.09 626.00 2.2185 200.00 0.0050000 597.09 626.00 2.2185 2.2154 7.7549 175.35 0.11774 20.835 0.056737 200.00 0.0050000 597.09 626.00 2.2185 2.2154 7.7549 175.35 0.11774 20.835 0.056737
119.38 848.81 undefined 599.30 628.56 2.2242 200.00 0.0050000 599.30 628.56 2.2242 2.2130 7.4916 176.86 0.11575 20.867 0.056513 200.00 0.0050000 599.30 628.56 2.2242 2.2130 7.4916 176.86 0.11575 20.867 0.056513
120.38 859.03 undefined 601.51 631.13 2.2298 200.00 0.0050000 601.51 631.13 2.2298 2.2108 7.2518 178.36 0.11382 20.899 0.056313 200.00 0.0050000 601.51 631.13 2.2298 2.2108 7.2518 178.36 0.11382 20.899 0.056313
121.38 869.26 undefined 603.72 633.69 2.2354 200.00 0.0050000 603.72 633.69 2.2354 2.2090 7.0326 179.85 0.11193 20.932 0.056134 200.00 0.0050000 603.72 633.69 2.2354 2.2090 7.0326 179.85 0.11193 20.932 0.056134
122.38 879.48 undefined 605.93 636.25 2.2410 200.00 0.0050000 605.93 636.25 2.2410 2.2075 6.8315 181.33 0.11009 20.964 0.055976 200.00 0.0050000 605.93 636.25 2.2410 2.2075 6.8315 181.33 0.11009 20.964 0.055976
123.38 889.70 undefined 608.14 638.81 2.2466 200.00 0.0050000 608.14 638.81 2.2466 2.2062 6.6464 182.80 0.10829 20.996 0.055835 200.00 0.0050000 608.14 638.81 2.2466 2.2062 6.6464 182.80 0.10829 20.996 0.055835
124.38 899.93 undefined 610.34 641.37 2.2521 200.00 0.0050000 610.34 641.37 2.2521 2.2051 6.4755 184.25 0.10654 21.028 0.055711 200.00 0.0050000 610.34 641.37 2.2521 2.2051 6.4755 184.25 0.10654 21.028 0.055711
125.38 910.15 undefined 612.55 643.92 2.2576 200.00 0.0050000 612.55 643.92 2.2576 2.2043 6.3174 185.69 0.10483 21.061 0.055602 200.00 0.0050000 612.55 643.92 2.2576 2.2043 6.3174 185.69 0.10483 21.061 0.055602
126.38 920.37 undefined 614.75 646.48 2.2632 200.00 0.0050000 614.75 646.48 2.2632 2.2037 6.1707 187.12 0.10316 21.093 0.055507 200.00 0.0050000 614.75 646.48 2.2632 2.2037 6.1707 187.12 0.10316 21.093 0.055507
127.38 930.59 undefined 616.96 649.04 2.2687 200.00 0.0050000 616.96 649.04 2.2687 2.2033 6.0342 188.54 0.10152 21.125 0.055424 200.00 0.0050000 616.96 649.04 2.2687 2.2033 6.0342 188.54 0.10152 21.125 0.055424
128.38 940.81 undefined 619.16 651.59 2.2742 200.00 0.0050000 619.16 651.59 2.2742 2.2031 5.9070 189.95 0.099930 21.157 0.055354 200.00 0.0050000 619.16 651.59 2.2742 2.2031 5.9070 189.95 0.099930 21.157 0.055354
129.38 951.03 undefined 621.36 654.15 2.2797 200.00 0.0050000 621.36 654.15 2.2797 2.2030 5.7882 191.35 0.098372 21.189 0.055293 200.00 0.0050000 621.36 654.15 2.2797 2.2030 5.7882 191.35 0.098372 21.189 0.055293
130.38 961.25 undefined 623.57 656.70 2.2851 200.00 0.0050000 623.57 656.70 2.2851 2.2032 5.6770 192.74 0.096851 21.221 0.055243 200.00 0.0050000 623.57 656.70 2.2851 2.2032 5.6770 192.74 0.096851 21.221 0.055243
131.38 971.47 undefined 625.77 659.26 2.2906 200.00 0.0050000 625.77 659.26 2.2906 2.2034 5.5727 194.12 0.095364 21.253 0.055202 200.00 0.0050000 625.77 659.26 2.2906 2.2034 5.5727 194.12 0.095364 21.253 0.055202
132.38 981.69 undefined 627.97 661.81 2.2960 200.00 0.0050000 627.97 661.81 2.2960 2.2039 5.4748 195.49 0.093912 21.285 0.055170 200.00 0.0050000 627.97 661.81 2.2960 2.2039 5.4748 195.49 0.093912 21.285 0.055170
133.38 991.91 undefined 630.18 664.37 2.3014 200.00 0.0050000 630.18 664.37 2.3014 2.2044 5.3828 196.85 0.092491 21.316 0.055146 200.00 0.0050000 630.18 664.37 2.3014 2.2044 5.3828 196.85 0.092491 21.316 0.055146
134.38 1002.1 undefined 632.38 666.93 2.3069 200.00 0.0050000 632.38 666.93 2.3069 2.2051 5.2960 198.20 0.091103 21.348 0.055129 200.00 0.0050000 632.38 666.93 2.3069 2.2051 5.2960 198.20 0.091103 21.348 0.055129
135.38 1012.3 undefined 634.59 669.49 2.3123 200.00 0.0050000 634.59 669.49 2.3123 2.2059 5.2142 199.55 0.089746 21.380 0.055119 200.00 0.0050000 634.59 669.49 2.3123 2.2059 5.2142 199.55 0.089746 21.380 0.055119
136.38 1022.6 undefined 636.79 672.04 2.3177 200.00 0.0050000 636.79 672.04 2.3177 2.2069 5.1369 200.88 0.088418 21.412 0.055116 200.00 0.0050000 636.79 672.04 2.3177 2.2069 5.1369 200.88 0.088418 21.412 0.055116
137.38 1032.8 undefined 639.00 674.60 2.3230 200.00 0.0050000 639.00 674.60 2.3230 2.2079 5.0638 202.21 0.087119 21.443 0.055119 200.00 0.0050000 639.00 674.60 2.3230 2.2079 5.0638 202.21 0.087119 21.443 0.055119
138.38 1043.0 undefined 641.21 677.16 2.3284 200.00 0.0050000 641.21 677.16 2.3284 2.2091 4.9945 203.52 0.085849 21.475 0.055127 200.00 0.0050000 641.21 677.16 2.3284 2.2091 4.9945 203.52 0.085849 21.475 0.055127
139.38 1053.2 undefined 643.42 679.73 2.3338 200.00 0.0050000 643.42 679.73 2.3338 2.2104 4.9289 204.83 0.084606 21.507 0.055141 200.00 0.0050000 643.42 679.73 2.3338 2.2104 4.9289 204.83 0.084606 21.507 0.055141
140.38 1063.4 undefined 645.63 682.29 2.3391 200.00 0.0050000 645.63 682.29 2.3391 2.2117 4.8666 206.13 0.083390 21.538 0.055159 200.00 0.0050000 645.63 682.29 2.3391 2.2117 4.8666 206.13 0.083390 21.538 0.055159
141.38 1073.6 undefined 647.84 684.85 2.3445 200.00 0.0050000 647.84 684.85 2.3445 2.2131 4.8074 207.43 0.082200 21.570 0.055183 200.00 0.0050000 647.84 684.85 2.3445 2.2131 4.8074 207.43 0.082200 21.570 0.055183
142.38 1083.8 undefined 650.06 687.42 2.3498 200.00 0.0050000 650.06 687.42 2.3498 2.2147 4.7511 208.71 0.081034 21.601 0.055211 200.00 0.0050000 650.06 687.42 2.3498 2.2147 4.7511 208.71 0.081034 21.601 0.055211
143.38 1094.1 undefined 652.27 689.99 2.3551 200.00 0.0050000 652.27 689.99 2.3551 2.2163 4.6975 209.99 0.079894 21.633 0.055243 200.00 0.0050000 652.27 689.99 2.3551 2.2163 4.6975 209.99 0.079894 21.633 0.055243
144.38 1104.3 undefined 654.49 692.56 2.3605 200.00 0.0050000 654.49 692.56 2.3605 2.2179 4.6464 211.26 0.078776 21.664 0.055280 200.00 0.0050000 654.49 692.56 2.3605 2.2179 4.6464 211.26 0.078776 21.664 0.055280
145.38 1114.5 undefined 656.71 695.13 2.3658 200.00 0.0050000 656.71 695.13 2.3658 2.2197 4.5977 212.53 0.077682 21.696 0.055320 200.00 0.0050000 656.71 695.13 2.3658 2.2197 4.5977 212.53 0.077682 21.696 0.055320
146.38 1124.7 undefined 658.93 697.70 2.3711 200.00 0.0050000 658.93 697.70 2.3711 2.2215 4.5512 213.79 0.076611 21.727 0.055363 200.00 0.0050000 658.93 697.70 2.3711 2.2215 4.5512 213.79 0.076611 21.727 0.055363
147.38 1134.9 undefined 661.15 700.27 2.3764 200.00 0.0050000 661.15 700.27 2.3764 2.2234 4.5068 215.04 0.075561 21.758 0.055410 200.00 0.0050000 661.15 700.27 2.3764 2.2234 4.5068 215.04 0.075561 21.758 0.055410
148.38 1145.1 undefined 663.37 702.85 2.3816 200.00 0.0050000 663.37 702.85 2.3816 2.2253 4.4644 216.28 0.074533 21.789 0.055460 200.00 0.0050000 663.37 702.85 2.3816 2.2253 4.4644 216.28 0.074533 21.789 0.055460
149.38 1155.3 undefined 665.60 705.43 2.3869 200.00 0.0050000 665.60 705.43 2.3869 2.2273 4.4238 217.52 0.073525 21.821 0.055514 200.00 0.0050000 665.60 705.43 2.3869 2.2273 4.4238 217.52 0.073525 21.821 0.055514
150.38 1165.5 undefined 667.83 708.01 2.3922 200.00 0.0050000 667.83 708.01 2.3922 2.2294 4.3849 218.75 0.072537 21.852 0.055570 200.00 0.0050000 667.83 708.01 2.3922 2.2294 4.3849 218.75 0.072537 21.852 0.055570
151.38 1175.7 undefined 670.06 710.59 2.3974 200.00 0.0050000 670.06 710.59 2.3974 2.2315 4.3477 219.97 0.071569 21.883 0.055629 200.00 0.0050000 670.06 710.59 2.3974 2.2315 4.3477 219.97 0.071569 21.883 0.055629
152.38 1185.9 undefined 672.29 713.18 2.4027 200.00 0.0050000 672.29 713.18 2.4027 2.2337 4.3120 221.19 0.070620 21.914 0.055691 200.00 0.0050000 672.29 713.18 2.4027 2.2337 4.3120 221.19 0.070620 21.914 0.055691
153.38 1196.1 undefined 674.53 715.76 2.4079 200.00 0.0050000 674.53 715.76 2.4079 2.2359 4.2777 222.40 0.069689 21.945 0.055755 200.00 0.0050000 674.53 715.76 2.4079 2.2359 4.2777 222.40 0.069689 21.945 0.055755
154.38 1206.3 undefined 676.76 718.35 2.4132 200.00 0.0050000 676.76 718.35 2.4132 2.2381 4.2449 223.60 0.068777 21.976 0.055822 200.00 0.0050000 676.76 718.35 2.4132 2.2381 4.2449 223.60 0.068777 21.976 0.055822
155.38 1216.5 undefined 679.00 720.94 2.4184 200.00 0.0050000 679.00 720.94 2.4184 2.2404 4.2133 224.80 0.067882 22.007 0.055890 200.00 0.0050000 679.00 720.94 2.4184 2.2404 4.2133 224.80 0.067882 22.007 0.055890
156.38 1226.7 undefined 681.25 723.54 2.4236 200.00 0.0050000 681.25 723.54 2.4236 2.2427 4.1830 225.99 0.067004 22.038 0.055962 200.00 0.0050000 681.25 723.54 2.4236 2.2427 4.1830 225.99 0.067004 22.038 0.055962
157.38 1237.0 undefined 683.49 726.13 2.4288 200.00 0.0050000 683.49 726.13 2.4288 2.2451 4.1539 227.18 0.066143 22.069 0.056035 200.00 0.0050000 683.49 726.13 2.4288 2.2451 4.1539 227.18 0.066143 22.069 0.056035
158.38 1247.2 undefined 685.74 728.73 2.4341 200.00 0.0050000 685.74 728.73 2.4341 2.2475 4.1259 228.36 0.065298 22.100 0.056110 200.00 0.0050000 685.74 728.73 2.4341 2.2475 4.1259 228.36 0.065298 22.100 0.056110
159.38 1257.4 undefined 687.98 731.33 2.4393 200.00 0.0050000 687.98 731.33 2.4393 2.2499 4.0989 229.54 0.064469 22.131 0.056187 200.00 0.0050000 687.98 731.33 2.4393 2.2499 4.0989 229.54 0.064469 22.131 0.056187
160.38 1267.6 undefined 690.24 733.93 2.4445 200.00 0.0050000 690.24 733.93 2.4445 2.2524 4.0730 230.71 0.063655 22.162 0.056267 200.00 0.0050000 690.24 733.93 2.4445 2.2524 4.0730 230.71 0.063655 22.162 0.056267
161.38 1277.7 undefined 692.49 736.54 2.4497 200.00 0.0050000 692.49 736.54 2.4497 2.2549 4.0480 231.88 0.062856 22.192 0.056348 200.00 0.0050000 692.49 736.54 2.4497 2.2549 4.0480 231.88 0.062856 22.192 0.056348
162.38 1287.9 undefined 694.75 739.15 2.4548 200.00 0.0050000 694.75 739.15 2.4548 2.2575 4.0239 233.03 0.062072 22.223 0.056430 200.00 0.0050000 694.75 739.15 2.4548 2.2575 4.0239 233.03 0.062072 22.223 0.056430
163.38 1298.1 undefined 697.00 741.76 2.4600 200.00 0.0050000 697.00 741.76 2.4600 2.2600 4.0007 234.19 0.061303 22.254 0.056515 200.00 0.0050000 697.00 741.76 2.4600 2.2600 4.0007 234.19 0.061303 22.254 0.056515
164.38 1308.3 undefined 699.27 744.37 2.4652 200.00 0.0050000 699.27 744.37 2.4652 2.2626 3.9783 235.34 0.060547 22.284 0.056601 200.00 0.0050000 699.27 744.37 2.4652 2.2626 3.9783 235.34 0.060547 22.284 0.056601
165.38 1318.5 undefined 701.53 746.98 2.4704 200.00 0.0050000 701.53 746.98 2.4704 2.2652 3.9568 236.48 0.059805 22.315 0.056688 200.00 0.0050000 701.53 746.98 2.4704 2.2652 3.9568 236.48 0.059805 22.315 0.056688
166.38 1328.7 undefined 703.80 749.60 2.4755 200.00 0.0050000 703.80 749.60 2.4755 2.2679 3.9359 237.62 0.059076 22.346 0.056777 200.00 0.0050000 703.80 749.60 2.4755 2.2679 3.9359 237.62 0.059076 22.346 0.056777
167.38 1338.9 undefined 706.06 752.22 2.4807 200.00 0.0050000 706.06 752.22 2.4807 2.2705 3.9158 238.75 0.058360 22.376 0.056868 200.00 0.0050000 706.06 752.22 2.4807 2.2705 3.9158 238.75 0.058360 22.376 0.056868
168.38 1349.1 undefined 708.34 754.85 2.4858 200.00 0.0050000 708.34 754.85 2.4858 2.2732 3.8964 239.88 0.057656 22.407 0.056959 200.00 0.0050000 708.34 754.85 2.4858 2.2732 3.8964 239.88 0.057656 22.407 0.056959
169.38 1359.3 undefined 710.61 757.47 2.4910 200.00 0.0050000 710.61 757.47 2.4910 2.2759 3.8777 241.01 0.056965 22.437 0.057053 200.00 0.0050000 710.61 757.47 2.4910 2.2759 3.8777 241.01 0.056965 22.437 0.057053
170.38 1369.5 undefined 712.89 760.10 2.4961 200.00 0.0050000 712.89 760.10 2.4961 2.2787 3.8596 242.13 0.056286 22.468 0.057147 200.00 0.0050000 712.89 760.10 2.4961 2.2787 3.8596 242.13 0.056286 22.468 0.057147
171.38 1379.7 undefined 715.17 762.73 2.5013 200.00 0.0050000 715.17 762.73 2.5013 2.2814 3.8420 243.24 0.055619 22.498 0.057243 200.00 0.0050000 715.17 762.73 2.5013 2.2814 3.8420 243.24 0.055619 22.498 0.057243
172.38 1389.9 undefined 717.45 765.37 2.5064 200.00 0.0050000 717.45 765.37 2.5064 2.2842 3.8251 244.35 0.054963 22.528 0.057340 200.00 0.0050000 717.45 765.37 2.5064 2.2842 3.8251 244.35 0.054963 22.528 0.057340
173.38 1400.0 undefined 719.74 768.00 2.5115 200.00 0.0050000 719.74 768.00 2.5115 2.2870 3.8088 245.46 0.054318 22.559 0.057438 200.00 0.0050000 719.74 768.00 2.5115 2.2870 3.8088 245.46 0.054318 22.559 0.057438
174.38 1410.2 undefined 722.03 770.64 2.5166 200.00 0.0050000 722.03 770.64 2.5166 2.2898 3.7929 246.56 0.053684 22.589 0.057537 200.00 0.0050000 722.03 770.64 2.5166 2.2898 3.7929 246.56 0.053684 22.589 0.057537
175.38 1420.4 undefined 724.32 773.28 2.5217 200.00 0.0050000 724.32 773.28 2.5217 2.2926 3.7776 247.65 0.053061 22.619 0.057638 200.00 0.0050000 724.32 773.28 2.5217 2.2926 3.7776 247.65 0.053061 22.619 0.057638
176.38 1430.6 undefined 726.61 775.93 2.5269 200.00 0.0050000 726.61 775.93 2.5269 2.2954 3.7628 248.74 0.052448 22.649 0.057739 200.00 0.0050000 726.61 775.93 2.5269 2.2954 3.7628 248.74 0.052448 22.649 0.057739
177.38 1440.8 undefined 728.91 778.58 2.5320 200.00 0.0050000 728.91 778.58 2.5320 2.2983 3.7485 249.83 0.051845 22.680 0.057842 200.00 0.0050000 728.91 778.58 2.5320 2.2983 3.7485 249.83 0.051845 22.680 0.057842
178.38 1451.0 undefined 731.21 781.23 2.5371 200.00 0.0050000 731.21 781.23 2.5371 2.3012 3.7346 250.91 0.051253 22.710 0.057946 200.00 0.0050000 731.21 781.23 2.5371 2.3012 3.7346 250.91 0.051253 22.710 0.057946
179.38 1461.1 undefined 733.51 783.88 2.5422 200.00 0.0050000 733.51 783.88 2.5422 2.3040 3.7211 251.99 0.050670 22.740 0.058050 200.00 0.0050000 733.51 783.88 2.5422 2.3040 3.7211 251.99 0.050670 22.740 0.058050
180.38 1471.3 undefined 735.82 786.54 2.5472 200.00 0.0050000 735.82 786.54 2.5472 2.3069 3.7081 253.07 0.050096 22.770 0.058156 200.00 0.0050000 735.82 786.54 2.5472 2.3069 3.7081 253.07 0.050096 22.770 0.058156
181.38 1481.5 undefined 738.12 789.20 2.5523 200.00 0.0050000 738.12 789.20 2.5523 2.3099 3.6955 254.14 0.049532 22.800 0.058263 200.00 0.0050000 738.12 789.20 2.5523 2.3099 3.6955 254.14 0.049532 22.800 0.058263
182.38 1491.7 undefined 740.43 791.86 2.5574 200.00 0.0050000 740.43 791.86 2.5574 2.3128 3.6833 255.20 0.048977 22.830 0.058370 200.00 0.0050000 740.43 791.86 2.5574 2.3128 3.6833 255.20 0.048977 22.830 0.058370
183.38 1501.8 undefined 742.75 794.52 2.5625 200.00 0.0050000 742.75 794.52 2.5625 2.3157 3.6714 256.27 0.048431 22.860 0.058478 200.00 0.0050000 742.75 794.52 2.5625 2.3157 3.6714 256.27 0.048431 22.860 0.058478
184.38 1512.0 undefined 745.07 797.19 2.5675 200.00 0.0050000 745.07 797.19 2.5675 2.3187 3.6600 257.32 0.047894 22.890 0.058588 200.00 0.0050000 745.07 797.19 2.5675 2.3187 3.6600 257.32 0.047894 22.890 0.058588
185.38 1522.2 undefined 747.39 799.86 2.5726 200.00 0.0050000 747.39 799.86 2.5726 2.3216 3.6489 258.38 0.047365 22.920 0.058698 200.00 0.0050000 747.39 799.86 2.5726 2.3216 3.6489 258.38 0.047365 22.920 0.058698
186.38 1532.4 undefined 749.71 802.54 2.5777 200.00 0.0050000 749.71 802.54 2.5777 2.3246 3.6381 259.43 0.046844 22.949 0.058809 200.00 0.0050000 749.71 802.54 2.5777 2.3246 3.6381 259.43 0.046844 22.949 0.058809
187.38 1542.5 undefined 752.04 805.21 2.5827 200.00 0.0050000 752.04 805.21 2.5827 2.3276 3.6276 260.47 0.046331 22.979 0.058920 200.00 0.0050000 752.04 805.21 2.5827 2.3276 3.6276 260.47 0.046331 22.979 0.058920
188.38 1552.7 undefined 754.36 807.89 2.5878 200.00 0.0050000 754.36 807.89 2.5878 2.3306 3.6175 261.51 0.045827 23.009 0.059033 200.00 0.0050000 754.36 807.89 2.5878 2.3306 3.6175 261.51 0.045827 23.009 0.059033
189.38 1562.9 undefined 756.70 810.57 2.5928 200.00 0.0050000 756.70 810.57 2.5928 2.3336 3.6077 262.55 0.045330 23.039 0.059146 200.00 0.0050000 756.70 810.57 2.5928 2.3336 3.6077 262.55 0.045330 23.039 0.059146
190.38 1573.0 undefined 759.03 813.26 2.5979 200.00 0.0050000 759.03 813.26 2.5979 2.3366 3.5981 263.59 0.044841 23.068 0.059260 200.00 0.0050000 759.03 813.26 2.5979 2.3366 3.5981 263.59 0.044841 23.068 0.059260
191.38 1583.2 undefined 761.37 815.95 2.6029 200.00 0.0050000 761.37 815.95 2.6029 2.3396 3.5889 264.62 0.044359 23.098 0.059375 200.00 0.0050000 761.37 815.95 2.6029 2.3396 3.5889 264.62 0.044359 23.098 0.059375
192.38 1593.4 undefined 763.71 818.64 2.6079 200.00 0.0050000 763.71 818.64 2.6079 2.3426 3.5799 265.64 0.043885 23.128 0.059491 200.00 0.0050000 763.71 818.64 2.6079 2.3426 3.5799 265.64 0.043885 23.128 0.059491
193.38 1603.5 undefined 766.06 821.33 2.6130 200.00 0.0050000 766.06 821.33 2.6130 2.3457 3.5712 266.67 0.043417 23.157 0.059607 200.00 0.0050000 766.06 821.33 2.6130 2.3457 3.5712 266.67 0.043417 23.157 0.059607
194.38 1613.7 undefined 768.40 824.03 2.6180 200.00 0.0050000 768.40 824.03 2.6180 2.3487 3.5628 267.69 0.042957 23.187 0.059724 200.00 0.0050000 768.40 824.03 2.6180 2.3487 3.5628 267.69 0.042957 23.187 0.059724
195.38 1623.8 undefined 770.75 826.73 2.6230 200.00 0.0050000 770.75 826.73 2.6230 2.3518 3.5546 268.70 0.042504 23.217 0.059842 200.00 0.0050000 770.75 826.73 2.6230 2.3518 3.5546 268.70 0.042504 23.217 0.059842
196.38 1634.0 undefined 773.11 829.44 2.6280 200.00 0.0050000 773.11 829.44 2.6280 2.3548 3.5467 269.71 0.042057 23.246 0.059960 200.00 0.0050000 773.11 829.44 2.6280 2.3548 3.5467 269.71 0.042057 23.246 0.059960
197.38 1644.2 undefined 775.46 832.14 2.6331 200.00 0.0050000 775.46 832.14 2.6331 2.3579 3.5390 270.72 0.041617 23.275 0.060079 200.00 0.0050000 775.46 832.14 2.6331 2.3579 3.5390 270.72 0.041617 23.275 0.060079
198.38 1654.3 undefined 777.82 834.85 2.6381 200.00 0.0050000 777.82 834.85 2.6381 2.3610 3.5315 271.73 0.041183 23.305 0.060199 200.00 0.0050000 777.82 834.85 2.6381 2.3610 3.5315 271.73 0.041183 23.305 0.060199
199.38 1664.5 undefined 780.18 837.56 2.6431 200.00 0.0050000 780.18 837.56 2.6431 2.3641 3.5243 272.73 0.040756 23.334 0.060319 200.00 0.0050000 780.18 837.56 2.6431 2.3641 3.5243 272.73 0.040756 23.334 0.060319
200.38 1674.6 undefined 782.55 840.28 2.6481 200.00 0.0050000 782.55 840.28 2.6481 2.3672 3.5172 273.73 0.040335 23.364 0.060440 200.00 0.0050000 782.55 840.28 2.6481 2.3672 3.5172 273.73 0.040335 23.364 0.060440
201.38 1684.8 undefined 784.92 843.00 2.6531 200.00 0.0050000 784.92 843.00 2.6531 2.3703 3.5104 274.72 0.039920 23.393 0.060562 200.00 0.0050000 784.92 843.00 2.6531 2.3703 3.5104 274.72 0.039920 23.393 0.060562
202.38 1694.9 undefined 787.29 845.72 2.6581 200.00 0.0050000 787.29 845.72 2.6581 2.3734 3.5038 275.71 0.039510 23.422 0.060684 200.00 0.0050000 787.29 845.72 2.6581 2.3734 3.5038 275.71 0.039510 23.422 0.060684
203.38 1705.1 undefined 789.67 848.45 2.6631 200.00 0.0050000 789.67 848.45 2.6631 2.3765 3.4973 276.70 0.039107 23.452 0.060806 200.00 0.0050000 789.67 848.45 2.6631 2.3765 3.4973 276.70 0.039107 23.452 0.060806
204.38 1715.2 undefined 792.04 851.17 2.6680 200.00 0.0050000 792.04 851.17 2.6680 2.3796 3.4911 277.69 0.038710 23.481 0.060930 200.00 0.0050000 792.04 851.17 2.6680 2.3796 3.4911 277.69 0.038710 23.481 0.060930
205.38 1725.4 undefined 794.42 853.90 2.6730 200.00 0.0050000 794.42 853.90 2.6730 2.3827 3.4851 278.67 0.038318 23.510 0.061053 200.00 0.0050000 794.42 853.90 2.6730 2.3827 3.4851 278.67 0.038318 23.510 0.061053
206.38 1735.5 undefined 796.81 856.64 2.6780 200.00 0.0050000 796.81 856.64 2.6780 2.3859 3.4792 279.65 0.037931 23.539 0.061178 200.00 0.0050000 796.81 856.64 2.6780 2.3859 3.4792 279.65 0.037931 23.539 0.061178
207.38 1745.6 undefined 799.20 859.38 2.6830 200.00 0.0050000 799.20 859.38 2.6830 2.3890 3.4735 280.62 0.037550 23.568 0.061303 200.00 0.0050000 799.20 859.38 2.6830 2.3890 3.4735 280.62 0.037550 23.568 0.061303
208.38 1755.8 undefined 801.59 862.12 2.6879 200.00 0.0050000 801.59 862.12 2.6879 2.3921 3.4680 281.59 0.037174 23.597 0.061428 200.00 0.0050000 801.59 862.12 2.6879 2.3921 3.4680 281.59 0.037174 23.597 0.061428
209.38 1765.9 undefined 803.98 864.86 2.6929 200.00 0.0050000 803.98 864.86 2.6929 2.3953 3.4626 282.56 0.036804 23.626 0.061554 200.00 0.0050000 803.98 864.86 2.6929 2.3953 3.4626 282.56 0.036804 23.626 0.061554
210.38 1776.1 undefined 806.38 867.60 2.6979 200.00 0.0050000 806.38 867.60 2.6979 2.3984 3.4574 283.53 0.036438 23.655 0.061681 200.00 0.0050000 806.38 867.60 2.6979 2.3984 3.4574 283.53 0.036438 23.655 0.061681
211.38 1786.2 undefined 808.78 870.35 2.7028 200.00 0.0050000 808.78 870.35 2.7028 2.4016 3.4524 284.49 0.036078 23.684 0.061808 200.00 0.0050000 808.78 870.35 2.7028 2.4016 3.4524 284.49 0.036078 23.684 0.061808
212.38 1796.3 undefined 811.18 873.11 2.7078 200.00 0.0050000 811.18 873.11 2.7078 2.4047 3.4475 285.45 0.035722 23.713 0.061935 200.00 0.0050000 811.18 873.11 2.7078 2.4047 3.4475 285.45 0.035722 23.713 0.061935
213.38 1806.5 undefined 813.59 875.86 2.7127 200.00 0.0050000 813.59 875.86 2.7127 2.4079 3.4428 286.41 0.035371 23.742 0.062063 200.00 0.0050000 813.59 875.86 2.7127 2.4079 3.4428 286.41 0.035371 23.742 0.062063
214.38 1816.6 undefined 816.00 878.62 2.7177 200.00 0.0050000 816.00 878.62 2.7177 2.4111 3.4382 287.36 0.035025 23.771 0.062192 200.00 0.0050000 816.00 878.62 2.7177 2.4111 3.4382 287.36 0.035025 23.771 0.062192
215.38 1826.7 undefined 818.41 881.38 2.7226 200.00 0.0050000 818.41 881.38 2.7226 2.4143 3.4338 288.31 0.034684 23.800 0.062321 200.00 0.0050000 818.41 881.38 2.7226 2.4143 3.4338 288.31 0.034684 23.800 0.062321
216.38 1836.9 undefined 820.82 884.15 2.7276 200.00 0.0050000 820.82 884.15 2.7276 2.4174 3.4295 289.26 0.034347 23.829 0.062450 200.00 0.0050000 820.82 884.15 2.7276 2.4174 3.4295 289.26 0.034347 23.829 0.062450
217.38 1847.0 undefined 823.24 886.92 2.7325 200.00 0.0050000 823.24 886.92 2.7325 2.4206 3.4253 290.20 0.034014 23.857 0.062580 200.00 0.0050000 823.24 886.92 2.7325 2.4206 3.4253 290.20 0.034014 23.857 0.062580
218.38 1857.1 undefined 825.67 889.69 2.7374 200.00 0.0050000 825.67 889.69 2.7374 2.4238 3.4212 291.14 0.033686 23.886 0.062711 200.00 0.0050000 825.67 889.69 2.7374 2.4238 3.4212 291.14 0.033686 23.886 0.062711
219.38 1867.2 undefined 828.09 892.46 2.7424 200.00 0.0050000 828.09 892.46 2.7424 2.4270 3.4173 292.08 0.033363 23.915 0.062841 200.00 0.0050000 828.09 892.46 2.7424 2.4270 3.4173 292.08 0.033363 23.915 0.062841
220.38 1877.4 undefined 830.52 895.24 2.7473 200.00 0.0050000 830.52 895.24 2.7473 2.4302 3.4135 293.02 0.033043 23.944 0.062973 200.00 0.0050000 830.52 895.24 2.7473 2.4302 3.4135 293.02 0.033043 23.944 0.062973
221.38 1887.5 undefined 832.95 898.02 2.7522 200.00 0.0050000 832.95 898.02 2.7522 2.4334 3.4098 293.95 0.032728 23.972 0.063104 200.00 0.0050000 832.95 898.02 2.7522 2.4334 3.4098 293.95 0.032728 23.972 0.063104
222.38 1897.6 undefined 835.39 900.80 2.7571 200.00 0.0050000 835.39 900.80 2.7571 2.4366 3.4063 294.88 0.032417 24.001 0.063236 200.00 0.0050000 835.39 900.80 2.7571 2.4366 3.4063 294.88 0.032417 24.001 0.063236
223.38 1907.7 undefined 837.83 903.59 2.7620 200.00 0.0050000 837.83 903.59 2.7620 2.4398 3.4029 295.80 0.032110 24.029 0.063369 200.00 0.0050000 837.83 903.59 2.7620 2.4398 3.4029 295.80 0.032110 24.029 0.063369
224.38 1917.8 undefined 840.27 906.38 2.7670 200.00 0.0050000 840.27 906.38 2.7670 2.4430 3.3995 296.73 0.031806 24.058 0.063502 200.00 0.0050000 840.27 906.38 2.7670 2.4430 3.3995 296.73 0.031806 24.058 0.063502
225.38 1928.0 undefined 842.71 909.18 2.7719 200.00 0.0050000 842.71 909.18 2.7719 2.4462 3.3963 297.65 0.031507 24.086 0.063635 200.00 0.0050000 842.71 909.18 2.7719 2.4462 3.3963 297.65 0.031507 24.086 0.063635
226.38 1938.1 undefined 845.16 911.97 2.7768 200.00 0.0050000 845.16 911.97 2.7768 2.4494 3.3932 298.57 0.031211 24.115 0.063769 200.00 0.0050000 845.16 911.97 2.7768 2.4494 3.3932 298.57 0.031211 24.115 0.063769
227.38 1948.2 undefined 847.61 914.77 2.7817 200.00 0.0050000 847.61 914.77 2.7817 2.4526 3.3902 299.48 0.030919 24.143 0.063903 200.00 0.0050000 847.61 914.77 2.7817 2.4526 3.3902 299.48 0.030919 24.143 0.063903
228.38 1958.3 undefined 850.06 917.57 2.7866 200.00 0.0050000 850.06 917.57 2.7866 2.4559 3.3873 300.40 0.030631 24.172 0.064038 200.00 0.0050000 850.06 917.57 2.7866 2.4559 3.3873 300.40 0.030631 24.172 0.064038
229.38 1968.4 undefined 852.52 920.38 2.7915 200.00 0.0050000 852.52 920.38 2.7915 2.4591 3.3845 301.31 0.030347 24.200 0.064173 200.00 0.0050000 852.52 920.38 2.7915 2.4591 3.3845 301.31 0.030347 24.200 0.064173
230.38 1978.5 undefined 854.98 923.19 2.7964 200.00 0.0050000 854.98 923.19 2.7964 2.4623 3.3818 302.22 0.030066 24.229 0.064308 200.00 0.0050000 854.98 923.19 2.7964 2.4623 3.3818 302.22 0.030066 24.229 0.064308
231.38 1988.6 undefined 857.45 926.00 2.8012 200.00 0.0050000 857.45 926.00 2.8012 2.4655 3.3792 303.12 0.029788 24.257 0.064444 200.00 0.0050000 857.45 926.00 2.8012 2.4655 3.3792 303.12 0.029788 24.257 0.064444
232.38 1998.7 undefined 859.91 928.82 2.8061 200.00 0.0050000 859.91 928.82 2.8061 2.4688 3.3766 304.02 0.029514 24.285 0.064580 200.00 0.0050000 859.91 928.82 2.8061 2.4688 3.3766 304.02 0.029514 24.285 0.064580
233.38 2008.8 undefined 862.38 931.64 2.8110 200.00 0.0050000 862.38 931.64 2.8110 2.4720 3.3742 304.92 0.029243 24.313 0.064716 200.00 0.0050000 862.38 931.64 2.8110 2.4720 3.3742 304.92 0.029243 24.313 0.064716
234.38 2018.9 undefined 864.86 934.46 2.8159 200.00 0.0050000 864.86 934.46 2.8159 2.4752 3.3719 305.82 0.028976 24.342 0.064853 200.00 0.0050000 864.86 934.46 2.8159 2.4752 3.3719 305.82 0.028976 24.342 0.064853
235.38 2029.0 undefined 867.33 937.28 2.8208 200.00 0.0050000 867.33 937.28 2.8208 2.4785 3.3696 306.72 0.028712 24.370 0.064990 200.00 0.0050000 867.33 937.28 2.8208 2.4785 3.3696 306.72 0.028712 24.370 0.064990
236.38 2039.1 undefined 869.81 940.11 2.8256 200.00 0.0050000 869.81 940.11 2.8256 2.4817 3.3674 307.61 0.028451 24.398 0.065127 200.00 0.0050000 869.81 940.11 2.8256 2.4817 3.3674 307.61 0.028451 24.398 0.065127
237.38 2049.2 undefined 872.30 942.94 2.8305 200.00 0.0050000 872.30 942.94 2.8305 2.4849 3.3653 308.50 0.028193 24.426 0.065265 200.00 0.0050000 872.30 942.94 2.8305 2.4849 3.3653 308.50 0.028193 24.426 0.065265
238.38 2059.3 undefined 874.78 945.78 2.8354 200.00 0.0050000 874.78 945.78 2.8354 2.4882 3.3633 309.38 0.027938 24.454 0.065403 200.00 0.0050000 874.78 945.78 2.8354 2.4882 3.3633 309.38 0.027938 24.454 0.065403
239.38 2069.4 undefined 877.27 948.62 2.8402 200.00 0.0050000 877.27 948.62 2.8402 2.4914 3.3614 310.27 0.027687 24.482 0.065541 200.00 0.0050000 877.27 948.62 2.8402 2.4914 3.3614 310.27 0.027687 24.482 0.065541
240.38 2079.5 undefined 879.77 951.46 2.8451 200.00 0.0050000 879.77 951.46 2.8451 2.4947 3.3595 311.15 0.027438 24.510 0.065680 200.00 0.0050000 879.77 951.46 2.8451 2.4947 3.3595 311.15 0.027438 24.510 0.065680
241.38 2089.6 undefined 882.26 954.30 2.8500 200.00 0.0050000 882.26 954.30 2.8500 2.4979 3.3578 312.03 0.027193 24.538 0.065819 200.00 0.0050000 882.26 954.30 2.8500 2.4979 3.3578 312.03 0.027193 24.538 0.065819
242.38 2099.7 undefined 884.76 957.15 2.8548 200.00 0.0050000 884.76 957.15 2.8548 2.5012 3.3561 312.91 0.026950 24.566 0.065958 200.00 0.0050000 884.76 957.15 2.8548 2.5012 3.3561 312.91 0.026950 24.566 0.065958
243.38 2109.8 undefined 887.27 960.00 2.8597 200.00 0.0050000 887.27 960.00 2.8597 2.5044 3.3544 313.78 0.026710 24.594 0.066098 200.00 0.0050000 887.27 960.00 2.8597 2.5044 3.3544 313.78 0.026710 24.594 0.066098
244.38 2119.9 undefined 889.77 962.85 2.8645 200.00 0.0050000 889.77 962.85 2.8645 2.5077 3.3529 314.66 0.026473 24.622 0.066238 200.00 0.0050000 889.77 962.85 2.8645 2.5077 3.3529 314.66 0.026473 24.622 0.066238
245.38 2130.0 undefined 892.28 965.71 2.8693 200.00 0.0050000 892.28 965.71 2.8693 2.5109 3.3514 315.53 0.026239 24.650 0.066378 200.00 0.0050000 892.28 965.71 2.8693 2.5109 3.3514 315.53 0.026239 24.650 0.066378
246.38 2140.1 undefined 894.79 968.57 2.8742 200.00 0.0050000 894.79 968.57 2.8742 2.5142 3.3499 316.39 0.026007 24.678 0.066518 200.00 0.0050000 894.79 968.57 2.8742 2.5142 3.3499 316.39 0.026007 24.678 0.066518
247.38 2150.2 undefined 897.31 971.43 2.8790 200.00 0.0050000 897.31 971.43 2.8790 2.5174 3.3486 317.26 0.025778 24.705 0.066659 200.00 0.0050000 897.31 971.43 2.8790 2.5174 3.3486 317.26 0.025778 24.705 0.066659
248.38 2160.2 undefined 899.83 974.30 2.8839 200.00 0.0050000 899.83 974.30 2.8839 2.5207 3.3473 318.12 0.025552 24.733 0.066799 200.00 0.0050000 899.83 974.30 2.8839 2.5207 3.3473 318.12 0.025552 24.733 0.066799
249.38 2170.3 undefined 902.35 977.17 2.8887 200.00 0.0050000 902.35 977.17 2.8887 2.5240 3.3461 318.98 0.025328 24.761 0.066940 200.00 0.0050000 902.35 977.17 2.8887 2.5240 3.3461 318.98 0.025328 24.761 0.066940
250.38 2180.4 undefined 904.88 980.04 2.8935 200.00 0.0050000 904.88 980.04 2.8935 2.5272 3.3449 319.84 0.025107 24.789 0.067082 200.00 0.0050000 904.88 980.04 2.8935 2.5272 3.3449 319.84 0.025107 24.789 0.067082
251.38 2190.5 undefined 907.41 982.92 2.8983 200.00 0.0050000 907.41 982.92 2.8983 2.5305 3.3438 320.70 0.024889 24.816 0.067223 200.00 0.0050000 907.41 982.92 2.8983 2.5305 3.3438 320.70 0.024889 24.816 0.067223
252.38 2200.5 undefined 909.94 985.80 2.9032 200.00 0.0050000 909.94 985.80 2.9032 2.5337 3.3427 321.55 0.024673 24.844 0.067365 200.00 0.0050000 909.94 985.80 2.9032 2.5337 3.3427 321.55 0.024673 24.844 0.067365
253.38 2210.6 undefined 912.47 988.68 2.9080 200.00 0.0050000 912.47 988.68 2.9080 2.5370 3.3417 322.40 0.024459 24.872 0.067506 200.00 0.0050000 912.47 988.68 2.9080 2.5370 3.3417 322.40 0.024459 24.872 0.067506
254.38 2220.7 undefined 915.01 991.57 2.9128 200.00 0.0050000 915.01 991.57 2.9128 2.5403 3.3408 323.25 0.024248 24.899 0.067648 200.00 0.0050000 915.01 991.57 2.9128 2.5403 3.3408 323.25 0.024248 24.899 0.067648
255.38 2230.8 undefined 917.55 994.46 2.9176 200.00 0.0050000 917.55 994.46 2.9176 2.5435 3.3399 324.10 0.024039 24.927 0.067791 200.00 0.0050000 917.55 994.46 2.9176 2.5435 3.3399 324.10 0.024039 24.927 0.067791
256.38 2240.8 undefined 920.10 997.35 2.9224 200.00 0.0050000 920.10 997.35 2.9224 2.5468 3.3391 324.94 0.023833 24.954 0.067933 200.00 0.0050000 920.10 997.35 2.9224 2.5468 3.3391 324.94 0.023833 24.954 0.067933
257.38 2250.9 undefined 922.65 1000.2 2.9272 200.00 0.0050000 922.65 1000.2 2.9272 2.5501 3.3383 325.79 0.023629 24.982 0.068075 200.00 0.0050000 922.65 1000.2 2.9272 2.5501 3.3383 325.79 0.023629 24.982 0.068075
258.38 2261.0 undefined 925.20 1003.1 2.9320 200.00 0.0050000 925.20 1003.1 2.9320 2.5533 3.3376 326.63 0.023427 25.009 0.068218 200.00 0.0050000 925.20 1003.1 2.9320 2.5533 3.3376 326.63 0.023427 25.009 0.068218
259.38 2271.0 undefined 927.75 1006.0 2.9368 200.00 0.0050000 927.75 1006.0 2.9368 2.5566 3.3370 327.47 0.023227 25.036 0.068360 200.00 0.0050000 927.75 1006.0 2.9368 2.5566 3.3370 327.47 0.023227 25.036 0.068360
260.38 2281.1 undefined 930.31 1008.9 2.9416 200.00 0.0050000 930.31 1008.9 2.9416 2.5598 3.3363 328.30 0.023030 25.064 0.068503 200.00 0.0050000 930.31 1008.9 2.9416 2.5598 3.3363 328.30 0.023030 25.064 0.068503
261.38 2291.2 undefined 932.87 1011.9 2.9464 200.00 0.0050000 932.87 1011.9 2.9464 2.5631 3.3358 329.14 0.022835 25.091 0.068645 200.00 0.0050000 932.87 1011.9 2.9464 2.5631 3.3358 329.14 0.022835 25.091 0.068645
262.38 2301.2 undefined 935.44 1014.8 2.9512 200.00 0.0050000 935.44 1014.8 2.9512 2.5664 3.3353 329.97 0.022641 25.119 0.068788 200.00 0.0050000 935.44 1014.8 2.9512 2.5664 3.3353 329.97 0.022641 25.119 0.068788
263.38 2311.3 undefined 938.01 1017.7 2.9560 200.00 0.0050000 938.01 1017.7 2.9560 2.5696 3.3348 330.80 0.022450 25.146 0.068930 200.00 0.0050000 938.01 1017.7 2.9560 2.5696 3.3348 330.80 0.022450 25.146 0.068930
264.38 2321.3 undefined 940.58 1020.6 2.9608 200.00 0.0050000 940.58 1020.6 2.9608 2.5729 3.3344 331.63 0.022261 25.173 0.069073 200.00 0.0050000 940.58 1020.6 2.9608 2.5729 3.3344 331.63 0.022261 25.173 0.069073
265.38 2331.4 undefined 943.15 1023.5 2.9656 200.00 0.0050000 943.15 1023.5 2.9656 2.5762 3.3340 332.45 0.022075 25.200 0.069215 200.00 0.0050000 943.15 1023.5 2.9656 2.5762 3.3340 332.45 0.022075 25.200 0.069215
266.38 2341.5 undefined 945.73 1026.4 2.9704 200.00 0.0050000 945.73 1026.4 2.9704 2.5794 3.3337 333.27 0.021890 25.227 0.069357 200.00 0.0050000 945.73 1026.4 2.9704 2.5794 3.3337 333.27 0.021890 25.227 0.069357
267.38 2351.5 undefined 948.31 1029.4 2.9752 200.00 0.0050000 948.31 1029.4 2.9752 2.5827 3.3334 334.10 0.021707 25.255 0.069499 200.00 0.0050000 948.31 1029.4 2.9752 2.5827 3.3334 334.10 0.021707 25.255 0.069499
268.38 2361.6 undefined 950.90 1032.3 2.9799 200.00 0.0050000 950.90 1032.3 2.9799 2.5860 3.3331 334.92 0.021526 25.282 0.069640 200.00 0.0050000 950.90 1032.3 2.9799 2.5860 3.3331 334.92 0.021526 25.282 0.069640
269.38 2371.6 undefined 953.48 1035.2 2.9847 200.00 0.0050000 953.48 1035.2 2.9847 2.5892 3.3329 335.73 0.021347 25.309 0.069782 200.00 0.0050000 953.48 1035.2 2.9847 2.5892 3.3329 335.73 0.021347 25.309 0.069782
270.38 2381.7 undefined 956.07 1038.2 2.9895 200.00 0.0050000 956.07 1038.2 2.9895 2.5925 3.3328 336.55 0.021170 25.336 0.069922 200.00 0.0050000 956.07 1038.2 2.9895 2.5925 3.3328 336.55 0.021170 25.336 0.069922
271.38 2391.7 undefined 958.67 1041.1 2.9943 200.00 0.0050000 958.67 1041.1 2.9943 2.5958 3.3327 337.36 0.020994 25.363 0.070062 200.00 0.0050000 958.67 1041.1 2.9943 2.5958 3.3327 337.36 0.020994 25.363 0.070062
272.38 2401.8 undefined 961.26 1044.1 2.9990 200.00 0.0050000 961.26 1044.1 2.9990 2.5990 3.3326 338.17 0.020821 25.390 0.070202 200.00 0.0050000 961.26 1044.1 2.9990 2.5990 3.3326 338.17 0.020821 25.390 0.070202
273.38 2411.8 undefined 963.87 1047.0 3.0038 200.00 0.0050000 963.87 1047.0 3.0038 2.6023 3.3325 338.98 0.020650 25.417 0.070340 200.00 0.0050000 963.87 1047.0 3.0038 2.6023 3.3325 338.98 0.020650 25.417 0.070340
274.38 2421.8 undefined 966.47 1050.0 3.0085 200.00 0.0050000 966.47 1050.0 3.0085 2.6056 3.3325 339.79 0.020480 25.444 0.070477 200.00 0.0050000 966.47 1050.0 3.0085 2.6056 3.3325 339.79 0.020480 25.444 0.070477
275.38 2431.9 undefined 969.08 1052.9 3.0133 200.00 0.0050000 969.08 1052.9 3.0133 2.6088 3.3326 340.60 0.020312 25.471 0.070613 200.00 0.0050000 969.08 1052.9 3.0133 2.6088 3.3326 340.60 0.020312 25.471 0.070613
276.38 2441.9 undefined 971.69 1055.9 3.0181 200.00 0.0050000 971.69 1055.9 3.0181 2.6121 3.3326 341.40 0.020146 25.498 0.070746 200.00 0.0050000 971.69 1055.9 3.0181 2.6121 3.3326 341.40 0.020146 25.498 0.070746
277.38 2452.0 undefined 974.30 1058.8 3.0228 200.00 0.0050000 974.30 1058.8 3.0228 2.6153 3.3328 342.20 0.019981 25.525 0.070877 200.00 0.0050000 974.30 1058.8 3.0228 2.6153 3.3328 342.20 0.019981 25.525 0.070877
278.38 2462.0 undefined 976.92 1061.8 3.0276 200.00 0.0050000 976.92 1061.8 3.0276 2.6186 3.3329 343.00 0.019818 25.551 0.071003 200.00 0.0050000 976.92 1061.8 3.0276 2.6186 3.3329 343.00 0.019818 25.551 0.071003
279.38 2472.0 undefined 979.54 1064.8 3.0323 200.00 0.0050000 979.54 1064.8 3.0323 2.6219 3.3331 343.80 0.019657 25.578 0.071124 200.00 0.0050000 979.54 1064.8 3.0323 2.6219 3.3331 343.80 0.019657 25.578 0.071124
280.38 2482.1 undefined 982.16 1067.7 3.0370 200.00 0.0050000 982.16 1067.7 3.0370 2.6251 3.3333 344.60 0.019498 25.605 0.071232 200.00 0.0050000 982.16 1067.7 3.0370 2.6251 3.3333 344.60 0.019498 25.605 0.071232
281.38 2492.1 undefined 984.79 1070.7 3.0418 200.00 0.0050000 984.79 1070.7 3.0418 2.6284 3.3335 345.39 0.019340 25.632 0.071301 200.00 0.0050000 984.79 1070.7 3.0418 2.6284 3.3335 345.39 0.019340 25.632 0.071301
282.38 2502.1 undefined 987.42 1073.7 3.0465 200.00 0.0050000 987.42 1073.7 3.0465 2.6316 3.3338 346.18 0.019184 25.658 0.071401 200.00 0.0050000 987.42 1073.7 3.0465 2.6316 3.3338 346.18 0.019184 25.658 0.071401
283.38 2512.2 undefined 990.05 1076.7 3.0513 200.00 0.0050000 990.05 1076.7 3.0513 2.6349 3.3341 346.97 0.019029 25.685 0.071569 200.00 0.0050000 990.05 1076.7 3.0513 2.6349 3.3341 346.97 0.019029 25.685 0.071569
284.38 2522.2 undefined 992.69 1079.6 3.0560 200.00 0.0050000 992.69 1079.6 3.0560 2.6381 3.3345 347.76 0.018876 25.712 0.071738 200.00 0.0050000 992.69 1079.6 3.0560 2.6381 3.3345 347.76 0.018876 25.712 0.071738
285.38 2532.2 undefined 995.33 1082.6 3.0607 200.00 0.0050000 995.33 1082.6 3.0607 2.6414 3.3349 348.55 0.018724 25.738 0.071907 200.00 0.0050000 995.33 1082.6 3.0607 2.6414 3.3349 348.55 0.018724 25.738 0.071907
286.38 2542.3 undefined 997.97 1085.6 3.0655 200.00 0.0050000 997.97 1085.6 3.0655 2.6446 3.3353 349.33 0.018574 25.765 0.072076 200.00 0.0050000 997.97 1085.6 3.0655 2.6446 3.3353 349.33 0.018574 25.765 0.072076
287.38 2552.3 undefined 1000.6 1088.6 3.0702 200.00 0.0050000 1000.6 1088.6 3.0702 2.6479 3.3357 350.12 0.018426 25.791 0.072245 200.00 0.0050000 1000.6 1088.6 3.0702 2.6479 3.3357 350.12 0.018426 25.791 0.072245
288.38 2562.3 undefined 1003.3 1091.6 3.0749 200.00 0.0050000 1003.3 1091.6 3.0749 2.6511 3.3362 350.90 0.018279 25.818 0.072415 200.00 0.0050000 1003.3 1091.6 3.0749 2.6511 3.3362 350.90 0.018279 25.818 0.072415
289.38 2572.3 undefined 1005.9 1094.6 3.0796 200.00 0.0050000 1005.9 1094.6 3.0796 2.6544 3.3367 351.68 0.018133 25.844 0.072585 200.00 0.0050000 1005.9 1094.6 3.0796 2.6544 3.3367 351.68 0.018133 25.844 0.072585
290.38 2582.3 undefined 1008.6 1097.6 3.0843 200.00 0.0050000 1008.6 1097.6 3.0843 2.6576 3.3372 352.46 0.017989 25.871 0.072756 200.00 0.0050000 1008.6 1097.6 3.0843 2.6576 3.3372 352.46 0.017989 25.871 0.072756
291.38 2592.4 undefined 1011.2 1100.6 3.0891 200.00 0.0050000 1011.2 1100.6 3.0891 2.6609 3.3377 353.23 0.017846 25.897 0.072926 200.00 0.0050000 1011.2 1100.6 3.0891 2.6609 3.3377 353.23 0.017846 25.897 0.072926
292.38 2602.4 undefined 1013.9 1103.6 3.0938 200.00 0.0050000 1013.9 1103.6 3.0938 2.6641 3.3383 354.01 0.017705 25.924 0.073097 200.00 0.0050000 1013.9 1103.6 3.0938 2.6641 3.3383 354.01 0.017705 25.924 0.073097
293.38 2612.4 undefined 1016.6 1106.6 3.0985 200.00 0.0050000 1016.6 1106.6 3.0985 2.6674 3.3389 354.78 0.017565 25.950 0.073269 200.00 0.0050000 1016.6 1106.6 3.0985 2.6674 3.3389 354.78 0.017565 25.950 0.073269
294.38 2622.4 undefined 1019.2 1109.6 3.1032 200.00 0.0050000 1019.2 1109.6 3.1032 2.6706 3.3396 355.55 0.017427 25.976 0.073440 200.00 0.0050000 1019.2 1109.6 3.1032 2.6706 3.3396 355.55 0.017427 25.976 0.073440
295.38 2632.4 undefined 1021.9 1112.7 3.1079 200.00 0.0050000 1021.9 1112.7 3.1079 2.6739 3.3402 356.32 0.017289 26.003 0.073612 200.00 0.0050000 1021.9 1112.7 3.1079 2.6739 3.3402 356.32 0.017289 26.003 0.073612
296.38 2642.4 undefined 1024.6 1115.7 3.1126 200.00 0.0050000 1024.6 1115.7 3.1126 2.6771 3.3409 357.09 0.017154 26.029 0.073784 200.00 0.0050000 1024.6 1115.7 3.1126 2.6771 3.3409 357.09 0.017154 26.029 0.073784
297.38 2652.4 undefined 1027.3 1118.7 3.1173 200.00 0.0050000 1027.3 1118.7 3.1173 2.6803 3.3416 357.85 0.017019 26.055 0.073957 200.00 0.0050000 1027.3 1118.7 3.1173 2.6803 3.3416 357.85 0.017019 26.055 0.073957
298.38 2662.4 undefined 1029.9 1121.7 3.1220 200.00 0.0050000 1029.9 1121.7 3.1220 2.6836 3.3424 358.62 0.016886 26.081 0.074129 200.00 0.0050000 1029.9 1121.7 3.1220 2.6836 3.3424 358.62 0.016886 26.081 0.074129
299.38 2672.5 undefined 1032.6 1124.8 3.1267 200.00 0.0050000 1032.6 1124.8 3.1267 2.6868 3.3431 359.38 0.016754 26.108 0.074302 200.00 0.0050000 1032.6 1124.8 3.1267 2.6868 3.3431 359.38 0.016754 26.108 0.074302
300.38 2682.5 undefined 1035.3 1127.8 3.1314 200.00 0.0050000 1035.3 1127.8 3.1314 2.6901 3.3439 360.14 0.016623 26.134 0.074476 200.00 0.0050000 1035.3 1127.8 3.1314 2.6901 3.3439 360.14 0.016623 26.134 0.074476