Temperature (C) Pressure (psia) Quality (l+v) Internal Energy (l+v, kJ/kg) Enthalpy (l+v, kJ/kg) Entropy (l+v, J/g*K) Density (l, kg/m3) Volume (l, m3/kg) Internal Energy (l, kJ/kg) Enthalpy (l, kJ/kg) Entropy (l, J/g*K) Cv (l, J/g*K) Cp (l, J/g*K) Sound Spd. (l, m/s) Joule-Thomson (l, F/psia) Viscosity (l, uPa*s) Therm. Cond. (l, W/m*K) Density (v, kg/m3) Volume (v, m3/kg) Internal Energy (v, kJ/kg) Enthalpy (v, kJ/kg) Entropy (v, J/g*K) Cv (v, J/g*K) Cp (v, J/g*K) Sound Spd. (v, m/s) Joule-Thomson (v, F/psia) Viscosity (v, uPa*s) Therm. Cond. (v, W/m*K)
-187.62 2.4953e-08 2.9901e-11 -196.64 -196.64 -1.3959 733.13 0.0013640 -196.64 -196.64 -1.3959 1.3553 1.9158 2136.4 -0.0077592 10960. 0.20792 1.0669e-08 9.3732e+07 350.13 366.26 5.1858 0.69067 0.87923 143.28 6.1051 2.3259 0.0017061
-186.62 3.7339e-08 4.4195e-11 -194.73 -194.73 -1.3736 732.08 0.0013660 -194.73 -194.73 -1.3736 1.3539 1.9166 2129.6 -0.0077546 10073. 0.20765 1.5780e-08 6.3371e+07 350.82 367.14 5.1200 0.69462 0.88317 144.03 5.9178 2.3534 0.0017533
-185.62 5.5322e-08 6.4686e-11 -192.81 -192.81 -1.3516 731.04 0.0013679 -192.81 -192.81 -1.3516 1.3525 1.9174 2122.9 -0.0077498 9276.1 0.20737 2.3112e-08 4.3267e+07 351.52 368.02 5.0561 0.69857 0.88713 144.77 5.7383 2.3808 0.0018007
-184.62 8.1182e-08 9.3786e-11 -190.89 -190.89 -1.3298 730.00 0.0013699 -190.89 -190.89 -1.3298 1.3513 1.9182 2116.1 -0.0077448 8557.8 0.20708 3.3533e-08 2.9821e+07 352.22 368.91 4.9939 0.70253 0.89108 145.51 5.5662 2.4083 0.0018485
-183.62 1.1803e-07 1.3474e-10 -188.97 -188.97 -1.3083 728.96 0.0013718 -188.97 -188.97 -1.3083 1.3501 1.9191 2109.3 -0.0077395 7909.8 0.20678 4.8211e-08 2.0742e+07 352.92 369.81 4.9333 0.70648 0.89504 146.24 5.4011 2.4357 0.0018965
-182.62 1.7009e-07 1.9188e-10 -187.05 -187.05 -1.2869 727.92 0.0013738 -187.05 -187.05 -1.2869 1.3490 1.9201 2102.5 -0.0077340 7324.3 0.20647 6.8704e-08 1.4555e+07 353.63 370.70 4.8744 0.71043 0.89899 146.97 5.2426 2.4632 0.0019448
-181.62 2.4299e-07 2.7094e-10 -185.13 -185.13 -1.2658 726.88 0.0013757 -185.13 -185.13 -1.2658 1.3480 1.9210 2095.7 -0.0077283 6794.5 0.20616 9.7079e-08 1.0301e+07 354.35 371.60 4.8170 0.71438 0.90294 147.69 5.0904 2.4906 0.0019934
-180.62 3.4425e-07 3.7943e-10 -183.21 -183.21 -1.2450 725.85 0.0013777 -183.21 -183.21 -1.2450 1.3470 1.9220 2088.9 -0.0077225 6314.4 0.20584 1.3605e-07 7.3504e+06 355.06 372.51 4.7612 0.71833 0.90688 148.41 4.9442 2.5181 0.0020423
-179.62 4.8378e-07 5.2716e-10 -181.29 -181.29 -1.2243 724.81 0.0013797 -181.29 -181.29 -1.2243 1.3461 1.9231 2082.0 -0.0077164 5878.8 0.20551 1.8915e-07 5.2868e+06 355.78 373.42 4.7068 0.72227 0.91082 149.13 4.8038 2.5456 0.0020915
-178.62 6.7459e-07 7.2679e-10 -179.37 -179.37 -1.2038 723.78 0.0013816 -179.37 -179.37 -1.2038 1.3453 1.9241 2075.2 -0.0077102 5482.9 0.20517 2.6096e-07 3.8320e+06 356.51 374.33 4.6538 0.72620 0.91475 149.84 4.6688 2.5731 0.0021410
-177.62 9.3358e-07 9.9458e-10 -177.44 -177.44 -1.1836 722.75 0.0013836 -177.44 -177.44 -1.1836 1.3445 1.9252 2068.4 -0.0077039 5122.6 0.20483 3.5737e-07 2.7982e+06 357.23 375.25 4.6022 0.73012 0.91867 150.54 4.5390 2.6005 0.0021907
-176.62 1.2826e-06 1.3513e-09 -175.52 -175.52 -1.1635 721.72 0.0013856 -175.52 -175.52 -1.1635 1.3437 1.9263 2061.5 -0.0076973 4794.1 0.20447 4.8588e-07 2.0581e+06 357.97 376.17 4.5519 0.73403 0.92258 151.25 4.4142 2.6280 0.0022408
-175.62 1.7496e-06 1.8231e-09 -173.59 -173.59 -1.1437 720.69 0.0013876 -173.59 -173.59 -1.1437 1.3430 1.9274 2054.7 -0.0076907 4494.3 0.20411 6.5601e-07 1.5244e+06 358.70 377.09 4.5029 0.73792 0.92648 151.95 4.2941 2.6555 0.0022912
-174.62 2.3705e-06 2.4432e-09 -171.66 -171.66 -1.1240 719.66 0.0013895 -171.66 -171.66 -1.1240 1.3423 1.9286 2047.9 -0.0076838 4220.2 0.20375 8.7976e-07 1.1367e+06 359.44 378.02 4.4551 0.74181 0.93036 152.64 4.1784 2.6830 0.0023418
-173.62 3.1903e-06 3.2528e-09 -169.73 -169.73 -1.1045 718.64 0.0013915 -169.73 -169.73 -1.1045 1.3417 1.9298 2041.0 -0.0076769 3969.3 0.20338 1.1721e-06 8.5314e+05 360.19 378.95 4.4085 0.74568 0.93423 153.33 4.0671 2.7105 0.0023928
-172.62 4.2661e-06 4.3034e-09 -167.80 -167.80 -1.0852 717.61 0.0013935 -167.80 -167.80 -1.0852 1.3411 1.9310 2034.2 -0.0076698 3739.3 0.20300 1.5518e-06 6.4441e+05 360.93 379.89 4.3631 0.74953 0.93809 154.02 3.9599 2.7379 0.0024440
-171.62 5.6692e-06 5.6584e-09 -165.87 -165.87 -1.0661 716.58 0.0013955 -165.87 -165.87 -1.0661 1.3405 1.9322 2027.3 -0.0076625 3528.0 0.20261 2.0419e-06 4.8974e+05 361.69 380.83 4.3188 0.75337 0.94193 154.71 3.8566 2.7654 0.0024955
-170.62 7.4884e-06 7.3959e-09 -163.94 -163.94 -1.0472 715.56 0.0013975 -163.94 -163.94 -1.0472 1.3400 1.9334 2020.5 -0.0076552 3333.8 0.20222 2.6708e-06 3.7442e+05 362.44 381.77 4.2755 0.75720 0.94575 155.39 3.7570 2.7929 0.0025473
-169.62 9.8334e-06 9.6111e-09 -162.00 -162.00 -1.0284 714.54 0.0013995 -162.00 -162.00 -1.0284 1.3395 1.9347 2013.6 -0.0076477 3154.9 0.20182 3.4733e-06 2.8791e+05 363.20 382.72 4.2334 0.76100 0.94956 156.07 3.6609 2.8204 0.0025994
-168.62 1.2839e-05 1.2420e-08 -160.07 -160.07 -1.0098 713.52 0.0014015 -160.07 -160.07 -1.0098 1.3390 1.9359 2006.8 -0.0076401 2989.9 0.20141 4.4917e-06 2.2263e+05 363.96 383.67 4.1922 0.76479 0.95335 156.74 3.5683 2.8479 0.0026518
-167.62 1.6672e-05 1.5963e-08 -158.13 -158.13 -0.99134 712.49 0.0014035 -158.13 -158.13 -0.99134 1.3386 1.9372 2000.0 -0.0076323 2837.5 0.20100 5.7771e-06 1.7310e+05 364.73 384.63 4.1521 0.76856 0.95712 157.41 3.4790 2.8754 0.0027045
-166.62 2.1533e-05 2.0409e-08 -156.19 -156.19 -0.97306 711.47 0.0014055 -156.19 -156.19 -0.97306 1.3382 1.9385 1993.1 -0.0076245 2696.5 0.20058 7.3914e-06 1.3529e+05 365.50 385.59 4.1129 0.77232 0.96087 158.08 3.3927 2.9029 0.0027575
-165.62 2.7666e-05 2.5959e-08 -154.25 -154.25 -0.95494 710.45 0.0014075 -154.25 -154.25 -0.95494 1.3378 1.9398 1986.3 -0.0076165 2566.0 0.20016 9.4084e-06 1.0629e+05 366.27 386.55 4.0746 0.77605 0.96460 158.75 3.3095 2.9304 0.0028108
-164.62 3.5367e-05 3.2855e-08 -152.31 -152.31 -0.93698 709.44 0.0014096 -152.31 -152.31 -0.93698 1.3375 1.9411 1979.4 -0.0076084 2444.9 0.19973 1.1916e-05 83918. 367.05 387.52 4.0372 0.77976 0.96832 159.41 3.2291 2.9579 0.0028643
-163.62 4.4989e-05 4.1382e-08 -150.37 -150.37 -0.91917 708.42 0.0014116 -150.37 -150.37 -0.91917 1.3371 1.9424 1972.6 -0.0076002 2332.3 0.19930 1.5020e-05 66577. 367.83 388.49 4.0008 0.78346 0.97201 160.07 3.1514 2.9854 0.0029182
-162.62 5.6956e-05 5.1877e-08 -148.43 -148.43 -0.90151 707.40 0.0014136 -148.43 -148.43 -0.90151 1.3368 1.9437 1965.8 -0.0075919 2227.7 0.19886 1.8844e-05 53068. 368.62 389.46 3.9651 0.78713 0.97569 160.72 3.0764 3.0129 0.0029723
-161.62 7.1773e-05 6.4738e-08 -146.48 -146.48 -0.88400 706.38 0.0014157 -146.48 -146.48 -0.88400 1.3365 1.9451 1959.0 -0.0075834 2130.2 0.19841 2.3533e-05 42494. 369.41 390.44 3.9304 0.79079 0.97935 161.38 3.0038 3.0404 0.0030268
-160.62 9.0036e-05 8.0430e-08 -144.54 -144.54 -0.86663 705.37 0.0014177 -144.54 -144.54 -0.86663 1.3363 1.9465 1952.1 -0.0075748 2039.2 0.19796 2.9258e-05 34178. 370.20 391.42 3.8964 0.79443 0.98298 162.03 2.9337 3.0679 0.0030815
-159.62 0.00011245 9.9496e-08 -142.59 -142.59 -0.84940 704.35 0.0014197 -142.59 -142.59 -0.84940 1.3360 1.9478 1945.3 -0.0075661 1954.2 0.19751 3.6221e-05 27609. 371.00 392.40 3.8632 0.79805 0.98660 162.68 2.8658 3.0955 0.0031365
-158.62 0.00013985 1.2256e-07 -140.64 -140.64 -0.83231 703.34 0.0014218 -140.64 -140.64 -0.83231 1.3358 1.9492 1938.5 -0.0075573 1874.8 0.19705 4.4652e-05 22395. 371.80 393.39 3.8307 0.80164 0.99020 163.32 2.8002 3.1230 0.0031918
-157.62 0.00017320 1.5037e-07 -138.69 -138.69 -0.81536 702.32 0.0014238 -138.69 -138.69 -0.81536 1.3356 1.9506 1931.7 -0.0075484 1800.3 0.19658 5.4822e-05 18241. 372.60 394.38 3.7990 0.80522 0.99378 163.96 2.7367 3.1505 0.0032474
-156.62 0.00021364 1.8374e-07 -136.74 -136.74 -0.79854 701.31 0.0014259 -136.74 -136.74 -0.79854 1.3354 1.9520 1924.9 -0.0075393 1730.5 0.19611 6.7040e-05 14916. 373.41 395.38 3.7680 0.80878 0.99734 164.60 2.6752 3.1780 0.0033033
-155.62 0.00026248 2.2366e-07 -134.79 -134.79 -0.78185 700.30 0.0014280 -134.79 -134.79 -0.78185 1.3352 1.9534 1918.1 -0.0075302 1664.9 0.19564 8.1666e-05 12245. 374.22 396.38 3.7377 0.81232 1.0009 165.24 2.6157 3.2055 0.0033595
-154.62 0.00032125 2.7123e-07 -132.83 -132.83 -0.76530 699.29 0.0014300 -132.83 -132.83 -0.76530 1.3350 1.9548 1911.3 -0.0075209 1603.3 0.19516 9.9109e-05 10090. 375.03 397.38 3.7081 0.81585 1.0044 165.87 2.5580 3.2330 0.0034160
-153.62 0.00039171 3.2770e-07 -130.88 -130.88 -0.74887 698.27 0.0014321 -130.88 -130.88 -0.74887 1.3349 1.9563 1904.5 -0.0075114 1545.3 0.19468 0.00011984 8344.6 375.85 398.39 3.6792 0.81935 1.0079 166.50 2.5022 3.2606 0.0034727
-152.62 0.00047590 3.9453e-07 -128.92 -128.92 -0.73256 697.26 0.0014342 -128.92 -128.92 -0.73256 1.3348 1.9577 1897.8 -0.0075019 1490.6 0.19419 0.00014439 6925.9 376.67 399.40 3.6509 0.82284 1.0114 167.13 2.4481 3.2881 0.0035298
-151.62 0.00057613 4.7334e-07 -126.96 -126.96 -0.71638 696.25 0.0014363 -126.96 -126.96 -0.71638 1.3346 1.9592 1891.0 -0.0074922 1438.9 0.19370 0.00017336 5768.4 377.49 400.41 3.6232 0.82631 1.0149 167.76 2.3957 3.3156 0.0035872
-150.62 0.00069507 5.6596e-07 -125.00 -125.00 -0.70032 695.24 0.0014384 -125.00 -125.00 -0.70032 1.3345 1.9606 1884.2 -0.0074824 1390.2 0.19320 0.00020744 4820.7 378.32 401.42 3.5962 0.82976 1.0183 168.38 2.3448 3.3431 0.0036448
-149.62 0.00083574 6.7447e-07 -123.04 -123.04 -0.68437 694.23 0.0014404 -123.04 -123.04 -0.68438 1.3345 1.9621 1877.4 -0.0074724 1344.0 0.19270 0.00024740 4042.0 379.15 402.44 3.5697 0.83319 1.0218 169.00 2.2956 3.3706 0.0037027
-148.62 0.0010016 8.0121e-07 -121.08 -121.08 -0.66855 693.22 0.0014425 -121.08 -121.08 -0.66855 1.3344 1.9636 1870.7 -0.0074623 1300.3 0.19220 0.00029412 3400.0 379.99 403.47 3.5438 0.83661 1.0252 169.62 2.2478 3.3982 0.0037610
-147.62 0.0011965 9.4878e-07 -119.11 -119.11 -0.65283 692.21 0.0014447 -119.11 -119.11 -0.65284 1.3343 1.9651 1863.9 -0.0074521 1258.9 0.19169 0.00034856 2869.0 380.83 404.49 3.5185 0.84001 1.0286 170.24 2.2014 3.4257 0.0038195
-146.62 0.0014249 1.1201e-06 -117.15 -117.15 -0.63723 691.20 0.0014468 -117.15 -117.15 -0.63724 1.3343 1.9666 1857.2 -0.0074417 1219.6 0.19117 0.00041181 2428.3 381.67 405.52 3.4938 0.84340 1.0320 170.85 2.1565 3.4532 0.0038783
-145.62 0.0016917 1.3184e-06 -115.18 -115.18 -0.62174 690.19 0.0014489 -115.18 -115.18 -0.62175 1.3343 1.9682 1850.4 -0.0074312 1182.3 0.19066 0.00048510 2061.4 382.51 406.56 3.4695 0.84677 1.0353 171.46 2.1128 3.4807 0.0039374
-144.62 0.0020026 1.5473e-06 -113.21 -113.21 -0.60636 689.18 0.0014510 -113.21 -113.21 -0.60637 1.3343 1.9697 1843.7 -0.0074206 1146.8 0.19014 0.00056976 1755.1 383.36 407.59 3.4458 0.85012 1.0387 172.07 2.0705 3.5082 0.0039967
-143.62 0.0023637 1.8108e-06 -111.24 -111.24 -0.59109 688.17 0.0014531 -111.24 -111.24 -0.59110 1.3343 1.9713 1836.9 -0.0074098 1113.0 0.18962 0.00066731 1498.6 384.21 408.63 3.4226 0.85346 1.0420 172.68 2.0294 3.5358 0.0040564
-142.62 0.0027820 2.1132e-06 -109.27 -109.27 -0.57592 687.16 0.0014553 -109.27 -109.27 -0.57593 1.3343 1.9728 1830.2 -0.0073988 1080.8 0.18909 0.00077939 1283.1 385.07 409.68 3.3999 0.85679 1.0454 173.28 1.9896 3.5633 0.0041164
-141.62 0.0032653 2.4596e-06 -107.30 -107.30 -0.56086 686.15 0.0014574 -107.30 -107.30 -0.56087 1.3343 1.9744 1823.5 -0.0073878 1050.1 0.18856 0.00090784 1101.5 385.93 410.72 3.3777 0.86011 1.0487 173.88 1.9508 3.5908 0.0041766
-140.62 0.0038222 2.8551e-06 -105.32 -105.32 -0.54590 685.14 0.0014596 -105.32 -105.32 -0.54591 1.3344 1.9760 1816.7 -0.0073765 1020.7 0.18803 0.0010547 948.16 386.79 411.77 3.3560 0.86341 1.0520 174.48 1.9133 3.6183 0.0042372
-139.62 0.0044623 3.3057e-06 -103.34 -103.34 -0.53103 684.13 0.0014617 -103.34 -103.34 -0.53105 1.3344 1.9776 1810.0 -0.0073651 992.74 0.18749 0.0012221 818.26 387.65 412.83 3.3347 0.86670 1.0553 175.08 1.8768 3.6459 0.0042980
-138.62 0.0051963 3.8178e-06 -101.36 -101.36 -0.51627 683.12 0.0014639 -101.37 -101.37 -0.51629 1.3345 1.9792 1803.3 -0.0073536 965.97 0.18695 0.0014125 707.94 388.52 413.88 3.3139 0.86998 1.0586 175.67 1.8413 3.6734 0.0043592
-137.62 0.0060358 4.3984e-06 -99.384 -99.384 -0.50161 682.11 0.0014660 -99.386 -99.386 -0.50162 1.3346 1.9808 1796.6 -0.0073419 940.35 0.18641 0.0016287 614.00 389.39 414.94 3.2935 0.87325 1.0619 176.26 1.8069 3.7009 0.0044206
-136.62 0.0069938 5.0551e-06 -97.402 -97.402 -0.48703 681.10 0.0014682 -97.404 -97.404 -0.48705 1.3347 1.9825 1789.9 -0.0073301 915.81 0.18586 0.0018733 533.80 390.26 416.00 3.2735 0.87650 1.0651 176.85 1.7734 3.7284 0.0044823
-135.62 0.0080843 5.7963e-06 -95.418 -95.418 -0.47256 680.09 0.0014704 -95.421 -95.421 -0.47258 1.3348 1.9841 1783.2 -0.0073180 892.30 0.18531 0.0021497 465.17 391.14 417.07 3.2540 0.87975 1.0684 177.44 1.7409 3.7559 0.0045443
-134.62 0.0093230 6.6309e-06 -93.433 -93.433 -0.45817 679.08 0.0014726 -93.436 -93.436 -0.45820 1.3350 1.9858 1776.5 -0.0073059 869.75 0.18476 0.0024613 406.30 392.02 418.14 3.2348 0.88299 1.0716 178.02 1.7093 3.7834 0.0046066
-133.62 0.010727 7.5686e-06 -91.446 -91.446 -0.44388 678.07 0.0014748 -91.450 -91.449 -0.44391 1.3351 1.9875 1769.8 -0.0072935 848.11 0.18421 0.0028116 355.67 392.91 419.21 3.2161 0.88622 1.0749 178.61 1.6786 3.8109 0.0046691
-132.62 0.012315 8.6201e-06 -89.457 -89.457 -0.42968 677.06 0.0014770 -89.461 -89.461 -0.42971 1.3353 1.9892 1763.1 -0.0072810 827.32 0.18365 0.0032049 312.03 393.79 420.29 3.1977 0.88944 1.0781 179.19 1.6488 3.8385 0.0047320
-131.62 0.014106 9.7966e-06 -87.466 -87.466 -0.41556 676.04 0.0014792 -87.471 -87.471 -0.41560 1.3354 1.9909 1756.4 -0.0072684 807.34 0.18309 0.0036453 274.33 394.68 421.36 3.1798 0.89266 1.0813 179.76 1.6197 3.8660 0.0047951
-130.62 0.016124 1.1110e-05 -85.474 -85.474 -0.40153 675.03 0.0014814 -85.479 -85.479 -0.40157 1.3356 1.9926 1749.7 -0.0072555 788.12 0.18253 0.0041375 241.69 395.58 422.44 3.1622 0.89586 1.0846 180.34 1.5915 3.8935 0.0048586
-129.62 0.018392 1.2575e-05 -83.480 -83.479 -0.38759 674.02 0.0014836 -83.486 -83.486 -0.38763 1.3358 1.9944 1743.0 -0.0072425 769.63 0.18196 0.0046867 213.37 396.47 423.53 3.1450 0.89906 1.0878 180.91 1.5641 3.9210 0.0049223
-128.62 0.020935 1.4203e-05 -81.484 -81.483 -0.37373 673.01 0.0014859 -81.491 -81.490 -0.37378 1.3360 1.9961 1736.3 -0.0072294 751.83 0.18140 0.0052981 188.75 397.37 424.62 3.1281 0.90226 1.0910 181.48 1.5374 3.9485 0.0049863
-127.62 0.023783 1.6012e-05 -79.486 -79.485 -0.35996 672.00 0.0014881 -79.494 -79.493 -0.36001 1.3363 1.9979 1729.6 -0.0072160 734.67 0.18083 0.0059776 167.29 398.27 425.71 3.1116 0.90545 1.0942 182.05 1.5114 3.9760 0.0050506
-126.62 0.026966 1.8015e-05 -77.486 -77.485 -0.34626 670.98 0.0014904 -77.495 -77.495 -0.34632 1.3365 1.9997 1722.9 -0.0072025 718.14 0.18025 0.0067313 148.56 399.18 426.80 3.0954 0.90863 1.0974 182.62 1.4861 4.0035 0.0051152
-125.62 0.030515 2.0232e-05 -75.485 -75.484 -0.33265 669.97 0.0014926 -75.494 -75.494 -0.33272 1.3368 2.0015 1716.2 -0.0071888 702.18 0.17968 0.0075660 132.17 400.09 427.89 3.0795 0.91181 1.1006 183.18 1.4615 4.0310 0.0051800
-124.62 0.034467 2.2680e-05 -73.481 -73.480 -0.31911 668.95 0.0014949 -73.492 -73.492 -0.31919 1.3371 2.0033 1709.5 -0.0071749 686.79 0.17910 0.0084885 117.81 401.00 428.99 3.0640 0.91499 1.1038 183.74 1.4375 4.0584 0.0052452
-123.62 0.038859 2.5378e-05 -71.476 -71.475 -0.30565 667.94 0.0014971 -71.488 -71.487 -0.30574 1.3374 2.0051 1702.8 -0.0071609 671.93 0.17852 0.0095065 105.19 401.91 430.10 3.0488 0.91816 1.1070 184.30 1.4141 4.0859 0.0053106
-122.62 0.043731 2.8348e-05 -69.468 -69.467 -0.29227 666.92 0.0014994 -69.482 -69.481 -0.29237 1.3377 2.0070 1696.2 -0.0071466 657.57 0.17794 0.010628 94.092 402.83 431.20 3.0339 0.92134 1.1102 184.86 1.3913 4.1134 0.0053764
-121.62 0.049128 3.1610e-05 -67.459 -67.457 -0.27897 665.91 0.0015017 -67.474 -67.473 -0.27907 1.3380 2.0089 1689.5 -0.0071322 643.70 0.17736 0.011861 84.309 403.75 432.31 3.0193 0.92451 1.1134 185.41 1.3691 4.1409 0.0054424
-120.62 0.055096 3.5189e-05 -65.447 -65.446 -0.26574 664.89 0.0015040 -65.464 -65.463 -0.26585 1.3384 2.0107 1682.8 -0.0071176 630.28 0.17678 0.013215 75.669 404.67 433.42 3.0050 0.92767 1.1166 185.96 1.3475 4.1683 0.0055087
-119.62 0.061684 3.9108e-05 -63.434 -63.432 -0.25258 663.87 0.0015063 -63.452 -63.452 -0.25271 1.3387 2.0126 1676.1 -0.0071028 617.30 0.17619 0.014700 68.027 405.60 434.53 2.9909 0.93084 1.1198 186.51 1.3264 4.1958 0.0055752
-118.62 0.068946 4.3394e-05 -61.418 -61.416 -0.23949 662.86 0.0015086 -61.439 -61.438 -0.23963 1.3391 2.0146 1669.4 -0.0070878 604.74 0.17560 0.016325 61.255 406.53 435.64 2.9772 0.93401 1.1231 187.06 1.3058 4.2233 0.0056421
-117.62 0.076937 4.8073e-05 -59.401 -59.398 -0.22648 661.84 0.0015109 -59.423 -59.422 -0.22663 1.3395 2.0165 1662.8 -0.0070726 592.58 0.17501 0.018101 55.245 407.46 436.76 2.9638 0.93718 1.1263 187.60 1.2857 4.2507 0.0057092
-116.62 0.085718 5.3175e-05 -57.381 -57.378 -0.21353 660.82 0.0015133 -57.406 -57.405 -0.21370 1.3400 2.0184 1656.1 -0.0070573 580.80 0.17442 0.020040 49.901 408.39 437.88 2.9506 0.94035 1.1295 188.14 1.2660 4.2782 0.0057767
-115.62 0.095353 5.8728e-05 -55.359 -55.356 -0.20066 659.80 0.0015156 -55.386 -55.385 -0.20084 1.3404 2.0204 1649.4 -0.0070417 569.38 0.17383 0.022152 45.142 409.33 439.01 2.9377 0.94352 1.1327 188.68 1.2468 4.3056 0.0058444
-114.62 0.10591 6.4766e-05 -53.335 -53.332 -0.18785 658.78 0.0015180 -53.365 -53.364 -0.18805 1.3409 2.0224 1642.7 -0.0070260 558.32 0.17323 0.024451 40.898 410.27 440.13 2.9250 0.94669 1.1360 189.22 1.2281 4.3330 0.0059123
-113.62 0.11746 7.1320e-05 -51.309 -51.305 -0.17511 657.76 0.0015203 -51.342 -51.340 -0.17533 1.3413 2.0244 1636.0 -0.0070100 547.59 0.17264 0.026949 37.107 411.21 441.26 2.9126 0.94987 1.1392 189.75 1.2097 4.3604 0.0059806
-112.62 0.13008 7.8426e-05 -49.280 -49.276 -0.16243 656.73 0.0015227 -49.316 -49.315 -0.16267 1.3418 2.0264 1629.3 -0.0069938 537.18 0.17204 0.029661 33.715 412.16 442.39 2.9005 0.95305 1.1424 190.28 1.1918 4.3879 0.0060491
-111.62 0.14384 8.6119e-05 -47.249 -47.245 -0.14982 655.71 0.0015251 -47.289 -47.287 -0.15008 1.3424 2.0285 1622.7 -0.0069774 527.08 0.17144 0.032600 30.675 413.10 443.53 2.8885 0.95623 1.1457 190.81 1.1742 4.4153 0.0061180
-110.62 0.15884 9.4438e-05 -45.216 -45.211 -0.13727 654.69 0.0015274 -45.259 -45.258 -0.13755 1.3429 2.0305 1616.0 -0.0069609 517.28 0.17084 0.035781 27.948 414.06 444.66 2.8769 0.95942 1.1490 191.34 1.1570 4.4427 0.0061871
-109.62 0.17516 0.00010342 -43.180 -43.175 -0.12478 653.66 0.0015298 -43.228 -43.226 -0.12509 1.3435 2.0326 1609.3 -0.0069441 507.76 0.17024 0.039220 25.497 415.01 445.80 2.8654 0.96261 1.1522 191.86 1.1402 4.4701 0.0062564
-108.62 0.19290 0.00011311 -41.142 -41.137 -0.11236 652.64 0.0015322 -41.194 -41.192 -0.11269 1.3441 2.0347 1602.6 -0.0069271 498.51 0.16964 0.042933 23.292 415.96 446.94 2.8542 0.96581 1.1555 192.38 1.1236 4.4974 0.0063261
-107.62 0.21215 0.00012355 -39.102 -39.096 -0.099993 651.61 0.0015347 -39.158 -39.156 -0.10036 1.3447 2.0369 1595.9 -0.0069098 489.52 0.16903 0.046937 21.305 416.92 448.09 2.8433 0.96901 1.1588 192.90 1.1075 4.5248 0.0063960
-106.62 0.23301 0.00013478 -37.059 -37.052 -0.087689 650.58 0.0015371 -37.120 -37.118 -0.088082 1.3453 2.0390 1589.2 -0.0068924 480.79 0.16843 0.051250 19.512 417.88 449.23 2.8325 0.97222 1.1621 193.41 1.0916 4.5522 0.0064662
-105.62 0.25561 0.00014685 -35.014 -35.006 -0.075443 649.55 0.0015395 -35.080 -35.078 -0.075868 1.3460 2.0412 1582.6 -0.0068747 472.30 0.16782 0.055891 17.892 418.85 450.38 2.8220 0.97544 1.1655 193.93 1.0760 4.5795 0.0065367
-104.62 0.28004 0.00015980 -32.966 -32.958 -0.063255 648.52 0.0015420 -33.038 -33.035 -0.063714 1.3467 2.0434 1575.9 -0.0068569 464.04 0.16721 0.060878 16.426 419.81 451.53 2.8116 0.97867 1.1688 194.44 1.0608 4.6069 0.0066074
-103.62 0.30643 0.00017369 -30.915 -30.907 -0.051123 647.49 0.0015444 -30.994 -30.991 -0.051619 1.3474 2.0456 1569.2 -0.0068387 456.00 0.16660 0.066231 15.099 420.78 452.68 2.8015 0.98191 1.1722 194.94 1.0458 4.6342 0.0066785
-102.62 0.33490 0.00018857 -28.862 -28.853 -0.039048 646.46 0.0015469 -28.947 -28.944 -0.039582 1.3481 2.0478 1562.5 -0.0068204 448.18 0.16600 0.071971 13.894 421.75 453.84 2.7916 0.98516 1.1755 195.44 1.0310 4.6615 0.0067498
-101.62 0.36558 0.00020449 -26.806 -26.796 -0.027027 645.43 0.0015494 -26.898 -26.894 -0.027602 1.3489 2.0501 1555.8 -0.0068018 440.57 0.16539 0.078120 12.801 422.73 454.99 2.7818 0.98841 1.1789 195.95 1.0166 4.6888 0.0068213
-100.62 0.39862 0.00022150 -24.748 -24.736 -0.015061 644.39 0.0015519 -24.847 -24.843 -0.015678 1.3497 2.0524 1549.1 -0.0067830 433.16 0.16478 0.084699 11.807 423.70 456.15 2.7723 0.99168 1.1823 196.44 1.0024 4.7161 0.0068932
-99.625 0.43414 0.00023966 -22.687 -22.674 -0.0031472 643.36 0.0015544 -22.794 -22.789 -0.0038103 1.3505 2.0547 1542.4 -0.0067639 425.95 0.16416 0.091731 10.901 424.68 457.31 2.7630 0.99496 1.1858 196.94 0.98838 4.7434 0.0069653
-98.625 0.47230 0.00025904 -20.622 -20.609 0.0087140 642.32 0.0015569 -20.738 -20.733 0.0080027 1.3514 2.0570 1535.7 -0.0067447 418.92 0.16355 0.099240 10.077 425.66 458.48 2.7538 0.99825 1.1892 197.43 0.97464 4.7707 0.0070377
-97.625 0.51325 0.00027968 -18.555 -18.541 0.020524 641.28 0.0015594 -18.680 -18.674 0.019762 1.3522 2.0594 1529.0 -0.0067251 412.07 0.16294 0.10725 9.3239 426.65 459.64 2.7448 1.0016 1.1927 197.92 0.96112 4.7979 0.0071103
-96.625 0.55714 0.00030165 -16.486 -16.469 0.032283 640.24 0.0015619 -16.620 -16.614 0.031467 1.3531 2.0618 1522.3 -0.0067053 405.39 0.16233 0.11579 8.6365 427.63 460.81 2.7360 1.0049 1.1962 198.40 0.94783 4.8251 0.0071832
-95.625 0.60416 0.00032502 -14.413 -14.395 0.043993 639.20 0.0015645 -14.557 -14.550 0.043120 1.3540 2.0642 1515.7 -0.0066853 398.88 0.16171 0.12488 8.0078 428.62 461.98 2.7274 1.0082 1.1997 198.88 0.93475 4.8524 0.0072564
-94.625 0.65446 0.00034985 -12.337 -12.318 0.055653 638.16 0.0015670 -12.491 -12.484 0.054721 1.3550 2.0667 1509.0 -0.0066650 392.53 0.16110 0.13455 7.4323 429.61 463.15 2.7189 1.0116 1.2032 199.36 0.92188 4.8796 0.0073299
-93.625 0.70822 0.00037620 -10.258 -10.237 0.067266 637.12 0.0015696 -10.424 -10.416 0.066271 1.3560 2.0691 1502.3 -0.0066444 386.34 0.16048 0.14482 6.9050 430.60 464.32 2.7107 1.0149 1.2068 199.83 0.90921 4.9068 0.0074036
-92.625 0.76564 0.00040415 -8.1757 -8.1537 0.078831 636.07 0.0015722 -8.3535 -8.3452 0.077771 1.3570 2.0716 1495.6 -0.0066236 380.31 0.15987 0.15573 6.4212 431.60 465.49 2.7025 1.0183 1.2104 200.30 0.89673 4.9340 0.0074776
-91.625 0.82689 0.00043377 -6.0905 -6.0667 0.090350 635.02 0.0015747 -6.2808 -6.2719 0.089220 1.3580 2.0742 1488.9 -0.0066025 374.41 0.15925 0.16731 5.9769 432.59 466.67 2.6946 1.0217 1.2140 200.77 0.88445 4.9611 0.0075518
-90.625 0.89218 0.00046512 -4.0020 -3.9764 0.10182 633.98 0.0015773 -4.2056 -4.1959 0.10062 1.3591 2.0767 1482.2 -0.0065811 368.66 0.15864 0.17958 5.5685 433.59 467.84 2.6868 1.0251 1.2177 201.24 0.87236 4.9883 0.0076263
-89.625 0.96172 0.00049829 -1.9103 -1.8826 0.11325 632.93 0.0015800 -2.1279 -2.1174 0.11197 1.3602 2.0793 1475.5 -0.0065595 363.05 0.15802 0.19258 5.1928 434.59 469.02 2.6791 1.0285 1.2213 201.70 0.86045 5.0154 0.0077011
-88.625 1.0357 0.00053334 0.18483 0.21458 0.12464 631.88 0.0015826 -0.047516 -0.036215 0.12328 1.3613 2.0819 1468.8 -0.0065375 357.56 0.15740 0.20633 4.8466 435.59 470.20 2.6717 1.0320 1.2250 202.15 0.84873 5.0425 0.0077761
-87.625 1.1144 0.00057036 2.2833 2.3153 0.13598 630.83 0.0015852 2.0355 2.0476 0.13454 1.3625 2.0846 1462.1 -0.0065153 352.21 0.15679 0.22087 4.5276 436.60 471.39 2.6643 1.0354 1.2288 202.61 0.83718 5.0696 0.0078514
-86.625 1.1979 0.00060942 4.3852 4.4197 0.14728 629.77 0.0015879 4.1211 4.1342 0.14575 1.3637 2.0873 1455.4 -0.0064928 346.98 0.15617 0.23623 4.2331 437.61 472.57 2.6571 1.0389 1.2325 203.06 0.82580 5.0967 0.0079270
-85.625 1.2866 0.00065061 6.4907 6.5276 0.15854 628.72 0.0015905 6.2094 6.2235 0.15691 1.3649 2.0900 1448.8 -0.0064701 341.87 0.15555 0.25245 3.9612 438.61 473.75 2.6501 1.0424 1.2363 203.50 0.81460 5.1237 0.0080028
-84.625 1.3806 0.00069400 8.5997 8.6394 0.16975 627.66 0.0015932 8.3004 8.3155 0.16803 1.3661 2.0927 1442.1 -0.0064470 336.87 0.15494 0.26956 3.7097 439.63 474.94 2.6432 1.0460 1.2402 203.95 0.80356 5.1508 0.0080789
-83.625 1.4803 0.00073968 10.712 10.755 0.18093 626.60 0.0015959 10.394 10.410 0.17911 1.3674 2.0955 1435.4 -0.0064236 331.99 0.15432 0.28760 3.4771 440.64 476.13 2.6364 1.0495 1.2440 204.38 0.79269 5.1778 0.0081553
-82.625 1.5858 0.00078774 12.829 12.874 0.19207 625.54 0.0015986 12.491 12.508 0.19014 1.3687 2.0983 1428.7 -0.0063999 327.22 0.15370 0.30659 3.2616 441.65 477.31 2.6298 1.0531 1.2479 204.82 0.78199 5.2048 0.0082319
-81.625 1.6975 0.00083826 14.949 14.998 0.20316 624.48 0.0016013 14.590 14.609 0.20113 1.3700 2.1012 1422.0 -0.0063759 322.55 0.15309 0.32659 3.0619 442.67 478.50 2.6233 1.0567 1.2519 205.25 0.77144 5.2318 0.0083088
-80.625 1.8155 0.00089133 17.073 17.125 0.21423 623.42 0.0016041 16.692 16.712 0.21208 1.3714 2.1041 1415.4 -0.0063516 317.99 0.15247 0.34763 2.8766 443.69 479.70 2.6169 1.0603 1.2558 205.67 0.76106 5.2587 0.0083860
-79.625 1.9402 0.00094704 19.200 19.256 0.22525 622.36 0.0016068 18.797 18.819 0.22299 1.3728 2.1070 1408.7 -0.0063270 313.52 0.15186 0.36974 2.7046 444.71 480.89 2.6106 1.0639 1.2598 206.10 0.75083 5.2857 0.0084634
-78.625 2.0718 0.0010055 21.332 21.392 0.23624 621.29 0.0016096 20.905 20.928 0.23385 1.3742 2.1099 1402.0 -0.0063021 309.15 0.15124 0.39296 2.5448 445.73 482.08 2.6045 1.0676 1.2639 206.51 0.74076 5.3126 0.0085411
-77.625 2.2107 0.0010668 23.468 23.531 0.24719 620.22 0.0016123 23.016 23.040 0.24468 1.3757 2.1129 1395.3 -0.0062768 304.88 0.15062 0.41735 2.3961 446.75 483.27 2.5985 1.0712 1.2680 206.93 0.73084 5.3395 0.0086190
-76.625 2.3571 0.0011310 25.608 25.675 0.25810 619.15 0.0016151 25.130 25.156 0.25546 1.3772 2.1159 1388.7 -0.0062512 300.69 0.15001 0.44292 2.2577 447.78 484.47 2.5926 1.0749 1.2721 207.34 0.72107 5.3664 0.0086972
-75.625 2.5113 0.0011982 27.752 27.824 0.26898 618.08 0.0016179 27.247 27.275 0.26620 1.3787 2.1190 1382.0 -0.0062253 296.59 0.14939 0.46974 2.1288 448.81 485.67 2.5869 1.0787 1.2762 207.74 0.71146 5.3933 0.0087757
-74.625 2.6736 0.0012685 29.900 29.977 0.27983 617.01 0.0016207 29.366 29.396 0.27691 1.3802 2.1221 1375.4 -0.0061990 292.58 0.14878 0.49783 2.0087 449.83 486.86 2.5812 1.0824 1.2804 208.14 0.70200 5.4201 0.0088544
-73.625 2.8444 0.0013420 32.052 32.134 0.29065 615.93 0.0016236 31.489 31.521 0.28758 1.3818 2.1252 1368.7 -0.0061724 288.65 0.14816 0.52725 1.8966 450.86 488.06 2.5757 1.0862 1.2847 208.54 0.69268 5.4469 0.0089334
-72.625 3.0240 0.0014189 34.209 34.296 0.30143 614.85 0.0016264 33.615 33.649 0.29821 1.3834 2.1284 1362.0 -0.0061454 284.81 0.14755 0.55804 1.7920 451.90 489.26 2.5703 1.0900 1.2889 208.93 0.68351 5.4737 0.0090126
-71.625 3.2127 0.0014991 36.370 36.462 0.31218 613.78 0.0016293 35.745 35.781 0.30880 1.3851 2.1316 1355.4 -0.0061181 281.03 0.14694 0.59024 1.6942 452.93 490.46 2.5650 1.0938 1.2932 209.32 0.67448 5.5005 0.0090922
-70.625 3.4108 0.0015829 38.536 38.634 0.32290 612.69 0.0016321 37.877 37.915 0.31935 1.3867 2.1349 1348.7 -0.0060904 277.34 0.14632 0.62390 1.6028 453.96 491.66 2.5598 1.0976 1.2976 209.70 0.66560 5.5273 0.0091720
-69.625 3.6187 0.0016703 40.706 40.810 0.33359 611.61 0.0016350 40.013 40.053 0.32987 1.3884 2.1382 1342.1 -0.0060624 273.72 0.14571 0.65906 1.5173 455.00 492.86 2.5547 1.1015 1.3020 210.08 0.65687 5.5540 0.0092520
-68.625 3.8367 0.0017614 42.881 42.991 0.34425 610.53 0.0016379 42.152 42.195 0.34036 1.3902 2.1415 1335.5 -0.0060339 270.17 0.14510 0.69577 1.4372 456.04 494.06 2.5497 1.1054 1.3064 210.45 0.64827 5.5807 0.0093324
-67.625 4.0652 0.0018564 45.060 45.177 0.35488 609.44 0.0016409 44.294 44.340 0.35080 1.3919 2.1449 1328.8 -0.0060051 266.69 0.14449 0.73408 1.3622 457.08 495.26 2.5448 1.1093 1.3109 210.82 0.63981 5.6074 0.0094130
-66.625 4.3046 0.0019553 47.244 47.368 0.36548 608.35 0.0016438 46.439 46.488 0.36122 1.3937 2.1483 1322.2 -0.0059760 263.28 0.14388 0.77404 1.2919 458.12 496.46 2.5400 1.1133 1.3154 211.18 0.63150 5.6341 0.0094939
-65.625 4.5551 0.0020583 49.433 49.564 0.37605 607.26 0.0016467 48.588 48.640 0.37160 1.3955 2.1518 1315.6 -0.0059464 259.93 0.14327 0.81570 1.2259 459.16 497.67 2.5353 1.1172 1.3200 211.54 0.62332 5.6608 0.0095750
-64.625 4.8173 0.0021654 51.627 51.765 0.38660 606.16 0.0016497 50.740 50.795 0.38195 1.3974 2.1553 1308.9 -0.0059164 256.65 0.14266 0.85910 1.1640 460.21 498.87 2.5307 1.1212 1.3246 211.89 0.61527 5.6874 0.0096564
-63.625 5.0915 0.0022768 53.826 53.972 0.39712 605.07 0.0016527 52.896 52.954 0.39226 1.3993 2.1588 1302.3 -0.0058861 253.42 0.14205 0.90429 1.1058 461.25 500.07 2.5262 1.1252 1.3293 212.24 0.60736 5.7140 0.0097382
-62.625 5.3781 0.0023925 56.030 56.184 0.40761 603.97 0.0016557 55.055 55.117 0.40254 1.4012 2.1624 1295.7 -0.0058553 250.26 0.14144 0.95134 1.0511 462.30 501.28 2.5218 1.1293 1.3340 212.58 0.59958 5.7406 0.0098201
-61.625 5.6774 0.0025128 58.239 58.402 0.41808 602.87 0.0016587 57.218 57.283 0.41279 1.4031 2.1660 1289.1 -0.0058241 247.16 0.14084 1.0003 0.99972 463.35 502.48 2.5175 1.1333 1.3387 212.92 0.59194 5.7672 0.0099024
-60.625 5.9899 0.0026377 60.453 60.625 0.42852 601.77 0.0016618 59.385 59.453 0.42301 1.4051 2.1697 1282.5 -0.0057925 244.12 0.14023 1.0512 0.95131 464.40 503.68 2.5133 1.1374 1.3435 213.26 0.58442 5.7938 0.0099850
-59.625 6.3160 0.0027673 62.672 62.854 0.43894 600.66 0.0016648 61.554 61.627 0.43320 1.4071 2.1734 1275.9 -0.0057605 241.13 0.13962 1.1041 0.90573 465.45 504.89 2.5091 1.1415 1.3483 213.58 0.57704 5.8203 0.010068
-58.625 6.6561 0.0029018 64.897 65.088 0.44934 599.55 0.0016679 63.728 63.805 0.44335 1.4091 2.1772 1269.3 -0.0057280 238.19 0.13902 1.1591 0.86277 466.50 506.09 2.5051 1.1457 1.3532 213.90 0.56978 5.8468 0.010151
-57.625 7.0107 0.0030412 67.127 67.328 0.45971 598.44 0.0016710 65.905 65.986 0.45348 1.4111 2.1810 1262.7 -0.0056951 235.31 0.13842 1.2161 0.82228 467.55 507.30 2.5011 1.1498 1.3581 214.22 0.56265 5.8733 0.010234
-56.625 7.3801 0.0031858 69.362 69.574 0.47005 597.33 0.0016741 68.086 68.172 0.46358 1.4132 2.1848 1256.1 -0.0056617 232.48 0.13781 1.2754 0.78408 468.60 508.50 2.4972 1.1540 1.3631 214.53 0.55564 5.8998 0.010318
-55.625 7.7648 0.0033355 71.603 71.826 0.48038 596.22 0.0016772 70.271 70.361 0.47364 1.4153 2.1887 1249.5 -0.0056279 229.69 0.13721 1.3369 0.74802 469.66 509.71 2.4934 1.1582 1.3681 214.84 0.54875 5.9263 0.010402
-54.625 8.1652 0.0034906 73.850 74.085 0.49069 595.10 0.0016804 72.460 72.554 0.48368 1.4174 2.1927 1242.9 -0.0055937 226.96 0.13661 1.4006 0.71396 470.72 510.91 2.4897 1.1624 1.3731 215.14 0.54199 5.9527 0.010486
-53.625 8.5819 0.0036511 76.102 76.349 0.50097 593.98 0.0016836 74.652 74.752 0.49369 1.4196 2.1967 1236.3 -0.0055589 224.27 0.13601 1.4667 0.68178 471.77 512.11 2.4860 1.1667 1.3782 215.43 0.53535 5.9792 0.010571
-52.625 9.0151 0.0038172 78.360 78.619 0.51123 592.86 0.0016867 76.849 76.954 0.50368 1.4218 2.2007 1229.8 -0.0055237 221.63 0.13541 1.5353 0.65136 472.83 513.32 2.4824 1.1710 1.3834 215.72 0.52882 6.0056 0.010656
-51.625 9.4655 0.0039890 80.624 80.896 0.52147 591.73 0.0016900 79.049 79.159 0.51363 1.4240 2.2048 1223.2 -0.0054880 219.04 0.13482 1.6062 0.62258 473.89 514.52 2.4789 1.1752 1.3886 216.00 0.52241 6.0320 0.010741
-50.625 9.9335 0.0041666 82.894 83.179 0.53170 590.60 0.0016932 81.253 81.369 0.52356 1.4262 2.2089 1216.6 -0.0054519 216.48 0.13422 1.6797 0.59534 474.95 515.73 2.4755 1.1796 1.3938 216.28 0.51612 6.0584 0.010827
-49.625 10.419 0.0043502 85.169 85.469 0.54190 589.47 0.0016964 83.462 83.584 0.53347 1.4285 2.2131 1210.1 -0.0054152 213.98 0.13363 1.7558 0.56954 476.01 516.93 2.4722 1.1839 1.3991 216.55 0.50994 6.0848 0.010913
-48.625 10.924 0.0045398 87.451 87.765 0.55208 588.34 0.0016997 85.674 85.802 0.54334 1.4308 2.2173 1203.5 -0.0053780 211.51 0.13303 1.8345 0.54510 477.07 518.13 2.4689 1.1883 1.4044 216.82 0.50387 6.1112 0.010999
-47.625 11.448 0.0047357 89.739 90.068 0.56225 587.20 0.0017030 87.891 88.025 0.55319 1.4331 2.2216 1196.9 -0.0053403 209.08 0.13244 1.9159 0.52194 478.14 519.33 2.4657 1.1927 1.4098 217.08 0.49792 6.1375 0.011085
-46.625 11.991 0.0049379 92.033 92.377 0.57240 586.06 0.0017063 90.111 90.252 0.56302 1.4354 2.2259 1190.4 -0.0053020 206.69 0.13185 2.0001 0.49997 479.20 520.53 2.4625 1.1971 1.4153 217.33 0.49207 6.1639 0.011172
-45.625 12.554 0.0051466 94.333 94.693 0.58253 584.92 0.0017096 92.336 92.484 0.57282 1.4378 2.2303 1183.8 -0.0052633 204.34 0.13126 2.0872 0.47912 480.27 521.74 2.4594 1.2015 1.4207 217.58 0.48633 6.1902 0.011259
-44.625 13.137 0.0053619 96.639 97.016 0.59265 583.77 0.0017130 94.565 94.720 0.58260 1.4402 2.2347 1177.3 -0.0052240 202.03 0.13067 2.1771 0.45933 481.33 522.94 2.4564 1.2060 1.4263 217.82 0.48069 6.2165 0.011347
-43.625 13.741 0.0055839 98.952 99.347 0.60274 582.62 0.0017164 96.799 96.961 0.59235 1.4426 2.2392 1170.7 -0.0051841 199.75 0.13008 2.2700 0.44053 482.40 524.14 2.4535 1.2104 1.4319 218.05 0.47516 6.2429 0.011435
-42.625 14.367 0.0058128 101.27 101.68 0.61283 581.47 0.0017198 99.036 99.207 0.60208 1.4450 2.2437 1164.2 -0.0051437 197.51 0.12949 2.3659 0.42267 483.46 525.33 2.4506 1.2149 1.4375 218.28 0.46973 6.2692 0.011523
-41.625 15.015 0.0060487 103.60 104.03 0.62289 580.32 0.0017232 101.28 101.46 0.61179 1.4475 2.2483 1157.7 -0.0051027 195.30 0.12891 2.4649 0.40569 484.53 526.53 2.4478 1.2195 1.4432 218.50 0.46440 6.2955 0.011612
-40.625 15.686 0.0062917 105.93 106.38 0.63294 579.16 0.0017266 103.52 103.71 0.62147 1.4500 2.2529 1151.1 -0.0050611 193.13 0.12832 2.5671 0.38954 485.60 527.73 2.4450 1.2240 1.4489 218.72 0.45917 6.3218 0.011701
-39.625 16.380 0.0065420 108.27 108.74 0.64298 578.00 0.0017301 105.78 105.97 0.63113 1.4525 2.2576 1144.6 -0.0050189 190.99 0.12774 2.6725 0.37418 486.67 528.93 2.4423 1.2286 1.4547 218.93 0.45403 6.3481 0.011790
-38.625 17.097 0.0067998 110.61 111.10 0.65300 576.83 0.0017336 108.03 108.24 0.64077 1.4550 2.2623 1138.0 -0.0049761 188.88 0.12716 2.7813 0.35955 487.74 530.12 2.4397 1.2332 1.4606 219.13 0.44900 6.3744 0.011880
-37.625 17.838 0.0070651 112.97 113.48 0.66301 575.66 0.0017371 110.29 110.51 0.65039 1.4576 2.2671 1131.5 -0.0049327 186.81 0.12658 2.8934 0.34562 488.81 531.32 2.4371 1.2378 1.4665 219.33 0.44405 6.4007 0.011970
-36.625 18.604 0.0073381 115.32 115.86 0.67301 574.49 0.0017407 112.56 112.78 0.65999 1.4602 2.2719 1125.0 -0.0048887 184.76 0.12600 3.0089 0.33235 489.88 532.51 2.4346 1.2424 1.4724 219.52 0.43920 6.4270 0.012060
-35.625 19.395 0.0076189 117.69 118.25 0.68299 573.32 0.0017442 114.83 115.06 0.66956 1.4628 2.2768 1118.5 -0.0048440 182.75 0.12542 3.1280 0.31969 490.95 533.70 2.4321 1.2471 1.4784 219.70 0.43444 6.4533 0.012151
-34.625 20.212 0.0079077 120.06 120.64 0.69296 572.14 0.0017478 117.10 117.34 0.67912 1.4654 2.2818 1111.9 -0.0047987 180.76 0.12485 3.2506 0.30763 492.02 534.89 2.4297 1.2517 1.4845 219.88 0.42977 6.4797 0.012243
-33.625 21.056 0.0082047 122.44 123.05 0.70292 570.96 0.0017514 119.38 119.63 0.68865 1.4681 2.2868 1105.4 -0.0047527 178.80 0.12427 3.3770 0.29612 493.09 536.08 2.4273 1.2564 1.4906 220.05 0.42519 6.5060 0.012334
-32.625 21.926 0.0085099 124.83 125.46 0.71286 569.77 0.0017551 121.66 121.93 0.69817 1.4708 2.2918 1098.9 -0.0047061 176.87 0.12370 3.5071 0.28514 494.17 537.27 2.4250 1.2611 1.4968 220.21 0.42070 6.5323 0.012426
-31.625 22.823 0.0088236 127.23 127.88 0.72280 568.58 0.0017588 123.95 124.23 0.70767 1.4735 2.2970 1092.3 -0.0046587 174.97 0.12313 3.6410 0.27465 495.24 538.46 2.4227 1.2659 1.5031 220.36 0.41629 6.5587 0.012519
-30.625 23.749 0.0091458 129.63 130.31 0.73272 567.39 0.0017625 126.24 126.53 0.71714 1.4762 2.3021 1085.8 -0.0046107 173.09 0.12256 3.7787 0.26464 496.31 539.64 2.4205 1.2706 1.5094 220.51 0.41196 6.5850 0.012612
-29.625 24.703 0.0094767 132.04 132.75 0.74263 566.19 0.0017662 128.54 128.84 0.72660 1.4790 2.3074 1079.3 -0.0045619 171.24 0.12200 3.9205 0.25507 497.38 540.83 2.4184 1.2754 1.5157 220.65 0.40772 6.6114 0.012706
-28.625 25.687 0.0098165 134.45 135.19 0.75254 564.99 0.0017699 130.84 131.16 0.73604 1.4818 2.3126 1072.8 -0.0045124 169.42 0.12143 4.0663 0.24592 498.46 542.01 2.4162 1.2802 1.5222 220.79 0.40356 6.6378 0.012800
-27.625 26.700 0.010165 136.88 137.64 0.76243 563.78 0.0017737 133.15 133.48 0.74547 1.4846 2.3180 1066.2 -0.0044621 167.62 0.12087 4.2163 0.23717 499.53 543.19 2.4142 1.2850 1.5286 220.91 0.39947 6.6642 0.012894
-26.625 27.743 0.010523 139.31 140.10 0.77231 562.57 0.0017775 135.47 135.81 0.75487 1.4874 2.3234 1059.7 -0.0044111 165.84 0.12031 4.3705 0.22881 500.60 544.37 2.4122 1.2899 1.5352 221.03 0.39547 6.6906 0.012989
-25.625 28.817 0.010891 141.75 142.57 0.78218 561.36 0.0017814 137.78 138.14 0.76426 1.4902 2.3289 1053.2 -0.0043593 164.09 0.11975 4.5290 0.22080 501.68 545.55 2.4102 1.2947 1.5418 221.14 0.39154 6.7171 0.013084
-24.625 29.923 0.011267 144.19 145.05 0.79205 560.14 0.0017853 140.11 140.48 0.77363 1.4931 2.3344 1046.7 -0.0043067 162.36 0.11919 4.6918 0.21314 502.75 546.72 2.4083 1.2996 1.5485 221.25 0.38768 6.7436 0.013180
-23.625 31.061 0.011654 146.65 147.54 0.80190 558.92 0.0017892 142.44 142.82 0.78298 1.4960 2.3400 1040.1 -0.0042533 160.65 0.11863 4.8592 0.20580 503.82 547.90 2.4064 1.3045 1.5552 221.35 0.38391 6.7701 0.013277
-22.625 32.232 0.012050 149.11 150.04 0.81175 557.69 0.0017931 144.77 145.17 0.79232 1.4990 2.3457 1033.6 -0.0041990 158.97 0.11807 5.0311 0.19877 504.90 549.07 2.4045 1.3095 1.5621 221.44 0.38020 6.7967 0.013374
-21.625 33.435 0.012456 151.58 152.54 0.82159 556.46 0.0017971 147.11 147.52 0.80164 1.5019 2.3514 1027.1 -0.0041439 157.30 0.11752 5.2076 0.19203 505.97 550.24 2.4027 1.3144 1.5690 221.52 0.37656 6.8232 0.013471
-20.625 34.673 0.012873 154.06 155.05 0.83142 555.23 0.0018011 149.45 149.88 0.81095 1.5049 2.3572 1020.6 -0.0040879 155.66 0.11697 5.3889 0.18557 507.04 551.40 2.4010 1.3194 1.5759 221.59 0.37300 6.8499 0.013569
-19.625 35.946 0.013300 156.54 157.58 0.84124 553.99 0.0018051 151.80 152.25 0.82024 1.5079 2.3630 1014.0 -0.0040311 154.04 0.11642 5.5750 0.17937 508.11 552.57 2.3992 1.3244 1.5829 221.66 0.36950 6.8765 0.013668
-18.625 37.253 0.013737 159.04 160.11 0.85106 552.74 0.0018092 154.16 154.62 0.82952 1.5109 2.3689 1007.5 -0.0039733 152.44 0.11587 5.7660 0.17343 509.19 553.73 2.3976 1.3294 1.5901 221.72 0.36608 6.9032 0.013767
-17.625 38.596 0.014184 161.54 162.65 0.86087 551.49 0.0018133 156.52 157.00 0.83878 1.5140 2.3749 1001.0 -0.0039145 150.86 0.11532 5.9621 0.16773 510.26 554.89 2.3959 1.3345 1.5972 221.77 0.36272 6.9300 0.013867
-16.625 39.976 0.014643 164.05 165.20 0.87067 550.24 0.0018174 158.89 159.39 0.84803 1.5171 2.3810 994.44 -0.0038549 149.29 0.11478 6.1632 0.16225 511.33 556.05 2.3943 1.3395 1.6045 221.81 0.35942 6.9568 0.013968
-15.625 41.392 0.015113 166.57 167.76 0.88047 548.98 0.0018216 161.26 161.78 0.85726 1.5202 2.3871 987.91 -0.0037942 147.75 0.11423 6.3696 0.15700 512.40 557.20 2.3927 1.3446 1.6119 221.85 0.35619 6.9836 0.014069
-14.625 42.846 0.015593 169.09 170.32 0.89026 547.71 0.0018258 163.64 164.18 0.86649 1.5233 2.3933 981.37 -0.0037325 146.22 0.11369 6.5812 0.15195 513.47 558.36 2.3912 1.3497 1.6193 221.87 0.35302 7.0105 0.014170
-13.625 44.338 0.016085 171.63 172.90 0.90005 546.44 0.0018300 166.02 166.58 0.87569 1.5264 2.3996 974.83 -0.0036698 144.72 0.11315 6.7983 0.14710 514.54 559.51 2.3897 1.3549 1.6268 221.89 0.34992 7.0375 0.014273
-12.625 45.870 0.016589 174.17 175.49 0.90983 545.17 0.0018343 168.41 168.99 0.88489 1.5296 2.4059 968.29 -0.0036061 143.23 0.11261 7.0208 0.14243 515.61 560.65 2.3883 1.3600 1.6344 221.90 0.34688 7.0646 0.014376
-11.625 47.440 0.017104 176.72 178.08 0.91960 543.89 0.0018386 170.81 171.41 0.89407 1.5328 2.4124 961.75 -0.0035413 141.76 0.11208 7.2490 0.13795 516.68 561.80 2.3868 1.3652 1.6421 221.91 0.34389 7.0917 0.014479
-10.625 49.051 0.017631 179.28 180.69 0.92937 542.60 0.0018430 173.21 173.83 0.90324 1.5360 2.4189 955.20 -0.0034753 140.30 0.11154 7.4829 0.13364 517.75 562.94 2.3854 1.3704 1.6498 221.90 0.34097 7.1188 0.014584
-9.6250 50.703 0.018170 181.85 183.31 0.93914 541.31 0.0018474 175.61 176.26 0.91240 1.5393 2.4255 948.65 -0.0034082 138.86 0.11101 7.7226 0.12949 518.81 564.08 2.3841 1.3757 1.6577 221.88 0.33810 7.1461 0.014689
-8.6250 52.396 0.018722 184.43 185.93 0.94890 540.02 0.0018518 178.03 178.70 0.92154 1.5426 2.4321 942.10 -0.0033400 137.44 0.11048 7.9683 0.12550 519.88 565.21 2.3827 1.3809 1.6657 221.86 0.33529 7.1734 0.014795
-7.6250 54.131 0.019286 187.01 188.57 0.95866 538.72 0.0018563 180.45 181.14 0.93068 1.5459 2.4389 935.55 -0.0032705 136.03 0.10995 8.2200 0.12165 520.94 566.35 2.3814 1.3862 1.6737 221.83 0.33254 7.2008 0.014902
-6.6250 55.909 0.019862 189.61 191.22 0.96841 537.41 0.0018608 182.87 183.59 0.93980 1.5492 2.4457 928.99 -0.0031998 134.64 0.10942 8.4779 0.11795 522.01 567.48 2.3801 1.3915 1.6819 221.79 0.32984 7.2284 0.015009
-5.6250 57.730 0.020452 192.21 193.87 0.97816 536.10 0.0018653 185.30 186.05 0.94892 1.5525 2.4526 922.43 -0.0031279 133.27 0.10889 8.7420 0.11439 523.07 568.60 2.3789 1.3969 1.6902 221.74 0.32720 7.2560 0.015117
-4.6250 59.595 0.021054 194.83 196.54 0.98791 534.78 0.0018699 187.74 188.51 0.95802 1.5559 2.4596 915.87 -0.0030546 131.91 0.10837 9.0126 0.11096 524.13 569.72 2.3777 1.4022 1.6985 221.68 0.32461 7.2837 0.015226
-3.6250 61.505 0.021670 197.45 199.21 0.99766 533.45 0.0018746 190.19 190.98 0.96711 1.5593 2.4667 909.30 -0.0029800 130.56 0.10785 9.2896 0.10765 525.19 570.84 2.3765 1.4076 1.7070 221.62 0.32207 7.3115 0.015336
-2.6250 63.461 0.022299 200.08 201.90 1.0074 532.12 0.0018793 192.64 193.46 0.97620 1.5627 2.4739 902.73 -0.0029041 129.23 0.10733 9.5733 0.10446 526.25 571.96 2.3753 1.4131 1.7156 221.54 0.31958 7.3394 0.015447
-1.6250 65.462 0.022942 202.72 204.60 1.0171 530.78 0.0018840 195.10 195.95 0.98527 1.5662 2.4811 896.16 -0.0028267 127.91 0.10681 9.8638 0.10138 527.31 573.07 2.3742 1.4185 1.7243 221.45 0.31715 7.3674 0.015559
-0.62500 67.510 0.023599 205.37 207.31 1.0269 529.44 0.0018888 197.56 198.44 0.99434 1.5696 2.4885 889.58 -0.0027478 126.61 0.10629 10.161 0.098414 528.37 574.18 2.3731 1.4240 1.7331 221.36 0.31476 7.3956 0.015671
0.37500 69.606 0.024269 208.02 210.02 1.0366 528.09 0.0018936 200.03 200.94 1.0034 1.5731 2.4960 883.00 -0.0026675 125.32 0.10578 10.466 0.095552 529.42 575.28 2.3720 1.4295 1.7421 221.26 0.31242 7.4239 0.015785
1.3750 71.749 0.024955 210.69 212.75 1.0463 526.73 0.0018985 202.51 203.45 1.0124 1.5767 2.5035 876.42 -0.0025856 124.04 0.10527 10.777 0.092790 530.48 576.38 2.3709 1.4350 1.7512 221.14 0.31013 7.4523 0.015899
2.3750 73.941 0.025654 213.37 215.49 1.0561 525.37 0.0019034 204.99 205.96 1.0215 1.5802 2.5112 869.83 -0.0025022 122.78 0.10476 11.096 0.090123 531.53 577.47 2.3699 1.4406 1.7604 221.02 0.30789 7.4808 0.016015
3.3750 76.183 0.026369 216.05 218.24 1.0658 523.99 0.0019084 207.48 208.48 1.0305 1.5838 2.5190 863.24 -0.0024171 121.53 0.10425 11.422 0.087549 532.58 578.56 2.3688 1.4462 1.7697 220.89 0.30569 7.5095 0.016131
4.3750 78.475 0.027099 218.75 221.00 1.0755 522.62 0.0019134 209.98 211.01 1.0395 1.5874 2.5268 856.64 -0.0023303 120.29 0.10374 11.756 0.085062 533.63 579.65 2.3678 1.4518 1.7792 220.75 0.30354 7.5384 0.016249
5.3750 80.817 0.027843 221.45 223.78 1.0853 521.23 0.0019185 212.48 213.55 1.0486 1.5910 2.5348 850.04 -0.0022417 119.06 0.10324 12.098 0.082660 534.67 580.73 2.3669 1.4575 1.7888 220.60 0.30144 7.5674 0.016368
6.3750 83.211 0.028604 224.17 226.56 1.0950 519.84 0.0019237 215.00 216.10 1.0576 1.5946 2.5429 843.43 -0.0021514 117.85 0.10273 12.447 0.080340 535.72 581.81 2.3659 1.4632 1.7986 220.44 0.29938 7.5966 0.016487
7.3750 85.657 0.029380 226.89 229.35 1.1047 518.44 0.0019289 217.51 218.65 1.0666 1.5983 2.5511 836.82 -0.0020593 116.65 0.10223 12.805 0.078096 536.76 582.88 2.3650 1.4689 1.8085 220.27 0.29736 7.6259 0.016608
8.3750 88.156 0.030172 229.63 232.16 1.1145 517.03 0.0019341 220.04 221.22 1.0756 1.6020 2.5595 830.20 -0.0019652 115.46 0.10173 13.170 0.075928 537.80 583.95 2.3640 1.4746 1.8186 220.08 0.29538 7.6555 0.016730
9.3750 90.708 0.030981 232.37 234.98 1.1242 515.62 0.0019394 222.57 223.79 1.0846 1.6057 2.5679 823.58 -0.0018691 114.28 0.10124 13.545 0.073830 538.84 585.01 2.3631 1.4804 1.8288 219.89 0.29345 7.6852 0.016853
10.375 93.315 0.031806 235.13 237.81 1.1339 514.19 0.0019448 225.11 226.37 1.0936 1.6095 2.5765 816.96 -0.0017710 113.11 0.10074 13.927 0.071802 539.87 586.07 2.3622 1.4863 1.8392 219.69 0.29156 7.7151 0.016978
11.375 95.977 0.032648 237.89 240.65 1.1436 512.76 0.0019502 227.66 228.95 1.1025 1.6132 2.5852 810.32 -0.0016708 111.95 0.10025 14.319 0.069840 540.90 587.12 2.3614 1.4921 1.8498 219.48 0.28971 7.7452 0.017103
12.375 98.694 0.033507 240.66 243.50 1.1534 511.32 0.0019557 230.22 231.55 1.1115 1.6170 2.5940 803.68 -0.0015685 110.80 0.099756 14.719 0.067941 541.93 588.17 2.3605 1.4980 1.8605 219.26 0.28790 7.7756 0.017230
13.375 101.47 0.034383 243.45 246.36 1.1631 509.87 0.0019613 232.78 234.15 1.1205 1.6208 2.6030 797.04 -0.0014639 109.67 0.099267 15.128 0.066103 542.96 589.21 2.3597 1.5040 1.8715 219.03 0.28612 7.8061 0.017359
14.375 104.30 0.035278 246.24 249.24 1.1728 508.42 0.0019669 235.35 236.77 1.1295 1.6247 2.6121 790.39 -0.0013569 108.54 0.098779 15.547 0.064323 543.99 590.24 2.3588 1.5099 1.8826 218.79 0.28439 7.8369 0.017488
15.375 107.19 0.036190 249.04 252.12 1.1826 506.95 0.0019726 237.93 239.39 1.1384 1.6286 2.6214 783.73 -0.0012476 107.43 0.098294 15.974 0.062600 545.01 591.27 2.3580 1.5159 1.8940 218.53 0.28270 7.8680 0.017619
16.375 110.13 0.037120 251.86 255.02 1.1923 505.48 0.0019783 240.52 242.02 1.1474 1.6324 2.6308 777.07 -0.0011357 106.32 0.097810 16.412 0.060931 546.03 592.29 2.3572 1.5220 1.9055 218.27 0.28104 7.8993 0.017752
17.375 113.14 0.038070 254.68 257.93 1.2021 504.00 0.0019841 243.11 244.66 1.1564 1.6364 2.6403 770.40 -0.0010213 105.22 0.097328 16.859 0.059314 547.04 593.31 2.3564 1.5281 1.9172 217.99 0.27942 7.9308 0.017886
18.375 116.21 0.039038 257.52 260.86 1.2118 502.50 0.0019900 245.72 247.31 1.1653 1.6403 2.6501 763.72 -0.00090422 104.14 0.096848 17.317 0.057747 548.05 594.32 2.3557 1.5342 1.9292 217.71 0.27783 7.9626 0.018021
19.375 119.33 0.040025 260.36 263.79 1.2215 501.00 0.0019960 248.33 249.97 1.1743 1.6443 2.6599 757.04 -0.00078435 103.06 0.096371 17.785 0.056228 549.06 595.33 2.3549 1.5404 1.9414 217.41 0.27628 7.9947 0.018159
20.375 122.52 0.041033 263.22 266.74 1.2313 499.49 0.0020020 250.95 252.64 1.1832 1.6483 2.6700 750.35 -0.00066161 101.99 0.095895 18.263 0.054756 550.07 596.32 2.3541 1.5466 1.9538 217.10 0.27477 8.0272 0.018297
21.375 125.77 0.042060 266.09 269.70 1.2410 497.97 0.0020082 253.57 255.32 1.1922 1.6523 2.6802 743.64 -0.00053589 100.93 0.095420 18.752 0.053328 551.07 597.31 2.3534 1.5528 1.9665 216.78 0.27329 8.0599 0.018438
22.375 129.08 0.043107 268.96 272.67 1.2508 496.43 0.0020144 256.21 258.00 1.2012 1.6563 2.6906 736.94 -0.00040708 99.877 0.094948 19.252 0.051943 552.07 598.30 2.3526 1.5591 1.9795 216.45 0.27184 8.0929 0.018580
23.375 132.46 0.044176 271.85 275.66 1.2605 494.89 0.0020206 258.86 260.70 1.2101 1.6604 2.7012 730.22 -0.00027505 98.834 0.094478 19.763 0.050600 553.06 599.27 2.3519 1.5655 1.9927 216.11 0.27043 8.1263 0.018724
24.375 135.90 0.045265 274.75 278.65 1.2703 493.34 0.0020270 261.51 263.41 1.2191 1.6645 2.7120 723.49 -0.00013968 97.800 0.094009 20.285 0.049297 554.05 600.24 2.3512 1.5718 2.0061 215.75 0.26906 8.1600 0.018870
25.375 139.41 0.046376 277.66 281.67 1.2801 491.77 0.0020335 264.17 266.13 1.2280 1.6686 2.7230 716.76 -8.3775e-07 96.773 0.093543 20.820 0.048032 555.03 601.20 2.3504 1.5783 2.0199 215.39 0.26771 8.1941 0.019017
26.375 142.98 0.047509 280.58 284.69 1.2898 490.20 0.0020400 266.84 268.85 1.2370 1.6728 2.7342 710.01 0.00014161 95.755 0.093078 21.366 0.046804 556.01 602.15 2.3497 1.5847 2.0340 215.01 0.26640 8.2286 0.019167
27.375 146.62 0.048664 283.51 287.73 1.2996 488.61 0.0020466 269.52 271.59 1.2459 1.6770 2.7456 703.26 0.00028782 94.745 0.092615 21.924 0.045612 556.99 603.10 2.3490 1.5913 2.0484 214.62 0.26512 8.2634 0.019319
28.375 150.33 0.049842 286.46 290.77 1.3094 487.01 0.0020533 272.21 274.34 1.2549 1.6812 2.7573 696.49 0.00043793 93.742 0.092154 22.495 0.044454 557.96 604.03 2.3483 1.5978 2.0631 214.21 0.26387 8.2987 0.019472
29.375 154.10 0.051044 289.41 293.84 1.3192 485.40 0.0020601 274.91 277.10 1.2638 1.6854 2.7691 689.72 0.00059212 92.747 0.091695 23.079 0.043329 558.92 604.96 2.3476 1.6044 2.0781 213.80 0.26265 8.3344 0.019628
30.375 157.94 0.052269 292.38 296.91 1.3290 483.78 0.0020671 277.62 279.87 1.2728 1.6897 2.7813 682.93 0.00075055 91.760 0.091238 23.676 0.042237 559.88 605.88 2.3469 1.6111 2.0935 213.37 0.26147 8.3705 0.019786
31.375 161.86 0.053518 295.35 300.00 1.3387 482.15 0.0020741 280.34 282.66 1.2818 1.6939 2.7936 676.13 0.00091340 90.779 0.090782 24.287 0.041175 560.84 606.79 2.3462 1.6178 2.1092 212.93 0.26031 8.4071 0.019947
32.375 165.84 0.054792 298.34 303.11 1.3485 480.50 0.0020812 283.07 285.45 1.2908 1.6983 2.8063 669.32 0.0010809 89.806 0.090328 24.911 0.040143 561.79 607.69 2.3455 1.6246 2.1254 212.48 0.25919 8.4442 0.020110
33.375 169.90 0.056091 301.34 306.22 1.3583 478.83 0.0020884 285.81 288.26 1.2997 1.7026 2.8192 662.50 0.0012532 88.840 0.089876 25.549 0.039140 562.73 608.58 2.3448 1.6314 2.1419 212.01 0.25809 8.4818 0.020275
34.375 174.02 0.057416 304.35 309.35 1.3682 477.16 0.0020957 288.56 291.07 1.3087 1.7070 2.8324 655.67 0.0014305 87.880 0.089426 26.202 0.038164 563.67 609.46 2.3440 1.6383 2.1589 211.53 0.25702 8.5199 0.020443
35.375 178.22 0.058767 307.38 312.50 1.3780 475.47 0.0021032 291.32 293.90 1.3177 1.7114 2.8459 648.82 0.0016131 86.927 0.088977 26.870 0.037216 564.60 610.33 2.3433 1.6452 2.1763 211.04 0.25599 8.5586 0.020613
36.375 182.50 0.060146 310.41 315.66 1.3878 473.77 0.0021107 294.09 296.74 1.3267 1.7158 2.8597 641.96 0.0018012 85.980 0.088531 27.553 0.036293 565.52 611.19 2.3426 1.6522 2.1942 210.53 0.25498 8.5978 0.020786
37.375 186.84 0.061551 313.46 318.83 1.3976 472.05 0.0021184 296.87 299.60 1.3357 1.7203 2.8739 635.08 0.0019950 85.040 0.088085 28.252 0.035395 566.44 612.04 2.3419 1.6592 2.2125 210.01 0.25400 8.6376 0.020962
38.375 191.27 0.062985 316.52 322.01 1.4075 470.31 0.0021262 299.66 302.46 1.3447 1.7248 2.8884 628.19 0.0021949 84.105 0.087642 28.967 0.034522 567.35 612.88 2.3411 1.6663 2.2314 209.47 0.25305 8.6780 0.021141
39.375 195.77 0.064447 319.59 325.21 1.4173 468.56 0.0021342 302.46 305.34 1.3537 1.7293 2.9033 621.29 0.0024011 83.177 0.087200 29.699 0.033671 568.26 613.70 2.3404 1.6734 2.2508 208.92 0.25213 8.7190 0.021323
40.375 200.34 0.065939 322.67 328.43 1.4272 466.80 0.0021423 305.27 308.23 1.3627 1.7339 2.9185 614.37 0.0026140 82.254 0.086760 30.447 0.032844 569.15 614.52 2.3396 1.6806 2.2708 208.36 0.25123 8.7608 0.021508
41.375 205.00 0.067461 325.77 331.66 1.4370 465.01 0.0021505 308.10 311.14 1.3718 1.7385 2.9342 607.43 0.0028338 81.338 0.086322 31.214 0.032037 570.04 615.32 2.3389 1.6879 2.2913 207.78 0.25037 8.8032 0.021696
42.375 209.73 0.069013 328.88 334.90 1.4469 463.21 0.0021588 310.94 314.06 1.3808 1.7432 2.9502 600.47 0.0030609 80.426 0.085885 31.998 0.031252 570.92 616.11 2.3381 1.6952 2.3125 207.19 0.24953 8.8463 0.021888
43.375 214.54 0.070597 332.00 338.16 1.4568 461.40 0.0021673 313.79 316.99 1.3899 1.7478 2.9667 593.50 0.0032957 79.520 0.085449 32.800 0.030488 571.79 616.88 2.3373 1.7027 2.3344 206.58 0.24871 8.8902 0.022084
44.375 219.43 0.072214 335.13 341.44 1.4666 459.56 0.0021760 316.65 319.94 1.3989 1.7525 2.9837 586.51 0.0035386 78.619 0.085015 33.622 0.029742 572.65 617.65 2.3365 1.7101 2.3569 205.96 0.24793 8.9349 0.022283
45.375 224.41 0.073864 338.28 344.73 1.4765 457.71 0.0021848 319.52 322.90 1.4080 1.7573 3.0012 579.50 0.0037900 77.723 0.084583 34.463 0.029016 573.50 618.40 2.3357 1.7177 2.3802 205.32 0.24717 8.9805 0.022485
46.375 229.46 0.075547 341.44 348.03 1.4864 455.83 0.0021938 322.41 325.88 1.4171 1.7621 3.0192 572.46 0.0040504 76.832 0.084152 35.325 0.028308 574.34 619.13 2.3349 1.7253 2.4042 204.67 0.24644 9.0269 0.022692
47.375 234.60 0.077266 344.61 351.35 1.4964 453.94 0.0022029 325.31 328.87 1.4262 1.7669 3.0377 565.41 0.0043202 75.946 0.083723 36.208 0.027618 575.17 619.85 2.3340 1.7329 2.4291 204.00 0.24573 9.0742 0.022903
48.375 239.83 0.079020 347.80 354.69 1.5063 452.03 0.0022123 328.22 331.88 1.4353 1.7718 3.0569 558.34 0.0046000 75.064 0.083295 37.112 0.026945 576.00 620.55 2.3332 1.7407 2.4548 203.31 0.24505 9.1224 0.023119
49.375 245.13 0.080811 351.00 358.04 1.5162 450.09 0.0022218 331.15 334.90 1.4445 1.7767 3.0766 551.24 0.0048904 74.186 0.082868 38.039 0.026289 576.81 621.24 2.3323 1.7485 2.4815 202.61 0.24440 9.1716 0.023339
50.375 250.53 0.082640 354.21 361.41 1.5262 448.13 0.0022315 334.09 337.94 1.4536 1.7817 3.0970 544.13 0.0051920 73.313 0.082442 38.989 0.025648 577.61 621.91 2.3314 1.7564 2.5092 201.89 0.24377 9.2219 0.023564
51.375 256.01 0.084508 357.44 364.79 1.5361 446.15 0.0022414 337.04 341.00 1.4628 1.7867 3.1181 536.98 0.0055054 72.443 0.082018 39.962 0.025024 578.39 622.56 2.3304 1.7644 2.5379 201.16 0.24317 9.2733 0.023794
52.375 261.57 0.086416 360.68 368.19 1.5461 444.15 0.0022515 340.01 344.07 1.4720 1.7918 3.1400 529.82 0.0058313 71.577 0.081595 40.961 0.024414 579.17 623.20 2.3295 1.7724 2.5677 200.41 0.24260 9.3258 0.024029
53.375 267.23 0.088365 363.93 371.61 1.5561 442.12 0.0022618 343.00 347.17 1.4812 1.7969 3.1627 522.62 0.0061705 70.715 0.081174 41.985 0.023818 579.93 623.81 2.3285 1.7805 2.5987 199.63 0.24205 9.3795 0.024270
54.375 272.97 0.090357 367.20 375.05 1.5661 440.06 0.0022724 346.00 350.28 1.4904 1.8021 3.1862 515.40 0.0065239 69.856 0.080753 43.036 0.023237 580.68 624.41 2.3274 1.7887 2.6310 198.85 0.24154 9.4344 0.024516
55.375 278.81 0.092392 370.49 378.50 1.5761 437.98 0.0022832 349.02 353.40 1.4997 1.8073 3.2106 508.15 0.0068923 69.001 0.080334 44.114 0.022669 581.41 624.99 2.3264 1.7969 2.6646 198.04 0.24105 9.4907 0.024769
56.375 284.74 0.094473 373.78 381.96 1.5861 435.87 0.0022943 352.05 356.55 1.5090 1.8126 3.2360 500.87 0.0072767 68.148 0.079915 45.221 0.022114 582.13 625.54 2.3253 1.8052 2.6998 197.22 0.24059 9.5484 0.025028
57.375 290.76 0.096601 377.10 385.45 1.5961 433.73 0.0023056 355.10 359.72 1.5183 1.8179 3.2624 493.56 0.0076782 67.299 0.079498 46.358 0.021571 582.83 626.07 2.3241 1.8136 2.7365 196.37 0.24016 9.6075 0.025294
58.375 296.87 0.098777 380.43 388.95 1.6062 431.56 0.0023172 358.17 362.91 1.5276 1.8233 3.2900 486.22 0.0080980 66.451 0.079082 47.525 0.021041 583.52 626.58 2.3230 1.8220 2.7749 195.51 0.23976 9.6682 0.025568
59.375 303.08 0.10100 383.77 392.48 1.6163 429.36 0.0023290 361.25 366.12 1.5370 1.8288 3.3188 478.84 0.0085373 65.606 0.078666 48.726 0.020523 584.18 627.07 2.3218 1.8305 2.8152 194.63 0.23939 9.7305 0.025849
60.375 309.38 0.10328 387.13 396.01 1.6263 427.13 0.0023412 364.36 369.35 1.5464 1.8343 3.3489 471.43 0.0089976 64.763 0.078251 49.960 0.020016 584.83 627.53 2.3205 1.8391 2.8576 193.73 0.23905 9.7945 0.026138
61.375 315.78 0.10561 390.50 399.57 1.6365 424.87 0.0023537 367.48 372.60 1.5558 1.8400 3.3805 463.99 0.0094803 63.922 0.077838 51.229 0.019520 585.46 627.96 2.3192 1.8479 2.9022 192.82 0.23873 9.8603 0.026436
62.375 322.28 0.10800 393.89 403.15 1.6466 422.56 0.0023665 370.62 375.88 1.5653 1.8457 3.4136 456.50 0.0099871 63.083 0.077425 52.535 0.019035 586.07 628.37 2.3178 1.8567 2.9492 191.88 0.23845 9.9281 0.026744
63.375 328.88 0.11044 397.30 406.75 1.6567 420.22 0.0023797 373.79 379.18 1.5748 1.8514 3.4483 448.97 0.010520 62.244 0.077012 53.879 0.018560 586.66 628.74 2.3164 1.8656 2.9989 190.92 0.23819 9.9979 0.027061
64.375 335.58 0.11295 400.72 410.36 1.6669 417.85 0.0023932 376.97 382.51 1.5844 1.8573 3.4850 441.40 0.011081 61.407 0.076600 55.265 0.018095 587.22 629.09 2.3149 1.8747 3.0517 189.95 0.23796 10.070 0.027389
65.375 342.38 0.11551 404.16 414.00 1.6770 415.42 0.0024072 380.18 385.86 1.5939 1.8633 3.5236 433.79 0.011672 60.570 0.076189 56.692 0.017639 587.76 629.40 2.3133 1.8839 3.1077 188.95 0.23775 10.144 0.027729
66.375 349.28 0.11815 407.62 417.65 1.6872 412.96 0.0024215 383.41 389.25 1.6036 1.8693 3.5645 426.12 0.012296 59.733 0.075779 58.165 0.017193 588.28 629.68 2.3117 1.8933 3.1674 187.93 0.23757 10.221 0.028080
67.375 356.28 0.12084 411.09 421.33 1.6975 410.45 0.0024363 386.67 392.65 1.6133 1.8755 3.6078 418.41 0.012956 58.897 0.075368 59.684 0.016755 588.76 629.92 2.3100 1.9030 3.2311 186.89 0.23740 10.300 0.028446
68.375 363.40 0.12361 414.58 425.02 1.7077 407.89 0.0024516 389.95 396.09 1.6230 1.8818 3.6537 410.64 0.013655 58.059 0.074959 61.253 0.016326 589.22 630.13 2.3082 1.9129 3.2994 185.83 0.23724 10.382 0.028825
69.375 370.61 0.12646 418.10 428.74 1.7180 405.28 0.0024674 393.26 399.57 1.6328 1.8882 3.7027 402.81 0.014396 57.221 0.074549 62.875 0.015905 589.65 630.29 2.3064 1.9231 3.3727 184.74 0.23710 10.467 0.029221
70.375 377.94 0.12938 421.63 432.48 1.7283 402.62 0.0024838 396.60 403.07 1.6426 1.8947 3.7550 394.92 0.015183 56.381 0.074141 64.552 0.015491 590.04 630.41 2.3044 1.9336 3.4518 183.63 0.23697 10.555 0.029633
71.375 385.37 0.13238 425.17 436.25 1.7386 399.89 0.0025007 399.96 406.61 1.6525 1.9014 3.8109 386.97 0.016021 55.540 0.073732 66.288 0.015086 590.40 630.49 2.3024 1.9444 3.5371 182.50 0.23684 10.647 0.030064
72.375 392.92 0.13547 428.74 440.03 1.7489 397.11 0.0025182 403.36 410.18 1.6625 1.9083 3.8711 378.95 0.016915 54.696 0.073324 68.087 0.014687 590.73 630.51 2.3002 1.9556 3.6297 181.34 0.23671 10.743 0.030515
73.375 400.57 0.13864 432.33 443.84 1.7593 394.26 0.0025364 406.79 413.80 1.6726 1.9153 3.9359 370.85 0.017871 53.848 0.072917 69.953 0.014295 591.01 630.49 2.2979 1.9673 3.7303 180.16 0.23658 10.842 0.030989
74.375 408.34 0.14191 435.94 447.67 1.7697 391.34 0.0025553 410.26 417.45 1.6827 1.9226 4.0060 362.67 0.018894 52.997 0.072510 71.890 0.013910 591.25 630.41 2.2955 1.9793 3.8401 178.95 0.23643 10.946 0.031488
75.375 416.23 0.14527 439.58 451.53 1.7801 388.34 0.0025751 413.76 421.15 1.6930 1.9301 4.0822 354.41 0.019993 52.142 0.072104 73.904 0.013531 591.44 630.27 2.2930 1.9919 3.9604 177.71 0.23627 11.054 0.032014
76.375 424.23 0.14874 443.23 455.42 1.7906 385.26 0.0025957 417.31 424.90 1.7033 1.9378 4.1654 346.06 0.021177 51.281 0.071699 76.001 0.013158 591.59 630.07 2.2903 2.0050 4.0927 176.44 0.23609 11.168 0.032570
77.375 432.35 0.15232 446.91 459.33 1.8011 382.09 0.0026172 420.89 428.70 1.7137 1.9459 4.2565 337.60 0.022455 50.414 0.071295 78.187 0.012790 591.68 629.80 2.2874 2.0186 4.2389 175.15 0.23588 11.287 0.033161
78.375 440.59 0.15601 450.61 463.27 1.8116 378.83 0.0026397 424.53 432.54 1.7243 1.9543 4.3570 329.05 0.023838 49.539 0.070893 80.469 0.012427 591.71 629.46 2.2844 2.0328 4.4012 173.82 0.23563 11.412 0.033789
79.375 448.95 0.15982 454.33 467.23 1.8222 375.46 0.0026634 428.21 436.45 1.7349 1.9631 4.4684 320.38 0.025341 48.657 0.070494 82.856 0.012069 591.68 629.04 2.2812 2.0475 4.5824 172.46 0.23535 11.544 0.034461
80.375 457.44 0.16377 458.09 471.23 1.8329 371.97 0.0026884 431.94 440.42 1.7457 1.9723 4.5928 311.58 0.026980 47.764 0.070099 85.359 0.011715 591.58 628.53 2.2778 2.0630 4.7859 171.07 0.23501 11.684 0.035181
81.375 466.05 0.16784 461.87 475.26 1.8435 368.36 0.0027147 435.74 444.46 1.7567 1.9820 4.7327 302.66 0.028773 46.860 0.069708 87.988 0.011365 591.40 627.92 2.2742 2.0791 5.0161 169.64 0.23461 11.832 0.035957
82.375 474.79 0.17207 465.68 479.32 1.8543 364.61 0.0027427 439.60 448.58 1.7678 1.9924 4.8914 293.60 0.030744 45.942 0.069323 90.757 0.011018 591.14 627.21 2.2703 2.0959 5.2786 168.17 0.23413 11.989 0.036797
83.375 483.66 0.17644 469.51 483.41 1.8650 360.70 0.0027724 443.53 452.78 1.7791 2.0034 5.0731 284.38 0.032920 45.010 0.068948 93.681 0.010674 590.79 626.38 2.2661 2.1136 5.5807 166.67 0.23357 12.157 0.037711
84.375 492.67 0.18098 473.39 487.54 1.8759 356.61 0.0028041 447.54 457.07 1.7907 2.0153 5.2834 275.00 0.035335 44.059 0.068586 96.781 0.010333 590.33 625.42 2.2616 2.1321 5.9321 165.13 0.23290 12.338 0.038713
85.375 501.81 0.18570 477.29 491.71 1.8868 352.33 0.0028382 451.65 461.47 1.8025 2.0281 5.5302 265.44 0.038030 43.088 0.068241 100.08 0.0099920 589.74 624.31 2.2567 2.1517 6.3459 163.54 0.23209 12.532 0.039819
86.375 511.09 0.19059 481.23 495.92 1.8978 347.82 0.0028751 455.85 465.98 1.8145 2.0420 5.8240 255.69 0.041058 42.092 0.067923 103.61 0.0096520 589.03 623.04 2.2514 2.1723 6.8405 161.91 0.23112 12.743 0.041051
87.375 520.51 0.19567 485.22 500.17 1.9088 343.04 0.0029151 460.18 470.64 1.8269 2.0574 6.1803 245.72 0.044485 41.066 0.067640 107.40 0.0093114 588.15 621.56 2.2456 2.1943 7.4422 160.23 0.22995 12.973 0.042436
88.375 530.07 0.20094 489.24 504.47 1.9200 337.95 0.0029590 464.64 475.45 1.8397 2.0745 6.6221 235.52 0.048397 40.005 0.067412 111.50 0.0089689 587.08 619.86 2.2392 2.2178 8.1900 158.49 0.22854 13.226 0.044014
89.375 539.79 0.20640 493.32 508.82 1.9313 332.48 0.0030077 469.27 480.46 1.8530 2.0936 7.1851 225.04 0.052906 38.901 0.067265 115.97 0.0086228 585.79 617.88 2.2321 2.2433 9.1445 156.69 0.22681 13.508 0.045839
90.375 549.66 0.21202 497.45 513.24 1.9426 326.55 0.0030623 474.10 485.71 1.8669 2.1156 7.9284 214.26 0.058166 37.742 0.067243 120.91 0.0082708 584.22 615.56 2.2241 2.2711 10.405 154.82 0.22467 13.825 0.047992
91.375 559.68 0.21775 501.64 517.72 1.9541 320.03 0.0031247 479.19 491.25 1.8815 2.1412 8.9568 203.11 0.064389 36.514 0.067421 126.43 0.0079097 582.29 612.82 2.2150 2.3019 12.146 152.85 0.22200 14.189 0.050600
92.375 569.87 0.22344 505.91 522.28 1.9658 312.73 0.0031976 484.62 497.18 1.8972 2.1718 10.475 191.54 0.071885 35.195 0.067931 132.72 0.0075346 579.91 609.51 2.2045 2.3370 14.705 150.75 0.21862 14.618 0.053877
93.375 580.24 0.22871 510.27 526.94 1.9778 304.34 0.0032858 490.52 503.67 1.9143 2.2100 12.945 179.43 0.081133 33.755 0.069025 140.11 0.0071373 576.87 605.42 2.1919 2.3779 18.828 148.48 0.21421 15.146 0.058225
94.375 590.79 0.23250 514.76 531.73 1.9900 294.25 0.0033985 497.17 511.01 1.9336 2.2603 17.657 166.61 0.092934 32.154 0.071243 149.20 0.0067025 572.82 600.12 2.1761 2.4283 26.557 145.93 0.20825 15.847 0.064529
95.375 601.53 0.23067 519.44 536.72 2.0027 280.99 0.0035589 505.21 519.97 1.9572 2.3343 30.014 152.73 0.10888 30.366 0.076197 161.45 0.0061937 566.92 592.61 2.1544 2.4956 46.113 142.79 0.19953 16.960 0.075419
96.375 612.50 0.18457 524.56 542.16 2.0166 258.02 0.0038757 517.56 533.93 1.9943 2.4799 125.86 136.81 0.13399 28.436 0.097271 183.41 0.0054523 555.50 578.53 2.1150 2.6070 182.91 137.67 0.18336 19.789 0.10964
97.375 624.34 undefined 528.20 546.14 2.0264 240.00 0.0041667 528.20 546.14 2.0264 2.5430 152.51 134.60 0.14508 26.560 0.10114 240.00 0.0041667 528.20 546.14 2.0264 2.5430 152.51 134.60 0.14508 26.560 0.10114
98.375 636.57 undefined 530.72 549.00 2.0332 240.00 0.0041667 530.72 549.00 2.0332 2.4830 70.223 139.02 0.14058 25.602 0.086406 240.00 0.0041667 530.72 549.00 2.0332 2.4830 70.223 139.02 0.14058 25.602 0.086406
99.375 648.91 undefined 533.17 551.81 2.0398 240.00 0.0041667 533.17 551.81 2.0398 2.4332 45.778 143.08 0.13647 25.124 0.079909 240.00 0.0041667 533.17 551.81 2.0398 2.4332 45.778 143.08 0.13647 25.124 0.079909
100.38 661.34 undefined 535.58 554.58 2.0463 240.00 0.0041667 535.58 554.58 2.0463 2.3921 34.085 146.81 0.13269 24.891 0.075855 240.00 0.0041667 535.58 554.58 2.0463 2.3921 34.085 146.81 0.13269 24.891 0.075855
101.38 673.85 undefined 537.96 557.32 2.0526 240.00 0.0041667 537.96 557.32 2.0526 2.3582 27.250 150.26 0.12918 24.785 0.072968 240.00 0.0041667 537.96 557.32 2.0526 2.3582 27.250 150.26 0.12918 24.785 0.072968
102.38 686.42 undefined 540.30 560.02 2.0589 240.00 0.0041667 540.30 560.02 2.0589 2.3303 22.777 153.47 0.12589 24.744 0.070769 240.00 0.0041667 540.30 560.02 2.0589 2.3303 22.777 153.47 0.12589 24.744 0.070769
103.38 699.06 undefined 542.62 562.70 2.0650 240.00 0.0041667 542.62 562.70 2.0650 2.3073 19.628 156.47 0.12278 24.737 0.069026 240.00 0.0041667 542.62 562.70 2.0650 2.3073 19.628 156.47 0.12278 24.737 0.069026
104.38 711.75 undefined 544.92 565.37 2.0711 240.00 0.0041667 544.92 565.37 2.0711 2.2883 17.297 159.29 0.11984 24.748 0.067608 240.00 0.0041667 544.92 565.37 2.0711 2.2883 17.297 159.29 0.11984 24.748 0.067608
105.38 724.49 undefined 547.20 568.01 2.0772 240.00 0.0041667 547.20 568.01 2.0772 2.2726 15.503 161.96 0.11704 24.768 0.066431 240.00 0.0041667 547.20 568.01 2.0772 2.2726 15.503 161.96 0.11704 24.768 0.066431
106.38 737.27 undefined 549.46 570.65 2.0831 240.00 0.0041667 549.46 570.65 2.0831 2.2595 14.083 164.51 0.11436 24.793 0.065441 240.00 0.0041667 549.46 570.65 2.0831 2.2595 14.083 164.51 0.11436 24.793 0.065441
107.38 750.10 undefined 551.72 573.27 2.0891 240.00 0.0041667 551.72 573.27 2.0891 2.2486 12.932 166.96 0.11180 24.820 0.064598 240.00 0.0041667 551.72 573.27 2.0891 2.2486 12.932 166.96 0.11180 24.820 0.064598
108.38 762.95 undefined 553.96 575.88 2.0950 240.00 0.0041667 553.96 575.88 2.0950 2.2394 11.981 169.32 0.10935 24.850 0.063874 240.00 0.0041667 553.96 575.88 2.0950 2.2394 11.981 169.32 0.10935 24.850 0.063874
109.38 775.85 undefined 556.20 578.49 2.1008 240.00 0.0041667 556.20 578.49 2.1008 2.2317 11.182 171.61 0.10699 24.880 0.063248 240.00 0.0041667 556.20 578.49 2.1008 2.2317 11.182 171.61 0.10699 24.880 0.063248
110.38 788.77 undefined 558.43 581.09 2.1066 240.00 0.0041667 558.43 581.09 2.1066 2.2251 10.503 173.83 0.10472 24.910 0.062703 240.00 0.0041667 558.43 581.09 2.1066 2.2251 10.503 173.83 0.10472 24.910 0.062703
111.38 801.72 undefined 560.65 583.68 2.1124 240.00 0.0041667 560.65 583.68 2.1124 2.2194 9.9184 176.00 0.10253 24.941 0.062227 240.00 0.0041667 560.65 583.68 2.1124 2.2194 9.9184 176.00 0.10253 24.941 0.062227
112.38 814.71 undefined 562.87 586.27 2.1182 240.00 0.0041667 562.87 586.27 2.1182 2.2146 9.4102 178.12 0.10042 24.972 0.061810 240.00 0.0041667 562.87 586.27 2.1182 2.2146 9.4102 178.12 0.10042 24.972 0.061810
113.38 827.71 undefined 565.08 588.86 2.1239 240.00 0.0041667 565.08 588.86 2.1239 2.2104 8.9645 180.20 0.098391 25.003 0.061443 240.00 0.0041667 565.08 588.86 2.1239 2.2104 8.9645 180.20 0.098391 25.003 0.061443
114.38 840.75 undefined 567.29 591.44 2.1296 240.00 0.0041667 567.29 591.44 2.1296 2.2067 8.5706 182.24 0.096428 25.035 0.061120 240.00 0.0041667 567.29 591.44 2.1296 2.2067 8.5706 182.24 0.096428 25.035 0.061120
115.38 853.80 undefined 569.49 594.02 2.1353 240.00 0.0041667 569.49 594.02 2.1353 2.2036 8.2201 184.25 0.094531 25.066 0.060835 240.00 0.0041667 569.49 594.02 2.1353 2.2036 8.2201 184.25 0.094531 25.066 0.060835
116.38 866.88 undefined 571.69 596.60 2.1410 240.00 0.0041667 571.69 596.60 2.1410 2.2009 7.9062 186.22 0.092696 25.097 0.060584 240.00 0.0041667 571.69 596.60 2.1410 2.2009 7.9062 186.22 0.092696 25.097 0.060584
117.38 879.98 undefined 573.89 599.17 2.1466 240.00 0.0041667 573.89 599.17 2.1466 2.1986 7.6236 188.16 0.090921 25.129 0.060361 240.00 0.0041667 573.89 599.17 2.1466 2.1986 7.6236 188.16 0.090921 25.129 0.060361
118.38 893.10 undefined 576.09 601.75 2.1522 240.00 0.0041667 576.09 601.75 2.1522 2.1966 7.3678 190.08 0.089203 25.160 0.060166 240.00 0.0041667 576.09 601.75 2.1522 2.1966 7.3678 190.08 0.089203 25.160 0.060166
119.38 906.24 undefined 578.29 604.32 2.1578 240.00 0.0041667 578.29 604.32 2.1578 2.1950 7.1354 191.97 0.087538 25.191 0.059993 240.00 0.0041667 578.29 604.32 2.1578 2.1950 7.1354 191.97 0.087538 25.191 0.059993
120.38 919.40 undefined 580.48 606.89 2.1634 240.00 0.0041667 580.48 606.89 2.1634 2.1936 6.9232 193.83 0.085924 25.223 0.059841 240.00 0.0041667 580.48 606.89 2.1634 2.1936 6.9232 193.83 0.085924 25.223 0.059841
121.38 932.57 undefined 582.67 609.47 2.1690 240.00 0.0041667 582.67 609.47 2.1690 2.1925 6.7289 195.67 0.084359 25.254 0.059709 240.00 0.0041667 582.67 609.47 2.1690 2.1925 6.7289 195.67 0.084359 25.254 0.059709
122.38 945.76 undefined 584.87 612.04 2.1745 240.00 0.0041667 584.87 612.04 2.1745 2.1916 6.5502 197.49 0.082840 25.285 0.059593 240.00 0.0041667 584.87 612.04 2.1745 2.1916 6.5502 197.49 0.082840 25.285 0.059593
123.38 958.97 undefined 587.06 614.61 2.1800 240.00 0.0041667 587.06 614.61 2.1800 2.1910 6.3854 199.29 0.081366 25.316 0.059492 240.00 0.0041667 587.06 614.61 2.1800 2.1910 6.3854 199.29 0.081366 25.316 0.059492
124.38 972.20 undefined 589.25 617.18 2.1856 240.00 0.0041667 589.25 617.18 2.1856 2.1906 6.2330 201.07 0.079933 25.348 0.059406 240.00 0.0041667 589.25 617.18 2.1856 2.1906 6.2330 201.07 0.079933 25.348 0.059406
125.38 985.43 undefined 591.44 619.75 2.1911 240.00 0.0041667 591.44 619.75 2.1911 2.1903 6.0917 202.82 0.078541 25.379 0.059332 240.00 0.0041667 591.44 619.75 2.1911 2.1903 6.0917 202.82 0.078541 25.379 0.059332
126.38 998.69 undefined 593.63 622.32 2.1966 240.00 0.0041667 593.63 622.32 2.1966 2.1903 5.9603 204.56 0.077188 25.410 0.059269 240.00 0.0041667 593.63 622.32 2.1966 2.1903 5.9603 204.56 0.077188 25.410 0.059269
127.38 1012.0 undefined 595.82 624.89 2.2020 240.00 0.0041667 595.82 624.89 2.2020 2.1904 5.8379 206.28 0.075872 25.441 0.059217 240.00 0.0041667 595.82 624.89 2.2020 2.1904 5.8379 206.28 0.075872 25.441 0.059217
128.38 1025.2 undefined 598.01 627.46 2.2075 240.00 0.0041667 598.01 627.46 2.2075 2.1907 5.7235 207.99 0.074591 25.472 0.059175 240.00 0.0041667 598.01 627.46 2.2075 2.1907 5.7235 207.99 0.074591 25.472 0.059175
129.38 1038.5 undefined 600.20 630.04 2.2129 240.00 0.0041667 600.20 630.04 2.2129 2.1912 5.6166 209.67 0.073344 25.503 0.059142 240.00 0.0041667 600.20 630.04 2.2129 2.1912 5.6166 209.67 0.073344 25.503 0.059142
130.38 1051.8 undefined 602.39 632.61 2.2184 240.00 0.0041667 602.39 632.61 2.2184 2.1918 5.5163 211.34 0.072129 25.534 0.059118 240.00 0.0041667 602.39 632.61 2.2184 2.1918 5.5163 211.34 0.072129 25.534 0.059118
131.38 1065.1 undefined 604.58 635.18 2.2238 240.00 0.0041667 604.58 635.18 2.2238 2.1925 5.4221 212.99 0.070947 25.565 0.059100 240.00 0.0041667 604.58 635.18 2.2238 2.1925 5.4221 212.99 0.070947 25.565 0.059100
132.38 1078.5 undefined 606.78 637.76 2.2292 240.00 0.0041667 606.78 637.76 2.2292 2.1934 5.3335 214.63 0.069794 25.596 0.059090 240.00 0.0041667 606.78 637.76 2.2292 2.1934 5.3335 214.63 0.069794 25.596 0.059090
133.38 1091.8 undefined 608.97 640.34 2.2346 240.00 0.0041667 608.97 640.34 2.2346 2.1943 5.2500 216.26 0.068670 25.627 0.059087 240.00 0.0041667 608.97 640.34 2.2346 2.1943 5.2500 216.26 0.068670 25.627 0.059087
134.38 1105.2 undefined 611.17 642.92 2.2400 240.00 0.0041667 611.17 642.92 2.2400 2.1954 5.1713 217.87 0.067574 25.658 0.059089 240.00 0.0041667 611.17 642.92 2.2400 2.1954 5.1713 217.87 0.067574 25.658 0.059089
135.38 1118.5 undefined 613.36 645.50 2.2454 240.00 0.0041667 613.36 645.50 2.2454 2.1966 5.0969 219.46 0.066505 25.688 0.059098 240.00 0.0041667 613.36 645.50 2.2454 2.1966 5.0969 219.46 0.066505 25.688 0.059098
136.38 1131.9 undefined 615.56 648.08 2.2508 240.00 0.0041667 615.56 648.08 2.2508 2.1979 5.0265 221.04 0.065462 25.719 0.059111 240.00 0.0041667 615.56 648.08 2.2508 2.1979 5.0265 221.04 0.065462 25.719 0.059111
137.38 1145.3 undefined 617.76 650.66 2.2561 240.00 0.0041667 617.76 650.66 2.2561 2.1993 4.9599 222.61 0.064445 25.750 0.059130 240.00 0.0041667 617.76 650.66 2.2561 2.1993 4.9599 222.61 0.064445 25.750 0.059130
138.38 1158.6 undefined 619.96 653.24 2.2615 240.00 0.0041667 619.96 653.24 2.2615 2.2008 4.8966 224.17 0.063451 25.781 0.059153 240.00 0.0041667 619.96 653.24 2.2615 2.2008 4.8966 224.17 0.063451 25.781 0.059153
139.38 1172.0 undefined 622.16 655.83 2.2668 240.00 0.0041667 622.16 655.83 2.2668 2.2024 4.8366 225.72 0.062480 25.811 0.059181 240.00 0.0041667 622.16 655.83 2.2668 2.2024 4.8366 225.72 0.062480 25.811 0.059181
140.38 1185.4 undefined 624.36 658.42 2.2722 240.00 0.0041667 624.36 658.42 2.2722 2.2041 4.7796 227.25 0.061532 25.842 0.059212 240.00 0.0041667 624.36 658.42 2.2722 2.2041 4.7796 227.25 0.061532 25.842 0.059212
141.38 1198.8 undefined 626.57 661.01 2.2775 240.00 0.0041667 626.57 661.01 2.2775 2.2058 4.7253 228.77 0.060606 25.873 0.059248 240.00 0.0041667 626.57 661.01 2.2775 2.2058 4.7253 228.77 0.060606 25.873 0.059248
142.38 1212.3 undefined 628.77 663.60 2.2828 240.00 0.0041667 628.77 663.60 2.2828 2.2077 4.6736 230.28 0.059701 25.903 0.059287 240.00 0.0041667 628.77 663.60 2.2828 2.2077 4.6736 230.28 0.059701 25.903 0.059287
143.38 1225.7 undefined 630.98 666.20 2.2881 240.00 0.0041667 630.98 666.20 2.2881 2.2095 4.6244 231.78 0.058816 25.934 0.059330 240.00 0.0041667 630.98 666.20 2.2881 2.2095 4.6244 231.78 0.058816 25.934 0.059330
144.38 1239.1 undefined 633.19 668.79 2.2934 240.00 0.0041667 633.19 668.79 2.2934 2.2115 4.5774 233.27 0.057951 25.964 0.059376 240.00 0.0041667 633.19 668.79 2.2934 2.2115 4.5774 233.27 0.057951 25.964 0.059376
145.38 1252.6 undefined 635.41 671.39 2.2987 240.00 0.0041667 635.41 671.39 2.2987 2.2135 4.5326 234.75 0.057105 25.995 0.059425 240.00 0.0041667 635.41 671.39 2.2987 2.2135 4.5326 234.75 0.057105 25.995 0.059425
146.38 1266.0 undefined 637.62 673.99 2.3040 240.00 0.0041667 637.62 673.99 2.3040 2.2156 4.4897 236.22 0.056277 26.025 0.059477 240.00 0.0041667 637.62 673.99 2.3040 2.2156 4.4897 236.22 0.056277 26.025 0.059477
147.38 1279.5 undefined 639.84 676.59 2.3093 240.00 0.0041667 639.84 676.59 2.3093 2.2177 4.4487 237.68 0.055468 26.055 0.059532 240.00 0.0041667 639.84 676.59 2.3093 2.2177 4.4487 237.68 0.055468 26.055 0.059532
148.38 1292.9 undefined 642.06 679.20 2.3145 240.00 0.0041667 642.06 679.20 2.3145 2.2199 4.4095 239.13 0.054675 26.086 0.059589 240.00 0.0041667 642.06 679.20 2.3145 2.2199 4.4095 239.13 0.054675 26.086 0.059589
149.38 1306.4 undefined 644.28 681.81 2.3198 240.00 0.0041667 644.28 681.81 2.3198 2.2221 4.3720 240.57 0.053900 26.116 0.059649 240.00 0.0041667 644.28 681.81 2.3198 2.2221 4.3720 240.57 0.053900 26.116 0.059649
150.38 1319.8 undefined 646.50 684.42 2.3251 240.00 0.0041667 646.50 684.42 2.3251 2.2244 4.3360 242.00 0.053141 26.146 0.059711 240.00 0.0041667 646.50 684.42 2.3251 2.2244 4.3360 242.00 0.053141 26.146 0.059711
151.38 1333.3 undefined 648.73 687.03 2.3303 240.00 0.0041667 648.73 687.03 2.3303 2.2267 4.3015 243.42 0.052397 26.177 0.059775 240.00 0.0041667 648.73 687.03 2.3303 2.2267 4.3015 243.42 0.052397 26.177 0.059775
152.38 1346.8 undefined 650.95 689.65 2.3355 240.00 0.0041667 650.95 689.65 2.3355 2.2291 4.2684 244.84 0.051669 26.207 0.059842 240.00 0.0041667 650.95 689.65 2.3355 2.2291 4.2684 244.84 0.051669 26.207 0.059842
153.38 1360.3 undefined 653.18 692.26 2.3408 240.00 0.0041667 653.18 692.26 2.3408 2.2315 4.2366 246.24 0.050956 26.237 0.059911 240.00 0.0041667 653.18 692.26 2.3408 2.2315 4.2366 246.24 0.050956 26.237 0.059911
154.38 1373.8 undefined 655.42 694.88 2.3460 240.00 0.0041667 655.42 694.88 2.3460 2.2340 4.2061 247.64 0.050257 26.267 0.059982 240.00 0.0041667 655.42 694.88 2.3460 2.2340 4.2061 247.64 0.050257 26.267 0.059982
155.38 1387.3 undefined 657.65 697.51 2.3512 240.00 0.0041667 657.65 697.51 2.3512 2.2364 4.1768 249.03 0.049573 26.297 0.060054 240.00 0.0041667 657.65 697.51 2.3512 2.2364 4.1768 249.03 0.049573 26.297 0.060054
156.38 1400.8 undefined 659.89 700.13 2.3565 240.00 0.0041667 659.89 700.13 2.3565 2.2390 4.1486 250.41 0.048902 26.327 0.060129 240.00 0.0041667 659.89 700.13 2.3565 2.2390 4.1486 250.41 0.048902 26.327 0.060129
157.38 1414.3 undefined 662.13 702.76 2.3617 240.00 0.0041667 662.13 702.76 2.3617 2.2415 4.1215 251.78 0.048244 26.358 0.060205 240.00 0.0041667 662.13 702.76 2.3617 2.2415 4.1215 251.78 0.048244 26.358 0.060205
158.38 1427.8 undefined 664.37 705.39 2.3669 240.00 0.0041667 664.37 705.39 2.3669 2.2441 4.0954 253.15 0.047599 26.388 0.060283 240.00 0.0041667 664.37 705.39 2.3669 2.2441 4.0954 253.15 0.047599 26.388 0.060283
159.38 1441.3 undefined 666.62 708.02 2.3721 240.00 0.0041667 666.62 708.02 2.3721 2.2467 4.0703 254.51 0.046967 26.418 0.060362 240.00 0.0041667 666.62 708.02 2.3721 2.2467 4.0703 254.51 0.046967 26.418 0.060362
160.38 1454.8 undefined 668.87 710.66 2.3773 240.00 0.0041667 668.87 710.66 2.3773 2.2493 4.0461 255.86 0.046347 26.447 0.060443 240.00 0.0041667 668.87 710.66 2.3773 2.2493 4.0461 255.86 0.046347 26.447 0.060443
161.38 1468.3 undefined 671.12 713.30 2.3824 240.00 0.0041667 671.12 713.30 2.3824 2.2520 4.0228 257.20 0.045739 26.477 0.060526 240.00 0.0041667 671.12 713.30 2.3824 2.2520 4.0228 257.20 0.045739 26.477 0.060526
162.38 1481.9 undefined 673.37 715.94 2.3876 240.00 0.0041667 673.37 715.94 2.3876 2.2547 4.0003 258.54 0.045142 26.507 0.060609 240.00 0.0041667 673.37 715.94 2.3876 2.2547 4.0003 258.54 0.045142 26.507 0.060609
163.38 1495.4 undefined 675.63 718.59 2.3928 240.00 0.0041667 675.63 718.59 2.3928 2.2574 3.9786 259.87 0.044557 26.537 0.060695 240.00 0.0041667 675.63 718.59 2.3928 2.2574 3.9786 259.87 0.044557 26.537 0.060695
164.38 1508.9 undefined 677.89 721.23 2.3980 240.00 0.0041667 677.89 721.23 2.3980 2.2602 3.9577 261.19 0.043982 26.567 0.060781 240.00 0.0041667 677.89 721.23 2.3980 2.2602 3.9577 261.19 0.043982 26.567 0.060781
165.38 1522.5 undefined 680.15 723.88 2.4031 240.00 0.0041667 680.15 723.88 2.4031 2.2629 3.9375 262.51 0.043418 26.597 0.060869 240.00 0.0041667 680.15 723.88 2.4031 2.2629 3.9375 262.51 0.043418 26.597 0.060869
166.38 1536.0 undefined 682.41 726.54 2.4083 240.00 0.0041667 682.41 726.54 2.4083 2.2657 3.9180 263.82 0.042865 26.626 0.060959 240.00 0.0041667 682.41 726.54 2.4083 2.2657 3.9180 263.82 0.042865 26.626 0.060959
167.38 1549.5 undefined 684.68 729.19 2.4134 240.00 0.0041667 684.68 729.19 2.4134 2.2685 3.8992 265.12 0.042322 26.656 0.061049 240.00 0.0041667 684.68 729.19 2.4134 2.2685 3.8992 265.12 0.042322 26.656 0.061049
168.38 1563.1 undefined 686.95 731.85 2.4186 240.00 0.0041667 686.95 731.85 2.4186 2.2714 3.8810 266.42 0.041788 26.686 0.061140 240.00 0.0041667 686.95 731.85 2.4186 2.2714 3.8810 266.42 0.041788 26.686 0.061140
169.38 1576.6 undefined 689.22 734.51 2.4237 240.00 0.0041667 689.22 734.51 2.4237 2.2742 3.8634 267.71 0.041264 26.715 0.061233 240.00 0.0041667 689.22 734.51 2.4237 2.2742 3.8634 267.71 0.041264 26.715 0.061233
170.38 1590.2 undefined 691.50 737.18 2.4289 240.00 0.0041667 691.50 737.18 2.4289 2.2771 3.8465 268.99 0.040750 26.745 0.061327 240.00 0.0041667 691.50 737.18 2.4289 2.2771 3.8465 268.99 0.040750 26.745 0.061327
171.38 1603.7 undefined 693.78 739.85 2.4340 240.00 0.0041667 693.78 739.85 2.4340 2.2799 3.8300 270.27 0.040245 26.775 0.061422 240.00 0.0041667 693.78 739.85 2.4340 2.2799 3.8300 270.27 0.040245 26.775 0.061422
172.38 1617.3 undefined 696.06 742.52 2.4391 240.00 0.0041667 696.06 742.52 2.4391 2.2828 3.8141 271.54 0.039748 26.804 0.061518 240.00 0.0041667 696.06 742.52 2.4391 2.2828 3.8141 271.54 0.039748 26.804 0.061518
173.38 1630.8 undefined 698.34 745.19 2.4442 240.00 0.0041667 698.34 745.19 2.4442 2.2858 3.7988 272.81 0.039260 26.834 0.061614 240.00 0.0041667 698.34 745.19 2.4442 2.2858 3.7988 272.81 0.039260 26.834 0.061614
174.38 1644.4 undefined 700.63 747.87 2.4494 240.00 0.0041667 700.63 747.87 2.4494 2.2887 3.7839 274.07 0.038781 26.863 0.061712 240.00 0.0041667 700.63 747.87 2.4494 2.2887 3.7839 274.07 0.038781 26.863 0.061712
175.38 1658.0 undefined 702.92 750.55 2.4545 240.00 0.0041667 702.92 750.55 2.4545 2.2916 3.7695 275.32 0.038310 26.893 0.061811 240.00 0.0041667 702.92 750.55 2.4545 2.2916 3.7695 275.32 0.038310 26.893 0.061811
176.38 1671.5 undefined 705.21 753.23 2.4596 240.00 0.0041667 705.21 753.23 2.4596 2.2946 3.7556 276.57 0.037847 26.922 0.061911 240.00 0.0041667 705.21 753.23 2.4596 2.2946 3.7556 276.57 0.037847 26.922 0.061911
177.38 1685.1 undefined 707.51 755.92 2.4647 240.00 0.0041667 707.51 755.92 2.4647 2.2975 3.7421 277.82 0.037392 26.951 0.062011 240.00 0.0041667 707.51 755.92 2.4647 2.2975 3.7421 277.82 0.037392 26.951 0.062011
178.38 1698.7 undefined 709.81 758.61 2.4698 240.00 0.0041667 709.81 758.61 2.4698 2.3005 3.7290 279.05 0.036945 26.981 0.062113 240.00 0.0041667 709.81 758.61 2.4698 2.3005 3.7290 279.05 0.036945 26.981 0.062113
179.38 1712.2 undefined 712.11 761.30 2.4749 240.00 0.0041667 712.11 761.30 2.4749 2.3035 3.7164 280.29 0.036505 27.010 0.062215 240.00 0.0041667 712.11 761.30 2.4749 2.3035 3.7164 280.29 0.036505 27.010 0.062215
180.38 1725.8 undefined 714.41 763.99 2.4800 240.00 0.0041667 714.41 763.99 2.4800 2.3065 3.7041 281.51 0.036072 27.039 0.062318 240.00 0.0041667 714.41 763.99 2.4800 2.3065 3.7041 281.51 0.036072 27.039 0.062318
181.38 1739.4 undefined 716.72 766.69 2.4850 240.00 0.0041667 716.72 766.69 2.4850 2.3095 3.6923 282.74 0.035647 27.069 0.062422 240.00 0.0041667 716.72 766.69 2.4850 2.3095 3.6923 282.74 0.035647 27.069 0.062422
182.38 1753.0 undefined 719.03 769.39 2.4901 240.00 0.0041667 719.03 769.39 2.4901 2.3126 3.6807 283.95 0.035228 27.098 0.062527 240.00 0.0041667 719.03 769.39 2.4901 2.3126 3.6807 283.95 0.035228 27.098 0.062527
183.38 1766.5 undefined 721.35 772.10 2.4952 240.00 0.0041667 721.35 772.10 2.4952 2.3156 3.6696 285.16 0.034816 27.127 0.062632 240.00 0.0041667 721.35 772.10 2.4952 2.3156 3.6696 285.16 0.034816 27.127 0.062632
184.38 1780.1 undefined 723.66 774.80 2.5003 240.00 0.0041667 723.66 774.80 2.5003 2.3187 3.6588 286.37 0.034412 27.156 0.062739 240.00 0.0041667 723.66 774.80 2.5003 2.3187 3.6588 286.37 0.034412 27.156 0.062739
185.38 1793.7 undefined 725.98 777.51 2.5053 240.00 0.0041667 725.98 777.51 2.5053 2.3217 3.6483 287.57 0.034013 27.185 0.062846 240.00 0.0041667 725.98 777.51 2.5053 2.3217 3.6483 287.57 0.034013 27.185 0.062846
186.38 1807.3 undefined 728.31 780.23 2.5104 240.00 0.0041667 728.31 780.23 2.5104 2.3248 3.6381 288.77 0.033621 27.214 0.062953 240.00 0.0041667 728.31 780.23 2.5104 2.3248 3.6381 288.77 0.033621 27.214 0.062953
187.38 1820.9 undefined 730.63 782.94 2.5154 240.00 0.0041667 730.63 782.94 2.5154 2.3279 3.6283 289.96 0.033235 27.243 0.063062 240.00 0.0041667 730.63 782.94 2.5154 2.3279 3.6283 289.96 0.033235 27.243 0.063062
188.38 1834.5 undefined 732.96 785.66 2.5205 240.00 0.0041667 732.96 785.66 2.5205 2.3309 3.6187 291.15 0.032855 27.272 0.063171 240.00 0.0041667 732.96 785.66 2.5205 2.3309 3.6187 291.15 0.032855 27.272 0.063171
189.38 1848.1 undefined 735.30 788.39 2.5255 240.00 0.0041667 735.30 788.39 2.5255 2.3340 3.6094 292.33 0.032482 27.301 0.063281 240.00 0.0041667 735.30 788.39 2.5255 2.3340 3.6094 292.33 0.032482 27.301 0.063281
190.38 1861.6 undefined 737.63 791.11 2.5306 240.00 0.0041667 737.63 791.11 2.5306 2.3371 3.6004 293.51 0.032114 27.330 0.063391 240.00 0.0041667 737.63 791.11 2.5306 2.3371 3.6004 293.51 0.032114 27.330 0.063391
191.38 1875.2 undefined 739.97 793.84 2.5356 240.00 0.0041667 739.97 793.84 2.5356 2.3402 3.5917 294.68 0.031751 27.359 0.063502 240.00 0.0041667 739.97 793.84 2.5356 2.3402 3.5917 294.68 0.031751 27.359 0.063502
192.38 1888.8 undefined 742.31 796.57 2.5407 240.00 0.0041667 742.31 796.57 2.5407 2.3434 3.5832 295.85 0.031395 27.388 0.063614 240.00 0.0041667 742.31 796.57 2.5407 2.3434 3.5832 295.85 0.031395 27.388 0.063614
193.38 1902.4 undefined 744.66 799.31 2.5457 240.00 0.0041667 744.66 799.31 2.5457 2.3465 3.5750 297.01 0.031044 27.417 0.063726 240.00 0.0041667 744.66 799.31 2.5457 2.3465 3.5750 297.01 0.031044 27.417 0.063726
194.38 1916.0 undefined 747.00 802.05 2.5507 240.00 0.0041667 747.00 802.05 2.5507 2.3496 3.5670 298.17 0.030698 27.446 0.063839 240.00 0.0041667 747.00 802.05 2.5507 2.3496 3.5670 298.17 0.030698 27.446 0.063839
195.38 1929.6 undefined 749.36 804.79 2.5557 240.00 0.0041667 749.36 804.79 2.5557 2.3528 3.5593 299.33 0.030357 27.475 0.063953 240.00 0.0041667 749.36 804.79 2.5557 2.3528 3.5593 299.33 0.030357 27.475 0.063953
196.38 1943.2 undefined 751.71 807.53 2.5608 240.00 0.0041667 751.71 807.53 2.5608 2.3559 3.5518 300.48 0.030022 27.503 0.064067 240.00 0.0041667 751.71 807.53 2.5608 2.3559 3.5518 300.48 0.030022 27.503 0.064067
197.38 1956.8 undefined 754.07 810.28 2.5658 240.00 0.0041667 754.07 810.28 2.5658 2.3590 3.5445 301.62 0.029691 27.532 0.064181 240.00 0.0041667 754.07 810.28 2.5658 2.3590 3.5445 301.62 0.029691 27.532 0.064181
198.38 1970.4 undefined 756.43 813.03 2.5708 240.00 0.0041667 756.43 813.03 2.5708 2.3622 3.5374 302.76 0.029366 27.561 0.064297 240.00 0.0041667 756.43 813.03 2.5708 2.3622 3.5374 302.76 0.029366 27.561 0.064297
199.38 1984.0 undefined 758.79 815.79 2.5758 240.00 0.0041667 758.79 815.79 2.5758 2.3654 3.5306 303.90 0.029045 27.590 0.064412 240.00 0.0041667 758.79 815.79 2.5758 2.3654 3.5306 303.90 0.029045 27.590 0.064412
200.38 1997.6 undefined 761.16 818.55 2.5808 240.00 0.0041667 761.16 818.55 2.5808 2.3685 3.5239 305.03 0.028729 27.618 0.064529 240.00 0.0041667 761.16 818.55 2.5808 2.3685 3.5239 305.03 0.028729 27.618 0.064529
201.38 2011.2 undefined 763.53 821.31 2.5858 240.00 0.0041667 763.53 821.31 2.5858 2.3717 3.5175 306.16 0.028417 27.647 0.064646 240.00 0.0041667 763.53 821.31 2.5858 2.3717 3.5175 306.16 0.028417 27.647 0.064646
202.38 2024.8 undefined 765.90 824.07 2.5908 240.00 0.0041667 765.90 824.07 2.5908 2.3749 3.5112 307.29 0.028110 27.675 0.064763 240.00 0.0041667 765.90 824.07 2.5908 2.3749 3.5112 307.29 0.028110 27.675 0.064763
203.38 2038.4 undefined 768.28 826.84 2.5958 240.00 0.0041667 768.28 826.84 2.5958 2.3781 3.5051 308.41 0.027808 27.704 0.064881 240.00 0.0041667 768.28 826.84 2.5958 2.3781 3.5051 308.41 0.027808 27.704 0.064881
204.38 2052.0 undefined 770.66 829.61 2.6008 240.00 0.0041667 770.66 829.61 2.6008 2.3813 3.4992 309.52 0.027510 27.732 0.064999 240.00 0.0041667 770.66 829.61 2.6008 2.3813 3.4992 309.52 0.027510 27.732 0.064999
205.38 2065.6 undefined 773.04 832.38 2.6058 240.00 0.0041667 773.04 832.38 2.6058 2.3844 3.4935 310.64 0.027216 27.761 0.065118 240.00 0.0041667 773.04 832.38 2.6058 2.3844 3.4935 310.64 0.027216 27.761 0.065118
206.38 2079.2 undefined 775.43 835.16 2.6107 240.00 0.0041667 775.43 835.16 2.6107 2.3876 3.4879 311.74 0.026926 27.789 0.065238 240.00 0.0041667 775.43 835.16 2.6107 2.3876 3.4879 311.74 0.026926 27.789 0.065238
207.38 2092.8 undefined 777.82 837.94 2.6157 240.00 0.0041667 777.82 837.94 2.6157 2.3908 3.4826 312.85 0.026640 27.818 0.065358 240.00 0.0041667 777.82 837.94 2.6157 2.3908 3.4826 312.85 0.026640 27.818 0.065358
208.38 2106.4 undefined 780.21 840.72 2.6207 240.00 0.0041667 780.21 840.72 2.6207 2.3941 3.4773 313.95 0.026359 27.846 0.065478 240.00 0.0041667 780.21 840.72 2.6207 2.3941 3.4773 313.95 0.026359 27.846 0.065478
209.38 2120.0 undefined 782.60 843.51 2.6257 240.00 0.0041667 782.60 843.51 2.6257 2.3973 3.4722 315.05 0.026081 27.874 0.065599 240.00 0.0041667 782.60 843.51 2.6257 2.3973 3.4722 315.05 0.026081 27.874 0.065599
210.38 2133.6 undefined 785.00 846.30 2.6306 240.00 0.0041667 785.00 846.30 2.6306 2.4005 3.4673 316.14 0.025807 27.903 0.065721 240.00 0.0041667 785.00 846.30 2.6306 2.4005 3.4673 316.14 0.025807 27.903 0.065721
211.38 2147.2 undefined 787.41 849.09 2.6356 240.00 0.0041667 787.41 849.09 2.6356 2.4037 3.4626 317.23 0.025537 27.931 0.065842 240.00 0.0041667 787.41 849.09 2.6356 2.4037 3.4626 317.23 0.025537 27.931 0.065842
212.38 2160.8 undefined 789.81 851.89 2.6406 240.00 0.0041667 789.81 851.89 2.6406 2.4069 3.4579 318.31 0.025271 27.959 0.065965 240.00 0.0041667 789.81 851.89 2.6406 2.4069 3.4579 318.31 0.025271 27.959 0.065965
213.38 2174.4 undefined 792.22 854.69 2.6455 240.00 0.0041667 792.22 854.69 2.6455 2.4101 3.4534 319.39 0.025008 27.988 0.066087 240.00 0.0041667 792.22 854.69 2.6455 2.4101 3.4534 319.39 0.025008 27.988 0.066087
214.38 2188.0 undefined 794.63 857.49 2.6505 240.00 0.0041667 794.63 857.49 2.6505 2.4134 3.4491 320.47 0.024749 28.016 0.066210 240.00 0.0041667 794.63 857.49 2.6505 2.4134 3.4491 320.47 0.024749 28.016 0.066210
215.38 2201.6 undefined 797.05 860.29 2.6554 240.00 0.0041667 797.05 860.29 2.6554 2.4166 3.4449 321.55 0.024493 28.044 0.066334 240.00 0.0041667 797.05 860.29 2.6554 2.4166 3.4449 321.55 0.024493 28.044 0.066334
216.38 2215.2 undefined 799.46 863.10 2.6604 240.00 0.0041667 799.46 863.10 2.6604 2.4198 3.4408 322.62 0.024241 28.072 0.066458 240.00 0.0041667 799.46 863.10 2.6604 2.4198 3.4408 322.62 0.024241 28.072 0.066458
217.38 2228.8 undefined 801.89 865.91 2.6653 240.00 0.0041667 801.89 865.91 2.6653 2.4231 3.4368 323.68 0.023992 28.100 0.066582 240.00 0.0041667 801.89 865.91 2.6653 2.4231 3.4368 323.68 0.023992 28.100 0.066582
218.38 2242.4 undefined 804.31 868.73 2.6702 240.00 0.0041667 804.31 868.73 2.6702 2.4263 3.4330 324.75 0.023747 28.128 0.066707 240.00 0.0041667 804.31 868.73 2.6702 2.4263 3.4330 324.75 0.023747 28.128 0.066707
219.38 2256.0 undefined 806.74 871.55 2.6752 240.00 0.0041667 806.74 871.55 2.6752 2.4296 3.4293 325.81 0.023505 28.156 0.066832 240.00 0.0041667 806.74 871.55 2.6752 2.4296 3.4293 325.81 0.023505 28.156 0.066832
220.38 2269.6 undefined 809.17 874.37 2.6801 240.00 0.0041667 809.17 874.37 2.6801 2.4328 3.4257 326.86 0.023266 28.184 0.066958 240.00 0.0041667 809.17 874.37 2.6801 2.4328 3.4257 326.86 0.023266 28.184 0.066958
221.38 2283.2 undefined 811.60 877.20 2.6850 240.00 0.0041667 811.60 877.20 2.6850 2.4361 3.4222 327.92 0.023030 28.212 0.067084 240.00 0.0041667 811.60 877.20 2.6850 2.4361 3.4222 327.92 0.023030 28.212 0.067084
222.38 2296.8 undefined 814.04 880.02 2.6900 240.00 0.0041667 814.04 880.02 2.6900 2.4393 3.4188 328.97 0.022797 28.240 0.067211 240.00 0.0041667 814.04 880.02 2.6900 2.4393 3.4188 328.97 0.022797 28.240 0.067211
223.38 2310.4 undefined 816.48 882.86 2.6949 240.00 0.0041667 816.48 882.86 2.6949 2.4426 3.4156 330.01 0.022567 28.268 0.067337 240.00 0.0041667 816.48 882.86 2.6949 2.4426 3.4156 330.01 0.022567 28.268 0.067337
224.38 2324.0 undefined 818.93 885.69 2.6998 240.00 0.0041667 818.93 885.69 2.6998 2.4458 3.4124 331.05 0.022340 28.296 0.067464 240.00 0.0041667 818.93 885.69 2.6998 2.4458 3.4124 331.05 0.022340 28.296 0.067464
225.38 2337.6 undefined 821.37 888.53 2.7047 240.00 0.0041667 821.37 888.53 2.7047 2.4491 3.4094 332.09 0.022116 28.324 0.067592 240.00 0.0041667 821.37 888.53 2.7047 2.4491 3.4094 332.09 0.022116 28.324 0.067592
226.38 2351.2 undefined 823.83 891.37 2.7096 240.00 0.0041667 823.83 891.37 2.7096 2.4524 3.4064 333.13 0.021895 28.352 0.067720 240.00 0.0041667 823.83 891.37 2.7096 2.4524 3.4064 333.13 0.021895 28.352 0.067720
227.38 2364.8 undefined 826.28 894.21 2.7145 240.00 0.0041667 826.28 894.21 2.7145 2.4556 3.4036 334.16 0.021677 28.379 0.067848 240.00 0.0041667 826.28 894.21 2.7145 2.4556 3.4036 334.16 0.021677 28.379 0.067848
228.38 2378.4 undefined 828.74 897.06 2.7194 240.00 0.0041667 828.74 897.06 2.7194 2.4589 3.4008 335.19 0.021462 28.407 0.067977 240.00 0.0041667 828.74 897.06 2.7194 2.4589 3.4008 335.19 0.021462 28.407 0.067977
229.38 2392.0 undefined 831.20 899.91 2.7243 240.00 0.0041667 831.20 899.91 2.7243 2.4622 3.3982 336.22 0.021249 28.435 0.068106 240.00 0.0041667 831.20 899.91 2.7243 2.4622 3.3982 336.22 0.021249 28.435 0.068106
230.38 2405.6 undefined 833.66 902.77 2.7292 240.00 0.0041667 833.66 902.77 2.7292 2.4654 3.3956 337.24 0.021039 28.463 0.068235 240.00 0.0041667 833.66 902.77 2.7292 2.4654 3.3956 337.24 0.021039 28.463 0.068235
231.38 2419.2 undefined 836.13 905.63 2.7341 240.00 0.0041667 836.13 905.63 2.7341 2.4687 3.3931 338.26 0.020831 28.490 0.068365 240.00 0.0041667 836.13 905.63 2.7341 2.4687 3.3931 338.26 0.020831 28.490 0.068365
232.38 2432.7 undefined 838.60 908.49 2.7390 240.00 0.0041667 838.60 908.49 2.7390 2.4720 3.3907 339.28 0.020627 28.518 0.068495 240.00 0.0041667 838.60 908.49 2.7390 2.4720 3.3907 339.28 0.020627 28.518 0.068495
233.38 2446.3 undefined 841.07 911.35 2.7439 240.00 0.0041667 841.07 911.35 2.7439 2.4753 3.3884 340.29 0.020424 28.546 0.068625 240.00 0.0041667 841.07 911.35 2.7439 2.4753 3.3884 340.29 0.020424 28.546 0.068625
234.38 2459.9 undefined 843.55 914.22 2.7488 240.00 0.0041667 843.55 914.22 2.7488 2.4785 3.3862 341.30 0.020224 28.573 0.068755 240.00 0.0041667 843.55 914.22 2.7488 2.4785 3.3862 341.30 0.020224 28.573 0.068755
235.38 2473.5 undefined 846.03 917.09 2.7537 240.00 0.0041667 846.03 917.09 2.7537 2.4818 3.3840 342.31 0.020027 28.601 0.068886 240.00 0.0041667 846.03 917.09 2.7537 2.4818 3.3840 342.31 0.020027 28.601 0.068886
236.38 2487.1 undefined 848.51 919.96 2.7586 240.00 0.0041667 848.51 919.96 2.7586 2.4851 3.3820 343.31 0.019832 28.628 0.069018 240.00 0.0041667 848.51 919.96 2.7586 2.4851 3.3820 343.31 0.019832 28.628 0.069018
237.38 2500.7 undefined 851.00 922.84 2.7634 240.00 0.0041667 851.00 922.84 2.7634 2.4884 3.3800 344.31 0.019640 28.656 0.069149 240.00 0.0041667 851.00 922.84 2.7634 2.4884 3.3800 344.31 0.019640 28.656 0.069149
238.38 2514.3 undefined 853.49 925.72 2.7683 240.00 0.0041667 853.49 925.72 2.7683 2.4917 3.3781 345.31 0.019449 28.683 0.069281 240.00 0.0041667 853.49 925.72 2.7683 2.4917 3.3781 345.31 0.019449 28.683 0.069281
239.38 2527.9 undefined 855.98 928.60 2.7732 240.00 0.0041667 855.98 928.60 2.7732 2.4950 3.3763 346.31 0.019261 28.711 0.069413 240.00 0.0041667 855.98 928.60 2.7732 2.4950 3.3763 346.31 0.019261 28.711 0.069413
240.38 2541.5 undefined 858.48 931.49 2.7780 240.00 0.0041667 858.48 931.49 2.7780 2.4982 3.3745 347.30 0.019076 28.738 0.069545 240.00 0.0041667 858.48 931.49 2.7780 2.4982 3.3745 347.30 0.019076 28.738 0.069545
241.38 2555.1 undefined 860.98 934.38 2.7829 240.00 0.0041667 860.98 934.38 2.7829 2.5015 3.3728 348.29 0.018892 28.765 0.069678 240.00 0.0041667 860.98 934.38 2.7829 2.5015 3.3728 348.29 0.018892 28.765 0.069678
242.38 2568.6 undefined 863.48 937.27 2.7878 240.00 0.0041667 863.48 937.27 2.7878 2.5048 3.3712 349.27 0.018711 28.793 0.069811 240.00 0.0041667 863.48 937.27 2.7878 2.5048 3.3712 349.27 0.018711 28.793 0.069811
243.38 2582.2 undefined 865.99 940.17 2.7926 240.00 0.0041667 865.99 940.17 2.7926 2.5081 3.3697 350.26 0.018532 28.820 0.069944 240.00 0.0041667 865.99 940.17 2.7926 2.5081 3.3697 350.26 0.018532 28.820 0.069944
244.38 2595.8 undefined 868.50 943.07 2.7975 240.00 0.0041667 868.50 943.07 2.7975 2.5114 3.3682 351.24 0.018355 28.847 0.070077 240.00 0.0041667 868.50 943.07 2.7975 2.5114 3.3682 351.24 0.018355 28.847 0.070077
245.38 2609.4 undefined 871.01 945.97 2.8023 240.00 0.0041667 871.01 945.97 2.8023 2.5147 3.3668 352.22 0.018180 28.875 0.070211 240.00 0.0041667 871.01 945.97 2.8023 2.5147 3.3668 352.22 0.018180 28.875 0.070211
246.38 2623.0 undefined 873.53 948.88 2.8072 240.00 0.0041667 873.53 948.88 2.8072 2.5180 3.3655 353.19 0.018007 28.902 0.070345 240.00 0.0041667 873.53 948.88 2.8072 2.5180 3.3655 353.19 0.018007 28.902 0.070345
247.38 2636.6 undefined 876.05 951.79 2.8120 240.00 0.0041667 876.05 951.79 2.8120 2.5213 3.3642 354.16 0.017836 28.929 0.070479 240.00 0.0041667 876.05 951.79 2.8120 2.5213 3.3642 354.16 0.017836 28.929 0.070479
248.38 2650.1 undefined 878.57 954.70 2.8169 240.00 0.0041667 878.57 954.70 2.8169 2.5246 3.3629 355.13 0.017668 28.956 0.070613 240.00 0.0041667 878.57 954.70 2.8169 2.5246 3.3629 355.13 0.017668 28.956 0.070613
249.38 2663.7 undefined 881.10 957.62 2.8217 240.00 0.0041667 881.10 957.62 2.8217 2.5279 3.3618 356.10 0.017501 28.983 0.070748 240.00 0.0041667 881.10 957.62 2.8217 2.5279 3.3618 356.10 0.017501 28.983 0.070748
250.38 2677.3 undefined 883.63 960.54 2.8265 240.00 0.0041667 883.63 960.54 2.8265 2.5312 3.3607 357.06 0.017336 29.010 0.070882 240.00 0.0041667 883.63 960.54 2.8265 2.5312 3.3607 357.06 0.017336 29.010 0.070882
251.38 2690.9 undefined 886.16 963.46 2.8314 240.00 0.0041667 886.16 963.46 2.8314 2.5344 3.3596 358.02 0.017173 29.037 0.071017 240.00 0.0041667 886.16 963.46 2.8314 2.5344 3.3596 358.02 0.017173 29.037 0.071017
252.38 2704.5 undefined 888.70 966.39 2.8362 240.00 0.0041667 888.70 966.39 2.8362 2.5377 3.3587 358.98 0.017011 29.064 0.071152 240.00 0.0041667 888.70 966.39 2.8362 2.5377 3.3587 358.98 0.017011 29.064 0.071152
253.38 2718.0 undefined 891.23 969.32 2.8410 240.00 0.0041667 891.23 969.32 2.8410 2.5410 3.3577 359.94 0.016852 29.091 0.071287 240.00 0.0041667 891.23 969.32 2.8410 2.5410 3.3577 359.94 0.016852 29.091 0.071287
254.38 2731.6 undefined 893.78 972.25 2.8459 240.00 0.0041667 893.78 972.25 2.8459 2.5443 3.3569 360.89 0.016695 29.118 0.071423 240.00 0.0041667 893.78 972.25 2.8459 2.5443 3.3569 360.89 0.016695 29.118 0.071423
255.38 2745.2 undefined 896.32 975.19 2.8507 240.00 0.0041667 896.32 975.19 2.8507 2.5476 3.3560 361.84 0.016539 29.145 0.071558 240.00 0.0041667 896.32 975.19 2.8507 2.5476 3.3560 361.84 0.016539 29.145 0.071558
256.38 2758.7 undefined 898.87 978.13 2.8555 240.00 0.0041667 898.87 978.13 2.8555 2.5509 3.3553 362.79 0.016385 29.172 0.071694 240.00 0.0041667 898.87 978.13 2.8555 2.5509 3.3553 362.79 0.016385 29.172 0.071694
257.38 2772.3 undefined 901.42 981.07 2.8603 240.00 0.0041667 901.42 981.07 2.8603 2.5542 3.3545 363.73 0.016232 29.199 0.071829 240.00 0.0041667 901.42 981.07 2.8603 2.5542 3.3545 363.73 0.016232 29.199 0.071829
258.38 2785.9 undefined 903.98 984.01 2.8651 240.00 0.0041667 903.98 984.01 2.8651 2.5575 3.3539 364.68 0.016082 29.226 0.071965 240.00 0.0041667 903.98 984.01 2.8651 2.5575 3.3539 364.68 0.016082 29.226 0.071965
259.38 2799.5 undefined 906.54 986.96 2.8699 240.00 0.0041667 906.54 986.96 2.8699 2.5608 3.3533 365.62 0.015933 29.253 0.072101 240.00 0.0041667 906.54 986.96 2.8699 2.5608 3.3533 365.62 0.015933 29.253 0.072101
260.38 2813.0 undefined 909.10 989.92 2.8747 240.00 0.0041667 909.10 989.92 2.8747 2.5641 3.3527 366.55 0.015786 29.280 0.072236 240.00 0.0041667 909.10 989.92 2.8747 2.5641 3.3527 366.55 0.015786 29.280 0.072236
261.38 2826.6 undefined 911.67 992.87 2.8795 240.00 0.0041667 911.67 992.87 2.8795 2.5674 3.3522 367.49 0.015640 29.306 0.072372 240.00 0.0041667 911.67 992.87 2.8795 2.5674 3.3522 367.49 0.015640 29.306 0.072372
262.38 2840.2 undefined 914.24 995.83 2.8843 240.00 0.0041667 914.24 995.83 2.8843 2.5707 3.3517 368.42 0.015496 29.333 0.072508 240.00 0.0041667 914.24 995.83 2.8843 2.5707 3.3517 368.42 0.015496 29.333 0.072508
263.38 2853.7 undefined 916.81 998.79 2.8891 240.00 0.0041667 916.81 998.79 2.8891 2.5740 3.3513 369.35 0.015354 29.360 0.072643 240.00 0.0041667 916.81 998.79 2.8891 2.5740 3.3513 369.35 0.015354 29.360 0.072643
264.38 2867.3 undefined 919.39 1001.8 2.8939 240.00 0.0041667 919.39 1001.8 2.8939 2.5773 3.3509 370.28 0.015213 29.387 0.072779 240.00 0.0041667 919.39 1001.8 2.8939 2.5773 3.3509 370.28 0.015213 29.387 0.072779
265.38 2880.8 undefined 921.96 1004.7 2.8987 240.00 0.0041667 921.96 1004.7 2.8987 2.5806 3.3505 371.20 0.015073 29.413 0.072914 240.00 0.0041667 921.96 1004.7 2.8987 2.5806 3.3505 371.20 0.015073 29.413 0.072914
266.38 2894.4 undefined 924.55 1007.7 2.9035 240.00 0.0041667 924.55 1007.7 2.9035 2.5839 3.3502 372.12 0.014936 29.440 0.073049 240.00 0.0041667 924.55 1007.7 2.9035 2.5839 3.3502 372.12 0.014936 29.440 0.073049
267.38 2908.0 undefined 927.13 1010.7 2.9083 240.00 0.0041667 927.13 1010.7 2.9083 2.5871 3.3500 373.04 0.014799 29.466 0.073184 240.00 0.0041667 927.13 1010.7 2.9083 2.5871 3.3500 373.04 0.014799 29.466 0.073184
268.38 2921.5 undefined 929.72 1013.7 2.9131 240.00 0.0041667 929.72 1013.7 2.9131 2.5904 3.3498 373.96 0.014664 29.493 0.073319 240.00 0.0041667 929.72 1013.7 2.9131 2.5904 3.3498 373.96 0.014664 29.493 0.073319
269.38 2935.1 undefined 932.31 1016.6 2.9179 240.00 0.0041667 932.31 1016.6 2.9179 2.5937 3.3496 374.88 0.014531 29.520 0.073453 240.00 0.0041667 932.31 1016.6 2.9179 2.5937 3.3496 374.88 0.014531 29.520 0.073453
270.38 2948.6 undefined 934.91 1019.6 2.9227 240.00 0.0041667 934.91 1019.6 2.9227 2.5970 3.3495 375.79 0.014399 29.546 0.073587 240.00 0.0041667 934.91 1019.6 2.9227 2.5970 3.3495 375.79 0.014399 29.546 0.073587
271.38 2962.2 undefined 937.51 1022.6 2.9274 240.00 0.0041667 937.51 1022.6 2.9274 2.6003 3.3494 376.70 0.014268 29.573 0.073720 240.00 0.0041667 937.51 1022.6 2.9274 2.6003 3.3494 376.70 0.014268 29.573 0.073720
272.38 2975.7 undefined 940.11 1025.6 2.9322 240.00 0.0041667 940.11 1025.6 2.9322 2.6036 3.3493 377.61 0.014139 29.599 0.073852 240.00 0.0041667 940.11 1025.6 2.9322 2.6036 3.3493 377.61 0.014139 29.599 0.073852
273.38 2989.3 undefined 942.71 1028.6 2.9370 240.00 0.0041667 942.71 1028.6 2.9370 2.6069 3.3493 378.51 0.014011 29.625 0.073983 240.00 0.0041667 942.71 1028.6 2.9370 2.6069 3.3493 378.51 0.014011 29.625 0.073983
274.38 3002.8 undefined 945.32 1031.6 2.9417 240.00 0.0041667 945.32 1031.6 2.9417 2.6102 3.3493 379.42 0.013885 29.652 0.074113 240.00 0.0041667 945.32 1031.6 2.9417 2.6102 3.3493 379.42 0.013885 29.652 0.074113
275.38 3016.4 undefined 947.93 1034.6 2.9465 240.00 0.0041667 947.93 1034.6 2.9465 2.6135 3.3494 380.32 0.013759 29.678 0.074241 240.00 0.0041667 947.93 1034.6 2.9465 2.6135 3.3494 380.32 0.013759 29.678 0.074241
276.38 3029.9 undefined 950.55 1037.6 2.9513 240.00 0.0041667 950.55 1037.6 2.9513 2.6167 3.3495 381.22 0.013636 29.705 0.074367 240.00 0.0041667 950.55 1037.6 2.9513 2.6167 3.3495 381.22 0.013636 29.705 0.074367
277.38 3043.4 undefined 953.17 1040.6 2.9560 240.00 0.0041667 953.17 1040.6 2.9560 2.6200 3.3496 382.11 0.013513 29.731 0.074490 240.00 0.0041667 953.17 1040.6 2.9560 2.6200 3.3496 382.11 0.013513 29.731 0.074490
278.38 3057.0 undefined 955.79 1043.6 2.9608 240.00 0.0041667 955.79 1043.6 2.9608 2.6233 3.3497 383.01 0.013392 29.757 0.074609 240.00 0.0041667 955.79 1043.6 2.9608 2.6233 3.3497 383.01 0.013392 29.757 0.074609
279.38 3070.5 undefined 958.41 1046.6 2.9656 240.00 0.0041667 958.41 1046.6 2.9656 2.6266 3.3499 383.90 0.013272 29.783 0.074722 240.00 0.0041667 958.41 1046.6 2.9656 2.6266 3.3499 383.90 0.013272 29.783 0.074722
280.38 3084.1 undefined 961.04 1049.6 2.9703 240.00 0.0041667 961.04 1049.6 2.9703 2.6299 3.3502 384.79 0.013153 29.810 0.074822 240.00 0.0041667 961.04 1049.6 2.9703 2.6299 3.3502 384.79 0.013153 29.810 0.074822
281.38 3097.6 undefined 963.67 1052.7 2.9751 240.00 0.0041667 963.67 1052.7 2.9751 2.6331 3.3504 385.68 0.013035 29.836 0.074882 240.00 0.0041667 963.67 1052.7 2.9751 2.6331 3.3504 385.68 0.013035 29.836 0.074882
282.38 3111.1 undefined 966.31 1055.7 2.9798 240.00 0.0041667 966.31 1055.7 2.9798 2.6364 3.3507 386.56 0.012919 29.862 0.074974 240.00 0.0041667 966.31 1055.7 2.9798 2.6364 3.3507 386.56 0.012919 29.862 0.074974
283.38 3124.7 undefined 968.95 1058.7 2.9845 240.00 0.0041667 968.95 1058.7 2.9845 2.6397 3.3510 387.44 0.012804 29.888 0.075135 240.00 0.0041667 968.95 1058.7 2.9845 2.6397 3.3510 387.44 0.012804 29.888 0.075135
284.38 3138.2 undefined 971.59 1061.7 2.9893 240.00 0.0041667 971.59 1061.7 2.9893 2.6430 3.3514 388.32 0.012690 29.914 0.075297 240.00 0.0041667 971.59 1061.7 2.9893 2.6430 3.3514 388.32 0.012690 29.914 0.075297
285.38 3151.7 undefined 974.23 1064.8 2.9940 240.00 0.0041667 974.23 1064.8 2.9940 2.6462 3.3518 389.20 0.012577 29.940 0.075459 240.00 0.0041667 974.23 1064.8 2.9940 2.6462 3.3518 389.20 0.012577 29.940 0.075459
286.38 3165.3 undefined 976.88 1067.8 2.9988 240.00 0.0041667 976.88 1067.8 2.9988 2.6495 3.3522 390.08 0.012465 29.966 0.075621 240.00 0.0041667 976.88 1067.8 2.9988 2.6495 3.3522 390.08 0.012465 29.966 0.075621
287.38 3178.8 undefined 979.53 1070.9 3.0035 240.00 0.0041667 979.53 1070.9 3.0035 2.6528 3.3526 390.95 0.012354 29.992 0.075784 240.00 0.0041667 979.53 1070.9 3.0035 2.6528 3.3526 390.95 0.012354 29.992 0.075784
288.38 3192.3 undefined 982.19 1073.9 3.0082 240.00 0.0041667 982.19 1073.9 3.0082 2.6561 3.3531 391.83 0.012245 30.018 0.075946 240.00 0.0041667 982.19 1073.9 3.0082 2.6561 3.3531 391.83 0.012245 30.018 0.075946
289.38 3205.8 undefined 984.84 1076.9 3.0130 240.00 0.0041667 984.84 1076.9 3.0130 2.6593 3.3536 392.70 0.012137 30.044 0.076110 240.00 0.0041667 984.84 1076.9 3.0130 2.6593 3.3536 392.70 0.012137 30.044 0.076110
290.38 3219.4 undefined 987.50 1080.0 3.0177 240.00 0.0041667 987.50 1080.0 3.0177 2.6626 3.3541 393.57 0.012029 30.070 0.076273 240.00 0.0041667 987.50 1080.0 3.0177 2.6626 3.3541 393.57 0.012029 30.070 0.076273
291.38 3232.9 undefined 990.17 1083.0 3.0224 240.00 0.0041667 990.17 1083.0 3.0224 2.6659 3.3547 394.43 0.011923 30.096 0.076437 240.00 0.0041667 990.17 1083.0 3.0224 2.6659 3.3547 394.43 0.011923 30.096 0.076437
292.38 3246.4 undefined 992.84 1086.1 3.0271 240.00 0.0041667 992.84 1086.1 3.0271 2.6691 3.3553 395.30 0.011818 30.122 0.076601 240.00 0.0041667 992.84 1086.1 3.0271 2.6691 3.3553 395.30 0.011818 30.122 0.076601
293.38 3259.9 undefined 995.51 1089.2 3.0318 240.00 0.0041667 995.51 1089.2 3.0318 2.6724 3.3559 396.16 0.011714 30.148 0.076765 240.00 0.0041667 995.51 1089.2 3.0318 2.6724 3.3559 396.16 0.011714 30.148 0.076765
294.38 3273.4 undefined 998.18 1092.2 3.0366 240.00 0.0041667 998.18 1092.2 3.0366 2.6756 3.3565 397.02 0.011611 30.174 0.076930 240.00 0.0041667 998.18 1092.2 3.0366 2.6756 3.3565 397.02 0.011611 30.174 0.076930
295.38 3286.9 undefined 1000.9 1095.3 3.0413 240.00 0.0041667 1000.9 1095.3 3.0413 2.6789 3.3572 397.88 0.011509 30.200 0.077094 240.00 0.0041667 1000.9 1095.3 3.0413 2.6789 3.3572 397.88 0.011509 30.200 0.077094
296.38 3300.5 undefined 1003.5 1098.4 3.0460 240.00 0.0041667 1003.5 1098.4 3.0460 2.6822 3.3578 398.73 0.011408 30.225 0.077260 240.00 0.0041667 1003.5 1098.4 3.0460 2.6822 3.3578 398.73 0.011408 30.225 0.077260
297.38 3314.0 undefined 1006.2 1101.4 3.0507 240.00 0.0041667 1006.2 1101.4 3.0507 2.6854 3.3586 399.59 0.011307 30.251 0.077425 240.00 0.0041667 1006.2 1101.4 3.0507 2.6854 3.3586 399.59 0.011307 30.251 0.077425
298.38 3327.5 undefined 1008.9 1104.5 3.0554 240.00 0.0041667 1008.9 1104.5 3.0554 2.6887 3.3593 400.44 0.011208 30.277 0.077591 240.00 0.0041667 1008.9 1104.5 3.0554 2.6887 3.3593 400.44 0.011208 30.277 0.077591
299.38 3341.0 undefined 1011.6 1107.6 3.0601 240.00 0.0041667 1011.6 1107.6 3.0601 2.6919 3.3600 401.29 0.011110 30.302 0.077757 240.00 0.0041667 1011.6 1107.6 3.0601 2.6919 3.3600 401.29 0.011110 30.302 0.077757
300.38 3354.5 undefined 1014.3 1110.7 3.0648 240.00 0.0041667 1014.3 1110.7 3.0648 2.6952 3.3608 402.14 0.011013 30.328 0.077923 240.00 0.0041667 1014.3 1110.7 3.0648 2.6952 3.3608 402.14 0.011013 30.328 0.077923