Temperature (C) Pressure (psia) Quality (l+v) Internal Energy (l+v, kJ/kg) Enthalpy (l+v, kJ/kg) Entropy (l+v, J/g*K) Density (l, kg/m3) Volume (l, m3/kg) Internal Energy (l, kJ/kg) Enthalpy (l, kJ/kg) Entropy (l, J/g*K) Cv (l, J/g*K) Cp (l, J/g*K) Sound Spd. (l, m/s) Joule-Thomson (l, F/psia) Viscosity (l, uPa*s) Therm. Cond. (l, W/m*K) Density (v, kg/m3) Volume (v, m3/kg) Internal Energy (v, kJ/kg) Enthalpy (v, kJ/kg) Entropy (v, J/g*K) Cv (v, J/g*K) Cp (v, J/g*K) Sound Spd. (v, m/s) Joule-Thomson (v, F/psia) Viscosity (v, uPa*s) Therm. Cond. (v, W/m*K)
-187.62 2.4953e-08 2.8993e-11 -196.64 -196.64 -1.3959 733.13 0.0013640 -196.64 -196.64 -1.3959 1.3553 1.9158 2136.4 -0.0077592 10960. 0.20792 1.0669e-08 9.3732e+07 350.13 366.26 5.1858 0.69067 0.87923 143.28 6.1051 2.3259 0.0017061
-186.62 3.7339e-08 4.2853e-11 -194.73 -194.73 -1.3736 732.08 0.0013660 -194.73 -194.73 -1.3736 1.3539 1.9166 2129.6 -0.0077546 10073. 0.20765 1.5780e-08 6.3371e+07 350.82 367.14 5.1200 0.69462 0.88317 144.03 5.9178 2.3534 0.0017533
-185.62 5.5322e-08 6.2721e-11 -192.81 -192.81 -1.3516 731.04 0.0013679 -192.81 -192.81 -1.3516 1.3525 1.9174 2122.9 -0.0077498 9276.1 0.20737 2.3112e-08 4.3267e+07 351.52 368.02 5.0561 0.69857 0.88713 144.77 5.7383 2.3808 0.0018007
-184.62 8.1182e-08 9.0934e-11 -190.89 -190.89 -1.3298 730.00 0.0013699 -190.89 -190.89 -1.3298 1.3513 1.9182 2116.1 -0.0077448 8557.8 0.20708 3.3533e-08 2.9821e+07 352.22 368.91 4.9939 0.70253 0.89108 145.51 5.5662 2.4083 0.0018485
-183.62 1.1803e-07 1.3064e-10 -188.97 -188.97 -1.3083 728.96 0.0013718 -188.97 -188.97 -1.3083 1.3501 1.9191 2109.3 -0.0077395 7909.8 0.20678 4.8211e-08 2.0742e+07 352.92 369.81 4.9333 0.70648 0.89504 146.24 5.4011 2.4357 0.0018965
-182.62 1.7009e-07 1.8604e-10 -187.05 -187.05 -1.2869 727.92 0.0013738 -187.05 -187.05 -1.2869 1.3490 1.9201 2102.5 -0.0077340 7324.3 0.20647 6.8704e-08 1.4555e+07 353.63 370.70 4.8744 0.71043 0.89899 146.97 5.2426 2.4632 0.0019448
-181.62 2.4299e-07 2.6268e-10 -185.13 -185.13 -1.2658 726.88 0.0013757 -185.13 -185.13 -1.2658 1.3480 1.9210 2095.7 -0.0077283 6794.5 0.20616 9.7079e-08 1.0301e+07 354.35 371.60 4.8170 0.71438 0.90294 147.69 5.0904 2.4906 0.0019934
-180.62 3.4425e-07 3.6786e-10 -183.21 -183.21 -1.2450 725.85 0.0013777 -183.21 -183.21 -1.2450 1.3470 1.9220 2088.9 -0.0077225 6314.4 0.20584 1.3605e-07 7.3504e+06 355.06 372.51 4.7612 0.71833 0.90688 148.41 4.9442 2.5181 0.0020423
-179.62 4.8378e-07 5.1107e-10 -181.29 -181.29 -1.2243 724.81 0.0013797 -181.29 -181.29 -1.2243 1.3461 1.9231 2082.0 -0.0077164 5878.8 0.20551 1.8915e-07 5.2868e+06 355.78 373.42 4.7068 0.72227 0.91082 149.13 4.8038 2.5456 0.0020915
-178.62 6.7459e-07 7.0460e-10 -179.37 -179.37 -1.2038 723.78 0.0013816 -179.37 -179.37 -1.2038 1.3453 1.9241 2075.2 -0.0077102 5482.9 0.20517 2.6096e-07 3.8320e+06 356.51 374.33 4.6538 0.72620 0.91475 149.84 4.6688 2.5731 0.0021410
-177.62 9.3358e-07 9.6419e-10 -177.44 -177.44 -1.1836 722.75 0.0013836 -177.44 -177.44 -1.1836 1.3445 1.9252 2068.4 -0.0077039 5122.6 0.20483 3.5737e-07 2.7982e+06 357.23 375.25 4.6022 0.73012 0.91867 150.54 4.5390 2.6005 0.0021907
-176.62 1.2826e-06 1.3100e-09 -175.52 -175.52 -1.1635 721.72 0.0013856 -175.52 -175.52 -1.1635 1.3437 1.9263 2061.5 -0.0076973 4794.1 0.20447 4.8588e-07 2.0581e+06 357.97 376.17 4.5519 0.73403 0.92258 151.25 4.4142 2.6280 0.0022408
-175.62 1.7496e-06 1.7673e-09 -173.59 -173.59 -1.1437 720.69 0.0013876 -173.59 -173.59 -1.1437 1.3430 1.9274 2054.7 -0.0076907 4494.3 0.20411 6.5601e-07 1.5244e+06 358.70 377.09 4.5029 0.73792 0.92648 151.95 4.2941 2.6555 0.0022912
-174.62 2.3705e-06 2.3684e-09 -171.66 -171.66 -1.1240 719.66 0.0013895 -171.66 -171.66 -1.1240 1.3423 1.9286 2047.9 -0.0076838 4220.2 0.20375 8.7976e-07 1.1367e+06 359.44 378.02 4.4551 0.74181 0.93036 152.64 4.1784 2.6830 0.0023418
-173.62 3.1903e-06 3.1532e-09 -169.73 -169.73 -1.1045 718.64 0.0013915 -169.73 -169.73 -1.1045 1.3417 1.9298 2041.0 -0.0076769 3969.3 0.20338 1.1721e-06 8.5314e+05 360.19 378.95 4.4085 0.74568 0.93423 153.33 4.0671 2.7105 0.0023928
-172.62 4.2661e-06 4.1715e-09 -167.80 -167.80 -1.0852 717.61 0.0013935 -167.80 -167.80 -1.0852 1.3411 1.9310 2034.2 -0.0076698 3739.3 0.20300 1.5518e-06 6.4441e+05 360.93 379.89 4.3631 0.74953 0.93809 154.02 3.9599 2.7379 0.0024440
-171.62 5.6692e-06 5.4848e-09 -165.87 -165.87 -1.0661 716.58 0.0013955 -165.87 -165.87 -1.0661 1.3405 1.9322 2027.3 -0.0076625 3528.0 0.20261 2.0419e-06 4.8974e+05 361.69 380.83 4.3188 0.75337 0.94193 154.71 3.8566 2.7654 0.0024955
-170.62 7.4884e-06 7.1688e-09 -163.94 -163.94 -1.0472 715.56 0.0013975 -163.94 -163.94 -1.0472 1.3400 1.9334 2020.5 -0.0076552 3333.8 0.20222 2.6708e-06 3.7442e+05 362.44 381.77 4.2755 0.75720 0.94575 155.39 3.7570 2.7929 0.0025473
-169.62 9.8334e-06 9.3158e-09 -162.00 -162.00 -1.0284 714.54 0.0013995 -162.00 -162.00 -1.0284 1.3395 1.9347 2013.6 -0.0076477 3154.9 0.20182 3.4733e-06 2.8791e+05 363.20 382.72 4.2334 0.76100 0.94956 156.07 3.6609 2.8204 0.0025994
-168.62 1.2839e-05 1.2038e-08 -160.07 -160.07 -1.0098 713.52 0.0014015 -160.07 -160.07 -1.0098 1.3390 1.9359 2006.8 -0.0076401 2989.9 0.20141 4.4917e-06 2.2263e+05 363.96 383.67 4.1922 0.76479 0.95335 156.74 3.5683 2.8479 0.0026518
-167.62 1.6672e-05 1.5472e-08 -158.13 -158.13 -0.99134 712.49 0.0014035 -158.13 -158.13 -0.99134 1.3386 1.9372 2000.0 -0.0076323 2837.5 0.20100 5.7771e-06 1.7310e+05 364.73 384.63 4.1521 0.76856 0.95712 157.41 3.4790 2.8754 0.0027045
-166.62 2.1533e-05 1.9780e-08 -156.19 -156.19 -0.97306 711.47 0.0014055 -156.19 -156.19 -0.97306 1.3382 1.9385 1993.1 -0.0076245 2696.5 0.20058 7.3914e-06 1.3529e+05 365.50 385.59 4.1129 0.77232 0.96087 158.08 3.3927 2.9029 0.0027575
-165.62 2.7666e-05 2.5159e-08 -154.25 -154.25 -0.95494 710.45 0.0014075 -154.25 -154.25 -0.95494 1.3378 1.9398 1986.3 -0.0076165 2566.0 0.20016 9.4084e-06 1.0629e+05 366.27 386.55 4.0746 0.77605 0.96460 158.75 3.3095 2.9304 0.0028108
-164.62 3.5367e-05 3.1841e-08 -152.31 -152.31 -0.93698 709.44 0.0014096 -152.31 -152.31 -0.93698 1.3375 1.9411 1979.4 -0.0076084 2444.9 0.19973 1.1916e-05 83918. 367.05 387.52 4.0372 0.77976 0.96832 159.41 3.2291 2.9579 0.0028643
-163.62 4.4989e-05 4.0104e-08 -150.37 -150.37 -0.91917 708.42 0.0014116 -150.37 -150.37 -0.91917 1.3371 1.9424 1972.6 -0.0076002 2332.3 0.19930 1.5020e-05 66577. 367.83 388.49 4.0008 0.78346 0.97201 160.07 3.1514 2.9854 0.0029182
-162.62 5.6956e-05 5.0275e-08 -148.43 -148.43 -0.90151 707.40 0.0014136 -148.43 -148.43 -0.90151 1.3368 1.9437 1965.8 -0.0075919 2227.7 0.19886 1.8844e-05 53068. 368.62 389.46 3.9651 0.78713 0.97569 160.72 3.0764 3.0129 0.0029723
-161.62 7.1773e-05 6.2737e-08 -146.48 -146.48 -0.88400 706.38 0.0014157 -146.48 -146.48 -0.88400 1.3365 1.9451 1959.0 -0.0075834 2130.2 0.19841 2.3533e-05 42494. 369.41 390.44 3.9304 0.79079 0.97935 161.38 3.0038 3.0404 0.0030268
-160.62 9.0036e-05 7.7942e-08 -144.54 -144.54 -0.86663 705.37 0.0014177 -144.54 -144.54 -0.86663 1.3363 1.9465 1952.1 -0.0075748 2039.2 0.19796 2.9258e-05 34178. 370.20 391.42 3.8964 0.79443 0.98298 162.03 2.9337 3.0679 0.0030815
-159.62 0.00011245 9.6416e-08 -142.59 -142.59 -0.84940 704.35 0.0014197 -142.59 -142.59 -0.84940 1.3360 1.9478 1945.3 -0.0075661 1954.2 0.19751 3.6221e-05 27609. 371.00 392.40 3.8632 0.79805 0.98660 162.68 2.8658 3.0955 0.0031365
-158.62 0.00013985 1.1877e-07 -140.64 -140.64 -0.83231 703.34 0.0014218 -140.64 -140.64 -0.83231 1.3358 1.9492 1938.5 -0.0075573 1874.8 0.19705 4.4652e-05 22395. 371.80 393.39 3.8307 0.80164 0.99020 163.32 2.8002 3.1230 0.0031918
-157.62 0.00017320 1.4570e-07 -138.69 -138.69 -0.81536 702.32 0.0014238 -138.69 -138.69 -0.81536 1.3356 1.9506 1931.7 -0.0075484 1800.3 0.19658 5.4822e-05 18241. 372.60 394.38 3.7990 0.80522 0.99378 163.96 2.7367 3.1505 0.0032474
-156.62 0.00021364 1.7804e-07 -136.74 -136.74 -0.79854 701.31 0.0014259 -136.74 -136.74 -0.79854 1.3354 1.9520 1924.9 -0.0075393 1730.5 0.19611 6.7040e-05 14916. 373.41 395.38 3.7680 0.80878 0.99734 164.60 2.6752 3.1780 0.0033033
-155.62 0.00026248 2.1672e-07 -134.79 -134.79 -0.78185 700.30 0.0014280 -134.79 -134.79 -0.78185 1.3352 1.9534 1918.1 -0.0075302 1664.9 0.19564 8.1666e-05 12245. 374.22 396.38 3.7377 0.81232 1.0009 165.24 2.6157 3.2055 0.0033595
-154.62 0.00032125 2.6280e-07 -132.83 -132.83 -0.76530 699.29 0.0014300 -132.83 -132.83 -0.76530 1.3350 1.9548 1911.3 -0.0075209 1603.3 0.19516 9.9109e-05 10090. 375.03 397.38 3.7081 0.81585 1.0044 165.87 2.5580 3.2330 0.0034160
-153.62 0.00039171 3.1751e-07 -130.88 -130.88 -0.74887 698.27 0.0014321 -130.88 -130.88 -0.74887 1.3349 1.9563 1904.5 -0.0075114 1545.3 0.19468 0.00011984 8344.6 375.85 398.39 3.6792 0.81935 1.0079 166.50 2.5022 3.2606 0.0034727
-152.62 0.00047590 3.8225e-07 -128.92 -128.92 -0.73256 697.26 0.0014342 -128.92 -128.92 -0.73256 1.3348 1.9577 1897.8 -0.0075019 1490.6 0.19419 0.00014439 6925.9 376.67 399.40 3.6509 0.82284 1.0114 167.13 2.4481 3.2881 0.0035298
-151.62 0.00057613 4.5859e-07 -126.96 -126.96 -0.71638 696.25 0.0014363 -126.96 -126.96 -0.71638 1.3346 1.9592 1891.0 -0.0074922 1438.9 0.19370 0.00017336 5768.4 377.49 400.41 3.6232 0.82631 1.0149 167.76 2.3957 3.3156 0.0035872
-150.62 0.00069507 5.4832e-07 -125.00 -125.00 -0.70032 695.24 0.0014384 -125.00 -125.00 -0.70032 1.3345 1.9606 1884.2 -0.0074824 1390.2 0.19320 0.00020744 4820.7 378.32 401.42 3.5962 0.82976 1.0183 168.38 2.3448 3.3431 0.0036448
-149.62 0.00083574 6.5344e-07 -123.04 -123.04 -0.68437 694.23 0.0014404 -123.04 -123.04 -0.68438 1.3345 1.9621 1877.4 -0.0074724 1344.0 0.19270 0.00024740 4042.0 379.15 402.44 3.5697 0.83319 1.0218 169.00 2.2956 3.3706 0.0037027
-148.62 0.0010016 7.7620e-07 -121.08 -121.08 -0.66855 693.22 0.0014425 -121.08 -121.08 -0.66855 1.3344 1.9636 1870.7 -0.0074623 1300.3 0.19220 0.00029412 3400.0 379.99 403.47 3.5438 0.83661 1.0252 169.62 2.2478 3.3982 0.0037610
-147.62 0.0011965 9.1914e-07 -119.11 -119.11 -0.65283 692.21 0.0014447 -119.11 -119.11 -0.65284 1.3343 1.9651 1863.9 -0.0074521 1258.9 0.19169 0.00034856 2869.0 380.83 404.49 3.5185 0.84001 1.0286 170.24 2.2014 3.4257 0.0038195
-146.62 0.0014249 1.0851e-06 -117.15 -117.15 -0.63723 691.20 0.0014468 -117.15 -117.15 -0.63724 1.3343 1.9666 1857.2 -0.0074417 1219.6 0.19117 0.00041181 2428.3 381.67 405.52 3.4938 0.84340 1.0320 170.85 2.1565 3.4532 0.0038783
-145.62 0.0016917 1.2771e-06 -115.18 -115.18 -0.62174 690.19 0.0014489 -115.18 -115.18 -0.62175 1.3343 1.9682 1850.4 -0.0074312 1182.3 0.19066 0.00048510 2061.4 382.51 406.56 3.4695 0.84677 1.0353 171.46 2.1128 3.4807 0.0039374
-144.62 0.0020026 1.4988e-06 -113.21 -113.21 -0.60636 689.18 0.0014510 -113.21 -113.21 -0.60637 1.3343 1.9697 1843.7 -0.0074206 1146.8 0.19014 0.00056976 1755.1 383.36 407.59 3.4458 0.85012 1.0387 172.07 2.0705 3.5082 0.0039967
-143.62 0.0023637 1.7540e-06 -111.24 -111.24 -0.59109 688.17 0.0014531 -111.24 -111.24 -0.59110 1.3343 1.9713 1836.9 -0.0074098 1113.0 0.18962 0.00066731 1498.6 384.21 408.63 3.4226 0.85346 1.0420 172.68 2.0294 3.5358 0.0040564
-142.62 0.0027820 2.0470e-06 -109.27 -109.27 -0.57592 687.16 0.0014553 -109.27 -109.27 -0.57593 1.3343 1.9728 1830.2 -0.0073988 1080.8 0.18909 0.00077939 1283.1 385.07 409.68 3.3999 0.85679 1.0454 173.28 1.9896 3.5633 0.0041164
-141.62 0.0032653 2.3824e-06 -107.30 -107.30 -0.56086 686.15 0.0014574 -107.30 -107.30 -0.56087 1.3343 1.9744 1823.5 -0.0073878 1050.1 0.18856 0.00090784 1101.5 385.93 410.72 3.3777 0.86011 1.0487 173.88 1.9508 3.5908 0.0041766
-140.62 0.0038222 2.7654e-06 -105.32 -105.32 -0.54590 685.14 0.0014596 -105.32 -105.32 -0.54591 1.3344 1.9760 1816.7 -0.0073765 1020.7 0.18803 0.0010547 948.16 386.79 411.77 3.3560 0.86341 1.0520 174.48 1.9133 3.6183 0.0042372
-139.62 0.0044623 3.2018e-06 -103.34 -103.34 -0.53104 684.13 0.0014617 -103.34 -103.34 -0.53105 1.3344 1.9776 1810.0 -0.0073651 992.74 0.18749 0.0012221 818.26 387.65 412.83 3.3347 0.86670 1.0553 175.08 1.8768 3.6459 0.0042980
-138.62 0.0051963 3.6977e-06 -101.36 -101.36 -0.51627 683.12 0.0014639 -101.37 -101.37 -0.51629 1.3345 1.9792 1803.3 -0.0073536 965.97 0.18695 0.0014125 707.94 388.52 413.88 3.3139 0.86998 1.0586 175.67 1.8413 3.6734 0.0043592
-137.62 0.0060358 4.2599e-06 -99.384 -99.384 -0.50161 682.11 0.0014660 -99.386 -99.386 -0.50162 1.3346 1.9808 1796.6 -0.0073419 940.35 0.18641 0.0016287 614.00 389.39 414.94 3.2935 0.87325 1.0619 176.26 1.8069 3.7009 0.0044206
-136.62 0.0069938 4.8958e-06 -97.402 -97.402 -0.48704 681.10 0.0014682 -97.404 -97.404 -0.48705 1.3347 1.9825 1789.9 -0.0073301 915.81 0.18586 0.0018733 533.80 390.26 416.00 3.2735 0.87650 1.0651 176.85 1.7734 3.7284 0.0044823
-135.62 0.0080843 5.6135e-06 -95.418 -95.418 -0.47256 680.09 0.0014704 -95.421 -95.421 -0.47258 1.3348 1.9841 1783.2 -0.0073180 892.30 0.18531 0.0021497 465.17 391.14 417.07 3.2540 0.87975 1.0684 177.44 1.7409 3.7559 0.0045443
-134.62 0.0093230 6.4216e-06 -93.433 -93.433 -0.45817 679.08 0.0014726 -93.436 -93.436 -0.45820 1.3350 1.9858 1776.5 -0.0073059 869.75 0.18476 0.0024613 406.30 392.02 418.14 3.2348 0.88299 1.0716 178.02 1.7093 3.7834 0.0046066
-133.62 0.010727 7.3295e-06 -91.446 -91.446 -0.44388 678.07 0.0014748 -91.450 -91.449 -0.44391 1.3351 1.9875 1769.8 -0.0072935 848.11 0.18421 0.0028116 355.67 392.91 419.21 3.2161 0.88622 1.0749 178.61 1.6786 3.8109 0.0046691
-132.62 0.012315 8.3476e-06 -89.457 -89.457 -0.42968 677.06 0.0014770 -89.461 -89.461 -0.42971 1.3353 1.9892 1763.1 -0.0072810 827.32 0.18365 0.0032049 312.03 393.79 420.29 3.1977 0.88944 1.0781 179.19 1.6488 3.8385 0.0047320
-131.62 0.014106 9.4866e-06 -87.467 -87.466 -0.41556 676.04 0.0014792 -87.471 -87.471 -0.41560 1.3354 1.9909 1756.4 -0.0072684 807.34 0.18309 0.0036453 274.33 394.68 421.36 3.1798 0.89266 1.0813 179.76 1.6197 3.8660 0.0047951
-130.62 0.016124 1.0759e-05 -85.474 -85.474 -0.40153 675.03 0.0014814 -85.479 -85.479 -0.40157 1.3356 1.9926 1749.7 -0.0072555 788.12 0.18253 0.0041375 241.69 395.58 422.44 3.1622 0.89586 1.0846 180.34 1.5915 3.8935 0.0048586
-129.62 0.018392 1.2176e-05 -83.480 -83.480 -0.38759 674.02 0.0014836 -83.486 -83.486 -0.38763 1.3358 1.9944 1743.0 -0.0072425 769.63 0.18196 0.0046867 213.37 396.47 423.53 3.1450 0.89906 1.0878 180.91 1.5641 3.9210 0.0049223
-128.62 0.020935 1.3753e-05 -81.484 -81.483 -0.37373 673.01 0.0014859 -81.491 -81.490 -0.37378 1.3360 1.9961 1736.3 -0.0072294 751.83 0.18140 0.0052981 188.75 397.37 424.62 3.1281 0.90226 1.0910 181.48 1.5374 3.9485 0.0049863
-127.62 0.023783 1.5503e-05 -79.486 -79.486 -0.35996 672.00 0.0014881 -79.494 -79.493 -0.36001 1.3363 1.9979 1729.6 -0.0072160 734.67 0.18083 0.0059776 167.29 398.27 425.71 3.1116 0.90545 1.0942 182.05 1.5114 3.9760 0.0050506
-126.62 0.026966 1.7443e-05 -77.487 -77.486 -0.34626 670.98 0.0014904 -77.495 -77.495 -0.34632 1.3365 1.9997 1722.9 -0.0072025 718.14 0.18025 0.0067313 148.56 399.18 426.80 3.0954 0.90863 1.0974 182.62 1.4861 4.0035 0.0051152
-125.62 0.030515 1.9589e-05 -75.485 -75.484 -0.33265 669.97 0.0014926 -75.494 -75.494 -0.33272 1.3368 2.0015 1716.2 -0.0071888 702.18 0.17968 0.0075660 132.17 400.09 427.89 3.0795 0.91181 1.1006 183.18 1.4615 4.0310 0.0051800
-124.62 0.034467 2.1958e-05 -73.481 -73.480 -0.31911 668.95 0.0014949 -73.492 -73.492 -0.31919 1.3371 2.0033 1709.5 -0.0071749 686.79 0.17910 0.0084885 117.81 401.00 428.99 3.0640 0.91499 1.1038 183.74 1.4375 4.0584 0.0052452
-123.62 0.038859 2.4570e-05 -71.476 -71.475 -0.30566 667.94 0.0014971 -71.488 -71.487 -0.30574 1.3374 2.0051 1702.8 -0.0071609 671.93 0.17852 0.0095065 105.19 401.91 430.10 3.0488 0.91816 1.1070 184.30 1.4141 4.0859 0.0053106
-122.62 0.043731 2.7444e-05 -69.469 -69.467 -0.29228 666.92 0.0014994 -69.482 -69.481 -0.29237 1.3377 2.0070 1696.2 -0.0071466 657.57 0.17794 0.010628 94.092 402.83 431.20 3.0339 0.92134 1.1102 184.86 1.3913 4.1134 0.0053764
-121.62 0.049128 3.0602e-05 -67.459 -67.458 -0.27897 665.91 0.0015017 -67.474 -67.473 -0.27907 1.3380 2.0089 1689.5 -0.0071322 643.70 0.17736 0.011861 84.309 403.75 432.31 3.0193 0.92451 1.1134 185.41 1.3691 4.1409 0.0054424
-120.62 0.055096 3.4065e-05 -65.448 -65.446 -0.26574 664.89 0.0015040 -65.464 -65.463 -0.26585 1.3384 2.0107 1682.8 -0.0071176 630.28 0.17678 0.013215 75.669 404.67 433.42 3.0050 0.92767 1.1166 185.96 1.3475 4.1683 0.0055087
-119.62 0.061684 3.7858e-05 -63.434 -63.433 -0.25258 663.87 0.0015063 -63.452 -63.452 -0.25271 1.3387 2.0126 1676.1 -0.0071028 617.30 0.17619 0.014700 68.027 405.60 434.53 2.9909 0.93084 1.1198 186.51 1.3264 4.1958 0.0055752
-118.62 0.068946 4.2006e-05 -61.419 -61.417 -0.23950 662.86 0.0015086 -61.439 -61.438 -0.23963 1.3391 2.0146 1669.4 -0.0070878 604.74 0.17560 0.016325 61.255 406.53 435.64 2.9772 0.93401 1.1231 187.06 1.3058 4.2233 0.0056421
-117.62 0.076937 4.6534e-05 -59.401 -59.399 -0.22648 661.84 0.0015109 -59.423 -59.422 -0.22663 1.3395 2.0165 1662.8 -0.0070726 592.58 0.17501 0.018101 55.245 407.46 436.76 2.9638 0.93718 1.1263 187.60 1.2857 4.2507 0.0057092
-116.62 0.085718 5.1471e-05 -57.382 -57.379 -0.21354 660.82 0.0015133 -57.406 -57.405 -0.21370 1.3400 2.0184 1656.1 -0.0070573 580.80 0.17442 0.020040 49.901 408.39 437.88 2.9506 0.94035 1.1295 188.14 1.2660 4.2782 0.0057767
-115.62 0.095353 5.6845e-05 -55.360 -55.357 -0.20066 659.80 0.0015156 -55.386 -55.385 -0.20084 1.3404 2.0204 1649.4 -0.0070417 569.38 0.17383 0.022152 45.142 409.33 439.01 2.9377 0.94352 1.1327 188.68 1.2468 4.3056 0.0058444
-114.62 0.10591 6.2687e-05 -53.336 -53.333 -0.18785 658.78 0.0015180 -53.365 -53.364 -0.18805 1.3409 2.0224 1642.7 -0.0070260 558.32 0.17323 0.024451 40.898 410.27 440.13 2.9250 0.94669 1.1360 189.22 1.2281 4.3330 0.0059123
-113.62 0.11746 6.9029e-05 -51.310 -51.306 -0.17511 657.76 0.0015203 -51.342 -51.340 -0.17533 1.3413 2.0244 1636.0 -0.0070100 547.59 0.17264 0.026949 37.107 411.21 441.26 2.9126 0.94987 1.1392 189.75 1.2097 4.3604 0.0059806
-112.62 0.13008 7.5904e-05 -49.281 -49.277 -0.16244 656.73 0.0015227 -49.316 -49.315 -0.16267 1.3418 2.0264 1629.3 -0.0069938 537.18 0.17204 0.029661 33.715 412.16 442.39 2.9005 0.95305 1.1424 190.28 1.1918 4.3879 0.0060491
-111.62 0.14384 8.3347e-05 -47.250 -47.246 -0.14983 655.71 0.0015251 -47.289 -47.287 -0.15008 1.3424 2.0285 1622.7 -0.0069774 527.08 0.17144 0.032600 30.675 413.10 443.53 2.8885 0.95623 1.1457 190.81 1.1742 4.4153 0.0061180
-110.62 0.15884 9.1395e-05 -45.217 -45.213 -0.13728 654.69 0.0015274 -45.259 -45.258 -0.13755 1.3429 2.0305 1616.0 -0.0069609 517.28 0.17084 0.035781 27.948 414.06 444.66 2.8769 0.95942 1.1490 191.34 1.1570 4.4427 0.0061871
-109.62 0.17516 0.00010009 -43.182 -43.177 -0.12479 653.66 0.0015298 -43.228 -43.226 -0.12509 1.3435 2.0326 1609.3 -0.0069441 507.76 0.17024 0.039220 25.497 415.01 445.80 2.8654 0.96261 1.1522 191.86 1.1402 4.4701 0.0062564
-108.62 0.19290 0.00010946 -41.144 -41.139 -0.11237 652.64 0.0015322 -41.194 -41.192 -0.11269 1.3441 2.0347 1602.6 -0.0069271 498.51 0.16964 0.042933 23.292 415.96 446.94 2.8542 0.96581 1.1555 192.38 1.1236 4.4974 0.0063261
-107.62 0.21215 0.00011956 -39.104 -39.098 -0.10001 651.61 0.0015347 -39.158 -39.156 -0.10036 1.3447 2.0369 1595.9 -0.0069098 489.52 0.16903 0.046937 21.305 416.92 448.09 2.8433 0.96901 1.1588 192.90 1.1075 4.5248 0.0063960
-106.62 0.23301 0.00013042 -37.061 -37.055 -0.087702 650.58 0.0015371 -37.120 -37.118 -0.088082 1.3453 2.0390 1589.2 -0.0068924 480.79 0.16843 0.051250 19.512 417.88 449.23 2.8325 0.97222 1.1621 193.41 1.0916 4.5522 0.0064662
-105.62 0.25561 0.00014209 -35.016 -35.009 -0.075457 649.55 0.0015395 -35.080 -35.078 -0.075868 1.3460 2.0412 1582.6 -0.0068747 472.30 0.16782 0.055891 17.892 418.85 450.38 2.8220 0.97544 1.1655 193.93 1.0760 4.5795 0.0065367
-104.62 0.28004 0.00015462 -32.968 -32.960 -0.063270 648.52 0.0015420 -33.038 -33.035 -0.063714 1.3467 2.0434 1575.9 -0.0068569 464.04 0.16721 0.060878 16.426 419.81 451.53 2.8116 0.97867 1.1688 194.44 1.0608 4.6069 0.0066074
-103.62 0.30643 0.00016806 -30.918 -30.909 -0.051139 647.49 0.0015444 -30.994 -30.991 -0.051619 1.3474 2.0456 1569.2 -0.0068387 456.00 0.16660 0.066231 15.099 420.78 452.68 2.8015 0.98191 1.1722 194.94 1.0458 4.6342 0.0066785
-102.62 0.33490 0.00018245 -28.865 -28.856 -0.039065 646.46 0.0015469 -28.947 -28.944 -0.039582 1.3481 2.0478 1562.5 -0.0068204 448.18 0.16600 0.071971 13.894 421.75 453.84 2.7916 0.98516 1.1755 195.44 1.0310 4.6615 0.0067498
-101.62 0.36558 0.00019784 -26.809 -26.799 -0.027046 645.43 0.0015494 -26.898 -26.894 -0.027602 1.3489 2.0501 1555.8 -0.0068018 440.57 0.16539 0.078120 12.801 422.73 454.99 2.7818 0.98841 1.1789 195.95 1.0166 4.6888 0.0068213
-100.62 0.39862 0.00021430 -24.751 -24.740 -0.015081 644.39 0.0015519 -24.847 -24.843 -0.015678 1.3497 2.0524 1549.1 -0.0067830 433.16 0.16478 0.084699 11.807 423.70 456.15 2.7723 0.99168 1.1823 196.44 1.0024 4.7161 0.0068932
-99.625 0.43414 0.00023186 -22.690 -22.678 -0.0031687 643.36 0.0015544 -22.794 -22.789 -0.0038103 1.3505 2.0547 1542.4 -0.0067639 425.95 0.16416 0.091731 10.901 424.68 457.31 2.7630 0.99496 1.1858 196.94 0.98838 4.7434 0.0069653
-98.625 0.47230 0.00025060 -20.626 -20.613 0.0086908 642.32 0.0015569 -20.738 -20.733 0.0080027 1.3514 2.0570 1535.7 -0.0067447 418.92 0.16355 0.099240 10.077 425.66 458.48 2.7538 0.99825 1.1892 197.43 0.97464 4.7707 0.0070377
-97.625 0.51325 0.00027056 -18.559 -18.545 0.020499 641.28 0.0015594 -18.680 -18.674 0.019762 1.3522 2.0594 1529.0 -0.0067251 412.07 0.16294 0.10725 9.3239 426.65 459.64 2.7448 1.0016 1.1927 197.92 0.96112 4.7979 0.0071103
-96.625 0.55714 0.00029181 -16.490 -16.474 0.032256 640.24 0.0015619 -16.620 -16.614 0.031467 1.3531 2.0618 1522.3 -0.0067053 405.39 0.16233 0.11579 8.6365 427.63 460.81 2.7360 1.0049 1.1962 198.40 0.94783 4.8251 0.0071832
-95.625 0.60416 0.00031440 -14.417 -14.400 0.043964 639.20 0.0015645 -14.557 -14.550 0.043120 1.3540 2.0642 1515.7 -0.0066853 398.88 0.16171 0.12488 8.0078 428.62 461.98 2.7274 1.0082 1.1997 198.88 0.93475 4.8524 0.0072564
-94.625 0.65446 0.00033841 -12.342 -12.323 0.055623 638.16 0.0015670 -12.491 -12.484 0.054721 1.3550 2.0667 1509.0 -0.0066650 392.53 0.16110 0.13455 7.4323 429.61 463.15 2.7189 1.0116 1.2032 199.36 0.92188 4.8796 0.0073299
-93.625 0.70822 0.00036389 -10.263 -10.243 0.067233 637.12 0.0015696 -10.424 -10.416 0.066271 1.3560 2.0691 1502.3 -0.0066444 386.34 0.16048 0.14482 6.9050 430.60 464.32 2.7107 1.0149 1.2068 199.83 0.90921 4.9068 0.0074036
-92.625 0.76564 0.00039091 -8.1815 -8.1600 0.078797 636.07 0.0015722 -8.3535 -8.3452 0.077771 1.3570 2.0716 1495.6 -0.0066236 380.31 0.15987 0.15573 6.4212 431.60 465.49 2.7025 1.0183 1.2104 200.30 0.89673 4.9340 0.0074776
-91.625 0.82689 0.00041954 -6.0967 -6.0734 0.090313 635.02 0.0015747 -6.2808 -6.2719 0.089220 1.3580 2.0742 1488.9 -0.0066025 374.41 0.15925 0.16731 5.9769 432.59 466.67 2.6946 1.0217 1.2140 200.77 0.88445 4.9611 0.0075518
-90.625 0.89218 0.00044985 -4.0087 -3.9836 0.10178 633.98 0.0015773 -4.2056 -4.1959 0.10062 1.3591 2.0767 1482.2 -0.0065811 368.66 0.15864 0.17958 5.5685 433.59 467.84 2.6868 1.0251 1.2177 201.24 0.87236 4.9883 0.0076263
-89.625 0.96172 0.00048191 -1.9174 -1.8903 0.11321 632.93 0.0015800 -2.1279 -2.1174 0.11197 1.3602 2.0793 1475.5 -0.0065595 363.05 0.15802 0.19258 5.1928 434.59 469.02 2.6791 1.0285 1.2213 201.70 0.86045 5.0154 0.0077011
-88.625 1.0357 0.00051579 0.17718 0.20633 0.12459 631.88 0.0015826 -0.047516 -0.036215 0.12328 1.3613 2.0819 1468.8 -0.0065375 357.56 0.15740 0.20633 4.8466 435.59 470.20 2.6717 1.0320 1.2250 202.15 0.84873 5.0425 0.0077761
-87.625 1.1144 0.00055157 2.2751 2.3065 0.13593 630.83 0.0015852 2.0355 2.0476 0.13454 1.3625 2.0846 1462.1 -0.0065153 352.21 0.15679 0.22087 4.5276 436.60 471.39 2.6643 1.0354 1.2288 202.61 0.83718 5.0696 0.0078514
-86.625 1.1979 0.00058933 4.3765 4.4102 0.14723 629.77 0.0015879 4.1211 4.1342 0.14575 1.3637 2.0873 1455.4 -0.0064928 346.98 0.15617 0.23623 4.2331 437.61 472.57 2.6571 1.0389 1.2325 203.06 0.82580 5.0967 0.0079270
-85.625 1.2866 0.00062913 6.4814 6.5176 0.15848 628.72 0.0015905 6.2094 6.2235 0.15691 1.3649 2.0900 1448.8 -0.0064701 341.87 0.15555 0.25245 3.9612 438.61 473.75 2.6501 1.0424 1.2363 203.50 0.81460 5.1237 0.0080028
-84.625 1.3806 0.00067107 8.5898 8.6287 0.16970 627.66 0.0015932 8.3004 8.3155 0.16803 1.3661 2.0927 1442.1 -0.0064470 336.87 0.15494 0.26956 3.7097 439.63 474.94 2.6432 1.0460 1.2402 203.95 0.80356 5.1508 0.0080789
-83.625 1.4803 0.00071521 10.702 10.743 0.18087 626.60 0.0015959 10.394 10.410 0.17911 1.3674 2.0955 1435.4 -0.0064236 331.99 0.15432 0.28760 3.4771 440.64 476.13 2.6364 1.0495 1.2440 204.38 0.79269 5.1778 0.0081553
-82.625 1.5858 0.00076166 12.817 12.862 0.19200 625.54 0.0015986 12.491 12.508 0.19014 1.3687 2.0983 1428.7 -0.0063999 327.22 0.15370 0.30659 3.2616 441.65 477.31 2.6298 1.0531 1.2479 204.82 0.78199 5.2048 0.0082319
-81.625 1.6975 0.00081047 14.937 14.985 0.20310 624.48 0.0016013 14.590 14.609 0.20113 1.3700 2.1012 1422.0 -0.0063759 322.55 0.15309 0.32659 3.0619 442.67 478.50 2.6233 1.0567 1.2519 205.25 0.77144 5.2318 0.0083088
-80.625 1.8155 0.00086175 17.060 17.111 0.21415 623.42 0.0016041 16.692 16.712 0.21208 1.3714 2.1041 1415.4 -0.0063516 317.99 0.15247 0.34763 2.8766 443.69 479.70 2.6169 1.0603 1.2558 205.67 0.76106 5.2587 0.0083860
-79.625 1.9402 0.00091558 19.187 19.242 0.22517 622.36 0.0016068 18.797 18.819 0.22299 1.3728 2.1070 1408.7 -0.0063270 313.52 0.15186 0.36974 2.7046 444.71 480.89 2.6106 1.0639 1.2598 206.10 0.75083 5.2857 0.0084634
-78.625 2.0718 0.00097205 21.318 21.376 0.23616 621.29 0.0016096 20.905 20.928 0.23385 1.3742 2.1099 1402.0 -0.0063021 309.15 0.15124 0.39296 2.5448 445.73 482.08 2.6045 1.0676 1.2639 206.51 0.74076 5.3126 0.0085411
-77.625 2.2107 0.0010312 23.453 23.515 0.24710 620.22 0.0016123 23.016 23.040 0.24468 1.3757 2.1129 1395.3 -0.0062768 304.88 0.15062 0.41735 2.3961 446.75 483.27 2.5985 1.0712 1.2680 206.93 0.73084 5.3395 0.0086190
-76.625 2.3571 0.0010933 25.592 25.658 0.25801 619.15 0.0016151 25.130 25.156 0.25546 1.3772 2.1159 1388.7 -0.0062512 300.69 0.15001 0.44292 2.2577 447.78 484.47 2.5926 1.0749 1.2721 207.34 0.72107 5.3664 0.0086972
-75.625 2.5113 0.0011582 27.735 27.805 0.26889 618.08 0.0016179 27.247 27.275 0.26620 1.3787 2.1190 1382.0 -0.0062253 296.59 0.14939 0.46974 2.1288 448.81 485.67 2.5869 1.0787 1.2762 207.74 0.71146 5.3933 0.0087757
-74.625 2.6736 0.0012261 29.882 29.957 0.27973 617.01 0.0016207 29.366 29.396 0.27691 1.3802 2.1221 1375.4 -0.0061990 292.58 0.14878 0.49783 2.0087 449.83 486.86 2.5812 1.0824 1.2804 208.14 0.70200 5.4201 0.0088544
-73.625 2.8444 0.0012971 32.033 32.113 0.29054 615.93 0.0016236 31.489 31.521 0.28758 1.3818 2.1252 1368.7 -0.0061724 288.65 0.14816 0.52725 1.8966 450.86 488.06 2.5757 1.0862 1.2847 208.54 0.69268 5.4469 0.0089334
-72.625 3.0240 0.0013714 34.189 34.274 0.30132 614.85 0.0016264 33.615 33.649 0.29821 1.3834 2.1284 1362.0 -0.0061454 284.81 0.14755 0.55804 1.7920 451.90 489.26 2.5703 1.0900 1.2889 208.93 0.68351 5.4737 0.0090126
-71.625 3.2127 0.0014489 36.349 36.439 0.31207 613.78 0.0016293 35.745 35.781 0.30880 1.3851 2.1316 1355.4 -0.0061181 281.03 0.14694 0.59024 1.6942 452.93 490.46 2.5650 1.0938 1.2932 209.32 0.67448 5.5005 0.0090922
-70.625 3.4108 0.0015298 38.514 38.610 0.32278 612.69 0.0016321 37.877 37.915 0.31935 1.3867 2.1349 1348.7 -0.0060904 277.34 0.14632 0.62390 1.6028 453.96 491.66 2.5598 1.0976 1.2976 209.70 0.66560 5.5273 0.0091720
-69.625 3.6187 0.0016142 40.683 40.784 0.33346 611.61 0.0016350 40.013 40.053 0.32987 1.3884 2.1382 1342.1 -0.0060624 273.72 0.14571 0.65906 1.5173 455.00 492.86 2.5547 1.1015 1.3020 210.08 0.65687 5.5540 0.0092520
-68.625 3.8367 0.0017022 42.856 42.964 0.34412 610.53 0.0016379 42.152 42.195 0.34036 1.3902 2.1415 1335.5 -0.0060339 270.17 0.14510 0.69577 1.4372 456.04 494.06 2.5497 1.1054 1.3064 210.45 0.64827 5.5807 0.0093324
-67.625 4.0652 0.0017939 45.034 45.149 0.35474 609.44 0.0016409 44.294 44.340 0.35080 1.3919 2.1449 1328.8 -0.0060051 266.69 0.14449 0.73408 1.3622 457.08 495.26 2.5448 1.1093 1.3109 210.82 0.63981 5.6074 0.0094130
-66.625 4.3046 0.0018894 47.217 47.338 0.36534 608.35 0.0016438 46.439 46.488 0.36122 1.3937 2.1483 1322.2 -0.0059760 263.28 0.14388 0.77404 1.2919 458.12 496.46 2.5400 1.1133 1.3154 211.18 0.63150 5.6341 0.0094939
-65.625 4.5551 0.0019888 49.405 49.533 0.37590 607.26 0.0016467 48.588 48.640 0.37160 1.3955 2.1518 1315.6 -0.0059464 259.93 0.14327 0.81570 1.2259 459.16 497.67 2.5353 1.1172 1.3200 211.54 0.62332 5.6608 0.0095750
-64.625 4.8173 0.0020922 51.597 51.733 0.38644 606.16 0.0016497 50.740 50.795 0.38195 1.3974 2.1553 1308.9 -0.0059164 256.65 0.14266 0.85910 1.1640 460.21 498.87 2.5307 1.1212 1.3246 211.89 0.61527 5.6874 0.0096564
-63.625 5.0915 0.0021998 53.794 53.938 0.39695 605.07 0.0016527 52.896 52.954 0.39226 1.3993 2.1588 1302.3 -0.0058861 253.42 0.14205 0.90429 1.1058 461.25 500.07 2.5262 1.1252 1.3293 212.24 0.60736 5.7140 0.0097382
-62.625 5.3781 0.0023115 55.997 56.148 0.40744 603.97 0.0016557 55.055 55.117 0.40254 1.4012 2.1624 1295.7 -0.0058553 250.26 0.14144 0.95134 1.0511 462.30 501.28 2.5218 1.1293 1.3340 212.58 0.59958 5.7406 0.0098201
-61.625 5.6774 0.0024276 58.204 58.364 0.41790 602.87 0.0016587 57.218 57.283 0.41279 1.4031 2.1660 1289.1 -0.0058241 247.16 0.14084 1.0003 0.99972 463.35 502.48 2.5175 1.1333 1.3387 212.92 0.59194 5.7672 0.0099024
-60.625 5.9899 0.0025482 60.417 60.585 0.42834 601.77 0.0016618 59.385 59.453 0.42301 1.4051 2.1697 1282.5 -0.0057925 244.12 0.14023 1.0512 0.95131 464.40 503.68 2.5133 1.1374 1.3435 213.26 0.58442 5.7938 0.0099850
-59.625 6.3160 0.0026733 62.634 62.812 0.43875 600.66 0.0016648 61.554 61.627 0.43320 1.4071 2.1734 1275.9 -0.0057605 241.13 0.13962 1.1041 0.90573 465.45 504.89 2.5091 1.1415 1.3483 213.58 0.57704 5.8203 0.010068
-58.625 6.6561 0.0028031 64.857 65.044 0.44913 599.55 0.0016679 63.728 63.805 0.44335 1.4091 2.1772 1269.3 -0.0057280 238.19 0.13902 1.1591 0.86277 466.50 506.09 2.5051 1.1457 1.3532 213.90 0.56978 5.8468 0.010151
-57.625 7.0107 0.0029376 67.085 67.283 0.45949 598.44 0.0016710 65.905 65.986 0.45348 1.4111 2.1810 1262.7 -0.0056951 235.31 0.13842 1.2161 0.82228 467.55 507.30 2.5011 1.1498 1.3581 214.22 0.56265 5.8733 0.010234
-56.625 7.3801 0.0030771 69.319 69.527 0.46983 597.33 0.0016741 68.086 68.172 0.46358 1.4132 2.1848 1256.1 -0.0056617 232.48 0.13781 1.2754 0.78408 468.60 508.50 2.4972 1.1540 1.3631 214.53 0.55564 5.8998 0.010318
-55.625 7.7648 0.0032216 71.558 71.776 0.48015 596.22 0.0016772 70.271 70.361 0.47364 1.4153 2.1887 1249.5 -0.0056279 229.69 0.13721 1.3369 0.74802 469.66 509.71 2.4934 1.1582 1.3681 214.84 0.54875 5.9263 0.010402
-54.625 8.1652 0.0033712 73.802 74.032 0.49045 595.10 0.0016804 72.460 72.554 0.48368 1.4174 2.1927 1242.9 -0.0055937 226.96 0.13661 1.4006 0.71396 470.72 510.91 2.4897 1.1624 1.3731 215.14 0.54199 5.9527 0.010486
-53.625 8.5819 0.0035261 76.053 76.294 0.50072 593.98 0.0016836 74.652 74.752 0.49369 1.4196 2.1967 1236.3 -0.0055589 224.27 0.13601 1.4667 0.68178 471.77 512.11 2.4860 1.1667 1.3782 215.43 0.53535 5.9792 0.010571
-52.625 9.0151 0.0036863 78.308 78.562 0.51097 592.86 0.0016867 76.849 76.954 0.50368 1.4218 2.2007 1229.8 -0.0055237 221.63 0.13541 1.5353 0.65136 472.83 513.32 2.4824 1.1710 1.3834 215.72 0.52882 6.0056 0.010656
-51.625 9.4655 0.0038520 80.570 80.836 0.52120 591.73 0.0016900 79.049 79.159 0.51363 1.4240 2.2048 1223.2 -0.0054880 219.04 0.13482 1.6062 0.62258 473.89 514.52 2.4789 1.1752 1.3886 216.00 0.52241 6.0320 0.010741
-50.625 9.9335 0.0040234 82.837 83.117 0.53142 590.60 0.0016932 81.253 81.369 0.52356 1.4262 2.2089 1216.6 -0.0054519 216.48 0.13422 1.6797 0.59534 474.95 515.73 2.4755 1.1796 1.3938 216.28 0.51612 6.0584 0.010827
-49.625 10.419 0.0042004 85.111 85.404 0.54161 589.47 0.0016964 83.462 83.584 0.53347 1.4285 2.2131 1210.1 -0.0054152 213.98 0.13363 1.7558 0.56954 476.01 516.93 2.4722 1.1839 1.3991 216.55 0.50994 6.0848 0.010913
-48.625 10.924 0.0043833 87.390 87.697 0.55178 588.34 0.0016997 85.674 85.802 0.54334 1.4308 2.2173 1203.5 -0.0053780 211.51 0.13303 1.8345 0.54510 477.07 518.13 2.4689 1.1883 1.4044 216.82 0.50387 6.1112 0.010999
-47.625 11.448 0.0045722 89.675 89.997 0.56194 587.20 0.0017030 87.891 88.025 0.55319 1.4331 2.2216 1196.9 -0.0053403 209.08 0.13244 1.9159 0.52194 478.14 519.33 2.4657 1.1927 1.4098 217.08 0.49792 6.1375 0.011085
-46.625 11.991 0.0047672 91.966 92.304 0.57207 586.06 0.0017063 90.111 90.252 0.56302 1.4354 2.2259 1190.4 -0.0053020 206.69 0.13185 2.0001 0.49997 479.20 520.53 2.4625 1.1971 1.4153 217.33 0.49207 6.1639 0.011172
-45.625 12.554 0.0049685 94.264 94.617 0.58219 584.92 0.0017096 92.336 92.484 0.57282 1.4378 2.2303 1183.8 -0.0052633 204.34 0.13126 2.0872 0.47912 480.27 521.74 2.4594 1.2015 1.4207 217.58 0.48633 6.1902 0.011259
-44.625 13.137 0.0051760 96.567 96.937 0.59230 583.77 0.0017130 94.565 94.720 0.58260 1.4402 2.2347 1177.3 -0.0052240 202.03 0.13067 2.1771 0.45933 481.33 522.94 2.4564 1.2060 1.4263 217.82 0.48069 6.2165 0.011347
-43.625 13.741 0.0053901 98.877 99.264 0.60238 582.62 0.0017164 96.799 96.961 0.59235 1.4426 2.2392 1170.7 -0.0051841 199.75 0.13008 2.2700 0.44053 482.40 524.14 2.4535 1.2104 1.4319 218.05 0.47516 6.2429 0.011435
-42.625 14.367 0.0056108 101.19 101.60 0.61245 581.47 0.0017198 99.036 99.207 0.60208 1.4450 2.2437 1164.2 -0.0051437 197.51 0.12949 2.3659 0.42267 483.46 525.33 2.4506 1.2149 1.4375 218.28 0.46973 6.2692 0.011523
-41.625 15.015 0.0058382 103.52 103.94 0.62251 580.32 0.0017232 101.28 101.46 0.61179 1.4475 2.2483 1157.7 -0.0051027 195.30 0.12891 2.4649 0.40569 484.53 526.53 2.4478 1.2195 1.4432 218.50 0.46440 6.2955 0.011612
-40.625 15.686 0.0060725 105.85 106.29 0.63254 579.16 0.0017266 103.52 103.71 0.62147 1.4500 2.2529 1151.1 -0.0050611 193.13 0.12832 2.5671 0.38954 485.60 527.73 2.4450 1.2240 1.4489 218.72 0.45917 6.3218 0.011701
-39.625 16.380 0.0063137 108.18 108.64 0.64257 578.00 0.0017301 105.78 105.97 0.63113 1.4525 2.2576 1144.6 -0.0050189 190.99 0.12774 2.6725 0.37418 486.67 528.93 2.4423 1.2286 1.4547 218.93 0.45403 6.3481 0.011790
-38.625 17.097 0.0065621 110.52 111.00 0.65258 576.83 0.0017336 108.03 108.24 0.64077 1.4550 2.2623 1138.0 -0.0049761 188.88 0.12716 2.7813 0.35955 487.74 530.12 2.4397 1.2332 1.4606 219.13 0.44900 6.3744 0.011880
-37.625 17.838 0.0068178 112.87 113.37 0.66257 575.66 0.0017371 110.29 110.51 0.65039 1.4576 2.2671 1131.5 -0.0049327 186.81 0.12658 2.8934 0.34562 488.81 531.32 2.4371 1.2378 1.4665 219.33 0.44405 6.4007 0.011970
-36.625 18.604 0.0070809 115.23 115.75 0.67255 574.49 0.0017407 112.56 112.78 0.65999 1.4602 2.2719 1125.0 -0.0048887 184.76 0.12600 3.0089 0.33235 489.88 532.51 2.4346 1.2424 1.4724 219.52 0.43920 6.4270 0.012060
-35.625 19.395 0.0073515 117.59 118.14 0.68252 573.32 0.0017442 114.83 115.06 0.66956 1.4628 2.2768 1118.5 -0.0048440 182.75 0.12542 3.1280 0.31969 490.95 533.70 2.4321 1.2471 1.4784 219.70 0.43444 6.4533 0.012151
-34.625 20.212 0.0076297 119.96 120.53 0.69247 572.14 0.0017478 117.10 117.34 0.67912 1.4654 2.2818 1111.9 -0.0047987 180.76 0.12485 3.2506 0.30763 492.02 534.89 2.4297 1.2517 1.4845 219.88 0.42977 6.4797 0.012243
-33.625 21.056 0.0079158 122.34 122.93 0.70242 570.96 0.0017514 119.38 119.63 0.68865 1.4681 2.2868 1105.4 -0.0047527 178.80 0.12427 3.3770 0.29612 493.09 536.08 2.4273 1.2564 1.4906 220.05 0.42519 6.5060 0.012334
-32.625 21.926 0.0082098 124.72 125.34 0.71235 569.77 0.0017551 121.66 121.93 0.69817 1.4708 2.2918 1098.9 -0.0047061 176.87 0.12370 3.5071 0.28514 494.17 537.27 2.4250 1.2611 1.4968 220.21 0.42070 6.5323 0.012426
-31.625 22.823 0.0085120 127.11 127.75 0.72226 568.58 0.0017588 123.95 124.23 0.70767 1.4735 2.2970 1092.3 -0.0046587 174.97 0.12313 3.6410 0.27465 495.24 538.46 2.4227 1.2659 1.5031 220.36 0.41629 6.5587 0.012519
-30.625 23.749 0.0088223 129.51 130.18 0.73217 567.39 0.0017625 126.24 126.53 0.71714 1.4762 2.3021 1085.8 -0.0046107 173.09 0.12256 3.7787 0.26464 496.31 539.64 2.4205 1.2706 1.5094 220.51 0.41196 6.5850 0.012612
-29.625 24.703 0.0091410 131.91 132.61 0.74207 566.19 0.0017662 128.54 128.84 0.72660 1.4790 2.3074 1079.3 -0.0045619 171.24 0.12200 3.9205 0.25507 497.38 540.83 2.4184 1.2754 1.5157 220.65 0.40772 6.6114 0.012706
-28.625 25.687 0.0094682 134.32 135.05 0.75195 564.99 0.0017699 130.84 131.16 0.73604 1.4818 2.3126 1072.8 -0.0045124 169.42 0.12143 4.0663 0.24592 498.46 542.01 2.4162 1.2802 1.5222 220.79 0.40356 6.6378 0.012800
-27.625 26.700 0.0098041 136.74 137.50 0.76183 563.78 0.0017737 133.15 133.48 0.74547 1.4846 2.3180 1066.2 -0.0044621 167.62 0.12087 4.2163 0.23717 499.53 543.19 2.4142 1.2850 1.5286 220.91 0.39947 6.6642 0.012894
-26.625 27.743 0.010149 139.17 139.95 0.77169 562.57 0.0017775 135.47 135.81 0.75487 1.4874 2.3234 1059.7 -0.0044111 165.84 0.12031 4.3705 0.22881 500.60 544.37 2.4122 1.2899 1.5352 221.03 0.39547 6.6906 0.012989
-25.625 28.817 0.010502 141.61 142.42 0.78154 561.36 0.0017814 137.78 138.14 0.76426 1.4902 2.3289 1053.2 -0.0043593 164.09 0.11975 4.5290 0.22080 501.68 545.55 2.4102 1.2947 1.5418 221.14 0.39154 6.7171 0.013084
-24.625 29.923 0.010865 144.05 144.89 0.79139 560.14 0.0017853 140.11 140.48 0.77363 1.4931 2.3344 1046.7 -0.0043067 162.36 0.11919 4.6918 0.21314 502.75 546.72 2.4083 1.2996 1.5485 221.25 0.38768 6.7436 0.013180
-23.625 31.061 0.011237 146.50 147.37 0.80123 558.92 0.0017892 142.44 142.82 0.78298 1.4960 2.3400 1040.1 -0.0042533 160.65 0.11863 4.8592 0.20580 503.82 547.90 2.4064 1.3045 1.5552 221.35 0.38391 6.7701 0.013277
-22.625 32.232 0.011619 148.95 149.86 0.81105 557.69 0.0017931 144.77 145.17 0.79232 1.4990 2.3457 1033.6 -0.0041990 158.97 0.11807 5.0311 0.19877 504.90 549.07 2.4045 1.3095 1.5621 221.44 0.38020 6.7967 0.013374
-21.625 33.435 0.012009 151.42 152.36 0.82087 556.46 0.0017971 147.11 147.52 0.80164 1.5019 2.3514 1027.1 -0.0041439 157.30 0.11752 5.2076 0.19203 505.97 550.24 2.4027 1.3144 1.5690 221.52 0.37656 6.8232 0.013471
-20.625 34.673 0.012410 153.89 154.87 0.83068 555.23 0.0018011 149.45 149.88 0.81095 1.5049 2.3572 1020.6 -0.0040879 155.66 0.11697 5.3889 0.18557 507.04 551.40 2.4010 1.3194 1.5759 221.59 0.37300 6.8499 0.013569
-19.625 35.946 0.012821 156.37 157.38 0.84049 553.99 0.0018051 151.80 152.25 0.82024 1.5079 2.3630 1014.0 -0.0040311 154.04 0.11642 5.5750 0.17937 508.11 552.57 2.3992 1.3244 1.5829 221.66 0.36950 6.8765 0.013668
-18.625 37.253 0.013241 158.86 159.91 0.85028 552.74 0.0018092 154.16 154.62 0.82952 1.5109 2.3689 1007.5 -0.0039733 152.44 0.11587 5.7660 0.17343 509.19 553.73 2.3976 1.3294 1.5901 221.72 0.36608 6.9032 0.013767
-17.625 38.596 0.013672 161.36 162.44 0.86007 551.49 0.0018133 156.52 157.00 0.83878 1.5140 2.3749 1001.0 -0.0039145 150.86 0.11532 5.9621 0.16773 510.26 554.89 2.3959 1.3345 1.5972 221.77 0.36272 6.9300 0.013867
-16.625 39.976 0.014113 163.86 164.99 0.86985 550.24 0.0018174 158.89 159.39 0.84803 1.5171 2.3810 994.44 -0.0038549 149.29 0.11478 6.1632 0.16225 511.33 556.05 2.3943 1.3395 1.6045 221.81 0.35942 6.9568 0.013968
-15.625 41.392 0.014565 166.37 167.54 0.87963 548.98 0.0018216 161.26 161.78 0.85726 1.5202 2.3871 987.91 -0.0037942 147.75 0.11423 6.3696 0.15700 512.40 557.20 2.3927 1.3446 1.6119 221.85 0.35619 6.9836 0.014069
-14.625 42.846 0.015027 168.89 170.10 0.88940 547.71 0.0018258 163.64 164.18 0.86649 1.5233 2.3933 981.37 -0.0037325 146.22 0.11369 6.5812 0.15195 513.47 558.36 2.3912 1.3497 1.6193 221.87 0.35302 7.0105 0.014170
-13.625 44.338 0.015500 171.42 172.67 0.89916 546.44 0.0018300 166.02 166.58 0.87569 1.5264 2.3996 974.83 -0.0036698 144.72 0.11315 6.7983 0.14710 514.54 559.51 2.3897 1.3549 1.6268 221.89 0.34992 7.0375 0.014273
-12.625 45.870 0.015984 173.96 175.25 0.90892 545.17 0.0018343 168.41 168.99 0.88489 1.5296 2.4059 968.29 -0.0036061 143.23 0.11261 7.0208 0.14243 515.61 560.65 2.3883 1.3600 1.6344 221.90 0.34688 7.0646 0.014376
-11.625 47.440 0.016479 176.51 177.84 0.91867 543.89 0.0018386 170.81 171.41 0.89407 1.5328 2.4124 961.75 -0.0035413 141.76 0.11208 7.2490 0.13795 516.68 561.80 2.3868 1.3652 1.6421 221.91 0.34389 7.0917 0.014479
-10.625 49.051 0.016986 179.06 180.44 0.92842 542.60 0.0018430 173.21 173.83 0.90324 1.5360 2.4189 955.20 -0.0034753 140.30 0.11154 7.4829 0.13364 517.75 562.94 2.3854 1.3704 1.6498 221.90 0.34097 7.1188 0.014584
-9.6250 50.703 0.017504 181.62 183.05 0.93816 541.31 0.0018474 175.61 176.26 0.91240 1.5393 2.4255 948.65 -0.0034082 138.86 0.11101 7.7226 0.12949 518.81 564.08 2.3841 1.3757 1.6577 221.88 0.33810 7.1461 0.014689
-8.6250 52.396 0.018034 184.19 185.67 0.94790 540.02 0.0018518 178.03 178.70 0.92154 1.5426 2.4321 942.10 -0.0033400 137.44 0.11048 7.9683 0.12550 519.88 565.21 2.3827 1.3809 1.6657 221.86 0.33529 7.1734 0.014795
-7.6250 54.131 0.018576 186.77 188.30 0.95763 538.72 0.0018563 180.45 181.14 0.93068 1.5459 2.4389 935.55 -0.0032705 136.03 0.10995 8.2200 0.12165 520.94 566.35 2.3814 1.3862 1.6737 221.83 0.33254 7.2008 0.014902
-6.6250 55.909 0.019130 189.36 190.93 0.96736 537.41 0.0018608 182.87 183.59 0.93980 1.5492 2.4457 928.99 -0.0031998 134.64 0.10942 8.4779 0.11795 522.01 567.48 2.3801 1.3915 1.6819 221.79 0.32984 7.2284 0.015009
-5.6250 57.730 0.019696 191.96 193.58 0.97708 536.10 0.0018653 185.30 186.05 0.94892 1.5525 2.4526 922.43 -0.0031279 133.27 0.10889 8.7420 0.11439 523.07 568.60 2.3789 1.3969 1.6902 221.74 0.32720 7.2560 0.015117
-4.6250 59.595 0.020275 194.56 196.24 0.98680 534.78 0.0018699 187.74 188.51 0.95802 1.5559 2.4596 915.87 -0.0030546 131.91 0.10837 9.0126 0.11096 524.13 569.72 2.3777 1.4022 1.6985 221.68 0.32461 7.2837 0.015226
-3.6250 61.505 0.020866 197.18 198.91 0.99652 533.45 0.0018746 190.19 190.98 0.96711 1.5593 2.4667 909.30 -0.0029800 130.56 0.10785 9.2896 0.10765 525.19 570.84 2.3765 1.4076 1.7070 221.62 0.32207 7.3115 0.015336
-2.6250 63.461 0.021470 199.80 201.59 1.0062 532.12 0.0018793 192.64 193.46 0.97620 1.5627 2.4739 902.73 -0.0029041 129.23 0.10733 9.5733 0.10446 526.25 571.96 2.3753 1.4131 1.7156 221.54 0.31958 7.3394 0.015447
-1.6250 65.462 0.022087 202.43 204.28 1.0159 530.78 0.0018840 195.10 195.95 0.98527 1.5662 2.4811 896.16 -0.0028267 127.91 0.10681 9.8638 0.10138 527.31 573.07 2.3742 1.4185 1.7243 221.45 0.31715 7.3674 0.015559
-0.62500 67.510 0.022718 205.07 206.97 1.0257 529.44 0.0018888 197.56 198.44 0.99434 1.5696 2.4885 889.58 -0.0027478 126.61 0.10629 10.161 0.098414 528.37 574.18 2.3731 1.4240 1.7331 221.36 0.31476 7.3956 0.015671
0.37500 69.606 0.023362 207.72 209.68 1.0354 528.09 0.0018936 200.03 200.94 1.0034 1.5731 2.4960 883.00 -0.0026675 125.32 0.10578 10.466 0.095552 529.42 575.28 2.3720 1.4295 1.7421 221.26 0.31242 7.4239 0.015785
1.3750 71.749 0.024019 210.38 212.40 1.0451 526.73 0.0018985 202.51 203.45 1.0124 1.5767 2.5035 876.42 -0.0025856 124.04 0.10527 10.777 0.092790 530.48 576.38 2.3709 1.4350 1.7512 221.14 0.31013 7.4523 0.015899
2.3750 73.941 0.024691 213.05 215.13 1.0548 525.37 0.0019034 204.99 205.96 1.0215 1.5802 2.5112 869.83 -0.0025022 122.78 0.10476 11.096 0.090123 531.53 577.47 2.3699 1.4406 1.7604 221.02 0.30789 7.4808 0.016015
3.3750 76.183 0.025376 215.73 217.88 1.0645 523.99 0.0019084 207.48 208.48 1.0305 1.5838 2.5190 863.24 -0.0024171 121.53 0.10425 11.422 0.087549 532.58 578.56 2.3688 1.4462 1.7697 220.89 0.30569 7.5095 0.016131
4.3750 78.475 0.026076 218.42 220.63 1.0742 522.62 0.0019134 209.98 211.01 1.0395 1.5874 2.5268 856.64 -0.0023303 120.29 0.10374 11.756 0.085062 533.63 579.65 2.3678 1.4518 1.7792 220.75 0.30354 7.5384 0.016249
5.3750 80.817 0.026790 221.12 223.39 1.0839 521.23 0.0019185 212.48 213.55 1.0486 1.5910 2.5348 850.04 -0.0022417 119.06 0.10324 12.098 0.082660 534.67 580.73 2.3669 1.4575 1.7888 220.60 0.30144 7.5674 0.016368
6.3750 83.211 0.027519 223.82 226.16 1.0936 519.84 0.0019237 215.00 216.10 1.0576 1.5946 2.5429 843.43 -0.0021514 117.85 0.10273 12.447 0.080340 535.72 581.81 2.3659 1.4632 1.7986 220.44 0.29938 7.5966 0.016487
7.3750 85.657 0.028264 226.54 228.95 1.1033 518.44 0.0019289 217.51 218.65 1.0666 1.5983 2.5511 836.82 -0.0020593 116.65 0.10223 12.805 0.078096 536.76 582.88 2.3650 1.4689 1.8085 220.27 0.29736 7.6259 0.016608
8.3750 88.156 0.029023 229.26 231.74 1.1130 517.03 0.0019341 220.04 221.22 1.0756 1.6020 2.5595 830.20 -0.0019652 115.46 0.10173 13.170 0.075928 537.80 583.95 2.3640 1.4746 1.8186 220.08 0.29538 7.6555 0.016730
9.3750 90.708 0.029798 232.00 234.55 1.1227 515.62 0.0019394 222.57 223.79 1.0846 1.6057 2.5679 823.58 -0.0018691 114.28 0.10124 13.545 0.073830 538.84 585.01 2.3631 1.4804 1.8288 219.89 0.29345 7.6852 0.016853
10.375 93.315 0.030589 234.74 237.37 1.1324 514.19 0.0019448 225.11 226.37 1.0936 1.6095 2.5765 816.96 -0.0017710 113.11 0.10074 13.927 0.071802 539.87 586.07 2.3622 1.4863 1.8392 219.69 0.29156 7.7151 0.016978
11.375 95.977 0.031395 237.50 240.20 1.1421 512.76 0.0019502 227.66 228.95 1.1025 1.6132 2.5852 810.32 -0.0016708 111.95 0.10025 14.319 0.069840 540.90 587.12 2.3614 1.4921 1.8498 219.48 0.28971 7.7452 0.017103
12.375 98.694 0.032218 240.26 243.04 1.1518 511.32 0.0019557 230.22 231.55 1.1115 1.6170 2.5940 803.68 -0.0015685 110.80 0.099756 14.719 0.067941 541.93 588.17 2.3605 1.4980 1.8605 219.26 0.28790 7.7756 0.017230
13.375 101.47 0.033058 243.04 245.89 1.1615 509.87 0.0019613 232.78 234.15 1.1205 1.6208 2.6030 797.04 -0.0014639 109.67 0.099267 15.128 0.066103 542.96 589.21 2.3597 1.5040 1.8715 219.03 0.28612 7.8061 0.017359
14.375 104.30 0.033914 245.82 248.75 1.1712 508.42 0.0019669 235.35 236.77 1.1295 1.6247 2.6121 790.39 -0.0013569 108.54 0.098779 15.547 0.064323 543.99 590.24 2.3588 1.5099 1.8826 218.79 0.28439 7.8369 0.017488
15.375 107.19 0.034787 248.61 251.63 1.1809 506.95 0.0019726 237.93 239.39 1.1384 1.6286 2.6214 783.73 -0.0012476 107.43 0.098294 15.974 0.062600 545.01 591.27 2.3580 1.5159 1.8940 218.53 0.28270 7.8680 0.017619
16.375 110.13 0.035678 251.42 254.52 1.1906 505.48 0.0019783 240.52 242.02 1.1474 1.6324 2.6308 777.07 -0.0011357 106.32 0.097810 16.412 0.060931 546.03 592.29 2.3572 1.5220 1.9055 218.27 0.28104 7.8993 0.017752
17.375 113.14 0.036586 254.23 257.42 1.2003 504.00 0.0019841 243.11 244.66 1.1564 1.6364 2.6403 770.40 -0.0010213 105.22 0.097328 16.859 0.059314 547.04 593.31 2.3564 1.5281 1.9172 217.99 0.27942 7.9308 0.017886
18.375 116.21 0.037513 257.06 260.33 1.2100 502.50 0.0019900 245.72 247.31 1.1653 1.6403 2.6501 763.72 -0.00090422 104.14 0.096848 17.317 0.057747 548.05 594.32 2.3557 1.5342 1.9292 217.71 0.27783 7.9626 0.018021
19.375 119.33 0.038457 259.89 263.25 1.2197 501.00 0.0019960 248.33 249.97 1.1743 1.6443 2.6599 757.04 -0.00078435 103.06 0.096371 17.785 0.056228 549.06 595.33 2.3549 1.5404 1.9414 217.41 0.27628 7.9947 0.018159
20.375 122.52 0.039421 262.74 266.19 1.2294 499.49 0.0020020 250.95 252.64 1.1832 1.6483 2.6700 750.35 -0.00066161 101.99 0.095895 18.263 0.054756 550.07 596.32 2.3541 1.5466 1.9538 217.10 0.27477 8.0272 0.018297
21.375 125.77 0.040403 265.59 269.13 1.2391 497.97 0.0020082 253.57 255.32 1.1922 1.6523 2.6802 743.64 -0.00053589 100.93 0.095420 18.752 0.053328 551.07 597.31 2.3534 1.5528 1.9665 216.78 0.27329 8.0599 0.018438
22.375 129.08 0.041404 268.46 272.09 1.2488 496.43 0.0020144 256.21 258.00 1.2012 1.6563 2.6906 736.94 -0.00040708 99.877 0.094948 19.252 0.051943 552.07 598.30 2.3526 1.5591 1.9795 216.45 0.27184 8.0929 0.018580
23.375 132.46 0.042425 271.34 275.06 1.2585 494.89 0.0020206 258.86 260.70 1.2101 1.6604 2.7012 730.22 -0.00027505 98.834 0.094478 19.763 0.050600 553.06 599.27 2.3519 1.5655 1.9927 216.11 0.27043 8.1263 0.018724
24.375 135.90 0.043466 274.22 278.05 1.2683 493.34 0.0020270 261.51 263.41 1.2191 1.6645 2.7120 723.49 -0.00013968 97.800 0.094009 20.285 0.049297 554.05 600.24 2.3512 1.5718 2.0061 215.75 0.26906 8.1600 0.018870
25.375 139.41 0.044527 277.12 281.05 1.2780 491.77 0.0020335 264.17 266.13 1.2280 1.6686 2.7230 716.76 -8.3775e-07 96.773 0.093543 20.820 0.048032 555.03 601.20 2.3504 1.5783 2.0199 215.39 0.26771 8.1941 0.019017
26.375 142.98 0.045609 280.03 284.06 1.2877 490.20 0.0020400 266.84 268.85 1.2370 1.6728 2.7342 710.01 0.00014161 95.755 0.093078 21.366 0.046804 556.01 602.15 2.3497 1.5847 2.0340 215.01 0.26640 8.2286 0.019167
27.375 146.62 0.046712 282.95 287.08 1.2975 488.61 0.0020466 269.52 271.59 1.2459 1.6770 2.7456 703.26 0.00028782 94.745 0.092615 21.924 0.045612 556.99 603.10 2.3490 1.5913 2.0484 214.62 0.26512 8.2634 0.019319
28.375 150.33 0.047837 285.88 290.11 1.3072 487.01 0.0020533 272.21 274.34 1.2549 1.6812 2.7573 696.49 0.00043793 93.742 0.092154 22.495 0.044454 557.96 604.03 2.3483 1.5978 2.0631 214.21 0.26387 8.2987 0.019472
29.375 154.10 0.048983 288.83 293.16 1.3169 485.40 0.0020601 274.91 277.10 1.2638 1.6854 2.7691 689.72 0.00059212 92.747 0.091695 23.079 0.043329 558.92 604.96 2.3476 1.6044 2.0781 213.80 0.26265 8.3344 0.019628
30.375 157.94 0.050152 291.78 296.22 1.3267 483.78 0.0020671 277.62 279.87 1.2728 1.6897 2.7813 682.93 0.00075055 91.760 0.091238 23.676 0.042237 559.88 605.88 2.3469 1.6111 2.0935 213.37 0.26147 8.3705 0.019786
31.375 161.86 0.051343 294.74 299.30 1.3364 482.15 0.0020741 280.34 282.66 1.2818 1.6939 2.7936 676.13 0.00091340 90.779 0.090782 24.287 0.041175 560.84 606.79 2.3462 1.6178 2.1092 212.93 0.26031 8.4071 0.019947
32.375 165.84 0.052558 297.72 302.39 1.3462 480.50 0.0020812 283.07 285.45 1.2908 1.6983 2.8063 669.32 0.0010809 89.806 0.090328 24.911 0.040143 561.79 607.69 2.3455 1.6246 2.1254 212.48 0.25919 8.4442 0.020110
33.375 169.90 0.053796 300.71 305.49 1.3559 478.83 0.0020884 285.81 288.26 1.2997 1.7026 2.8192 662.50 0.0012532 88.840 0.089876 25.549 0.039140 562.73 608.58 2.3448 1.6314 2.1419 212.01 0.25809 8.4818 0.020275
34.375 174.02 0.055059 303.71 308.60 1.3657 477.16 0.0020957 288.56 291.07 1.3087 1.7070 2.8324 655.67 0.0014305 87.880 0.089426 26.202 0.038164 563.67 609.46 2.3440 1.6383 2.1589 211.53 0.25702 8.5199 0.020443
35.375 178.22 0.056346 306.72 311.73 1.3755 475.47 0.0021032 291.32 293.90 1.3177 1.7114 2.8459 648.82 0.0016131 86.927 0.088977 26.870 0.037216 564.60 610.33 2.3433 1.6452 2.1763 211.04 0.25599 8.5586 0.020613
36.375 182.50 0.057658 309.74 314.87 1.3853 473.77 0.0021107 294.09 296.74 1.3267 1.7158 2.8597 641.96 0.0018012 85.980 0.088531 27.553 0.036293 565.52 611.19 2.3426 1.6522 2.1942 210.53 0.25498 8.5978 0.020786
37.375 186.84 0.058996 312.77 318.03 1.3951 472.05 0.0021184 296.87 299.60 1.3357 1.7203 2.8739 635.08 0.0019950 85.040 0.088085 28.252 0.035395 566.44 612.04 2.3419 1.6592 2.2125 210.01 0.25400 8.6376 0.020962
38.375 191.27 0.060360 315.82 321.20 1.4048 470.31 0.0021262 299.66 302.46 1.3447 1.7248 2.8884 628.19 0.0021949 84.105 0.087642 28.967 0.034522 567.35 612.88 2.3411 1.6663 2.2314 209.47 0.25305 8.6780 0.021141
39.375 195.77 0.061751 318.87 324.38 1.4146 468.56 0.0021342 302.46 305.34 1.3537 1.7293 2.9033 621.29 0.0024011 83.177 0.087200 29.699 0.033671 568.26 613.70 2.3404 1.6734 2.2508 208.92 0.25213 8.7190 0.021323
40.375 200.34 0.063169 321.94 327.58 1.4244 466.80 0.0021423 305.27 308.23 1.3627 1.7339 2.9185 614.37 0.0026140 82.254 0.086760 30.447 0.032844 569.15 614.52 2.3396 1.6806 2.2708 208.36 0.25123 8.7608 0.021508
41.375 205.00 0.064616 325.03 330.79 1.4343 465.01 0.0021505 308.10 311.14 1.3718 1.7385 2.9342 607.43 0.0028338 81.338 0.086322 31.214 0.032037 570.04 615.32 2.3389 1.6879 2.2913 207.78 0.25037 8.8032 0.021696
42.375 209.73 0.066091 328.12 334.02 1.4441 463.21 0.0021588 310.94 314.06 1.3808 1.7432 2.9502 600.47 0.0030609 80.426 0.085885 31.998 0.031252 570.92 616.11 2.3381 1.6952 2.3125 207.19 0.24953 8.8463 0.021888
43.375 214.54 0.067595 331.23 337.26 1.4539 461.40 0.0021673 313.79 316.99 1.3899 1.7478 2.9667 593.50 0.0032957 79.520 0.085449 32.800 0.030488 571.79 616.88 2.3373 1.7027 2.3344 206.58 0.24871 8.8902 0.022084
44.375 219.43 0.069129 334.34 340.52 1.4638 459.56 0.0021760 316.65 319.94 1.3989 1.7525 2.9837 586.51 0.0035386 78.619 0.085015 33.622 0.029742 572.65 617.65 2.3365 1.7101 2.3569 205.96 0.24793 8.9349 0.022283
45.375 224.41 0.070694 337.48 343.79 1.4736 457.71 0.0021848 319.52 322.90 1.4080 1.7573 3.0012 579.50 0.0037900 77.723 0.084583 34.463 0.029016 573.50 618.40 2.3357 1.7177 2.3802 205.32 0.24717 8.9805 0.022485
46.375 229.46 0.072291 340.62 347.08 1.4835 455.83 0.0021938 322.41 325.88 1.4171 1.7621 3.0192 572.46 0.0040504 76.832 0.084152 35.325 0.028308 574.34 619.13 2.3349 1.7253 2.4042 204.67 0.24644 9.0269 0.022692
47.375 234.60 0.073920 343.78 350.38 1.4933 453.94 0.0022029 325.31 328.87 1.4262 1.7669 3.0377 565.41 0.0043202 75.946 0.083723 36.208 0.027618 575.17 619.85 2.3340 1.7329 2.4291 204.00 0.24573 9.0742 0.022903
48.375 239.83 0.075582 346.95 353.70 1.5032 452.03 0.0022123 328.22 331.88 1.4353 1.7718 3.0569 558.34 0.0046000 75.064 0.083295 37.112 0.026945 576.00 620.55 2.3332 1.7407 2.4548 203.31 0.24505 9.1224 0.023119
49.375 245.13 0.077278 350.13 357.03 1.5131 450.09 0.0022218 331.15 334.90 1.4445 1.7767 3.0766 551.24 0.0048904 74.186 0.082868 38.039 0.026289 576.81 621.24 2.3323 1.7485 2.4815 202.61 0.24440 9.1716 0.023339
50.375 250.53 0.079009 353.33 360.38 1.5230 448.13 0.0022315 334.09 337.94 1.4536 1.7817 3.0970 544.13 0.0051920 73.313 0.082442 38.989 0.025648 577.61 621.91 2.3314 1.7564 2.5092 201.89 0.24377 9.2219 0.023564
51.375 256.01 0.080775 356.54 363.74 1.5329 446.15 0.0022414 337.04 341.00 1.4628 1.7867 3.1181 536.98 0.0055054 72.443 0.082018 39.962 0.025024 578.39 622.56 2.3304 1.7644 2.5379 201.16 0.24317 9.2733 0.023794
52.375 261.57 0.082579 359.76 367.12 1.5428 444.15 0.0022515 340.01 344.07 1.4720 1.7918 3.1400 529.82 0.0058313 71.577 0.081595 40.961 0.024414 579.17 623.20 2.3295 1.7724 2.5677 200.41 0.24260 9.3258 0.024029
53.375 267.23 0.084420 363.00 370.52 1.5527 442.12 0.0022618 343.00 347.17 1.4812 1.7969 3.1627 522.62 0.0061705 70.715 0.081174 41.985 0.023818 579.93 623.81 2.3285 1.7805 2.5987 199.63 0.24205 9.3795 0.024270
54.375 272.97 0.086301 366.25 373.93 1.5627 440.06 0.0022724 346.00 350.28 1.4904 1.8021 3.1862 515.40 0.0065239 69.856 0.080753 43.036 0.023237 580.68 624.41 2.3274 1.7887 2.6310 198.85 0.24154 9.4344 0.024516
55.375 278.81 0.088221 369.52 377.36 1.5726 437.98 0.0022832 349.02 353.40 1.4997 1.8073 3.2106 508.15 0.0068923 69.001 0.080334 44.114 0.022669 581.41 624.99 2.3264 1.7969 2.6646 198.04 0.24105 9.4907 0.024769
56.375 284.74 0.090183 372.80 380.81 1.5826 435.87 0.0022943 352.05 356.55 1.5090 1.8126 3.2360 500.87 0.0072767 68.148 0.079915 45.221 0.022114 582.13 625.54 2.3253 1.8052 2.6998 197.22 0.24059 9.5484 0.025028
57.375 290.76 0.092187 376.09 384.27 1.5926 433.73 0.0023056 355.10 359.72 1.5183 1.8179 3.2624 493.56 0.0076782 67.299 0.079498 46.358 0.021571 582.83 626.07 2.3241 1.8136 2.7365 196.37 0.24016 9.6075 0.025294
58.375 296.87 0.094235 379.40 387.76 1.6026 431.56 0.0023172 358.17 362.91 1.5276 1.8233 3.2900 486.22 0.0080980 66.451 0.079082 47.525 0.021041 583.52 626.58 2.3230 1.8220 2.7749 195.51 0.23976 9.6682 0.025568
59.375 303.08 0.096329 382.73 391.26 1.6126 429.36 0.0023290 361.25 366.12 1.5370 1.8288 3.3188 478.84 0.0085373 65.606 0.078666 48.726 0.020523 584.18 627.07 2.3218 1.8305 2.8152 194.63 0.23939 9.7305 0.025849
60.375 309.38 0.098469 386.07 394.77 1.6226 427.13 0.0023412 364.36 369.35 1.5464 1.8343 3.3489 471.43 0.0089976 64.763 0.078251 49.960 0.020016 584.83 627.53 2.3205 1.8391 2.8576 193.73 0.23905 9.7945 0.026138
61.375 315.78 0.10066 389.42 398.31 1.6327 424.87 0.0023537 367.48 372.60 1.5558 1.8400 3.3805 463.99 0.0094803 63.922 0.077838 51.229 0.019520 585.46 627.96 2.3192 1.8479 2.9022 192.82 0.23873 9.8603 0.026436
62.375 322.28 0.10290 392.79 401.86 1.6427 422.56 0.0023665 370.62 375.88 1.5653 1.8457 3.4136 456.50 0.0099871 63.083 0.077425 52.535 0.019035 586.07 628.37 2.3178 1.8567 2.9492 191.88 0.23845 9.9281 0.026744
63.375 328.88 0.10519 396.18 405.43 1.6528 420.22 0.0023797 373.79 379.18 1.5748 1.8514 3.4483 448.97 0.010520 62.244 0.077012 53.879 0.018560 586.66 628.74 2.3164 1.8656 2.9989 190.92 0.23819 9.9979 0.027061
64.375 335.58 0.10753 399.58 409.03 1.6629 417.85 0.0023932 376.97 382.51 1.5844 1.8573 3.4850 441.40 0.011081 61.407 0.076600 55.265 0.018095 587.22 629.09 2.3149 1.8747 3.0517 189.95 0.23796 10.070 0.027389
65.375 342.38 0.10993 403.00 412.64 1.6730 415.42 0.0024072 380.18 385.86 1.5939 1.8633 3.5236 433.79 0.011672 60.570 0.076189 56.692 0.017639 587.76 629.40 2.3133 1.8839 3.1077 188.95 0.23775 10.144 0.027729
66.375 349.28 0.11239 406.44 416.27 1.6832 412.96 0.0024215 383.41 389.25 1.6036 1.8693 3.5645 426.12 0.012296 59.733 0.075779 58.165 0.017193 588.28 629.68 2.3117 1.8933 3.1674 187.93 0.23757 10.221 0.028080
67.375 356.28 0.11491 409.89 419.92 1.6933 410.45 0.0024363 386.67 392.65 1.6133 1.8755 3.6078 418.41 0.012956 58.897 0.075368 59.684 0.016755 588.76 629.92 2.3100 1.9030 3.2311 186.89 0.23740 10.300 0.028446
68.375 363.40 0.11749 413.36 423.59 1.7035 407.89 0.0024516 389.95 396.09 1.6230 1.8818 3.6537 410.64 0.013655 58.059 0.074959 61.253 0.016326 589.22 630.13 2.3082 1.9129 3.2994 185.83 0.23724 10.382 0.028825
69.375 370.61 0.12013 416.85 427.28 1.7137 405.28 0.0024674 393.26 399.57 1.6328 1.8882 3.7027 402.81 0.014396 57.221 0.074549 62.875 0.015905 589.65 630.29 2.3064 1.9231 3.3727 184.74 0.23710 10.467 0.029221
70.375 377.94 0.12284 420.36 431.00 1.7239 402.62 0.0024838 396.60 403.07 1.6426 1.8947 3.7550 394.92 0.015183 56.381 0.074141 64.552 0.015491 590.04 630.41 2.3044 1.9336 3.4518 183.63 0.23697 10.555 0.029633
71.375 385.37 0.12562 423.89 434.73 1.7342 399.89 0.0025007 399.96 406.61 1.6525 1.9014 3.8109 386.97 0.016021 55.540 0.073732 66.288 0.015086 590.40 630.49 2.3024 1.9444 3.5371 182.50 0.23684 10.647 0.030064
72.375 392.92 0.12848 427.43 438.49 1.7445 397.11 0.0025182 403.36 410.18 1.6625 1.9083 3.8711 378.95 0.016915 54.696 0.073324 68.087 0.014687 590.73 630.51 2.3002 1.9556 3.6297 181.34 0.23671 10.743 0.030515
73.375 400.57 0.13141 431.00 442.27 1.7548 394.26 0.0025364 406.79 413.80 1.6726 1.9153 3.9359 370.85 0.017871 53.848 0.072917 69.953 0.014295 591.01 630.49 2.2979 1.9673 3.7303 180.16 0.23658 10.842 0.030989
74.375 408.34 0.13442 434.59 446.08 1.7651 391.34 0.0025553 410.26 417.45 1.6827 1.9226 4.0060 362.67 0.018894 52.997 0.072510 71.890 0.013910 591.25 630.41 2.2955 1.9793 3.8401 178.95 0.23643 10.946 0.031488
75.375 416.23 0.13751 438.20 449.91 1.7755 388.34 0.0025751 413.76 421.15 1.6930 1.9301 4.0822 354.41 0.019993 52.142 0.072104 73.904 0.013531 591.44 630.27 2.2930 1.9919 3.9604 177.71 0.23627 11.054 0.032014
76.375 424.23 0.14069 441.83 453.76 1.7859 385.26 0.0025957 417.31 424.90 1.7033 1.9378 4.1654 346.06 0.021177 51.281 0.071699 76.001 0.013158 591.59 630.07 2.2903 2.0050 4.0927 176.44 0.23609 11.168 0.032570
77.375 432.35 0.14396 445.48 457.65 1.7963 382.09 0.0026172 420.89 428.70 1.7137 1.9459 4.2565 337.60 0.022455 50.414 0.071295 78.187 0.012790 591.68 629.80 2.2874 2.0186 4.2389 175.15 0.23588 11.287 0.033161
78.375 440.59 0.14732 449.16 461.55 1.8068 378.83 0.0026397 424.53 432.54 1.7243 1.9543 4.3570 329.05 0.023838 49.539 0.070893 80.469 0.012427 591.71 629.46 2.2844 2.0328 4.4012 173.82 0.23563 11.412 0.033789
79.375 448.95 0.15078 452.86 465.49 1.8173 375.46 0.0026634 428.21 436.45 1.7349 1.9631 4.4684 320.38 0.025341 48.657 0.070494 82.856 0.012069 591.68 629.04 2.2812 2.0475 4.5824 172.46 0.23535 11.544 0.034461
80.375 457.44 0.15435 456.58 469.46 1.8279 371.97 0.0026884 431.94 440.42 1.7457 1.9723 4.5928 311.58 0.026980 47.764 0.070099 85.359 0.011715 591.58 628.53 2.2778 2.0630 4.7859 171.07 0.23501 11.684 0.035181
81.375 466.05 0.15801 460.34 473.45 1.8385 368.36 0.0027147 435.74 444.46 1.7567 1.9820 4.7327 302.66 0.028773 46.860 0.069708 87.988 0.011365 591.40 627.92 2.2742 2.0791 5.0161 169.64 0.23461 11.832 0.035957
82.375 474.79 0.16179 464.12 477.48 1.8491 364.61 0.0027427 439.60 448.58 1.7678 1.9924 4.8914 293.60 0.030744 45.942 0.069323 90.757 0.011018 591.14 627.21 2.2703 2.0959 5.2786 168.17 0.23413 11.989 0.036797
83.375 483.66 0.16568 467.93 481.54 1.8598 360.70 0.0027724 443.53 452.78 1.7791 2.0034 5.0731 284.38 0.032920 45.010 0.068948 93.681 0.010674 590.79 626.38 2.2661 2.1136 5.5807 166.67 0.23357 12.157 0.037711
84.375 492.67 0.16969 471.77 485.64 1.8706 356.61 0.0028041 447.54 457.07 1.7907 2.0153 5.2834 275.00 0.035335 44.059 0.068586 96.781 0.010333 590.33 625.42 2.2616 2.1321 5.9321 165.13 0.23290 12.338 0.038713
85.375 501.81 0.17381 475.65 489.77 1.8814 352.33 0.0028382 451.65 461.47 1.8025 2.0281 5.5302 265.44 0.038030 43.088 0.068241 100.08 0.0099920 589.74 624.31 2.2567 2.1517 6.3459 163.54 0.23209 12.532 0.039819
86.375 511.09 0.17804 479.56 493.95 1.8923 347.82 0.0028751 455.85 465.98 1.8145 2.0420 5.8240 255.69 0.041058 42.092 0.067923 103.61 0.0096520 589.03 623.04 2.2514 2.1723 6.8405 161.91 0.23112 12.743 0.041051
87.375 520.51 0.18237 483.51 498.16 1.9033 343.04 0.0029151 460.18 470.64 1.8269 2.0574 6.1803 245.72 0.044485 41.066 0.067640 107.40 0.0093114 588.15 621.56 2.2456 2.1943 7.4422 160.23 0.22995 12.973 0.042436
88.375 530.07 0.18679 487.51 502.43 1.9143 337.95 0.0029590 464.64 475.45 1.8397 2.0745 6.6221 235.52 0.048397 40.005 0.067412 111.50 0.0089689 587.08 619.86 2.2392 2.2178 8.1900 158.49 0.22854 13.226 0.044014
89.375 539.79 0.19126 491.55 506.74 1.9255 332.48 0.0030077 469.27 480.46 1.8530 2.0936 7.1851 225.04 0.052906 38.901 0.067265 115.97 0.0086228 585.79 617.88 2.2321 2.2433 9.1445 156.69 0.22681 13.508 0.045839
90.375 549.66 0.19570 495.65 511.12 1.9368 326.55 0.0030623 474.10 485.71 1.8669 2.1156 7.9284 214.26 0.058166 37.742 0.067243 120.91 0.0082708 584.22 615.56 2.2241 2.2711 10.405 154.82 0.22467 13.825 0.047992
91.375 559.68 0.19998 499.81 515.56 1.9482 320.03 0.0031247 479.19 491.25 1.8815 2.1412 8.9568 203.11 0.064389 36.514 0.067421 126.43 0.0079097 582.29 612.82 2.2150 2.3019 12.146 152.85 0.22200 14.189 0.050600
92.375 569.87 0.20383 504.04 520.08 1.9598 312.73 0.0031976 484.62 497.18 1.8972 2.1718 10.475 191.54 0.071885 35.195 0.067931 132.72 0.0075346 579.91 609.51 2.2045 2.3370 14.705 150.75 0.21862 14.618 0.053877
93.375 580.24 0.20664 508.36 524.69 1.9716 304.34 0.0032858 490.52 503.67 1.9143 2.2100 12.945 179.43 0.081133 33.755 0.069025 140.11 0.0071373 576.87 605.42 2.1919 2.3779 18.828 148.48 0.21421 15.146 0.058225
94.375 590.79 0.20676 512.81 529.44 1.9837 294.25 0.0033985 497.17 511.01 1.9336 2.2603 17.657 166.61 0.092934 32.154 0.071243 149.20 0.0067025 572.82 600.12 2.1761 2.4283 26.557 145.93 0.20825 15.847 0.064529
95.375 601.53 0.19840 517.45 534.38 1.9963 280.99 0.0035589 505.21 519.97 1.9572 2.3343 30.014 152.73 0.10888 30.366 0.076197 161.45 0.0061937 566.92 592.61 2.1544 2.4956 46.113 142.79 0.19953 16.960 0.075419
96.375 612.50 0.13064 522.52 539.76 2.0101 258.02 0.0038757 517.56 533.93 1.9943 2.4799 125.86 136.81 0.13399 28.436 0.097271 183.41 0.0054523 555.50 578.53 2.1150 2.6070 182.91 137.67 0.18336 19.789 0.10964
97.375 624.59 undefined 525.90 543.47 2.0192 245.00 0.0040816 525.90 543.47 2.0192 2.5138 117.49 136.00 0.14103 27.009 0.095391 245.00 0.0040816 525.90 543.47 2.0192 2.5138 117.49 136.00 0.14103 27.009 0.095391
98.375 637.11 undefined 528.38 546.31 2.0259 245.00 0.0040816 528.38 546.31 2.0259 2.4581 59.819 140.61 0.13631 26.124 0.083890 245.00 0.0040816 528.38 546.31 2.0259 2.4581 59.819 140.61 0.13631 26.124 0.083890
99.375 649.75 undefined 530.81 549.10 2.0325 245.00 0.0040816 530.81 549.10 2.0325 2.4118 40.478 144.82 0.13206 25.684 0.078344 245.00 0.0040816 530.81 549.10 2.0325 2.4118 40.478 144.82 0.13206 25.684 0.078344
100.38 662.50 undefined 533.21 551.85 2.0389 245.00 0.0040816 533.21 551.85 2.0389 2.3736 30.788 148.69 0.12819 25.473 0.074768 245.00 0.0040816 533.21 551.85 2.0389 2.3736 30.788 148.69 0.12819 25.473 0.074768
101.38 675.34 undefined 535.56 554.57 2.0452 245.00 0.0040816 535.56 554.57 2.0452 2.3420 24.971 152.26 0.12462 25.379 0.072178 245.00 0.0040816 535.56 554.57 2.0452 2.3420 24.971 152.26 0.12462 25.379 0.072178
102.38 688.26 undefined 537.89 557.26 2.0514 245.00 0.0040816 537.89 557.26 2.0514 2.3160 21.096 155.57 0.12131 25.345 0.070185 245.00 0.0040816 537.89 557.26 2.0514 2.3160 21.096 155.57 0.12131 25.345 0.070185
103.38 701.24 undefined 540.20 559.93 2.0575 245.00 0.0040816 540.20 559.93 2.0575 2.2946 18.331 158.66 0.11820 25.342 0.068595 245.00 0.0040816 540.20 559.93 2.0575 2.2946 18.331 158.66 0.11820 25.342 0.068595
104.38 714.29 undefined 542.48 562.58 2.0636 245.00 0.0040816 542.48 562.58 2.0636 2.2769 16.262 161.57 0.11527 25.355 0.067295 245.00 0.0040816 542.48 562.58 2.0636 2.2769 16.262 161.57 0.11527 25.355 0.067295
105.38 727.39 undefined 544.75 565.22 2.0696 245.00 0.0040816 544.75 565.22 2.0696 2.2623 14.657 164.33 0.11250 25.377 0.066213 245.00 0.0040816 544.75 565.22 2.0696 2.2623 14.657 164.33 0.11250 25.377 0.066213
106.38 740.54 undefined 547.01 567.85 2.0755 245.00 0.0040816 547.01 567.85 2.0755 2.2501 13.377 166.96 0.10986 25.402 0.065300 245.00 0.0040816 547.01 567.85 2.0755 2.2501 13.377 166.96 0.10986 25.402 0.065300
107.38 753.74 undefined 549.25 570.47 2.0814 245.00 0.0040816 549.25 570.47 2.0814 2.2399 12.333 169.48 0.10734 25.431 0.064523 245.00 0.0040816 549.25 570.47 2.0814 2.2399 12.333 169.48 0.10734 25.431 0.064523
108.38 766.98 undefined 551.49 573.07 2.0873 245.00 0.0040816 551.49 573.07 2.0873 2.2314 11.465 171.91 0.10493 25.460 0.063855 245.00 0.0040816 551.49 573.07 2.0873 2.2314 11.465 171.91 0.10493 25.460 0.063855
109.38 780.25 undefined 553.72 575.67 2.0931 245.00 0.0040816 553.72 575.67 2.0931 2.2241 10.734 174.26 0.10262 25.491 0.063277 245.00 0.0040816 553.72 575.67 2.0931 2.2241 10.734 174.26 0.10262 25.491 0.063277
110.38 793.57 undefined 555.94 578.27 2.0989 245.00 0.0040816 555.94 578.27 2.0989 2.2180 10.109 176.55 0.10040 25.521 0.062775 245.00 0.0040816 555.94 578.27 2.0989 2.2180 10.109 176.55 0.10040 25.521 0.062775
111.38 806.91 undefined 558.15 580.86 2.1047 245.00 0.0040816 558.15 580.86 2.1047 2.2127 9.5689 178.78 0.098267 25.552 0.062337 245.00 0.0040816 558.15 580.86 2.1047 2.2127 9.5689 178.78 0.098267 25.552 0.062337
112.38 820.29 undefined 560.36 583.45 2.1104 245.00 0.0040816 560.36 583.45 2.1104 2.2082 9.0981 180.96 0.096215 25.583 0.061953 245.00 0.0040816 560.36 583.45 2.1104 2.2082 9.0981 180.96 0.096215 25.583 0.061953
113.38 833.70 undefined 562.57 586.03 2.1162 245.00 0.0040816 562.57 586.03 2.1162 2.2044 8.6840 183.09 0.094238 25.615 0.061617 245.00 0.0040816 562.57 586.03 2.1162 2.2044 8.6840 183.09 0.094238 25.615 0.061617
114.38 847.13 undefined 564.77 588.61 2.1218 245.00 0.0040816 564.77 588.61 2.1218 2.2010 8.3170 185.19 0.092332 25.646 0.061321 245.00 0.0040816 564.77 588.61 2.1218 2.2010 8.3170 185.19 0.092332 25.646 0.061321
115.38 860.59 undefined 566.97 591.19 2.1275 245.00 0.0040816 566.97 591.19 2.1275 2.1982 7.9896 187.25 0.090492 25.677 0.061060 245.00 0.0040816 566.97 591.19 2.1275 2.1982 7.9896 187.25 0.090492 25.677 0.061060
116.38 874.08 undefined 569.17 593.77 2.1332 245.00 0.0040816 569.17 593.77 2.1332 2.1957 7.6958 189.27 0.088714 25.708 0.060831 245.00 0.0040816 569.17 593.77 2.1332 2.1957 7.6958 189.27 0.088714 25.708 0.060831
117.38 887.59 undefined 571.36 596.34 2.1388 245.00 0.0040816 571.36 596.34 2.1388 2.1937 7.4308 191.26 0.086996 25.739 0.060629 245.00 0.0040816 571.36 596.34 2.1388 2.1937 7.4308 191.26 0.086996 25.739 0.060629
118.38 901.13 undefined 573.56 598.92 2.1444 245.00 0.0040816 573.56 598.92 2.1444 2.1919 7.1905 193.23 0.085334 25.771 0.060452 245.00 0.0040816 573.56 598.92 2.1444 2.1919 7.1905 193.23 0.085334 25.771 0.060452
119.38 914.68 undefined 575.75 601.49 2.1500 245.00 0.0040816 575.75 601.49 2.1500 2.1905 6.9717 195.16 0.083726 25.802 0.060296 245.00 0.0040816 575.75 601.49 2.1500 2.1905 6.9717 195.16 0.083726 25.802 0.060296
120.38 928.26 undefined 577.94 604.06 2.1556 245.00 0.0040816 577.94 604.06 2.1556 2.1893 6.7716 197.07 0.082167 25.833 0.060160 245.00 0.0040816 577.94 604.06 2.1556 2.1893 6.7716 197.07 0.082167 25.833 0.060160
121.38 941.86 undefined 580.13 606.63 2.1611 245.00 0.0040816 580.13 606.63 2.1611 2.1883 6.5881 198.95 0.080657 25.864 0.060042 245.00 0.0040816 580.13 606.63 2.1611 2.1883 6.5881 198.95 0.080657 25.864 0.060042
122.38 955.47 undefined 582.31 609.20 2.1666 245.00 0.0040816 582.31 609.20 2.1666 2.1876 6.4191 200.81 0.079192 25.895 0.059939 245.00 0.0040816 582.31 609.20 2.1666 2.1876 6.4191 200.81 0.079192 25.895 0.059939
123.38 969.11 undefined 584.50 611.77 2.1722 245.00 0.0040816 584.50 611.77 2.1722 2.1872 6.2631 202.65 0.077771 25.926 0.059851 245.00 0.0040816 584.50 611.77 2.1722 2.1872 6.2631 202.65 0.077771 25.926 0.059851
124.38 982.76 undefined 586.69 614.34 2.1777 245.00 0.0040816 586.69 614.34 2.1777 2.1869 6.1186 204.47 0.076391 25.957 0.059776 245.00 0.0040816 586.69 614.34 2.1777 2.1869 6.1186 204.47 0.076391 25.957 0.059776
125.38 996.43 undefined 588.88 616.92 2.1832 245.00 0.0040816 588.88 616.92 2.1832 2.1868 5.9845 206.27 0.075051 25.988 0.059712 245.00 0.0040816 588.88 616.92 2.1832 2.1868 5.9845 206.27 0.075051 25.988 0.059712
126.38 1010.1 undefined 591.06 619.49 2.1887 245.00 0.0040816 591.06 619.49 2.1887 2.1869 5.8596 208.04 0.073749 26.019 0.059660 245.00 0.0040816 591.06 619.49 2.1887 2.1869 5.8596 208.04 0.073749 26.019 0.059660
127.38 1023.8 undefined 593.25 622.06 2.1941 245.00 0.0040816 593.25 622.06 2.1941 2.1872 5.7432 209.80 0.072483 26.050 0.059617 245.00 0.0040816 593.25 622.06 2.1941 2.1872 5.7432 209.80 0.072483 26.050 0.059617
128.38 1037.5 undefined 595.44 624.63 2.1996 245.00 0.0040816 595.44 624.63 2.1996 2.1876 5.6343 211.54 0.071251 26.081 0.059583 245.00 0.0040816 595.44 624.63 2.1996 2.1876 5.6343 211.54 0.071251 26.081 0.059583
129.38 1051.3 undefined 597.62 627.21 2.2050 245.00 0.0040816 597.62 627.21 2.2050 2.1881 5.5323 213.26 0.070053 26.112 0.059558 245.00 0.0040816 597.62 627.21 2.2050 2.1881 5.5323 213.26 0.070053 26.112 0.059558
130.38 1065.0 undefined 599.81 629.78 2.2104 245.00 0.0040816 599.81 629.78 2.2104 2.1888 5.4367 214.96 0.068886 26.143 0.059541 245.00 0.0040816 599.81 629.78 2.2104 2.1888 5.4367 214.96 0.068886 26.143 0.059541
131.38 1078.8 undefined 602.00 632.36 2.2159 245.00 0.0040816 602.00 632.36 2.2159 2.1897 5.3467 216.65 0.067750 26.174 0.059530 245.00 0.0040816 602.00 632.36 2.2159 2.1897 5.3467 216.65 0.067750 26.174 0.059530
132.38 1092.5 undefined 604.19 634.94 2.2213 245.00 0.0040816 604.19 634.94 2.2213 2.1906 5.2621 218.32 0.066643 26.204 0.059527 245.00 0.0040816 604.19 634.94 2.2213 2.1906 5.2621 218.32 0.066643 26.204 0.059527
133.38 1106.3 undefined 606.38 637.52 2.2267 245.00 0.0040816 606.38 637.52 2.2267 2.1917 5.1822 219.97 0.065564 26.235 0.059529 245.00 0.0040816 606.38 637.52 2.2267 2.1917 5.1822 219.97 0.065564 26.235 0.059529
134.38 1120.1 undefined 608.58 640.10 2.2321 245.00 0.0040816 608.58 640.10 2.2321 2.1929 5.1069 221.62 0.064513 26.266 0.059537 245.00 0.0040816 608.58 640.10 2.2321 2.1929 5.1069 221.62 0.064513 26.266 0.059537
135.38 1133.9 undefined 610.77 642.68 2.2374 245.00 0.0040816 610.77 642.68 2.2374 2.1942 5.0356 223.24 0.063487 26.297 0.059551 245.00 0.0040816 610.77 642.68 2.2374 2.1942 5.0356 223.24 0.063487 26.297 0.059551
136.38 1147.7 undefined 612.96 645.26 2.2428 245.00 0.0040816 612.96 645.26 2.2428 2.1956 4.9681 224.86 0.062487 26.327 0.059569 245.00 0.0040816 612.96 645.26 2.2428 2.1956 4.9681 224.86 0.062487 26.327 0.059569
137.38 1161.5 undefined 615.16 647.85 2.2482 245.00 0.0040816 615.16 647.85 2.2482 2.1971 4.9042 226.45 0.061510 26.358 0.059592 245.00 0.0040816 615.16 647.85 2.2482 2.1971 4.9042 226.45 0.061510 26.358 0.059592
138.38 1175.4 undefined 617.36 650.44 2.2535 245.00 0.0040816 617.36 650.44 2.2535 2.1986 4.8435 228.04 0.060557 26.388 0.059620 245.00 0.0040816 617.36 650.44 2.2535 2.1986 4.8435 228.04 0.060557 26.388 0.059620
139.38 1189.2 undefined 619.56 653.02 2.2588 245.00 0.0040816 619.56 653.02 2.2588 2.2003 4.7859 229.61 0.059627 26.419 0.059652 245.00 0.0040816 619.56 653.02 2.2588 2.2003 4.7859 229.61 0.059627 26.419 0.059652
140.38 1203.1 undefined 621.76 655.62 2.2642 245.00 0.0040816 621.76 655.62 2.2642 2.2020 4.7311 231.18 0.058718 26.449 0.059687 245.00 0.0040816 621.76 655.62 2.2642 2.2020 4.7311 231.18 0.058718 26.449 0.059687
141.38 1216.9 undefined 623.96 658.21 2.2695 245.00 0.0040816 623.96 658.21 2.2695 2.2039 4.6789 232.73 0.057831 26.480 0.059726 245.00 0.0040816 623.96 658.21 2.2695 2.2039 4.6789 232.73 0.057831 26.480 0.059726
142.38 1230.8 undefined 626.17 660.80 2.2748 245.00 0.0040816 626.17 660.80 2.2748 2.2057 4.6292 234.26 0.056963 26.510 0.059769 245.00 0.0040816 626.17 660.80 2.2748 2.2057 4.6292 234.26 0.056963 26.510 0.059769
143.38 1244.7 undefined 628.37 663.40 2.2801 245.00 0.0040816 628.37 663.40 2.2801 2.2077 4.5818 235.79 0.056115 26.541 0.059815 245.00 0.0040816 628.37 663.40 2.2801 2.2077 4.5818 235.79 0.056115 26.541 0.059815
144.38 1258.6 undefined 630.58 666.00 2.2854 245.00 0.0040816 630.58 666.00 2.2854 2.2097 4.5366 237.31 0.055287 26.571 0.059864 245.00 0.0040816 630.58 666.00 2.2854 2.2097 4.5366 237.31 0.055287 26.571 0.059864
145.38 1272.5 undefined 632.79 668.60 2.2907 245.00 0.0040816 632.79 668.60 2.2907 2.2118 4.4934 238.81 0.054476 26.601 0.059916 245.00 0.0040816 632.79 668.60 2.2907 2.2118 4.4934 238.81 0.054476 26.601 0.059916
146.38 1286.4 undefined 635.01 671.21 2.2960 245.00 0.0040816 635.01 671.21 2.2960 2.2139 4.4521 240.31 0.053684 26.632 0.059970 245.00 0.0040816 635.01 671.21 2.2960 2.2139 4.4521 240.31 0.053684 26.632 0.059970
147.38 1300.3 undefined 637.22 673.81 2.3012 245.00 0.0040816 637.22 673.81 2.3012 2.2161 4.4125 241.79 0.052908 26.662 0.060028 245.00 0.0040816 637.22 673.81 2.3012 2.2161 4.4125 241.79 0.052908 26.662 0.060028
148.38 1314.2 undefined 639.44 676.42 2.3065 245.00 0.0040816 639.44 676.42 2.3065 2.2183 4.3747 243.27 0.052149 26.692 0.060087 245.00 0.0040816 639.44 676.42 2.3065 2.2183 4.3747 243.27 0.052149 26.692 0.060087
149.38 1328.2 undefined 641.66 679.03 2.3118 245.00 0.0040816 641.66 679.03 2.3118 2.2206 4.3385 244.73 0.051407 26.722 0.060150 245.00 0.0040816 641.66 679.03 2.3118 2.2206 4.3385 244.73 0.051407 26.722 0.060150
150.38 1342.1 undefined 643.88 681.65 2.3170 245.00 0.0040816 643.88 681.65 2.3170 2.2229 4.3038 246.19 0.050680 26.752 0.060214 245.00 0.0040816 643.88 681.65 2.3170 2.2229 4.3038 246.19 0.050680 26.752 0.060214
151.38 1356.0 undefined 646.10 684.26 2.3223 245.00 0.0040816 646.10 684.26 2.3223 2.2253 4.2705 247.63 0.049968 26.782 0.060280 245.00 0.0040816 646.10 684.26 2.3223 2.2253 4.2705 247.63 0.049968 26.782 0.060280
152.38 1370.0 undefined 648.33 686.88 2.3275 245.00 0.0040816 648.33 686.88 2.3275 2.2277 4.2385 249.07 0.049271 26.813 0.060349 245.00 0.0040816 648.33 686.88 2.3275 2.2277 4.2385 249.07 0.049271 26.813 0.060349
153.38 1383.9 undefined 650.56 689.50 2.3327 245.00 0.0040816 650.56 689.50 2.3327 2.2302 4.2078 250.50 0.048588 26.843 0.060419 245.00 0.0040816 650.56 689.50 2.3327 2.2302 4.2078 250.50 0.048588 26.843 0.060419
154.38 1397.9 undefined 652.79 692.13 2.3380 245.00 0.0040816 652.79 692.13 2.3380 2.2327 4.1783 251.92 0.047919 26.873 0.060492 245.00 0.0040816 652.79 692.13 2.3380 2.2327 4.1783 251.92 0.047919 26.873 0.060492
155.38 1411.8 undefined 655.02 694.76 2.3432 245.00 0.0040816 655.02 694.76 2.3432 2.2352 4.1500 253.33 0.047264 26.903 0.060566 245.00 0.0040816 655.02 694.76 2.3432 2.2352 4.1500 253.33 0.047264 26.903 0.060566
156.38 1425.8 undefined 657.26 697.38 2.3484 245.00 0.0040816 657.26 697.38 2.3484 2.2377 4.1227 254.74 0.046622 26.932 0.060642 245.00 0.0040816 657.26 697.38 2.3484 2.2377 4.1227 254.74 0.046622 26.932 0.060642
157.38 1439.8 undefined 659.50 700.02 2.3536 245.00 0.0040816 659.50 700.02 2.3536 2.2403 4.0965 256.13 0.045992 26.962 0.060720 245.00 0.0040816 659.50 700.02 2.3536 2.2403 4.0965 256.13 0.045992 26.962 0.060720
158.38 1453.8 undefined 661.74 702.65 2.3588 245.00 0.0040816 661.74 702.65 2.3588 2.2429 4.0712 257.52 0.045375 26.992 0.060799 245.00 0.0040816 661.74 702.65 2.3588 2.2429 4.0712 257.52 0.045375 26.992 0.060799
159.38 1467.7 undefined 663.99 705.29 2.3640 245.00 0.0040816 663.99 705.29 2.3640 2.2456 4.0469 258.90 0.044770 27.022 0.060880 245.00 0.0040816 663.99 705.29 2.3640 2.2456 4.0469 258.90 0.044770 27.022 0.060880
160.38 1481.7 undefined 666.23 707.93 2.3692 245.00 0.0040816 666.23 707.93 2.3692 2.2483 4.0234 260.28 0.044177 27.052 0.060962 245.00 0.0040816 666.23 707.93 2.3692 2.2483 4.0234 260.28 0.044177 27.052 0.060962
161.38 1495.7 undefined 668.48 710.57 2.3744 245.00 0.0040816 668.48 710.57 2.3744 2.2510 4.0009 261.64 0.043595 27.082 0.061045 245.00 0.0040816 668.48 710.57 2.3744 2.2510 4.0009 261.64 0.043595 27.082 0.061045
162.38 1509.7 undefined 670.73 713.22 2.3796 245.00 0.0040816 670.73 713.22 2.3796 2.2537 3.9791 263.00 0.043024 27.111 0.061130 245.00 0.0040816 670.73 713.22 2.3796 2.2537 3.9791 263.00 0.043024 27.111 0.061130
163.38 1523.7 undefined 672.99 715.87 2.3847 245.00 0.0040816 672.99 715.87 2.3847 2.2564 3.9581 264.35 0.042464 27.141 0.061217 245.00 0.0040816 672.99 715.87 2.3847 2.2564 3.9581 264.35 0.042464 27.141 0.061217
164.38 1537.7 undefined 675.25 718.52 2.3899 245.00 0.0040816 675.25 718.52 2.3899 2.2592 3.9378 265.70 0.041914 27.171 0.061304 245.00 0.0040816 675.25 718.52 2.3899 2.2592 3.9378 265.70 0.041914 27.171 0.061304
165.38 1551.7 undefined 677.51 721.18 2.3951 245.00 0.0040816 677.51 721.18 2.3951 2.2620 3.9182 267.03 0.041375 27.200 0.061393 245.00 0.0040816 677.51 721.18 2.3951 2.2620 3.9182 267.03 0.041375 27.200 0.061393
166.38 1565.7 undefined 679.77 723.83 2.4002 245.00 0.0040816 679.77 723.83 2.4002 2.2648 3.8993 268.36 0.040845 27.230 0.061483 245.00 0.0040816 679.77 723.83 2.4002 2.2648 3.8993 268.36 0.040845 27.230 0.061483
167.38 1579.8 undefined 682.04 726.49 2.4054 245.00 0.0040816 682.04 726.49 2.4054 2.2677 3.8811 269.69 0.040325 27.260 0.061574 245.00 0.0040816 682.04 726.49 2.4054 2.2677 3.8811 269.69 0.040325 27.260 0.061574
168.38 1593.8 undefined 684.31 729.16 2.4105 245.00 0.0040816 684.31 729.16 2.4105 2.2705 3.8634 271.00 0.039815 27.289 0.061667 245.00 0.0040816 684.31 729.16 2.4105 2.2705 3.8634 271.00 0.039815 27.289 0.061667
169.38 1607.8 undefined 686.58 731.82 2.4156 245.00 0.0040816 686.58 731.82 2.4156 2.2734 3.8464 272.31 0.039314 27.319 0.061760 245.00 0.0040816 686.58 731.82 2.4156 2.2734 3.8464 272.31 0.039314 27.319 0.061760
170.38 1621.8 undefined 688.85 734.49 2.4208 245.00 0.0040816 688.85 734.49 2.4208 2.2763 3.8299 273.62 0.038821 27.348 0.061854 245.00 0.0040816 688.85 734.49 2.4208 2.2763 3.8299 273.62 0.038821 27.348 0.061854
171.38 1635.9 undefined 691.13 737.17 2.4259 245.00 0.0040816 691.13 737.17 2.4259 2.2792 3.8139 274.92 0.038338 27.378 0.061950 245.00 0.0040816 691.13 737.17 2.4259 2.2792 3.8139 274.92 0.038338 27.378 0.061950
172.38 1649.9 undefined 693.41 739.84 2.4310 245.00 0.0040816 693.41 739.84 2.4310 2.2821 3.7985 276.21 0.037863 27.407 0.062046 245.00 0.0040816 693.41 739.84 2.4310 2.2821 3.7985 276.21 0.037863 27.407 0.062046
173.38 1663.9 undefined 695.69 742.52 2.4362 245.00 0.0040816 695.69 742.52 2.4362 2.2850 3.7836 277.49 0.037396 27.436 0.062143 245.00 0.0040816 695.69 742.52 2.4362 2.2850 3.7836 277.49 0.037396 27.436 0.062143
174.38 1678.0 undefined 697.98 745.20 2.4413 245.00 0.0040816 697.98 745.20 2.4413 2.2880 3.7692 278.77 0.036938 27.466 0.062242 245.00 0.0040816 697.98 745.20 2.4413 2.2880 3.7692 278.77 0.036938 27.466 0.062242
175.38 1692.0 undefined 700.27 747.89 2.4464 245.00 0.0040816 700.27 747.89 2.4464 2.2910 3.7552 280.05 0.036487 27.495 0.062341 245.00 0.0040816 700.27 747.89 2.4464 2.2910 3.7552 280.05 0.036487 27.495 0.062341
176.38 1706.1 undefined 702.56 750.58 2.4515 245.00 0.0040816 702.56 750.58 2.4515 2.2939 3.7417 281.32 0.036044 27.524 0.062441 245.00 0.0040816 702.56 750.58 2.4515 2.2939 3.7417 281.32 0.036044 27.524 0.062441
177.38 1720.1 undefined 704.86 753.27 2.4566 245.00 0.0040816 704.86 753.27 2.4566 2.2969 3.7286 282.58 0.035609 27.554 0.062542 245.00 0.0040816 704.86 753.27 2.4566 2.2969 3.7286 282.58 0.035609 27.554 0.062542
178.38 1734.2 undefined 707.16 755.96 2.4617 245.00 0.0040816 707.16 755.96 2.4617 2.2999 3.7159 283.84 0.035181 27.583 0.062644 245.00 0.0040816 707.16 755.96 2.4617 2.2999 3.7159 283.84 0.035181 27.583 0.062644
179.38 1748.2 undefined 709.46 758.66 2.4668 245.00 0.0040816 709.46 758.66 2.4668 2.3030 3.7036 285.09 0.034760 27.612 0.062747 245.00 0.0040816 709.46 758.66 2.4668 2.3030 3.7036 285.09 0.034760 27.612 0.062747
180.38 1762.3 undefined 711.76 761.36 2.4719 245.00 0.0040816 711.76 761.36 2.4719 2.3060 3.6917 286.33 0.034346 27.641 0.062850 245.00 0.0040816 711.76 761.36 2.4719 2.3060 3.6917 286.33 0.034346 27.641 0.062850
181.38 1776.3 undefined 714.07 764.06 2.4769 245.00 0.0040816 714.07 764.06 2.4769 2.3090 3.6802 287.57 0.033939 27.670 0.062954 245.00 0.0040816 714.07 764.06 2.4769 2.3090 3.6802 287.57 0.033939 27.670 0.062954
182.38 1790.4 undefined 716.38 766.77 2.4820 245.00 0.0040816 716.38 766.77 2.4820 2.3121 3.6690 288.81 0.033538 27.699 0.063059 245.00 0.0040816 716.38 766.77 2.4820 2.3121 3.6690 288.81 0.033538 27.699 0.063059
183.38 1804.4 undefined 718.69 769.48 2.4871 245.00 0.0040816 718.69 769.48 2.4871 2.3151 3.6581 290.04 0.033145 27.728 0.063165 245.00 0.0040816 718.69 769.48 2.4871 2.3151 3.6581 290.04 0.033145 27.728 0.063165
184.38 1818.5 undefined 721.01 772.19 2.4922 245.00 0.0040816 721.01 772.19 2.4922 2.3182 3.6476 291.26 0.032757 27.757 0.063271 245.00 0.0040816 721.01 772.19 2.4922 2.3182 3.6476 291.26 0.032757 27.757 0.063271
185.38 1832.6 undefined 723.33 774.90 2.4972 245.00 0.0040816 723.33 774.90 2.4972 2.3213 3.6374 292.48 0.032376 27.786 0.063378 245.00 0.0040816 723.33 774.90 2.4972 2.3213 3.6374 292.48 0.032376 27.786 0.063378
186.38 1846.6 undefined 725.65 777.62 2.5023 245.00 0.0040816 725.65 777.62 2.5023 2.3244 3.6275 293.70 0.032001 27.815 0.063486 245.00 0.0040816 725.65 777.62 2.5023 2.3244 3.6275 293.70 0.032001 27.815 0.063486
187.38 1860.7 undefined 727.98 780.34 2.5073 245.00 0.0040816 727.98 780.34 2.5073 2.3274 3.6180 294.91 0.031632 27.844 0.063595 245.00 0.0040816 727.98 780.34 2.5073 2.3274 3.6180 294.91 0.031632 27.844 0.063595
188.38 1874.8 undefined 730.31 783.07 2.5124 245.00 0.0040816 730.31 783.07 2.5124 2.3306 3.6087 296.11 0.031268 27.873 0.063704 245.00 0.0040816 730.31 783.07 2.5124 2.3306 3.6087 296.11 0.031268 27.873 0.063704
189.38 1888.9 undefined 732.64 785.80 2.5174 245.00 0.0040816 732.64 785.80 2.5174 2.3337 3.5997 297.31 0.030911 27.902 0.063814 245.00 0.0040816 732.64 785.80 2.5174 2.3337 3.5997 297.31 0.030911 27.902 0.063814
190.38 1902.9 undefined 734.98 788.53 2.5225 245.00 0.0040816 734.98 788.53 2.5225 2.3368 3.5909 298.51 0.030559 27.931 0.063924 245.00 0.0040816 734.98 788.53 2.5225 2.3368 3.5909 298.51 0.030559 27.931 0.063924
191.38 1917.0 undefined 737.31 791.26 2.5275 245.00 0.0040816 737.31 791.26 2.5275 2.3399 3.5824 299.70 0.030212 27.960 0.064035 245.00 0.0040816 737.31 791.26 2.5275 2.3399 3.5824 299.70 0.030212 27.960 0.064035
192.38 1931.1 undefined 739.66 794.00 2.5326 245.00 0.0040816 739.66 794.00 2.5326 2.3430 3.5742 300.88 0.029871 27.988 0.064147 245.00 0.0040816 739.66 794.00 2.5326 2.3430 3.5742 300.88 0.029871 27.988 0.064147
193.38 1945.2 undefined 742.00 796.74 2.5376 245.00 0.0040816 742.00 796.74 2.5376 2.3462 3.5662 302.06 0.029535 28.017 0.064259 245.00 0.0040816 742.00 796.74 2.5376 2.3462 3.5662 302.06 0.029535 28.017 0.064259
194.38 1959.2 undefined 744.35 799.49 2.5426 245.00 0.0040816 744.35 799.49 2.5426 2.3493 3.5585 303.24 0.029204 28.046 0.064372 245.00 0.0040816 744.35 799.49 2.5426 2.3493 3.5585 303.24 0.029204 28.046 0.064372
195.38 1973.3 undefined 746.70 802.23 2.5476 245.00 0.0040816 746.70 802.23 2.5476 2.3525 3.5509 304.41 0.028878 28.075 0.064486 245.00 0.0040816 746.70 802.23 2.5476 2.3525 3.5509 304.41 0.028878 28.075 0.064486
196.38 1987.4 undefined 749.05 804.98 2.5527 245.00 0.0040816 749.05 804.98 2.5527 2.3556 3.5436 305.58 0.028557 28.103 0.064600 245.00 0.0040816 749.05 804.98 2.5527 2.3556 3.5436 305.58 0.028557 28.103 0.064600
197.38 2001.5 undefined 751.41 807.74 2.5577 245.00 0.0040816 751.41 807.74 2.5577 2.3588 3.5366 306.74 0.028240 28.132 0.064715 245.00 0.0040816 751.41 807.74 2.5577 2.3588 3.5366 306.74 0.028240 28.132 0.064715
198.38 2015.6 undefined 753.77 810.49 2.5627 245.00 0.0040816 753.77 810.49 2.5627 2.3620 3.5297 307.90 0.027929 28.160 0.064830 245.00 0.0040816 753.77 810.49 2.5627 2.3620 3.5297 307.90 0.027929 28.160 0.064830
199.38 2029.7 undefined 756.13 813.25 2.5677 245.00 0.0040816 756.13 813.25 2.5677 2.3652 3.5230 309.05 0.027622 28.189 0.064946 245.00 0.0040816 756.13 813.25 2.5677 2.3652 3.5230 309.05 0.027622 28.189 0.064946
200.38 2043.7 undefined 758.50 816.02 2.5727 245.00 0.0040816 758.50 816.02 2.5727 2.3683 3.5166 310.20 0.027320 28.217 0.065062 245.00 0.0040816 758.50 816.02 2.5727 2.3683 3.5166 310.20 0.027320 28.217 0.065062
201.38 2057.8 undefined 760.87 818.78 2.5777 245.00 0.0040816 760.87 818.78 2.5777 2.3715 3.5103 311.34 0.027022 28.246 0.065179 245.00 0.0040816 760.87 818.78 2.5777 2.3715 3.5103 311.34 0.027022 28.246 0.065179
202.38 2071.9 undefined 763.24 821.55 2.5827 245.00 0.0040816 763.24 821.55 2.5827 2.3747 3.5042 312.48 0.026728 28.274 0.065296 245.00 0.0040816 763.24 821.55 2.5827 2.3747 3.5042 312.48 0.026728 28.274 0.065296
203.38 2086.0 undefined 765.62 824.32 2.5877 245.00 0.0040816 765.62 824.32 2.5877 2.3779 3.4983 313.62 0.026438 28.303 0.065414 245.00 0.0040816 765.62 824.32 2.5877 2.3779 3.4983 313.62 0.026438 28.303 0.065414
204.38 2100.1 undefined 768.00 827.10 2.5927 245.00 0.0040816 768.00 827.10 2.5927 2.3811 3.4925 314.75 0.026153 28.331 0.065532 245.00 0.0040816 768.00 827.10 2.5927 2.3811 3.4925 314.75 0.026153 28.331 0.065532
205.38 2114.2 undefined 770.38 829.88 2.5977 245.00 0.0040816 770.38 829.88 2.5977 2.3843 3.4870 315.88 0.025872 28.360 0.065651 245.00 0.0040816 770.38 829.88 2.5977 2.3843 3.4870 315.88 0.025872 28.360 0.065651
206.38 2128.3 undefined 772.77 832.66 2.6026 245.00 0.0040816 772.77 832.66 2.6026 2.3875 3.4816 317.00 0.025594 28.388 0.065770 245.00 0.0040816 772.77 832.66 2.6026 2.3875 3.4816 317.00 0.025594 28.388 0.065770
207.38 2142.4 undefined 775.16 835.45 2.6076 245.00 0.0040816 775.16 835.45 2.6076 2.3908 3.4764 318.12 0.025321 28.416 0.065890 245.00 0.0040816 775.16 835.45 2.6076 2.3908 3.4764 318.12 0.025321 28.416 0.065890
208.38 2156.5 undefined 777.55 838.24 2.6126 245.00 0.0040816 777.55 838.24 2.6126 2.3940 3.4713 319.24 0.025052 28.444 0.066010 245.00 0.0040816 777.55 838.24 2.6126 2.3940 3.4713 319.24 0.025052 28.444 0.066010
209.38 2170.5 undefined 779.95 841.03 2.6176 245.00 0.0040816 779.95 841.03 2.6176 2.3972 3.4663 320.35 0.024786 28.473 0.066131 245.00 0.0040816 779.95 841.03 2.6176 2.3972 3.4663 320.35 0.024786 28.473 0.066131
210.38 2184.6 undefined 782.34 843.82 2.6225 245.00 0.0040816 782.34 843.82 2.6225 2.4004 3.4616 321.46 0.024524 28.501 0.066252 245.00 0.0040816 782.34 843.82 2.6225 2.4004 3.4616 321.46 0.024524 28.501 0.066252
211.38 2198.7 undefined 784.75 846.62 2.6275 245.00 0.0040816 784.75 846.62 2.6275 2.4037 3.4569 322.57 0.024265 28.529 0.066373 245.00 0.0040816 784.75 846.62 2.6275 2.4037 3.4569 322.57 0.024265 28.529 0.066373
212.38 2212.8 undefined 787.15 849.42 2.6324 245.00 0.0040816 787.15 849.42 2.6324 2.4069 3.4524 323.67 0.024010 28.557 0.066495 245.00 0.0040816 787.15 849.42 2.6324 2.4069 3.4524 323.67 0.024010 28.557 0.066495
213.38 2226.9 undefined 789.56 852.23 2.6374 245.00 0.0040816 789.56 852.23 2.6374 2.4101 3.4481 324.76 0.023759 28.585 0.066618 245.00 0.0040816 789.56 852.23 2.6374 2.4101 3.4481 324.76 0.023759 28.585 0.066618
214.38 2241.0 undefined 791.97 855.04 2.6424 245.00 0.0040816 791.97 855.04 2.6424 2.4134 3.4439 325.86 0.023511 28.613 0.066741 245.00 0.0040816 791.97 855.04 2.6424 2.4134 3.4439 325.86 0.023511 28.613 0.066741
215.38 2255.1 undefined 794.39 857.85 2.6473 245.00 0.0040816 794.39 857.85 2.6473 2.4166 3.4398 326.94 0.023266 28.642 0.066864 245.00 0.0040816 794.39 857.85 2.6473 2.4166 3.4398 326.94 0.023266 28.642 0.066864
216.38 2269.2 undefined 796.81 860.66 2.6522 245.00 0.0040816 796.81 860.66 2.6522 2.4199 3.4358 328.03 0.023025 28.670 0.066988 245.00 0.0040816 796.81 860.66 2.6522 2.4199 3.4358 328.03 0.023025 28.670 0.066988
217.38 2283.3 undefined 799.23 863.48 2.6572 245.00 0.0040816 799.23 863.48 2.6572 2.4231 3.4320 329.11 0.022787 28.698 0.067112 245.00 0.0040816 799.23 863.48 2.6572 2.4231 3.4320 329.11 0.022787 28.698 0.067112
218.38 2297.4 undefined 801.65 866.30 2.6621 245.00 0.0040816 801.65 866.30 2.6621 2.4264 3.4283 330.19 0.022552 28.725 0.067237 245.00 0.0040816 801.65 866.30 2.6621 2.4264 3.4283 330.19 0.022552 28.725 0.067237
219.38 2311.5 undefined 804.08 869.13 2.6671 245.00 0.0040816 804.08 869.13 2.6671 2.4296 3.4247 331.26 0.022320 28.753 0.067362 245.00 0.0040816 804.08 869.13 2.6671 2.4296 3.4247 331.26 0.022320 28.753 0.067362
220.38 2325.6 undefined 806.51 871.96 2.6720 245.00 0.0040816 806.51 871.96 2.6720 2.4329 3.4212 332.33 0.022091 28.781 0.067487 245.00 0.0040816 806.51 871.96 2.6720 2.4329 3.4212 332.33 0.022091 28.781 0.067487
221.38 2339.6 undefined 808.95 874.79 2.6769 245.00 0.0040816 808.95 874.79 2.6769 2.4361 3.4178 333.40 0.021865 28.809 0.067613 245.00 0.0040816 808.95 874.79 2.6769 2.4361 3.4178 333.40 0.021865 28.809 0.067613
222.38 2353.7 undefined 811.38 877.62 2.6818 245.00 0.0040816 811.38 877.62 2.6818 2.4394 3.4145 334.47 0.021642 28.837 0.067739 245.00 0.0040816 811.38 877.62 2.6818 2.4394 3.4145 334.47 0.021642 28.837 0.067739
223.38 2367.8 undefined 813.82 880.46 2.6868 245.00 0.0040816 813.82 880.46 2.6868 2.4427 3.4114 335.53 0.021422 28.865 0.067865 245.00 0.0040816 813.82 880.46 2.6868 2.4427 3.4114 335.53 0.021422 28.865 0.067865
224.38 2381.9 undefined 816.27 883.30 2.6917 245.00 0.0040816 816.27 883.30 2.6917 2.4460 3.4083 336.58 0.021205 28.893 0.067992 245.00 0.0040816 816.27 883.30 2.6917 2.4460 3.4083 336.58 0.021205 28.893 0.067992
225.38 2396.0 undefined 818.72 886.14 2.6966 245.00 0.0040816 818.72 886.14 2.6966 2.4492 3.4054 337.64 0.020991 28.920 0.068119 245.00 0.0040816 818.72 886.14 2.6966 2.4492 3.4054 337.64 0.020991 28.920 0.068119
226.38 2410.1 undefined 821.17 888.99 2.7015 245.00 0.0040816 821.17 888.99 2.7015 2.4525 3.4025 338.69 0.020779 28.948 0.068247 245.00 0.0040816 821.17 888.99 2.7015 2.4525 3.4025 338.69 0.020779 28.948 0.068247
227.38 2424.2 undefined 823.62 891.84 2.7064 245.00 0.0040816 823.62 891.84 2.7064 2.4558 3.3998 339.73 0.020571 28.976 0.068375 245.00 0.0040816 823.62 891.84 2.7064 2.4558 3.3998 339.73 0.020571 28.976 0.068375
228.38 2438.3 undefined 826.08 894.70 2.7113 245.00 0.0040816 826.08 894.70 2.7113 2.4590 3.3971 340.78 0.020364 29.003 0.068503 245.00 0.0040816 826.08 894.70 2.7113 2.4590 3.3971 340.78 0.020364 29.003 0.068503
229.38 2452.4 undefined 828.54 897.55 2.7162 245.00 0.0040816 828.54 897.55 2.7162 2.4623 3.3945 341.82 0.020161 29.031 0.068631 245.00 0.0040816 828.54 897.55 2.7162 2.4623 3.3945 341.82 0.020161 29.031 0.068631
230.38 2466.5 undefined 831.00 900.41 2.7211 245.00 0.0040816 831.00 900.41 2.7211 2.4656 3.3920 342.85 0.019960 29.059 0.068760 245.00 0.0040816 831.00 900.41 2.7211 2.4656 3.3920 342.85 0.019960 29.059 0.068760
231.38 2480.6 undefined 833.47 903.28 2.7260 245.00 0.0040816 833.47 903.28 2.7260 2.4689 3.3896 343.89 0.019761 29.086 0.068890 245.00 0.0040816 833.47 903.28 2.7260 2.4689 3.3896 343.89 0.019761 29.086 0.068890
232.38 2494.6 undefined 835.94 906.15 2.7309 245.00 0.0040816 835.94 906.15 2.7309 2.4722 3.3873 344.92 0.019565 29.114 0.069019 245.00 0.0040816 835.94 906.15 2.7309 2.4722 3.3873 344.92 0.019565 29.114 0.069019
233.38 2508.7 undefined 838.42 909.02 2.7358 245.00 0.0040816 838.42 909.02 2.7358 2.4755 3.3851 345.94 0.019371 29.141 0.069149 245.00 0.0040816 838.42 909.02 2.7358 2.4755 3.3851 345.94 0.019371 29.141 0.069149
234.38 2522.8 undefined 840.89 911.89 2.7407 245.00 0.0040816 840.89 911.89 2.7407 2.4788 3.3830 346.97 0.019180 29.169 0.069279 245.00 0.0040816 840.89 911.89 2.7407 2.4788 3.3830 346.97 0.019180 29.169 0.069279
235.38 2536.9 undefined 843.37 914.77 2.7456 245.00 0.0040816 843.37 914.77 2.7456 2.4820 3.3809 347.99 0.018991 29.196 0.069410 245.00 0.0040816 843.37 914.77 2.7456 2.4820 3.3809 347.99 0.018991 29.196 0.069410
236.38 2551.0 undefined 845.86 917.65 2.7504 245.00 0.0040816 845.86 917.65 2.7504 2.4853 3.3789 349.01 0.018804 29.224 0.069541 245.00 0.0040816 845.86 917.65 2.7504 2.4853 3.3789 349.01 0.018804 29.224 0.069541
237.38 2565.1 undefined 848.34 920.53 2.7553 245.00 0.0040816 848.34 920.53 2.7553 2.4886 3.3770 350.02 0.018620 29.251 0.069672 245.00 0.0040816 848.34 920.53 2.7553 2.4886 3.3770 350.02 0.018620 29.251 0.069672
238.38 2579.2 undefined 850.83 923.42 2.7602 245.00 0.0040816 850.83 923.42 2.7602 2.4919 3.3752 351.03 0.018438 29.278 0.069803 245.00 0.0040816 850.83 923.42 2.7602 2.4919 3.3752 351.03 0.018438 29.278 0.069803
239.38 2593.2 undefined 853.33 926.31 2.7651 245.00 0.0040816 853.33 926.31 2.7651 2.4952 3.3734 352.04 0.018258 29.306 0.069935 245.00 0.0040816 853.33 926.31 2.7651 2.4952 3.3734 352.04 0.018258 29.306 0.069935
240.38 2607.3 undefined 855.82 929.20 2.7699 245.00 0.0040816 855.82 929.20 2.7699 2.4985 3.3717 353.05 0.018080 29.333 0.070067 245.00 0.0040816 855.82 929.20 2.7699 2.4985 3.3717 353.05 0.018080 29.333 0.070067
241.38 2621.4 undefined 858.32 932.10 2.7748 245.00 0.0040816 858.32 932.10 2.7748 2.5018 3.3701 354.05 0.017905 29.360 0.070199 245.00 0.0040816 858.32 932.10 2.7748 2.5018 3.3701 354.05 0.017905 29.360 0.070199
242.38 2635.5 undefined 860.83 935.00 2.7797 245.00 0.0040816 860.83 935.00 2.7797 2.5051 3.3686 355.05 0.017731 29.387 0.070332 245.00 0.0040816 860.83 935.00 2.7797 2.5051 3.3686 355.05 0.017731 29.387 0.070332
243.38 2649.6 undefined 863.33 937.90 2.7845 245.00 0.0040816 863.33 937.90 2.7845 2.5084 3.3671 356.04 0.017560 29.415 0.070464 245.00 0.0040816 863.33 937.90 2.7845 2.5084 3.3671 356.04 0.017560 29.415 0.070464
244.38 2663.6 undefined 865.84 940.80 2.7894 245.00 0.0040816 865.84 940.80 2.7894 2.5117 3.3657 357.04 0.017390 29.442 0.070597 245.00 0.0040816 865.84 940.80 2.7894 2.5117 3.3657 357.04 0.017390 29.442 0.070597
245.38 2677.7 undefined 868.36 943.71 2.7942 245.00 0.0040816 868.36 943.71 2.7942 2.5150 3.3644 358.03 0.017223 29.469 0.070730 245.00 0.0040816 868.36 943.71 2.7942 2.5150 3.3644 358.03 0.017223 29.469 0.070730
246.38 2691.8 undefined 870.87 946.63 2.7991 245.00 0.0040816 870.87 946.63 2.7991 2.5183 3.3631 359.02 0.017057 29.496 0.070864 245.00 0.0040816 870.87 946.63 2.7991 2.5183 3.3631 359.02 0.017057 29.496 0.070864
247.38 2705.9 undefined 873.39 949.54 2.8039 245.00 0.0040816 873.39 949.54 2.8039 2.5216 3.3618 360.00 0.016894 29.523 0.070998 245.00 0.0040816 873.39 949.54 2.8039 2.5216 3.3618 360.00 0.016894 29.523 0.070998
248.38 2720.0 undefined 875.92 952.46 2.8088 245.00 0.0040816 875.92 952.46 2.8088 2.5249 3.3607 360.98 0.016732 29.550 0.071131 245.00 0.0040816 875.92 952.46 2.8088 2.5249 3.3607 360.98 0.016732 29.550 0.071131
249.38 2734.0 undefined 878.44 955.38 2.8136 245.00 0.0040816 878.44 955.38 2.8136 2.5282 3.3596 361.96 0.016572 29.577 0.071265 245.00 0.0040816 878.44 955.38 2.8136 2.5282 3.3596 361.96 0.016572 29.577 0.071265
250.38 2748.1 undefined 880.97 958.31 2.8184 245.00 0.0040816 880.97 958.31 2.8184 2.5315 3.3585 362.94 0.016414 29.604 0.071400 245.00 0.0040816 880.97 958.31 2.8184 2.5315 3.3585 362.94 0.016414 29.604 0.071400
251.38 2762.2 undefined 883.51 961.24 2.8233 245.00 0.0040816 883.51 961.24 2.8233 2.5348 3.3575 363.91 0.016258 29.631 0.071534 245.00 0.0040816 883.51 961.24 2.8233 2.5348 3.3575 363.91 0.016258 29.631 0.071534
252.38 2776.3 undefined 886.04 964.17 2.8281 245.00 0.0040816 886.04 964.17 2.8281 2.5381 3.3566 364.88 0.016104 29.658 0.071669 245.00 0.0040816 886.04 964.17 2.8281 2.5381 3.3566 364.88 0.016104 29.658 0.071669
253.38 2790.3 undefined 888.58 967.11 2.8329 245.00 0.0040816 888.58 967.11 2.8329 2.5414 3.3557 365.85 0.015951 29.685 0.071803 245.00 0.0040816 888.58 967.11 2.8329 2.5414 3.3557 365.85 0.015951 29.685 0.071803
254.38 2804.4 undefined 891.13 970.05 2.8378 245.00 0.0040816 891.13 970.05 2.8378 2.5447 3.3549 366.82 0.015800 29.712 0.071938 245.00 0.0040816 891.13 970.05 2.8378 2.5447 3.3549 366.82 0.015800 29.712 0.071938
255.38 2818.5 undefined 893.67 972.99 2.8426 245.00 0.0040816 893.67 972.99 2.8426 2.5480 3.3541 367.78 0.015651 29.739 0.072073 245.00 0.0040816 893.67 972.99 2.8426 2.5480 3.3541 367.78 0.015651 29.739 0.072073
256.38 2832.5 undefined 896.22 975.93 2.8474 245.00 0.0040816 896.22 975.93 2.8474 2.5513 3.3534 368.74 0.015503 29.766 0.072208 245.00 0.0040816 896.22 975.93 2.8474 2.5513 3.3534 368.74 0.015503 29.766 0.072208
257.38 2846.6 undefined 898.78 978.88 2.8522 245.00 0.0040816 898.78 978.88 2.8522 2.5546 3.3528 369.70 0.015358 29.792 0.072344 245.00 0.0040816 898.78 978.88 2.8522 2.5546 3.3528 369.70 0.015358 29.792 0.072344
258.38 2860.7 undefined 901.33 981.84 2.8570 245.00 0.0040816 901.33 981.84 2.8570 2.5579 3.3521 370.65 0.015213 29.819 0.072479 245.00 0.0040816 901.33 981.84 2.8570 2.5579 3.3521 370.65 0.015213 29.819 0.072479
259.38 2874.7 undefined 903.89 984.79 2.8618 245.00 0.0040816 903.89 984.79 2.8618 2.5612 3.3516 371.60 0.015071 29.846 0.072614 245.00 0.0040816 903.89 984.79 2.8618 2.5612 3.3516 371.60 0.015071 29.846 0.072614
260.38 2888.8 undefined 906.45 987.75 2.8666 245.00 0.0040816 906.45 987.75 2.8666 2.5645 3.3510 372.55 0.014930 29.873 0.072749 245.00 0.0040816 906.45 987.75 2.8666 2.5645 3.3510 372.55 0.014930 29.873 0.072749
261.38 2902.8 undefined 909.02 990.71 2.8714 245.00 0.0040816 909.02 990.71 2.8714 2.5678 3.3506 373.50 0.014790 29.899 0.072885 245.00 0.0040816 909.02 990.71 2.8714 2.5678 3.3506 373.50 0.014790 29.899 0.072885
262.38 2916.9 undefined 911.59 993.68 2.8762 245.00 0.0040816 911.59 993.68 2.8762 2.5711 3.3501 374.44 0.014652 29.926 0.073020 245.00 0.0040816 911.59 993.68 2.8762 2.5711 3.3501 374.44 0.014652 29.926 0.073020
263.38 2931.0 undefined 914.16 996.64 2.8810 245.00 0.0040816 914.16 996.64 2.8810 2.5744 3.3497 375.38 0.014516 29.953 0.073155 245.00 0.0040816 914.16 996.64 2.8810 2.5744 3.3497 375.38 0.014516 29.953 0.073155
264.38 2945.0 undefined 916.74 999.62 2.8858 245.00 0.0040816 916.74 999.62 2.8858 2.5777 3.3494 376.32 0.014381 29.979 0.073290 245.00 0.0040816 916.74 999.62 2.8858 2.5777 3.3494 376.32 0.014381 29.979 0.073290
265.38 2959.1 undefined 919.32 1002.6 2.8906 245.00 0.0040816 919.32 1002.6 2.8906 2.5810 3.3491 377.26 0.014247 30.006 0.073425 245.00 0.0040816 919.32 1002.6 2.8906 2.5810 3.3491 377.26 0.014247 30.006 0.073425
266.38 2973.1 undefined 921.90 1005.6 2.8954 245.00 0.0040816 921.90 1005.6 2.8954 2.5843 3.3488 378.19 0.014115 30.032 0.073560 245.00 0.0040816 921.90 1005.6 2.8954 2.5843 3.3488 378.19 0.014115 30.032 0.073560
267.38 2987.2 undefined 924.49 1008.6 2.9002 245.00 0.0040816 924.49 1008.6 2.9002 2.5876 3.3486 379.13 0.013985 30.059 0.073694 245.00 0.0040816 924.49 1008.6 2.9002 2.5876 3.3486 379.13 0.013985 30.059 0.073694
268.38 3001.2 undefined 927.08 1011.5 2.9050 245.00 0.0040816 927.08 1011.5 2.9050 2.5909 3.3484 380.06 0.013856 30.085 0.073828 245.00 0.0040816 927.08 1011.5 2.9050 2.5909 3.3484 380.06 0.013856 30.085 0.073828
269.38 3015.3 undefined 929.67 1014.5 2.9098 245.00 0.0040816 929.67 1014.5 2.9098 2.5942 3.3483 380.98 0.013728 30.112 0.073962 245.00 0.0040816 929.67 1014.5 2.9098 2.5942 3.3483 380.98 0.013728 30.112 0.073962
270.38 3029.3 undefined 932.26 1017.5 2.9146 245.00 0.0040816 932.26 1017.5 2.9146 2.5975 3.3482 381.91 0.013601 30.138 0.074095 245.00 0.0040816 932.26 1017.5 2.9146 2.5975 3.3482 381.91 0.013601 30.138 0.074095
271.38 3043.4 undefined 934.86 1020.5 2.9193 245.00 0.0040816 934.86 1020.5 2.9193 2.6008 3.3482 382.83 0.013476 30.165 0.074228 245.00 0.0040816 934.86 1020.5 2.9193 2.6008 3.3482 382.83 0.013476 30.165 0.074228
272.38 3057.4 undefined 937.47 1023.5 2.9241 245.00 0.0040816 937.47 1023.5 2.9241 2.6041 3.3481 383.75 0.013353 30.191 0.074359 245.00 0.0040816 937.47 1023.5 2.9241 2.6041 3.3481 383.75 0.013353 30.191 0.074359
273.38 3071.5 undefined 940.07 1026.5 2.9289 245.00 0.0040816 940.07 1026.5 2.9289 2.6074 3.3482 384.67 0.013230 30.217 0.074490 245.00 0.0040816 940.07 1026.5 2.9289 2.6074 3.3482 384.67 0.013230 30.217 0.074490
274.38 3085.5 undefined 942.68 1029.5 2.9337 245.00 0.0040816 942.68 1029.5 2.9337 2.6106 3.3482 385.58 0.013109 30.244 0.074620 245.00 0.0040816 942.68 1029.5 2.9337 2.6106 3.3482 385.58 0.013109 30.244 0.074620
275.38 3099.5 undefined 945.29 1032.5 2.9384 245.00 0.0040816 945.29 1032.5 2.9384 2.6139 3.3483 386.49 0.012989 30.270 0.074748 245.00 0.0040816 945.29 1032.5 2.9384 2.6139 3.3483 386.49 0.012989 30.270 0.074748
276.38 3113.6 undefined 947.91 1035.5 2.9432 245.00 0.0040816 947.91 1035.5 2.9432 2.6172 3.3484 387.40 0.012870 30.296 0.074873 245.00 0.0040816 947.91 1035.5 2.9432 2.6172 3.3484 387.40 0.012870 30.296 0.074873
277.38 3127.6 undefined 950.53 1038.5 2.9480 245.00 0.0040816 950.53 1038.5 2.9480 2.6205 3.3486 388.31 0.012753 30.322 0.074996 245.00 0.0040816 950.53 1038.5 2.9480 2.6205 3.3486 388.31 0.012753 30.322 0.074996
278.38 3141.7 undefined 953.15 1041.6 2.9527 245.00 0.0040816 953.15 1041.6 2.9527 2.6238 3.3488 389.22 0.012637 30.349 0.075115 245.00 0.0040816 953.15 1041.6 2.9527 2.6238 3.3488 389.22 0.012637 30.349 0.075115
279.38 3155.7 undefined 955.77 1044.6 2.9575 245.00 0.0040816 955.77 1044.6 2.9575 2.6271 3.3490 390.12 0.012522 30.375 0.075227 245.00 0.0040816 955.77 1044.6 2.9575 2.6271 3.3490 390.12 0.012522 30.375 0.075227
280.38 3169.7 undefined 958.40 1047.6 2.9622 245.00 0.0040816 958.40 1047.6 2.9622 2.6304 3.3493 391.02 0.012408 30.401 0.075327 245.00 0.0040816 958.40 1047.6 2.9622 2.6304 3.3493 391.02 0.012408 30.401 0.075327
281.38 3183.8 undefined 961.03 1050.6 2.9670 245.00 0.0040816 961.03 1050.6 2.9670 2.6337 3.3495 391.92 0.012295 30.427 0.075387 245.00 0.0040816 961.03 1050.6 2.9670 2.6337 3.3495 391.92 0.012295 30.427 0.075387
282.38 3197.8 undefined 963.67 1053.7 2.9717 245.00 0.0040816 963.67 1053.7 2.9717 2.6369 3.3499 392.81 0.012184 30.453 0.075479 245.00 0.0040816 963.67 1053.7 2.9717 2.6369 3.3499 392.81 0.012184 30.453 0.075479
283.38 3211.8 undefined 966.31 1056.7 2.9765 245.00 0.0040816 966.31 1056.7 2.9765 2.6402 3.3502 393.71 0.012074 30.479 0.075640 245.00 0.0040816 966.31 1056.7 2.9765 2.6402 3.3502 393.71 0.012074 30.479 0.075640
284.38 3225.9 undefined 968.95 1059.7 2.9812 245.00 0.0040816 968.95 1059.7 2.9812 2.6435 3.3506 394.60 0.011964 30.505 0.075801 245.00 0.0040816 968.95 1059.7 2.9812 2.6435 3.3506 394.60 0.011964 30.505 0.075801
285.38 3239.9 undefined 971.60 1062.8 2.9860 245.00 0.0040816 971.60 1062.8 2.9860 2.6468 3.3510 395.49 0.011856 30.531 0.075962 245.00 0.0040816 971.60 1062.8 2.9860 2.6468 3.3510 395.49 0.011856 30.531 0.075962
286.38 3253.9 undefined 974.24 1065.8 2.9907 245.00 0.0040816 974.24 1065.8 2.9907 2.6501 3.3515 396.38 0.011749 30.557 0.076124 245.00 0.0040816 974.24 1065.8 2.9907 2.6501 3.3515 396.38 0.011749 30.557 0.076124
287.38 3267.9 undefined 976.90 1068.9 2.9954 245.00 0.0040816 976.90 1068.9 2.9954 2.6533 3.3519 397.26 0.011643 30.583 0.076286 245.00 0.0040816 976.90 1068.9 2.9954 2.6533 3.3519 397.26 0.011643 30.583 0.076286
288.38 3281.9 undefined 979.55 1071.9 3.0002 245.00 0.0040816 979.55 1071.9 3.0002 2.6566 3.3524 398.15 0.011538 30.609 0.076448 245.00 0.0040816 979.55 1071.9 3.0002 2.6566 3.3524 398.15 0.011538 30.609 0.076448
289.38 3296.0 undefined 982.21 1075.0 3.0049 245.00 0.0040816 982.21 1075.0 3.0049 2.6599 3.3529 399.03 0.011435 30.635 0.076610 245.00 0.0040816 982.21 1075.0 3.0049 2.6599 3.3529 399.03 0.011435 30.635 0.076610
290.38 3310.0 undefined 984.87 1078.0 3.0096 245.00 0.0040816 984.87 1078.0 3.0096 2.6631 3.3535 399.91 0.011332 30.661 0.076773 245.00 0.0040816 984.87 1078.0 3.0096 2.6631 3.3535 399.91 0.011332 30.661 0.076773
291.38 3324.0 undefined 987.54 1081.1 3.0143 245.00 0.0040816 987.54 1081.1 3.0143 2.6664 3.3541 400.78 0.011230 30.686 0.076936 245.00 0.0040816 987.54 1081.1 3.0143 2.6664 3.3541 400.78 0.011230 30.686 0.076936
292.38 3338.0 undefined 990.20 1084.1 3.0191 245.00 0.0040816 990.20 1084.1 3.0191 2.6697 3.3547 401.66 0.011129 30.712 0.077099 245.00 0.0040816 990.20 1084.1 3.0191 2.6697 3.3547 401.66 0.011129 30.712 0.077099
293.38 3352.0 undefined 992.87 1087.2 3.0238 245.00 0.0040816 992.87 1087.2 3.0238 2.6729 3.3553 402.53 0.011030 30.738 0.077263 245.00 0.0040816 992.87 1087.2 3.0238 2.6729 3.3553 402.53 0.011030 30.738 0.077263
294.38 3366.0 undefined 995.55 1090.3 3.0285 245.00 0.0040816 995.55 1090.3 3.0285 2.6762 3.3560 403.40 0.010931 30.764 0.077427 245.00 0.0040816 995.55 1090.3 3.0285 2.6762 3.3560 403.40 0.010931 30.764 0.077427
295.38 3380.0 undefined 998.23 1093.3 3.0332 245.00 0.0040816 998.23 1093.3 3.0332 2.6795 3.3567 404.27 0.010833 30.789 0.077591 245.00 0.0040816 998.23 1093.3 3.0332 2.6795 3.3567 404.27 0.010833 30.789 0.077591
296.38 3394.0 undefined 1000.9 1096.4 3.0379 245.00 0.0040816 1000.9 1096.4 3.0379 2.6827 3.3574 405.14 0.010736 30.815 0.077756 245.00 0.0040816 1000.9 1096.4 3.0379 2.6827 3.3574 405.14 0.010736 30.815 0.077756
297.38 3408.1 undefined 1003.6 1099.5 3.0426 245.00 0.0040816 1003.6 1099.5 3.0426 2.6860 3.3581 406.00 0.010640 30.841 0.077920 245.00 0.0040816 1003.6 1099.5 3.0426 2.6860 3.3581 406.00 0.010640 30.841 0.077920
298.38 3422.1 undefined 1006.3 1102.6 3.0473 245.00 0.0040816 1006.3 1102.6 3.0473 2.6892 3.3588 406.86 0.010545 30.866 0.078086 245.00 0.0040816 1006.3 1102.6 3.0473 2.6892 3.3588 406.86 0.010545 30.866 0.078086
299.38 3436.1 undefined 1009.0 1105.7 3.0520 245.00 0.0040816 1009.0 1105.7 3.0520 2.6925 3.3596 407.72 0.010451 30.892 0.078251 245.00 0.0040816 1009.0 1105.7 3.0520 2.6925 3.3596 407.72 0.010451 30.892 0.078251
300.38 3450.1 undefined 1011.7 1108.8 3.0567 245.00 0.0040816 1011.7 1108.8 3.0567 2.6958 3.3604 408.58 0.010358 30.918 0.078417 245.00 0.0040816 1011.7 1108.8 3.0567 2.6958 3.3604 408.58 0.010358 30.918 0.078417