Temperature (C) Pressure (psia) Quality (l+v) Internal Energy (l+v, kJ/kg) Enthalpy (l+v, kJ/kg) Entropy (l+v, J/g*K) Density (l, kg/m3) Volume (l, m3/kg) Internal Energy (l, kJ/kg) Enthalpy (l, kJ/kg) Entropy (l, J/g*K) Cv (l, J/g*K) Cp (l, J/g*K) Sound Spd. (l, m/s) Joule-Thomson (l, F/psia) Viscosity (l, uPa*s) Therm. Cond. (l, W/m*K) Density (v, kg/m3) Volume (v, m3/kg) Internal Energy (v, kJ/kg) Enthalpy (v, kJ/kg) Entropy (v, J/g*K) Cv (v, J/g*K) Cp (v, J/g*K) Sound Spd. (v, m/s) Joule-Thomson (v, F/psia) Viscosity (v, uPa*s) Therm. Cond. (v, W/m*K)
-187.62 2.4953e-08 4.1220e-10 -196.64 -196.64 -1.3959 733.13 0.0013640 -196.64 -196.64 -1.3959 1.3553 1.9158 2136.4 -0.0077592 10960. 0.20792 1.0669e-08 9.3732e+07 350.13 366.26 5.1858 0.69067 0.87923 143.28 6.1051 2.3259 0.0017061
-186.62 3.7339e-08 6.0964e-10 -194.73 -194.73 -1.3736 732.08 0.0013660 -194.73 -194.73 -1.3736 1.3539 1.9166 2129.6 -0.0077546 10073. 0.20765 1.5780e-08 6.3371e+07 350.82 367.14 5.1200 0.69462 0.88317 144.03 5.9178 2.3534 0.0017533
-185.62 5.5322e-08 8.9288e-10 -192.81 -192.81 -1.3516 731.04 0.0013679 -192.81 -192.81 -1.3516 1.3525 1.9174 2122.9 -0.0077498 9276.1 0.20737 2.3112e-08 4.3267e+07 351.52 368.02 5.0561 0.69857 0.88713 144.77 5.7383 2.3808 0.0018007
-184.62 8.1182e-08 1.2954e-09 -190.89 -190.89 -1.3298 730.00 0.0013699 -190.89 -190.89 -1.3298 1.3513 1.9182 2116.1 -0.0077448 8557.8 0.20708 3.3533e-08 2.9821e+07 352.22 368.91 4.9939 0.70253 0.89108 145.51 5.5662 2.4083 0.0018485
-183.62 1.1803e-07 1.8623e-09 -188.97 -188.97 -1.3083 728.96 0.0013718 -188.97 -188.97 -1.3083 1.3501 1.9191 2109.3 -0.0077395 7909.8 0.20678 4.8211e-08 2.0742e+07 352.92 369.81 4.9333 0.70648 0.89504 146.24 5.4011 2.4357 0.0018965
-182.62 1.7009e-07 2.6538e-09 -187.05 -187.05 -1.2869 727.92 0.0013738 -187.05 -187.05 -1.2869 1.3490 1.9201 2102.5 -0.0077340 7324.3 0.20647 6.8704e-08 1.4555e+07 353.63 370.70 4.8744 0.71043 0.89899 146.97 5.2426 2.4632 0.0019448
-181.62 2.4299e-07 3.7496e-09 -185.13 -185.13 -1.2658 726.88 0.0013757 -185.13 -185.13 -1.2658 1.3480 1.9210 2095.7 -0.0077283 6794.5 0.20616 9.7079e-08 1.0301e+07 354.35 371.60 4.8170 0.71438 0.90294 147.69 5.0904 2.4906 0.0019934
-180.62 3.4425e-07 5.2545e-09 -183.21 -183.21 -1.2450 725.85 0.0013777 -183.21 -183.21 -1.2450 1.3470 1.9220 2088.9 -0.0077225 6314.4 0.20584 1.3605e-07 7.3504e+06 355.06 372.51 4.7612 0.71833 0.90688 148.41 4.9442 2.5181 0.0020423
-179.62 4.8378e-07 7.3050e-09 -181.29 -181.29 -1.2243 724.81 0.0013797 -181.29 -181.29 -1.2243 1.3461 1.9231 2082.0 -0.0077164 5878.8 0.20551 1.8915e-07 5.2868e+06 355.78 373.42 4.7068 0.72227 0.91082 149.13 4.8038 2.5456 0.0020915
-178.62 6.7459e-07 1.0078e-08 -179.37 -179.37 -1.2038 723.78 0.0013816 -179.37 -179.37 -1.2038 1.3453 1.9241 2075.2 -0.0077102 5482.9 0.20517 2.6096e-07 3.8320e+06 356.51 374.33 4.6538 0.72620 0.91475 149.84 4.6688 2.5731 0.0021410
-177.62 9.3358e-07 1.3800e-08 -177.44 -177.44 -1.1836 722.75 0.0013836 -177.44 -177.44 -1.1836 1.3445 1.9252 2068.4 -0.0077039 5122.6 0.20483 3.5737e-07 2.7982e+06 357.23 375.25 4.6022 0.73012 0.91867 150.54 4.5390 2.6005 0.0021907
-176.62 1.2826e-06 1.8762e-08 -175.52 -175.52 -1.1635 721.72 0.0013856 -175.52 -175.52 -1.1635 1.3437 1.9263 2061.5 -0.0076973 4794.1 0.20447 4.8588e-07 2.0581e+06 357.97 376.17 4.5519 0.73403 0.92258 151.25 4.4142 2.6280 0.0022408
-175.62 1.7496e-06 2.5330e-08 -173.59 -173.59 -1.1437 720.69 0.0013876 -173.59 -173.59 -1.1437 1.3430 1.9274 2054.7 -0.0076907 4494.3 0.20411 6.5601e-07 1.5244e+06 358.70 377.09 4.5029 0.73792 0.92648 151.95 4.2941 2.6555 0.0022912
-174.62 2.3705e-06 3.3968e-08 -171.66 -171.66 -1.1240 719.66 0.0013895 -171.66 -171.66 -1.1240 1.3423 1.9286 2047.9 -0.0076838 4220.2 0.20375 8.7976e-07 1.1367e+06 359.44 378.02 4.4551 0.74181 0.93036 152.64 4.1784 2.6830 0.0023418
-173.62 3.1903e-06 4.5254e-08 -169.73 -169.73 -1.1045 718.64 0.0013915 -169.73 -169.73 -1.1045 1.3417 1.9298 2041.0 -0.0076769 3969.3 0.20338 1.1721e-06 8.5314e+05 360.19 378.95 4.4085 0.74568 0.93423 153.33 4.0671 2.7105 0.0023928
-172.62 4.2661e-06 5.9910e-08 -167.80 -167.80 -1.0852 717.61 0.0013935 -167.80 -167.80 -1.0852 1.3411 1.9310 2034.2 -0.0076698 3739.3 0.20300 1.5518e-06 6.4441e+05 360.93 379.89 4.3631 0.74953 0.93809 154.02 3.9599 2.7379 0.0024440
-171.62 5.6692e-06 7.8826e-08 -165.87 -165.87 -1.0661 716.58 0.0013955 -165.87 -165.87 -1.0661 1.3405 1.9322 2027.3 -0.0076625 3528.0 0.20261 2.0419e-06 4.8974e+05 361.69 380.83 4.3188 0.75337 0.94193 154.71 3.8566 2.7654 0.0024955
-170.62 7.4884e-06 1.0310e-07 -163.94 -163.94 -1.0472 715.56 0.0013975 -163.94 -163.94 -1.0472 1.3400 1.9334 2020.5 -0.0076552 3333.8 0.20222 2.6708e-06 3.7442e+05 362.44 381.77 4.2755 0.75720 0.94575 155.39 3.7570 2.7929 0.0025473
-169.62 9.8334e-06 1.3407e-07 -162.00 -162.00 -1.0284 714.54 0.0013995 -162.00 -162.00 -1.0284 1.3395 1.9347 2013.6 -0.0076477 3154.9 0.20182 3.4733e-06 2.8791e+05 363.20 382.72 4.2334 0.76100 0.94956 156.07 3.6609 2.8204 0.0025994
-168.62 1.2839e-05 1.7337e-07 -160.07 -160.07 -1.0098 713.52 0.0014015 -160.07 -160.07 -1.0098 1.3390 1.9359 2006.8 -0.0076401 2989.9 0.20141 4.4917e-06 2.2263e+05 363.96 383.67 4.1922 0.76479 0.95335 156.74 3.5683 2.8479 0.0026518
-167.62 1.6672e-05 2.2298e-07 -158.13 -158.13 -0.99134 712.49 0.0014035 -158.13 -158.13 -0.99134 1.3386 1.9372 2000.0 -0.0076323 2837.5 0.20100 5.7771e-06 1.7310e+05 364.73 384.63 4.1521 0.76856 0.95712 157.41 3.4790 2.8754 0.0027045
-166.62 2.1533e-05 2.8527e-07 -156.19 -156.19 -0.97306 711.47 0.0014055 -156.19 -156.19 -0.97306 1.3382 1.9385 1993.1 -0.0076245 2696.5 0.20058 7.3914e-06 1.3529e+05 365.50 385.59 4.1129 0.77232 0.96087 158.08 3.3927 2.9029 0.0027575
-165.62 2.7666e-05 3.6309e-07 -154.25 -154.25 -0.95494 710.45 0.0014075 -154.25 -154.25 -0.95494 1.3378 1.9398 1986.3 -0.0076165 2566.0 0.20016 9.4084e-06 1.0629e+05 366.27 386.55 4.0746 0.77605 0.96460 158.75 3.3095 2.9304 0.0028108
-164.62 3.5367e-05 4.5986e-07 -152.31 -152.31 -0.93698 709.44 0.0014096 -152.31 -152.31 -0.93698 1.3375 1.9411 1979.4 -0.0076084 2444.9 0.19973 1.1916e-05 83918. 367.05 387.52 4.0372 0.77976 0.96832 159.41 3.2291 2.9579 0.0028643
-163.62 4.4989e-05 5.7960e-07 -150.37 -150.37 -0.91917 708.42 0.0014116 -150.37 -150.37 -0.91917 1.3371 1.9424 1972.6 -0.0076002 2332.3 0.19930 1.5020e-05 66577. 367.83 388.49 4.0008 0.78346 0.97201 160.07 3.1514 2.9854 0.0029182
-162.62 5.6956e-05 7.2711e-07 -148.43 -148.43 -0.90151 707.40 0.0014136 -148.43 -148.43 -0.90151 1.3368 1.9437 1965.8 -0.0075919 2227.7 0.19886 1.8844e-05 53068. 368.62 389.46 3.9651 0.78713 0.97569 160.72 3.0764 3.0129 0.0029723
-161.62 7.1773e-05 9.0799e-07 -146.48 -146.48 -0.88399 706.38 0.0014157 -146.48 -146.48 -0.88400 1.3365 1.9451 1959.0 -0.0075834 2130.2 0.19841 2.3533e-05 42494. 369.41 390.44 3.9304 0.79079 0.97935 161.38 3.0038 3.0404 0.0030268
-160.62 9.0036e-05 1.1289e-06 -144.54 -144.54 -0.86662 705.37 0.0014177 -144.54 -144.54 -0.86663 1.3363 1.9465 1952.1 -0.0075748 2039.2 0.19796 2.9258e-05 34178. 370.20 391.42 3.8964 0.79443 0.98298 162.03 2.9337 3.0679 0.0030815
-159.62 0.00011245 1.3974e-06 -142.59 -142.59 -0.84939 704.35 0.0014197 -142.59 -142.59 -0.84940 1.3360 1.9478 1945.3 -0.0075661 1954.2 0.19751 3.6221e-05 27609. 371.00 392.40 3.8632 0.79805 0.98660 162.68 2.8658 3.0955 0.0031365
-158.62 0.00013985 1.7226e-06 -140.64 -140.64 -0.83230 703.34 0.0014218 -140.64 -140.64 -0.83231 1.3358 1.9492 1938.5 -0.0075573 1874.8 0.19705 4.4652e-05 22395. 371.80 393.39 3.8307 0.80164 0.99020 163.32 2.8002 3.1230 0.0031918
-157.62 0.00017320 2.1148e-06 -138.69 -138.69 -0.81535 702.32 0.0014238 -138.69 -138.69 -0.81536 1.3356 1.9506 1931.7 -0.0075484 1800.3 0.19658 5.4822e-05 18241. 372.60 394.38 3.7990 0.80522 0.99378 163.96 2.7367 3.1505 0.0032474
-156.62 0.00021364 2.5860e-06 -136.74 -136.74 -0.79853 701.31 0.0014259 -136.74 -136.74 -0.79854 1.3354 1.9520 1924.9 -0.0075393 1730.5 0.19611 6.7040e-05 14916. 373.41 395.38 3.7680 0.80878 0.99734 164.60 2.6752 3.1780 0.0033033
-155.62 0.00026248 3.1500e-06 -134.79 -134.79 -0.78184 700.30 0.0014280 -134.79 -134.79 -0.78185 1.3352 1.9534 1918.1 -0.0075302 1664.9 0.19564 8.1666e-05 12245. 374.22 396.38 3.7377 0.81232 1.0009 165.24 2.6157 3.2055 0.0033595
-154.62 0.00032125 3.8226e-06 -132.83 -132.83 -0.76528 699.29 0.0014300 -132.83 -132.83 -0.76530 1.3350 1.9548 1911.3 -0.0075209 1603.3 0.19516 9.9109e-05 10090. 375.03 397.38 3.7081 0.81585 1.0044 165.87 2.5580 3.2330 0.0034160
-153.62 0.00039171 4.6219e-06 -130.88 -130.88 -0.74885 698.27 0.0014321 -130.88 -130.88 -0.74887 1.3349 1.9563 1904.5 -0.0075114 1545.3 0.19468 0.00011984 8344.6 375.85 398.39 3.6792 0.81935 1.0079 166.50 2.5022 3.2606 0.0034727
-152.62 0.00047590 5.5683e-06 -128.92 -128.92 -0.73254 697.26 0.0014342 -128.92 -128.92 -0.73256 1.3348 1.9577 1897.8 -0.0075019 1490.6 0.19419 0.00014439 6925.9 376.67 399.40 3.6509 0.82284 1.0114 167.13 2.4481 3.2881 0.0035298
-151.62 0.00057613 6.6853e-06 -126.96 -126.96 -0.71635 696.25 0.0014363 -126.96 -126.96 -0.71638 1.3346 1.9592 1891.0 -0.0074922 1438.9 0.19370 0.00017336 5768.4 377.49 400.41 3.6232 0.82631 1.0149 167.76 2.3957 3.3156 0.0035872
-150.62 0.00069507 7.9992e-06 -125.00 -125.00 -0.70028 695.24 0.0014384 -125.00 -125.00 -0.70032 1.3345 1.9606 1884.2 -0.0074824 1390.2 0.19320 0.00020744 4820.7 378.32 401.42 3.5962 0.82976 1.0183 168.38 2.3448 3.3431 0.0036448
-149.62 0.00083574 9.5397e-06 -123.04 -123.04 -0.68434 694.23 0.0014404 -123.04 -123.04 -0.68438 1.3345 1.9621 1877.4 -0.0074724 1344.0 0.19270 0.00024740 4042.0 379.15 402.44 3.5697 0.83319 1.0218 169.00 2.2956 3.3706 0.0037027
-148.62 0.0010016 1.1340e-05 -121.07 -121.07 -0.66850 693.22 0.0014425 -121.08 -121.08 -0.66855 1.3344 1.9636 1870.7 -0.0074623 1300.3 0.19220 0.00029412 3400.0 379.99 403.47 3.5438 0.83661 1.0252 169.62 2.2478 3.3982 0.0037610
-147.62 0.0011965 1.3439e-05 -119.11 -119.11 -0.65278 692.21 0.0014447 -119.11 -119.11 -0.65284 1.3343 1.9651 1863.9 -0.0074521 1258.9 0.19169 0.00034856 2869.0 380.83 404.49 3.5185 0.84001 1.0286 170.24 2.2014 3.4257 0.0038195
-146.62 0.0014249 1.5877e-05 -117.14 -117.14 -0.63717 691.20 0.0014468 -117.15 -117.15 -0.63724 1.3343 1.9666 1857.2 -0.0074417 1219.6 0.19117 0.00041181 2428.3 381.67 405.52 3.4938 0.84340 1.0320 170.85 2.1565 3.4532 0.0038783
-145.62 0.0016917 1.8701e-05 -115.17 -115.17 -0.62167 690.19 0.0014489 -115.18 -115.18 -0.62175 1.3343 1.9682 1850.4 -0.0074312 1182.3 0.19066 0.00048510 2061.4 382.51 406.56 3.4695 0.84677 1.0353 171.46 2.1128 3.4807 0.0039374
-144.62 0.0020026 2.1964e-05 -113.20 -113.20 -0.60628 689.18 0.0014510 -113.21 -113.21 -0.60637 1.3343 1.9697 1843.7 -0.0074206 1146.8 0.19014 0.00056976 1755.1 383.36 407.59 3.4458 0.85012 1.0387 172.07 2.0705 3.5082 0.0039967
-143.62 0.0023637 2.5723e-05 -111.23 -111.23 -0.59100 688.17 0.0014531 -111.24 -111.24 -0.59110 1.3343 1.9713 1836.9 -0.0074098 1113.0 0.18962 0.00066731 1498.6 384.21 408.63 3.4226 0.85346 1.0420 172.68 2.0294 3.5358 0.0040564
-142.62 0.0027820 3.0041e-05 -109.26 -109.25 -0.57581 687.16 0.0014553 -109.27 -109.27 -0.57593 1.3343 1.9728 1830.2 -0.0073988 1080.8 0.18909 0.00077939 1283.1 385.07 409.68 3.3999 0.85679 1.0454 173.28 1.9896 3.5633 0.0041164
-141.62 0.0032653 3.4991e-05 -107.28 -107.28 -0.56073 686.15 0.0014574 -107.30 -107.30 -0.56087 1.3343 1.9744 1823.5 -0.0073878 1050.1 0.18856 0.00090784 1101.5 385.93 410.72 3.3777 0.86011 1.0487 173.88 1.9508 3.5908 0.0041766
-140.62 0.0038222 4.0648e-05 -105.30 -105.30 -0.54575 685.14 0.0014596 -105.32 -105.32 -0.54591 1.3344 1.9760 1816.7 -0.0073765 1020.7 0.18803 0.0010547 948.16 386.79 411.77 3.3560 0.86341 1.0520 174.48 1.9133 3.6183 0.0042372
-139.62 0.0044623 4.7098e-05 -103.32 -103.32 -0.53087 684.13 0.0014617 -103.34 -103.34 -0.53105 1.3344 1.9776 1810.0 -0.0073651 992.74 0.18749 0.0012221 818.26 387.65 412.83 3.3347 0.86670 1.0553 175.08 1.8768 3.6459 0.0042980
-138.62 0.0051963 5.4434e-05 -101.34 -101.34 -0.51608 683.12 0.0014639 -101.37 -101.37 -0.51629 1.3345 1.9792 1803.3 -0.0073536 965.97 0.18695 0.0014125 707.94 388.52 413.88 3.3139 0.86998 1.0586 175.67 1.8413 3.6734 0.0043592
-137.62 0.0060358 6.2759e-05 -99.355 -99.354 -0.50138 682.11 0.0014660 -99.386 -99.386 -0.50162 1.3346 1.9808 1796.6 -0.0073419 940.35 0.18641 0.0016287 614.00 389.39 414.94 3.2935 0.87325 1.0619 176.26 1.8069 3.7009 0.0044206
-136.62 0.0069938 7.2184e-05 -97.369 -97.367 -0.48678 681.10 0.0014682 -97.404 -97.404 -0.48705 1.3347 1.9825 1789.9 -0.0073301 915.81 0.18586 0.0018733 533.80 390.26 416.00 3.2735 0.87650 1.0651 176.85 1.7734 3.7284 0.0044823
-135.62 0.0080843 8.2829e-05 -95.381 -95.379 -0.47227 680.09 0.0014704 -95.421 -95.421 -0.47258 1.3348 1.9841 1783.2 -0.0073180 892.30 0.18531 0.0021497 465.17 391.14 417.07 3.2540 0.87975 1.0684 177.44 1.7409 3.7559 0.0045443
-134.62 0.0093230 9.4827e-05 -93.390 -93.388 -0.45785 679.08 0.0014726 -93.436 -93.436 -0.45820 1.3350 1.9858 1776.5 -0.0073059 869.75 0.18476 0.0024613 406.30 392.02 418.14 3.2348 0.88299 1.0716 178.02 1.7093 3.7834 0.0046066
-133.62 0.010727 0.00010832 -91.397 -91.394 -0.44351 678.07 0.0014748 -91.450 -91.449 -0.44391 1.3351 1.9875 1769.8 -0.0072935 848.11 0.18421 0.0028116 355.67 392.91 419.21 3.2161 0.88622 1.0749 178.61 1.6786 3.8109 0.0046691
-132.62 0.012315 0.00012346 -89.402 -89.398 -0.42926 677.06 0.0014770 -89.461 -89.461 -0.42971 1.3353 1.9892 1763.1 -0.0072810 827.32 0.18365 0.0032049 312.03 393.79 420.29 3.1977 0.88944 1.0781 179.19 1.6488 3.8385 0.0047320
-131.62 0.014106 0.00014042 -87.403 -87.400 -0.41509 676.04 0.0014792 -87.471 -87.471 -0.41560 1.3354 1.9909 1756.4 -0.0072684 807.34 0.18309 0.0036453 274.33 394.68 421.36 3.1798 0.89266 1.0813 179.76 1.6197 3.8660 0.0047951
-130.62 0.016124 0.00015937 -85.403 -85.398 -0.40100 675.03 0.0014814 -85.479 -85.479 -0.40157 1.3356 1.9926 1749.7 -0.0072555 788.12 0.18253 0.0041375 241.69 395.58 422.44 3.1622 0.89586 1.0846 180.34 1.5915 3.8935 0.0048586
-129.62 0.018392 0.00018052 -83.399 -83.394 -0.38700 674.02 0.0014836 -83.486 -83.486 -0.38763 1.3358 1.9944 1743.0 -0.0072425 769.63 0.18196 0.0046867 213.37 396.47 423.53 3.1450 0.89906 1.0878 180.91 1.5641 3.9210 0.0049223
-128.62 0.020935 0.00020405 -81.393 -81.387 -0.37307 673.01 0.0014859 -81.491 -81.490 -0.37378 1.3360 1.9961 1736.3 -0.0072294 751.83 0.18140 0.0052981 188.75 397.37 424.62 3.1281 0.90226 1.0910 181.48 1.5374 3.9485 0.0049863
-127.62 0.023783 0.00023021 -79.384 -79.377 -0.35921 672.00 0.0014881 -79.494 -79.493 -0.36001 1.3363 1.9979 1729.6 -0.0072160 734.67 0.18083 0.0059776 167.29 398.27 425.71 3.1116 0.90545 1.0942 182.05 1.5114 3.9760 0.0050506
-126.62 0.026966 0.00025922 -77.371 -77.364 -0.34543 670.98 0.0014904 -77.495 -77.495 -0.34632 1.3365 1.9997 1722.9 -0.0072025 718.14 0.18025 0.0067313 148.56 399.18 426.80 3.0954 0.90863 1.0974 182.62 1.4861 4.0035 0.0051152
-125.62 0.030515 0.00029135 -75.356 -75.347 -0.33172 669.97 0.0014926 -75.494 -75.494 -0.33272 1.3368 2.0015 1716.2 -0.0071888 702.18 0.17968 0.0075660 132.17 400.09 427.89 3.0795 0.91181 1.1006 183.18 1.4615 4.0310 0.0051800
-124.62 0.034467 0.00032685 -73.337 -73.327 -0.31808 668.95 0.0014949 -73.492 -73.492 -0.31919 1.3371 2.0033 1709.5 -0.0071749 686.79 0.17910 0.0084885 117.81 401.00 428.99 3.0640 0.91499 1.1038 183.74 1.4375 4.0584 0.0052452
-123.62 0.038859 0.00036603 -71.314 -71.304 -0.30451 667.94 0.0014971 -71.488 -71.487 -0.30574 1.3374 2.0051 1702.8 -0.0071609 671.93 0.17852 0.0095065 105.19 401.91 430.10 3.0488 0.91816 1.1070 184.30 1.4141 4.0859 0.0053106
-122.62 0.043731 0.00040919 -69.288 -69.276 -0.29101 666.92 0.0014994 -69.482 -69.481 -0.29237 1.3377 2.0070 1696.2 -0.0071466 657.57 0.17794 0.010628 94.092 402.83 431.20 3.0339 0.92134 1.1102 184.86 1.3913 4.1134 0.0053764
-121.62 0.049128 0.00045664 -67.259 -67.245 -0.27757 665.91 0.0015017 -67.474 -67.473 -0.27907 1.3380 2.0089 1689.5 -0.0071322 643.70 0.17736 0.011861 84.309 403.75 432.31 3.0193 0.92451 1.1134 185.41 1.3691 4.1409 0.0054424
-120.62 0.055096 0.00050875 -65.225 -65.210 -0.26419 664.89 0.0015040 -65.464 -65.463 -0.26585 1.3384 2.0107 1682.8 -0.0071176 630.28 0.17678 0.013215 75.669 404.67 433.42 3.0050 0.92767 1.1166 185.96 1.3475 4.1683 0.0055087
-119.62 0.061684 0.00056587 -63.187 -63.170 -0.25087 663.87 0.0015063 -63.452 -63.452 -0.25271 1.3387 2.0126 1676.1 -0.0071028 617.30 0.17619 0.014700 68.027 405.60 434.53 2.9909 0.93084 1.1198 186.51 1.3264 4.1958 0.0055752
-118.62 0.068946 0.00062839 -61.145 -61.126 -0.23761 662.86 0.0015086 -61.439 -61.438 -0.23963 1.3391 2.0146 1669.4 -0.0070878 604.74 0.17560 0.016325 61.255 406.53 435.64 2.9772 0.93401 1.1231 187.06 1.3058 4.2233 0.0056421
-117.62 0.076937 0.00069672 -59.098 -59.077 -0.22441 661.84 0.0015109 -59.423 -59.422 -0.22663 1.3395 2.0165 1662.8 -0.0070726 592.58 0.17501 0.018101 55.245 407.46 436.76 2.9638 0.93718 1.1263 187.60 1.2857 4.2507 0.0057092
-116.62 0.085718 0.00077128 -57.046 -57.023 -0.21126 660.82 0.0015133 -57.406 -57.405 -0.21370 1.3400 2.0184 1656.1 -0.0070573 580.80 0.17442 0.020040 49.901 408.39 437.88 2.9506 0.94035 1.1295 188.14 1.2660 4.2782 0.0057767
-115.62 0.095353 0.00085254 -54.990 -54.964 -0.19817 659.80 0.0015156 -55.386 -55.385 -0.20084 1.3404 2.0204 1649.4 -0.0070417 569.38 0.17383 0.022152 45.142 409.33 439.01 2.9377 0.94352 1.1327 188.68 1.2468 4.3056 0.0058444
-114.62 0.10591 0.00094096 -52.929 -52.899 -0.18512 658.78 0.0015180 -53.365 -53.364 -0.18805 1.3409 2.0224 1642.7 -0.0070260 558.32 0.17323 0.024451 40.898 410.27 440.13 2.9250 0.94669 1.1360 189.22 1.2281 4.3330 0.0059123
-113.62 0.11746 0.0010370 -50.862 -50.829 -0.17212 657.76 0.0015203 -51.342 -51.340 -0.17533 1.3413 2.0244 1636.0 -0.0070100 547.59 0.17264 0.026949 37.107 411.21 441.26 2.9126 0.94987 1.1392 189.75 1.2097 4.3604 0.0059806
-112.62 0.13008 0.0011413 -48.789 -48.754 -0.15917 656.73 0.0015227 -49.316 -49.315 -0.16267 1.3418 2.0264 1629.3 -0.0069938 537.18 0.17204 0.029661 33.715 412.16 442.39 2.9005 0.95305 1.1424 190.28 1.1918 4.3879 0.0060491
-111.62 0.14384 0.0012543 -46.711 -46.672 -0.14627 655.71 0.0015251 -47.289 -47.287 -0.15008 1.3424 2.0285 1622.7 -0.0069774 527.08 0.17144 0.032600 30.675 413.10 443.53 2.8885 0.95623 1.1457 190.81 1.1742 4.4153 0.0061180
-110.62 0.15884 0.0013766 -44.627 -44.583 -0.13340 654.69 0.0015274 -45.259 -45.258 -0.13755 1.3429 2.0305 1616.0 -0.0069609 517.28 0.17084 0.035781 27.948 414.06 444.66 2.8769 0.95942 1.1490 191.34 1.1570 4.4427 0.0061871
-109.62 0.17516 0.0015089 -42.536 -42.488 -0.12058 653.66 0.0015298 -43.228 -43.226 -0.12509 1.3435 2.0326 1609.3 -0.0069441 507.76 0.17024 0.039220 25.497 415.01 445.80 2.8654 0.96261 1.1522 191.86 1.1402 4.4701 0.0062564
-108.62 0.19290 0.0016516 -40.439 -40.386 -0.10779 652.64 0.0015322 -41.194 -41.192 -0.11269 1.3441 2.0347 1602.6 -0.0069271 498.51 0.16964 0.042933 23.292 415.96 446.94 2.8542 0.96581 1.1555 192.38 1.1236 4.4974 0.0063261
-107.62 0.21215 0.0018056 -38.335 -38.276 -0.095042 651.61 0.0015347 -39.158 -39.156 -0.10036 1.3447 2.0369 1595.9 -0.0069098 489.52 0.16903 0.046937 21.305 416.92 448.09 2.8433 0.96901 1.1588 192.90 1.1075 4.5248 0.0063960
-106.62 0.23301 0.0019714 -36.223 -36.159 -0.082325 650.58 0.0015371 -37.120 -37.118 -0.088082 1.3453 2.0390 1589.2 -0.0068924 480.79 0.16843 0.051250 19.512 417.88 449.23 2.8325 0.97222 1.1621 193.41 1.0916 4.5522 0.0064662
-105.62 0.25561 0.0021498 -34.105 -34.034 -0.069639 649.55 0.0015395 -35.080 -35.078 -0.075868 1.3460 2.0412 1582.6 -0.0068747 472.30 0.16782 0.055891 17.892 418.85 450.38 2.8220 0.97544 1.1655 193.93 1.0760 4.5795 0.0065367
-104.62 0.28004 0.0023415 -31.978 -31.901 -0.056982 648.52 0.0015420 -33.038 -33.035 -0.063714 1.3467 2.0434 1575.9 -0.0068569 464.04 0.16721 0.060878 16.426 419.81 451.53 2.8116 0.97867 1.1688 194.44 1.0608 4.6069 0.0066074
-103.62 0.30643 0.0025472 -29.843 -29.759 -0.044351 647.49 0.0015444 -30.994 -30.991 -0.051619 1.3474 2.0456 1569.2 -0.0068387 456.00 0.16660 0.066231 15.099 420.78 452.68 2.8015 0.98191 1.1722 194.94 1.0458 4.6342 0.0066785
-102.62 0.33490 0.0027678 -27.700 -27.607 -0.031746 646.46 0.0015469 -28.947 -28.944 -0.039582 1.3481 2.0478 1562.5 -0.0068204 448.18 0.16600 0.071971 13.894 421.75 453.84 2.7916 0.98516 1.1755 195.44 1.0310 4.6615 0.0067498
-101.62 0.36558 0.0030041 -25.548 -25.447 -0.019162 645.43 0.0015494 -26.898 -26.894 -0.027602 1.3489 2.0501 1555.8 -0.0068018 440.57 0.16539 0.078120 12.801 422.73 454.99 2.7818 0.98841 1.1789 195.95 1.0166 4.6888 0.0068213
-100.62 0.39862 0.0032569 -23.386 -23.276 -0.0065979 644.39 0.0015519 -24.847 -24.843 -0.015678 1.3497 2.0524 1549.1 -0.0067830 433.16 0.16478 0.084699 11.807 423.70 456.15 2.7723 0.99168 1.1823 196.44 1.0024 4.7161 0.0068932
-99.625 0.43414 0.0035272 -21.215 -21.096 0.0059486 643.36 0.0015544 -22.794 -22.789 -0.0038103 1.3505 2.0547 1542.4 -0.0067639 425.95 0.16416 0.091731 10.901 424.68 457.31 2.7630 0.99496 1.1858 196.94 0.98838 4.7434 0.0069653
-98.625 0.47230 0.0038157 -19.035 -18.904 0.018480 642.32 0.0015569 -20.738 -20.733 0.0080027 1.3514 2.0570 1535.7 -0.0067447 418.92 0.16355 0.099240 10.077 425.66 458.48 2.7538 0.99825 1.1892 197.43 0.97464 4.7707 0.0070377
-97.625 0.51325 0.0041235 -16.844 -16.702 0.030998 641.28 0.0015594 -18.680 -18.674 0.019762 1.3522 2.0594 1529.0 -0.0067251 412.07 0.16294 0.10725 9.3239 426.65 459.64 2.7448 1.0016 1.1927 197.92 0.96112 4.7979 0.0071103
-96.625 0.55714 0.0044515 -14.642 -14.488 0.043506 640.24 0.0015619 -16.620 -16.614 0.031467 1.3531 2.0618 1522.3 -0.0067053 405.39 0.16233 0.11579 8.6365 427.63 460.81 2.7360 1.0049 1.1962 198.40 0.94783 4.8251 0.0071832
-95.625 0.60416 0.0048007 -12.429 -12.262 0.056006 639.20 0.0015645 -14.557 -14.550 0.043120 1.3540 2.0642 1515.7 -0.0066853 398.88 0.16171 0.12488 8.0078 428.62 461.98 2.7274 1.0082 1.1997 198.88 0.93475 4.8524 0.0072564
-94.625 0.65446 0.0051721 -10.205 -10.024 0.068501 638.16 0.0015670 -12.491 -12.484 0.054721 1.3550 2.0667 1509.0 -0.0066650 392.53 0.16110 0.13455 7.4323 429.61 463.15 2.7189 1.0116 1.2032 199.36 0.92188 4.8796 0.0073299
-93.625 0.70822 0.0055669 -7.9686 -7.7732 0.080992 637.12 0.0015696 -10.424 -10.416 0.066271 1.3560 2.0691 1502.3 -0.0066444 386.34 0.16048 0.14482 6.9050 430.60 464.32 2.7107 1.0149 1.2068 199.83 0.90921 4.9068 0.0074036
-92.625 0.76564 0.0059860 -5.7200 -5.5088 0.093482 636.07 0.0015722 -8.3535 -8.3452 0.077771 1.3570 2.0716 1495.6 -0.0066236 380.31 0.15987 0.15573 6.4212 431.60 465.49 2.7025 1.0183 1.2104 200.30 0.89673 4.9340 0.0074776
-91.625 0.82689 0.0064306 -3.4586 -3.2306 0.10597 635.02 0.0015747 -6.2808 -6.2719 0.089220 1.3580 2.0742 1488.9 -0.0066025 374.41 0.15925 0.16731 5.9769 432.59 466.67 2.6946 1.0217 1.2140 200.77 0.88445 4.9611 0.0075518
-90.625 0.89218 0.0069019 -1.1840 -0.93794 0.11847 633.98 0.0015773 -4.2056 -4.1959 0.10062 1.3591 2.0767 1482.2 -0.0065811 368.66 0.15864 0.17958 5.5685 433.59 467.84 2.6868 1.0251 1.2177 201.24 0.87236 4.9883 0.0076263
-89.625 0.96172 0.0074010 1.1043 1.3695 0.13097 632.93 0.0015800 -2.1279 -2.1174 0.11197 1.3602 2.0793 1475.5 -0.0065595 363.05 0.15802 0.19258 5.1928 434.59 469.02 2.6791 1.0285 1.2213 201.70 0.86045 5.0154 0.0077011
-88.625 1.0357 0.0079292 3.4068 3.6924 0.14348 631.88 0.0015826 -0.047516 -0.036215 0.12328 1.3613 2.0819 1468.8 -0.0065375 357.56 0.15740 0.20633 4.8466 435.59 470.20 2.6717 1.0320 1.2250 202.15 0.84873 5.0425 0.0077761
-87.625 1.1144 0.0084876 5.7239 6.0312 0.15601 630.83 0.0015852 2.0355 2.0476 0.13454 1.3625 2.0846 1462.1 -0.0065153 352.21 0.15679 0.22087 4.5276 436.60 471.39 2.6643 1.0354 1.2288 202.61 0.83718 5.0696 0.0078514
-86.625 1.1979 0.0090776 8.0561 8.3864 0.16855 629.77 0.0015879 4.1211 4.1342 0.14575 1.3637 2.0873 1455.4 -0.0064928 346.98 0.15617 0.23623 4.2331 437.61 472.57 2.6571 1.0389 1.2325 203.06 0.82580 5.0967 0.0079270
-85.625 1.2866 0.0097004 10.404 10.759 0.18110 628.72 0.0015905 6.2094 6.2235 0.15691 1.3649 2.0900 1448.8 -0.0064701 341.87 0.15555 0.25245 3.9612 438.61 473.75 2.6501 1.0424 1.2363 203.50 0.81460 5.1237 0.0080028
-84.625 1.3806 0.010357 12.768 13.149 0.19367 627.66 0.0015932 8.3004 8.3155 0.16803 1.3661 2.0927 1442.1 -0.0064470 336.87 0.15494 0.26956 3.7097 439.63 474.94 2.6432 1.0460 1.2402 203.95 0.80356 5.1508 0.0080789
-83.625 1.4803 0.011050 15.148 15.557 0.20626 626.60 0.0015959 10.394 10.410 0.17911 1.3674 2.0955 1435.4 -0.0064236 331.99 0.15432 0.28760 3.4771 440.64 476.13 2.6364 1.0495 1.2440 204.38 0.79269 5.1778 0.0081553
-82.625 1.5858 0.011779 17.546 17.983 0.21888 625.54 0.0015986 12.491 12.508 0.19014 1.3687 2.0983 1428.7 -0.0063999 327.22 0.15370 0.30659 3.2616 441.65 477.31 2.6298 1.0531 1.2479 204.82 0.78199 5.2048 0.0082319
-81.625 1.6975 0.012547 19.961 20.429 0.23153 624.48 0.0016013 14.590 14.609 0.20113 1.3700 2.1012 1422.0 -0.0063759 322.55 0.15309 0.32659 3.0619 442.67 478.50 2.6233 1.0567 1.2519 205.25 0.77144 5.2318 0.0083088
-80.625 1.8155 0.013355 22.395 22.895 0.24420 623.42 0.0016041 16.692 16.712 0.21208 1.3714 2.1041 1415.4 -0.0063516 317.99 0.15247 0.34763 2.8766 443.69 479.70 2.6169 1.0603 1.2558 205.67 0.76106 5.2587 0.0083860
-79.625 1.9402 0.014204 24.847 25.382 0.25690 622.36 0.0016068 18.797 18.819 0.22299 1.3728 2.1070 1408.7 -0.0063270 313.52 0.15186 0.36974 2.7046 444.71 480.89 2.6106 1.0639 1.2598 206.10 0.75083 5.2857 0.0084634
-78.625 2.0718 0.015096 27.318 27.889 0.26964 621.29 0.0016096 20.905 20.928 0.23385 1.3742 2.1099 1402.0 -0.0063021 309.15 0.15124 0.39296 2.5448 445.73 482.08 2.6045 1.0676 1.2639 206.51 0.74076 5.3126 0.0085411
-77.625 2.2107 0.016032 29.809 30.419 0.28241 620.22 0.0016123 23.016 23.040 0.24468 1.3757 2.1129 1395.3 -0.0062768 304.88 0.15062 0.41735 2.3961 446.75 483.27 2.5985 1.0712 1.2680 206.93 0.73084 5.3395 0.0086190
-76.625 2.3571 0.017014 32.321 32.971 0.29522 619.15 0.0016151 25.130 25.156 0.25546 1.3772 2.1159 1388.7 -0.0062512 300.69 0.15001 0.44292 2.2577 447.78 484.47 2.5926 1.0749 1.2721 207.34 0.72107 5.3664 0.0086972
-75.625 2.5113 0.018043 34.853 35.545 0.30808 618.08 0.0016179 27.247 27.275 0.26620 1.3787 2.1190 1382.0 -0.0062253 296.59 0.14939 0.46974 2.1288 448.81 485.67 2.5869 1.0787 1.2762 207.74 0.71146 5.3933 0.0087757
-74.625 2.6736 0.019122 37.407 38.144 0.32097 617.01 0.0016207 29.366 29.396 0.27691 1.3802 2.1221 1375.4 -0.0061990 292.58 0.14878 0.49783 2.0087 449.83 486.86 2.5812 1.0824 1.2804 208.14 0.70200 5.4201 0.0088544
-73.625 2.8444 0.020251 39.982 40.767 0.33391 615.93 0.0016236 31.489 31.521 0.28758 1.3818 2.1252 1368.7 -0.0061724 288.65 0.14816 0.52725 1.8966 450.86 488.06 2.5757 1.0862 1.2847 208.54 0.69268 5.4469 0.0089334
-72.625 3.0240 0.021434 42.581 43.415 0.34690 614.85 0.0016264 33.615 33.649 0.29821 1.3834 2.1284 1362.0 -0.0061454 284.81 0.14755 0.55804 1.7920 451.90 489.26 2.5703 1.0900 1.2889 208.93 0.68351 5.4737 0.0090126
-71.625 3.2127 0.022670 45.202 46.088 0.35994 613.78 0.0016293 35.745 35.781 0.30880 1.3851 2.1316 1355.4 -0.0061181 281.03 0.14694 0.59024 1.6942 452.93 490.46 2.5650 1.0938 1.2932 209.32 0.67448 5.5005 0.0090922
-70.625 3.4108 0.023962 47.847 48.788 0.37304 612.69 0.0016321 37.877 37.915 0.31935 1.3867 2.1349 1348.7 -0.0060904 277.34 0.14632 0.62390 1.6028 453.96 491.66 2.5598 1.0976 1.2976 209.70 0.66560 5.5273 0.0091720
-69.625 3.6187 0.025312 50.517 51.515 0.38619 611.61 0.0016350 40.013 40.053 0.32987 1.3884 2.1382 1342.1 -0.0060624 273.72 0.14571 0.65906 1.5173 455.00 492.86 2.5547 1.1015 1.3020 210.08 0.65687 5.5540 0.0092520
-68.625 3.8367 0.026722 53.211 54.269 0.39939 610.53 0.0016379 42.152 42.195 0.34036 1.3902 2.1415 1335.5 -0.0060339 270.17 0.14510 0.69577 1.4372 456.04 494.06 2.5497 1.1054 1.3064 210.45 0.64827 5.5807 0.0093324
-67.625 4.0652 0.028193 55.931 57.052 0.41266 609.44 0.0016409 44.294 44.340 0.35080 1.3919 2.1449 1328.8 -0.0060051 266.69 0.14449 0.73408 1.3622 457.08 495.26 2.5448 1.1093 1.3109 210.82 0.63981 5.6074 0.0094130
-66.625 4.3046 0.029727 58.677 59.864 0.42599 608.35 0.0016438 46.439 46.488 0.36122 1.3937 2.1483 1322.2 -0.0059760 263.28 0.14388 0.77404 1.2919 458.12 496.46 2.5400 1.1133 1.3154 211.18 0.63150 5.6341 0.0094939
-65.625 4.5551 0.031327 61.450 62.706 0.43938 607.26 0.0016467 48.588 48.640 0.37160 1.3955 2.1518 1315.6 -0.0059464 259.93 0.14327 0.81570 1.2259 459.16 497.67 2.5353 1.1172 1.3200 211.54 0.62332 5.6608 0.0095750
-64.625 4.8173 0.032993 64.250 65.579 0.45284 606.16 0.0016497 50.740 50.795 0.38195 1.3974 2.1553 1308.9 -0.0059164 256.65 0.14266 0.85910 1.1640 460.21 498.87 2.5307 1.1212 1.3246 211.89 0.61527 5.6874 0.0096564
-63.625 5.0915 0.034729 67.078 68.482 0.46637 605.07 0.0016527 52.896 52.954 0.39226 1.3993 2.1588 1302.3 -0.0058861 253.42 0.14205 0.90429 1.1058 461.25 500.07 2.5262 1.1252 1.3293 212.24 0.60736 5.7140 0.0097382
-62.625 5.3781 0.036536 69.934 71.418 0.47997 603.97 0.0016557 55.055 55.117 0.40254 1.4012 2.1624 1295.7 -0.0058553 250.26 0.14144 0.95134 1.0511 462.30 501.28 2.5218 1.1293 1.3340 212.58 0.59958 5.7406 0.0098201
-61.625 5.6774 0.038416 72.820 74.386 0.49364 602.87 0.0016587 57.218 57.283 0.41279 1.4031 2.1660 1289.1 -0.0058241 247.16 0.14084 1.0003 0.99972 463.35 502.48 2.5175 1.1333 1.3387 212.92 0.59194 5.7672 0.0099024
-60.625 5.9899 0.040371 75.735 77.387 0.50739 601.77 0.0016618 59.385 59.453 0.42301 1.4051 2.1697 1282.5 -0.0057925 244.12 0.14023 1.0512 0.95131 464.40 503.68 2.5133 1.1374 1.3435 213.26 0.58442 5.7938 0.0099850
-59.625 6.3160 0.042403 78.681 80.423 0.52122 600.66 0.0016648 61.554 61.627 0.43320 1.4071 2.1734 1275.9 -0.0057605 241.13 0.13962 1.1041 0.90573 465.45 504.89 2.5091 1.1415 1.3483 213.58 0.57704 5.8203 0.010068
-58.625 6.6561 0.044515 81.657 83.493 0.53513 599.55 0.0016679 63.728 63.805 0.44335 1.4091 2.1772 1269.3 -0.0057280 238.19 0.13902 1.1591 0.86277 466.50 506.09 2.5051 1.1457 1.3532 213.90 0.56978 5.8468 0.010151
-57.625 7.0107 0.046708 84.666 86.599 0.54912 598.44 0.0016710 65.905 65.986 0.45348 1.4111 2.1810 1262.7 -0.0056951 235.31 0.13842 1.2161 0.82228 467.55 507.30 2.5011 1.1498 1.3581 214.22 0.56265 5.8733 0.010234
-56.625 7.3801 0.048985 87.706 89.741 0.56319 597.33 0.0016741 68.086 68.172 0.46358 1.4132 2.1848 1256.1 -0.0056617 232.48 0.13781 1.2754 0.78408 468.60 508.50 2.4972 1.1540 1.3631 214.53 0.55564 5.8998 0.010318
-55.625 7.7648 0.051348 90.779 92.920 0.57735 596.22 0.0016772 70.271 70.361 0.47364 1.4153 2.1887 1249.5 -0.0056279 229.69 0.13721 1.3369 0.74802 469.66 509.71 2.4934 1.1582 1.3681 214.84 0.54875 5.9263 0.010402
-54.625 8.1652 0.053798 93.885 96.137 0.59160 595.10 0.0016804 72.460 72.554 0.48368 1.4174 2.1927 1242.9 -0.0055937 226.96 0.13661 1.4006 0.71396 470.72 510.91 2.4897 1.1624 1.3731 215.14 0.54199 5.9527 0.010486
-53.625 8.5819 0.056339 97.026 99.393 0.60594 593.98 0.0016836 74.652 74.752 0.49369 1.4196 2.1967 1236.3 -0.0055589 224.27 0.13601 1.4667 0.68178 471.77 512.11 2.4860 1.1667 1.3782 215.43 0.53535 5.9792 0.010571
-52.625 9.0151 0.058973 100.20 102.69 0.62037 592.86 0.0016867 76.849 76.954 0.50368 1.4218 2.2007 1229.8 -0.0055237 221.63 0.13541 1.5353 0.65136 472.83 513.32 2.4824 1.1710 1.3834 215.72 0.52882 6.0056 0.010656
-51.625 9.4655 0.061702 103.41 106.02 0.63490 591.73 0.0016900 79.049 79.159 0.51363 1.4240 2.2048 1223.2 -0.0054880 219.04 0.13482 1.6062 0.62258 473.89 514.52 2.4789 1.1752 1.3886 216.00 0.52241 6.0320 0.010741
-50.625 9.9335 0.064528 106.66 109.40 0.64952 590.60 0.0016932 81.253 81.369 0.52356 1.4262 2.2089 1216.6 -0.0054519 216.48 0.13422 1.6797 0.59534 474.95 515.73 2.4755 1.1796 1.3938 216.28 0.51612 6.0584 0.010827
-49.625 10.419 0.067454 109.94 112.81 0.66424 589.47 0.0016964 83.462 83.584 0.53347 1.4285 2.2131 1210.1 -0.0054152 213.98 0.13363 1.7558 0.56954 476.01 516.93 2.4722 1.1839 1.3991 216.55 0.50994 6.0848 0.010913
-48.625 10.924 0.070482 113.26 116.27 0.67906 588.34 0.0016997 85.674 85.802 0.54334 1.4308 2.2173 1203.5 -0.0053780 211.51 0.13303 1.8345 0.54510 477.07 518.13 2.4689 1.1883 1.4044 216.82 0.50387 6.1112 0.010999
-47.625 11.448 0.073615 116.62 119.78 0.69398 587.20 0.0017030 87.891 88.025 0.55319 1.4331 2.2216 1196.9 -0.0053403 209.08 0.13244 1.9159 0.52194 478.14 519.33 2.4657 1.1927 1.4098 217.08 0.49792 6.1375 0.011085
-46.625 11.991 0.076855 120.01 123.32 0.70900 586.06 0.0017063 90.111 90.252 0.56302 1.4354 2.2259 1190.4 -0.0053020 206.69 0.13185 2.0001 0.49997 479.20 520.53 2.4625 1.1971 1.4153 217.33 0.49207 6.1639 0.011172
-45.625 12.554 0.080204 123.45 126.91 0.72414 584.92 0.0017096 92.336 92.484 0.57282 1.4378 2.2303 1183.8 -0.0052633 204.34 0.13126 2.0872 0.47912 480.27 521.74 2.4594 1.2015 1.4207 217.58 0.48633 6.1902 0.011259
-44.625 13.137 0.083666 126.92 130.55 0.73937 583.77 0.0017130 94.565 94.720 0.58260 1.4402 2.2347 1177.3 -0.0052240 202.03 0.13067 2.1771 0.45933 481.33 522.94 2.4564 1.2060 1.4263 217.82 0.48069 6.2165 0.011347
-43.625 13.741 0.087243 130.44 134.23 0.75472 582.62 0.0017164 96.799 96.961 0.59235 1.4426 2.2392 1170.7 -0.0051841 199.75 0.13008 2.2700 0.44053 482.40 524.14 2.4535 1.2104 1.4319 218.05 0.47516 6.2429 0.011435
-42.625 14.367 0.090937 134.00 137.96 0.77018 581.47 0.0017198 99.036 99.207 0.60208 1.4450 2.2437 1164.2 -0.0051437 197.51 0.12949 2.3659 0.42267 483.46 525.33 2.4506 1.2149 1.4375 218.28 0.46973 6.2692 0.011523
-41.625 15.015 0.094752 137.59 141.73 0.78575 580.32 0.0017232 101.28 101.46 0.61179 1.4475 2.2483 1157.7 -0.0051027 195.30 0.12891 2.4649 0.40569 484.53 526.53 2.4478 1.2195 1.4432 218.50 0.46440 6.2955 0.011612
-40.625 15.686 0.098690 141.23 145.56 0.80144 579.16 0.0017266 103.52 103.71 0.62147 1.4500 2.2529 1151.1 -0.0050611 193.13 0.12832 2.5671 0.38954 485.60 527.73 2.4450 1.2240 1.4489 218.72 0.45917 6.3218 0.011701
-39.625 16.380 0.10275 144.91 149.43 0.81724 578.00 0.0017301 105.78 105.97 0.63113 1.4525 2.2576 1144.6 -0.0050189 190.99 0.12774 2.6725 0.37418 486.67 528.93 2.4423 1.2286 1.4547 218.93 0.45403 6.3481 0.011790
-38.625 17.097 0.10694 148.64 153.35 0.83315 576.83 0.0017336 108.03 108.24 0.64077 1.4550 2.2623 1138.0 -0.0049761 188.88 0.12716 2.7813 0.35955 487.74 530.12 2.4397 1.2332 1.4606 219.13 0.44900 6.3744 0.011880
-37.625 17.838 0.11127 152.41 157.33 0.84919 575.66 0.0017371 110.29 110.51 0.65039 1.4576 2.2671 1131.5 -0.0049327 186.81 0.12658 2.8934 0.34562 488.81 531.32 2.4371 1.2378 1.4665 219.33 0.44405 6.4007 0.011970
-36.625 18.604 0.11573 156.22 161.35 0.86535 574.49 0.0017407 112.56 112.78 0.65999 1.4602 2.2719 1125.0 -0.0048887 184.76 0.12600 3.0089 0.33235 489.88 532.51 2.4346 1.2424 1.4724 219.52 0.43920 6.4270 0.012060
-35.625 19.395 0.12032 160.08 165.43 0.88163 573.32 0.0017442 114.83 115.06 0.66956 1.4628 2.2768 1118.5 -0.0048440 182.75 0.12542 3.1280 0.31969 490.95 533.70 2.4321 1.2471 1.4784 219.70 0.43444 6.4533 0.012151
-34.625 20.212 0.12505 163.99 169.56 0.89803 572.14 0.0017478 117.10 117.34 0.67912 1.4654 2.2818 1111.9 -0.0047987 180.76 0.12485 3.2506 0.30763 492.02 534.89 2.4297 1.2517 1.4845 219.88 0.42977 6.4797 0.012243
-33.625 21.056 0.12993 167.94 173.74 0.91456 570.96 0.0017514 119.38 119.63 0.68865 1.4681 2.2868 1105.4 -0.0047527 178.80 0.12427 3.3770 0.29612 493.09 536.08 2.4273 1.2564 1.4906 220.05 0.42519 6.5060 0.012334
-32.625 21.926 0.13496 171.93 177.98 0.93122 569.77 0.0017551 121.66 121.93 0.69817 1.4708 2.2918 1098.9 -0.0047061 176.87 0.12370 3.5071 0.28514 494.17 537.27 2.4250 1.2611 1.4968 220.21 0.42070 6.5323 0.012426
-31.625 22.823 0.14013 175.98 182.27 0.94800 568.58 0.0017588 123.95 124.23 0.70767 1.4735 2.2970 1092.3 -0.0046587 174.97 0.12313 3.6410 0.27465 495.24 538.46 2.4227 1.2659 1.5031 220.36 0.41629 6.5587 0.012519
-30.625 23.749 0.14546 180.07 186.62 0.96491 567.39 0.0017625 126.24 126.53 0.71714 1.4762 2.3021 1085.8 -0.0046107 173.09 0.12256 3.7787 0.26464 496.31 539.64 2.4205 1.2706 1.5094 220.51 0.41196 6.5850 0.012612
-29.625 24.703 0.15094 184.21 191.03 0.98196 566.19 0.0017662 128.54 128.84 0.72660 1.4790 2.3074 1079.3 -0.0045619 171.24 0.12200 3.9205 0.25507 497.38 540.83 2.4184 1.2754 1.5157 220.65 0.40772 6.6114 0.012706
-28.625 25.687 0.15658 188.41 195.49 0.99913 564.99 0.0017699 130.84 131.16 0.73604 1.4818 2.3126 1072.8 -0.0045124 169.42 0.12143 4.0663 0.24592 498.46 542.01 2.4162 1.2802 1.5222 220.79 0.40356 6.6378 0.012800
-27.625 26.700 0.16239 192.65 200.01 1.0164 563.78 0.0017737 133.15 133.48 0.74547 1.4846 2.3180 1066.2 -0.0044621 167.62 0.12087 4.2163 0.23717 499.53 543.19 2.4142 1.2850 1.5286 220.91 0.39947 6.6642 0.012894
-26.625 27.743 0.16836 196.94 204.59 1.0339 562.57 0.0017775 135.47 135.81 0.75487 1.4874 2.3234 1059.7 -0.0044111 165.84 0.12031 4.3705 0.22881 500.60 544.37 2.4122 1.2899 1.5352 221.03 0.39547 6.6906 0.012989
-25.625 28.817 0.17450 201.28 209.23 1.0515 561.36 0.0017814 137.78 138.14 0.76426 1.4902 2.3289 1053.2 -0.0043593 164.09 0.11975 4.5290 0.22080 501.68 545.55 2.4102 1.2947 1.5418 221.14 0.39154 6.7171 0.013084
-24.625 29.923 0.18081 205.68 213.93 1.0692 560.14 0.0017853 140.11 140.48 0.77363 1.4931 2.3344 1046.7 -0.0043067 162.36 0.11919 4.6918 0.21314 502.75 546.72 2.4083 1.2996 1.5485 221.25 0.38768 6.7436 0.013180
-23.625 31.061 0.18730 210.12 218.69 1.0870 558.92 0.0017892 142.44 142.82 0.78298 1.4960 2.3400 1040.1 -0.0042533 160.65 0.11863 4.8592 0.20580 503.82 547.90 2.4064 1.3045 1.5552 221.35 0.38391 6.7701 0.013277
-22.625 32.232 0.19397 214.62 223.51 1.1050 557.69 0.0017931 144.77 145.17 0.79232 1.4990 2.3457 1033.6 -0.0041990 158.97 0.11807 5.0311 0.19877 504.90 549.07 2.4045 1.3095 1.5621 221.44 0.38020 6.7967 0.013374
-21.625 33.435 0.20083 219.18 228.40 1.1232 556.46 0.0017971 147.11 147.52 0.80164 1.5019 2.3514 1027.1 -0.0041439 157.30 0.11752 5.2076 0.19203 505.97 550.24 2.4027 1.3144 1.5690 221.52 0.37656 6.8232 0.013471
-20.625 34.673 0.20787 223.78 233.35 1.1415 555.23 0.0018011 149.45 149.88 0.81095 1.5049 2.3572 1020.6 -0.0040879 155.66 0.11697 5.3889 0.18557 507.04 551.40 2.4010 1.3194 1.5759 221.59 0.37300 6.8499 0.013569
-19.625 35.946 0.21510 228.45 238.36 1.1599 553.99 0.0018051 151.80 152.25 0.82024 1.5079 2.3630 1014.0 -0.0040311 154.04 0.11642 5.5750 0.17937 508.11 552.57 2.3992 1.3244 1.5829 221.66 0.36950 6.8765 0.013668
-18.625 37.253 0.22253 233.16 243.44 1.1785 552.74 0.0018092 154.16 154.62 0.82952 1.5109 2.3689 1007.5 -0.0039733 152.44 0.11587 5.7660 0.17343 509.19 553.73 2.3976 1.3294 1.5901 221.72 0.36608 6.9032 0.013767
-17.625 38.596 0.23016 237.94 248.58 1.1972 551.49 0.0018133 156.52 157.00 0.83878 1.5140 2.3749 1001.0 -0.0039145 150.86 0.11532 5.9621 0.16773 510.26 554.89 2.3959 1.3345 1.5972 221.77 0.36272 6.9300 0.013867
-16.625 39.976 0.23799 242.77 253.79 1.2160 550.24 0.0018174 158.89 159.39 0.84803 1.5171 2.3810 994.44 -0.0038549 149.29 0.11478 6.1632 0.16225 511.33 556.05 2.3943 1.3395 1.6045 221.81 0.35942 6.9568 0.013968
-15.625 41.392 0.24603 247.65 259.07 1.2350 548.98 0.0018216 161.26 161.78 0.85726 1.5202 2.3871 987.91 -0.0037942 147.75 0.11423 6.3696 0.15700 512.40 557.20 2.3927 1.3446 1.6119 221.85 0.35619 6.9836 0.014069
-14.625 42.846 0.25429 252.60 264.41 1.2542 547.71 0.0018258 163.64 164.18 0.86649 1.5233 2.3933 981.37 -0.0037325 146.22 0.11369 6.5812 0.15195 513.47 558.36 2.3912 1.3497 1.6193 221.87 0.35302 7.0105 0.014170
-13.625 44.338 0.26276 257.60 269.83 1.2735 546.44 0.0018300 166.02 166.58 0.87569 1.5264 2.3996 974.83 -0.0036698 144.72 0.11315 6.7983 0.14710 514.54 559.51 2.3897 1.3549 1.6268 221.89 0.34992 7.0375 0.014273
-12.625 45.870 0.27145 262.66 275.31 1.2930 545.17 0.0018343 168.41 168.99 0.88489 1.5296 2.4059 968.29 -0.0036061 143.23 0.11261 7.0208 0.14243 515.61 560.65 2.3883 1.3600 1.6344 221.90 0.34688 7.0646 0.014376
-11.625 47.440 0.28037 267.78 280.86 1.3126 543.89 0.0018386 170.81 171.41 0.89407 1.5328 2.4124 961.75 -0.0035413 141.76 0.11208 7.2490 0.13795 516.68 561.80 2.3868 1.3652 1.6421 221.91 0.34389 7.0917 0.014479
-10.625 49.051 0.28952 272.96 286.49 1.3324 542.60 0.0018430 173.21 173.83 0.90324 1.5360 2.4189 955.20 -0.0034753 140.30 0.11154 7.4829 0.13364 517.75 562.94 2.3854 1.3704 1.6498 221.90 0.34097 7.1188 0.014584
-9.6250 50.703 0.29890 278.20 292.18 1.3523 541.31 0.0018474 175.61 176.26 0.91240 1.5393 2.4255 948.65 -0.0034082 138.86 0.11101 7.7226 0.12949 518.81 564.08 2.3841 1.3757 1.6577 221.88 0.33810 7.1461 0.014689
-8.6250 52.396 0.30853 283.50 297.95 1.3724 540.02 0.0018518 178.03 178.70 0.92154 1.5426 2.4321 942.10 -0.0033400 137.44 0.11048 7.9683 0.12550 519.88 565.21 2.3827 1.3809 1.6657 221.86 0.33529 7.1734 0.014795
-7.6250 54.131 0.31840 288.86 303.79 1.3926 538.72 0.0018563 180.45 181.14 0.93068 1.5459 2.4389 935.55 -0.0032705 136.03 0.10995 8.2200 0.12165 520.94 566.35 2.3814 1.3862 1.6737 221.83 0.33254 7.2008 0.014902
-6.6250 55.909 0.32852 294.29 309.71 1.4130 537.41 0.0018608 182.87 183.59 0.93980 1.5492 2.4457 928.99 -0.0031998 134.64 0.10942 8.4779 0.11795 522.01 567.48 2.3801 1.3915 1.6819 221.79 0.32984 7.2284 0.015009
-5.6250 57.730 0.33890 299.77 315.69 1.4335 536.10 0.0018653 185.30 186.05 0.94892 1.5525 2.4526 922.43 -0.0031279 133.27 0.10889 8.7420 0.11439 523.07 568.60 2.3789 1.3969 1.6902 221.74 0.32720 7.2560 0.015117
-4.6250 59.595 0.34954 305.32 321.76 1.4542 534.78 0.0018699 187.74 188.51 0.95802 1.5559 2.4596 915.87 -0.0030546 131.91 0.10837 9.0126 0.11096 524.13 569.72 2.3777 1.4022 1.6985 221.68 0.32461 7.2837 0.015226
-3.6250 61.505 0.36045 310.94 327.90 1.4751 533.45 0.0018746 190.19 190.98 0.96711 1.5593 2.4667 909.30 -0.0029800 130.56 0.10785 9.2896 0.10765 525.19 570.84 2.3765 1.4076 1.7070 221.62 0.32207 7.3115 0.015336
-2.6250 63.461 0.37163 316.62 334.12 1.4961 532.12 0.0018793 192.64 193.46 0.97620 1.5627 2.4739 902.73 -0.0029041 129.23 0.10733 9.5733 0.10446 526.25 571.96 2.3753 1.4131 1.7156 221.54 0.31958 7.3394 0.015447
-1.6250 65.462 0.38309 322.36 340.42 1.5173 530.78 0.0018840 195.10 195.95 0.98527 1.5662 2.4811 896.16 -0.0028267 127.91 0.10681 9.8638 0.10138 527.31 573.07 2.3742 1.4185 1.7243 221.45 0.31715 7.3674 0.015559
-0.62500 67.510 0.39483 328.17 346.79 1.5387 529.44 0.0018888 197.56 198.44 0.99434 1.5696 2.4885 889.58 -0.0027478 126.61 0.10629 10.161 0.098414 528.37 574.18 2.3731 1.4240 1.7331 221.36 0.31476 7.3956 0.015671
0.37500 69.606 0.40687 334.05 353.24 1.5602 528.09 0.0018936 200.03 200.94 1.0034 1.5731 2.4960 883.00 -0.0026675 125.32 0.10578 10.466 0.095552 529.42 575.28 2.3720 1.4295 1.7421 221.26 0.31242 7.4239 0.015785
1.3750 71.749 0.41920 339.99 359.78 1.5819 526.73 0.0018985 202.51 203.45 1.0124 1.5767 2.5035 876.42 -0.0025856 124.04 0.10527 10.777 0.092790 530.48 576.38 2.3709 1.4350 1.7512 221.14 0.31013 7.4523 0.015899
2.3750 73.941 0.43184 346.00 366.39 1.6038 525.37 0.0019034 204.99 205.96 1.0215 1.5802 2.5112 869.83 -0.0025022 122.78 0.10476 11.096 0.090123 531.53 577.47 2.3699 1.4406 1.7604 221.02 0.30789 7.4808 0.016015
3.3750 76.183 0.44478 352.08 373.09 1.6258 523.99 0.0019084 207.48 208.48 1.0305 1.5838 2.5190 863.24 -0.0024171 121.53 0.10425 11.422 0.087549 532.58 578.56 2.3688 1.4462 1.7697 220.89 0.30569 7.5095 0.016131
4.3750 78.475 0.45805 358.23 379.87 1.6480 522.62 0.0019134 209.98 211.01 1.0395 1.5874 2.5268 856.64 -0.0023303 120.29 0.10374 11.756 0.085062 533.63 579.65 2.3678 1.4518 1.7792 220.75 0.30354 7.5384 0.016249
5.3750 80.817 0.47164 364.44 386.73 1.6703 521.23 0.0019185 212.48 213.55 1.0486 1.5910 2.5348 850.04 -0.0022417 119.06 0.10324 12.098 0.082660 534.67 580.73 2.3669 1.4575 1.7888 220.60 0.30144 7.5674 0.016368
6.3750 83.211 0.48557 370.73 393.68 1.6929 519.84 0.0019237 215.00 216.10 1.0576 1.5946 2.5429 843.43 -0.0021514 117.85 0.10273 12.447 0.080340 535.72 581.81 2.3659 1.4632 1.7986 220.44 0.29938 7.5966 0.016487
7.3750 85.657 0.49984 377.08 400.71 1.7156 518.44 0.0019289 217.51 218.65 1.0666 1.5983 2.5511 836.82 -0.0020593 116.65 0.10223 12.805 0.078096 536.76 582.88 2.3650 1.4689 1.8085 220.27 0.29736 7.6259 0.016608
8.3750 88.156 0.51445 383.51 407.82 1.7384 517.03 0.0019341 220.04 221.22 1.0756 1.6020 2.5595 830.20 -0.0019652 115.46 0.10173 13.170 0.075928 537.80 583.95 2.3640 1.4746 1.8186 220.08 0.29538 7.6555 0.016730
9.3750 90.708 0.52942 390.01 415.03 1.7615 515.62 0.0019394 222.57 223.79 1.0846 1.6057 2.5679 823.58 -0.0018691 114.28 0.10124 13.545 0.073830 538.84 585.01 2.3631 1.4804 1.8288 219.89 0.29345 7.6852 0.016853
10.375 93.315 0.54476 396.58 422.32 1.7847 514.19 0.0019448 225.11 226.37 1.0936 1.6095 2.5765 816.96 -0.0017710 113.11 0.10074 13.927 0.071802 539.87 586.07 2.3622 1.4863 1.8392 219.69 0.29156 7.7151 0.016978
11.375 95.977 0.56047 403.22 429.69 1.8081 512.76 0.0019502 227.66 228.95 1.1025 1.6132 2.5852 810.32 -0.0016708 111.95 0.10025 14.319 0.069840 540.90 587.12 2.3614 1.4921 1.8498 219.48 0.28971 7.7452 0.017103
12.375 98.694 0.57656 409.94 437.16 1.8316 511.32 0.0019557 230.22 231.55 1.1115 1.6170 2.5940 803.68 -0.0015685 110.80 0.099756 14.719 0.067941 541.93 588.17 2.3605 1.4980 1.8605 219.26 0.28790 7.7756 0.017230
13.375 101.47 0.59305 416.73 444.72 1.8554 509.87 0.0019613 232.78 234.15 1.1205 1.6208 2.6030 797.04 -0.0014639 109.67 0.099267 15.128 0.066103 542.96 589.21 2.3597 1.5040 1.8715 219.03 0.28612 7.8061 0.017359
14.375 104.30 0.60993 423.60 452.36 1.8793 508.42 0.0019669 235.35 236.77 1.1295 1.6247 2.6121 790.39 -0.0013569 108.54 0.098779 15.547 0.064323 543.99 590.24 2.3588 1.5099 1.8826 218.79 0.28439 7.8369 0.017488
15.375 107.19 0.62723 430.54 460.10 1.9034 506.95 0.0019726 237.93 239.39 1.1384 1.6286 2.6214 783.73 -0.0012476 107.43 0.098294 15.974 0.062600 545.01 591.27 2.3580 1.5159 1.8940 218.53 0.28270 7.8680 0.017619
16.375 110.13 0.64495 437.56 467.93 1.9277 505.48 0.0019783 240.52 242.02 1.1474 1.6324 2.6308 777.07 -0.0011357 106.32 0.097810 16.412 0.060931 546.03 592.29 2.3572 1.5220 1.9055 218.27 0.28104 7.8993 0.017752
17.375 113.14 0.66311 444.65 475.85 1.9521 504.00 0.0019841 243.11 244.66 1.1564 1.6364 2.6403 770.40 -0.0010213 105.22 0.097328 16.859 0.059314 547.04 593.31 2.3564 1.5281 1.9172 217.99 0.27942 7.9308 0.017886
18.375 116.21 0.68171 451.82 483.87 1.9768 502.50 0.0019900 245.72 247.31 1.1653 1.6403 2.6501 763.72 -0.00090422 104.14 0.096848 17.317 0.057747 548.05 594.32 2.3557 1.5342 1.9292 217.71 0.27783 7.9626 0.018021
19.375 119.33 0.70077 459.07 491.98 2.0016 501.00 0.0019960 248.33 249.97 1.1743 1.6443 2.6599 757.04 -0.00078435 103.06 0.096371 17.785 0.056228 549.06 595.33 2.3549 1.5404 1.9414 217.41 0.27628 7.9947 0.018159
20.375 122.52 0.72029 466.40 500.19 2.0266 499.49 0.0020020 250.95 252.64 1.1832 1.6483 2.6700 750.35 -0.00066161 101.99 0.095895 18.263 0.054756 550.07 596.32 2.3541 1.5466 1.9538 217.10 0.27477 8.0272 0.018297
21.375 125.77 0.74029 473.81 508.49 2.0518 497.97 0.0020082 253.57 255.32 1.1922 1.6523 2.6802 743.64 -0.00053589 100.93 0.095420 18.752 0.053328 551.07 597.31 2.3534 1.5528 1.9665 216.78 0.27329 8.0599 0.018438
22.375 129.08 0.76079 481.30 516.90 2.0772 496.43 0.0020144 256.21 258.00 1.2012 1.6563 2.6906 736.94 -0.00040708 99.877 0.094948 19.252 0.051943 552.07 598.30 2.3526 1.5591 1.9795 216.45 0.27184 8.0929 0.018580
23.375 132.46 0.78180 488.86 525.40 2.1028 494.89 0.0020206 258.86 260.70 1.2101 1.6604 2.7012 730.22 -0.00027505 98.834 0.094478 19.763 0.050600 553.06 599.27 2.3519 1.5655 1.9927 216.11 0.27043 8.1263 0.018724
24.375 135.90 0.80333 496.51 533.99 2.1285 493.34 0.0020270 261.51 263.41 1.2191 1.6645 2.7120 723.49 -0.00013968 97.800 0.094009 20.285 0.049297 554.05 600.24 2.3512 1.5718 2.0061 215.75 0.26906 8.1600 0.018870
25.375 139.41 0.82539 504.25 542.69 2.1545 491.77 0.0020335 264.17 266.13 1.2280 1.6686 2.7230 716.76 -8.3775e-07 96.773 0.093543 20.820 0.048032 555.03 601.20 2.3504 1.5783 2.0199 215.39 0.26771 8.1941 0.019017
26.375 142.98 0.84801 512.06 551.49 2.1806 490.20 0.0020400 266.84 268.85 1.2370 1.6728 2.7342 710.01 0.00014161 95.755 0.093078 21.366 0.046804 556.01 602.15 2.3497 1.5847 2.0340 215.01 0.26640 8.2286 0.019167
27.375 146.62 0.87119 519.96 560.40 2.2069 488.61 0.0020466 269.52 271.59 1.2459 1.6770 2.7456 703.26 0.00028782 94.745 0.092615 21.924 0.045612 556.99 603.10 2.3490 1.5913 2.0484 214.62 0.26512 8.2634 0.019319
28.375 150.33 0.89496 527.94 569.40 2.2334 487.01 0.0020533 272.21 274.34 1.2549 1.6812 2.7573 696.49 0.00043793 93.742 0.092154 22.495 0.044454 557.96 604.03 2.3483 1.5978 2.0631 214.21 0.26387 8.2987 0.019472
29.375 154.10 0.91933 536.01 578.51 2.2602 485.40 0.0020601 274.91 277.10 1.2638 1.6854 2.7691 689.72 0.00059212 92.747 0.091695 23.079 0.043329 558.92 604.96 2.3476 1.6044 2.0781 213.80 0.26265 8.3344 0.019628
30.375 157.94 0.94432 544.17 587.73 2.2871 483.78 0.0020671 277.62 279.87 1.2728 1.6897 2.7813 682.93 0.00075055 91.760 0.091238 23.676 0.042237 559.88 605.88 2.3469 1.6111 2.0935 213.37 0.26147 8.3705 0.019786
31.375 161.86 0.96995 552.41 597.05 2.3142 482.15 0.0020741 280.34 282.66 1.2818 1.6939 2.7936 676.13 0.00091340 90.779 0.090782 24.287 0.041175 560.84 606.79 2.3462 1.6178 2.1092 212.93 0.26031 8.4071 0.019947
32.375 165.84 0.99624 560.74 606.48 2.3415 480.50 0.0020812 283.07 285.45 1.2908 1.6983 2.8063 669.32 0.0010809 89.806 0.090328 24.911 0.040143 561.79 607.69 2.3455 1.6246 2.1254 212.48 0.25919 8.4442 0.020110
33.375 167.15 undefined 563.32 609.42 2.3499 25.000 0.040000 563.32 609.42 2.3499 1.6281 2.1263 212.95 0.25613 8.4752 0.020234 25.000 0.040000 563.32 609.42 2.3499 1.6281 2.1263 212.95 0.25613 8.4752 0.020234
34.375 168.01 undefined 564.95 611.28 2.3552 25.000 0.040000 564.95 611.28 2.3552 1.6312 2.1248 213.57 0.25282 8.5052 0.020352 25.000 0.040000 564.95 611.28 2.3552 1.6312 2.1248 213.57 0.25282 8.5052 0.020352
35.375 168.87 undefined 566.58 613.15 2.3605 25.000 0.040000 566.58 613.15 2.3605 1.6342 2.1234 214.19 0.24958 8.5351 0.020470 25.000 0.040000 566.58 613.15 2.3605 1.6342 2.1234 214.19 0.24958 8.5351 0.020470
36.375 169.72 undefined 568.22 615.03 2.3658 25.000 0.040000 568.22 615.03 2.3658 1.6373 2.1222 214.80 0.24640 8.5650 0.020588 25.000 0.040000 568.22 615.03 2.3658 1.6373 2.1222 214.80 0.24640 8.5650 0.020588
37.375 170.58 undefined 569.86 616.90 2.3711 25.000 0.040000 569.86 616.90 2.3711 1.6404 2.1211 215.41 0.24328 8.5948 0.020708 25.000 0.040000 569.86 616.90 2.3711 1.6404 2.1211 215.41 0.24328 8.5948 0.020708
38.375 171.43 undefined 571.50 618.78 2.3764 25.000 0.040000 571.50 618.78 2.3764 1.6436 2.1202 216.02 0.24022 8.6247 0.020827 25.000 0.040000 571.50 618.78 2.3764 1.6436 2.1202 216.02 0.24022 8.6247 0.020827
39.375 172.29 undefined 573.14 620.66 2.3817 25.000 0.040000 573.14 620.66 2.3817 1.6467 2.1194 216.63 0.23723 8.6545 0.020947 25.000 0.040000 573.14 620.66 2.3817 1.6467 2.1194 216.63 0.23723 8.6545 0.020947
40.375 173.14 undefined 574.79 622.54 2.3869 25.000 0.040000 574.79 622.54 2.3869 1.6499 2.1187 217.23 0.23429 8.6843 0.021067 25.000 0.040000 574.79 622.54 2.3869 1.6499 2.1187 217.23 0.23429 8.6843 0.021067
41.375 173.99 undefined 576.44 624.43 2.3922 25.000 0.040000 576.44 624.43 2.3922 1.6531 2.1182 217.83 0.23141 8.7140 0.021188 25.000 0.040000 576.44 624.43 2.3922 1.6531 2.1182 217.83 0.23141 8.7140 0.021188
42.375 174.83 undefined 578.10 626.32 2.3974 25.000 0.040000 578.10 626.32 2.3974 1.6564 2.1177 218.43 0.22858 8.7438 0.021309 25.000 0.040000 578.10 626.32 2.3974 1.6564 2.1177 218.43 0.22858 8.7438 0.021309
43.375 175.68 undefined 579.76 628.21 2.4027 25.000 0.040000 579.76 628.21 2.4027 1.6596 2.1174 219.02 0.22581 8.7735 0.021430 25.000 0.040000 579.76 628.21 2.4027 1.6596 2.1174 219.02 0.22581 8.7735 0.021430
44.375 176.52 undefined 581.42 630.10 2.4079 25.000 0.040000 581.42 630.10 2.4079 1.6629 2.1172 219.61 0.22308 8.8031 0.021552 25.000 0.040000 581.42 630.10 2.4079 1.6629 2.1172 219.61 0.22308 8.8031 0.021552
45.375 177.37 undefined 583.08 632.00 2.4132 25.000 0.040000 583.08 632.00 2.4132 1.6662 2.1171 220.20 0.22041 8.8328 0.021674 25.000 0.040000 583.08 632.00 2.4132 1.6662 2.1171 220.20 0.22041 8.8328 0.021674
46.375 178.21 undefined 584.75 633.90 2.4184 25.000 0.040000 584.75 633.90 2.4184 1.6696 2.1171 220.78 0.21779 8.8624 0.021797 25.000 0.040000 584.75 633.90 2.4184 1.6696 2.1171 220.78 0.21779 8.8624 0.021797
47.375 179.05 undefined 586.42 635.80 2.4236 25.000 0.040000 586.42 635.80 2.4236 1.6729 2.1173 221.37 0.21521 8.8920 0.021920 25.000 0.040000 586.42 635.80 2.4236 1.6729 2.1173 221.37 0.21521 8.8920 0.021920
48.375 179.89 undefined 588.10 637.71 2.4288 25.000 0.040000 588.10 637.71 2.4288 1.6763 2.1175 221.95 0.21269 8.9216 0.022043 25.000 0.040000 588.10 637.71 2.4288 1.6763 2.1175 221.95 0.21269 8.9216 0.022043
49.375 180.73 undefined 589.77 639.62 2.4340 25.000 0.040000 589.77 639.62 2.4340 1.6797 2.1178 222.52 0.21020 8.9512 0.022167 25.000 0.040000 589.77 639.62 2.4340 1.6797 2.1178 222.52 0.21020 8.9512 0.022167
50.375 181.57 undefined 591.46 641.53 2.4392 25.000 0.040000 591.46 641.53 2.4392 1.6831 2.1182 223.10 0.20777 8.9807 0.022291 25.000 0.040000 591.46 641.53 2.4392 1.6831 2.1182 223.10 0.20777 8.9807 0.022291
51.375 182.40 undefined 593.14 643.44 2.4444 25.000 0.040000 593.14 643.44 2.4444 1.6866 2.1187 223.67 0.20537 9.0102 0.022415 25.000 0.040000 593.14 643.44 2.4444 1.6866 2.1187 223.67 0.20537 9.0102 0.022415
52.375 183.24 undefined 594.83 645.36 2.4496 25.000 0.040000 594.83 645.36 2.4496 1.6900 2.1192 224.24 0.20302 9.0396 0.022540 25.000 0.040000 594.83 645.36 2.4496 1.6900 2.1192 224.24 0.20302 9.0396 0.022540
53.375 184.07 undefined 596.52 647.28 2.4548 25.000 0.040000 596.52 647.28 2.4548 1.6935 2.1199 224.81 0.20071 9.0691 0.022665 25.000 0.040000 596.52 647.28 2.4548 1.6935 2.1199 224.81 0.20071 9.0691 0.022665
54.375 184.90 undefined 598.22 649.21 2.4600 25.000 0.040000 598.22 649.21 2.4600 1.6970 2.1206 225.37 0.19843 9.0985 0.022790 25.000 0.040000 598.22 649.21 2.4600 1.6970 2.1206 225.37 0.19843 9.0985 0.022790
55.375 185.73 undefined 599.91 651.14 2.4652 25.000 0.040000 599.91 651.14 2.4652 1.7005 2.1215 225.93 0.19620 9.1279 0.022916 25.000 0.040000 599.91 651.14 2.4652 1.7005 2.1215 225.93 0.19620 9.1279 0.022916
56.375 186.56 undefined 601.62 653.07 2.4704 25.000 0.040000 601.62 653.07 2.4704 1.7040 2.1223 226.49 0.19401 9.1573 0.023042 25.000 0.040000 601.62 653.07 2.4704 1.7040 2.1223 226.49 0.19401 9.1573 0.023042
57.375 187.39 undefined 603.32 655.00 2.4755 25.000 0.040000 603.32 655.00 2.4755 1.7076 2.1233 227.05 0.19185 9.1866 0.023169 25.000 0.040000 603.32 655.00 2.4755 1.7076 2.1233 227.05 0.19185 9.1866 0.023169
58.375 188.22 undefined 605.03 656.94 2.4807 25.000 0.040000 605.03 656.94 2.4807 1.7111 2.1243 227.61 0.18973 9.2159 0.023296 25.000 0.040000 605.03 656.94 2.4807 1.7111 2.1243 227.61 0.18973 9.2159 0.023296
59.375 189.04 undefined 606.74 658.88 2.4859 25.000 0.040000 606.74 658.88 2.4859 1.7147 2.1255 228.16 0.18764 9.2452 0.023423 25.000 0.040000 606.74 658.88 2.4859 1.7147 2.1255 228.16 0.18764 9.2452 0.023423
60.375 189.87 undefined 608.46 660.83 2.4910 25.000 0.040000 608.46 660.83 2.4910 1.7183 2.1266 228.71 0.18559 9.2745 0.023550 25.000 0.040000 608.46 660.83 2.4910 1.7183 2.1266 228.71 0.18559 9.2745 0.023550
61.375 190.69 undefined 610.18 662.77 2.4962 25.000 0.040000 610.18 662.77 2.4962 1.7219 2.1279 229.26 0.18358 9.3037 0.023678 25.000 0.040000 610.18 662.77 2.4962 1.7219 2.1279 229.26 0.18358 9.3037 0.023678
62.375 191.52 undefined 611.90 664.72 2.5013 25.000 0.040000 611.90 664.72 2.5013 1.7255 2.1292 229.81 0.18159 9.3330 0.023806 25.000 0.040000 611.90 664.72 2.5013 1.7255 2.1292 229.81 0.18159 9.3330 0.023806
63.375 192.34 undefined 613.63 666.68 2.5064 25.000 0.040000 613.63 666.68 2.5064 1.7292 2.1306 230.36 0.17964 9.3622 0.023935 25.000 0.040000 613.63 666.68 2.5064 1.7292 2.1306 230.36 0.17964 9.3622 0.023935
64.375 193.16 undefined 615.36 668.63 2.5116 25.000 0.040000 615.36 668.63 2.5116 1.7328 2.1320 230.90 0.17772 9.3913 0.024064 25.000 0.040000 615.36 668.63 2.5116 1.7328 2.1320 230.90 0.17772 9.3913 0.024064
65.375 193.98 undefined 617.10 670.60 2.5167 25.000 0.040000 617.10 670.60 2.5167 1.7365 2.1335 231.44 0.17583 9.4205 0.024193 25.000 0.040000 617.10 670.60 2.5167 1.7365 2.1335 231.44 0.17583 9.4205 0.024193
66.375 194.80 undefined 618.84 672.56 2.5218 25.000 0.040000 618.84 672.56 2.5218 1.7402 2.1350 231.98 0.17397 9.4496 0.024323 25.000 0.040000 618.84 672.56 2.5218 1.7402 2.1350 231.98 0.17397 9.4496 0.024323
67.375 195.62 undefined 620.58 674.53 2.5270 25.000 0.040000 620.58 674.53 2.5270 1.7439 2.1366 232.52 0.17214 9.4787 0.024452 25.000 0.040000 620.58 674.53 2.5270 1.7439 2.1366 232.52 0.17214 9.4787 0.024452
68.375 196.44 undefined 622.32 676.50 2.5321 25.000 0.040000 622.32 676.50 2.5321 1.7476 2.1383 233.05 0.17033 9.5077 0.024583 25.000 0.040000 622.32 676.50 2.5321 1.7476 2.1383 233.05 0.17033 9.5077 0.024583
69.375 197.25 undefined 624.07 678.47 2.5372 25.000 0.040000 624.07 678.47 2.5372 1.7514 2.1400 233.58 0.16856 9.5368 0.024713 25.000 0.040000 624.07 678.47 2.5372 1.7514 2.1400 233.58 0.16856 9.5368 0.024713
70.375 198.07 undefined 625.83 680.45 2.5423 25.000 0.040000 625.83 680.45 2.5423 1.7551 2.1418 234.12 0.16681 9.5658 0.024844 25.000 0.040000 625.83 680.45 2.5423 1.7551 2.1418 234.12 0.16681 9.5658 0.024844
71.375 198.88 undefined 627.58 682.43 2.5474 25.000 0.040000 627.58 682.43 2.5474 1.7589 2.1436 234.64 0.16509 9.5948 0.024975 25.000 0.040000 627.58 682.43 2.5474 1.7589 2.1436 234.64 0.16509 9.5948 0.024975
72.375 199.70 undefined 629.34 684.42 2.5525 25.000 0.040000 629.34 684.42 2.5525 1.7626 2.1454 235.17 0.16340 9.6237 0.025107 25.000 0.040000 629.34 684.42 2.5525 1.7626 2.1454 235.17 0.16340 9.6237 0.025107
73.375 200.51 undefined 631.11 686.41 2.5576 25.000 0.040000 631.11 686.41 2.5576 1.7664 2.1473 235.70 0.16173 9.6527 0.025238 25.000 0.040000 631.11 686.41 2.5576 1.7664 2.1473 235.70 0.16173 9.6527 0.025238
74.375 201.32 undefined 632.88 688.40 2.5627 25.000 0.040000 632.88 688.40 2.5627 1.7702 2.1493 236.22 0.16009 9.6816 0.025371 25.000 0.040000 632.88 688.40 2.5627 1.7702 2.1493 236.22 0.16009 9.6816 0.025371
75.375 202.13 undefined 634.65 690.40 2.5678 25.000 0.040000 634.65 690.40 2.5678 1.7740 2.1512 236.74 0.15847 9.7105 0.025503 25.000 0.040000 634.65 690.40 2.5678 1.7740 2.1512 236.74 0.15847 9.7105 0.025503
76.375 202.94 undefined 636.43 692.40 2.5729 25.000 0.040000 636.43 692.40 2.5729 1.7778 2.1533 237.26 0.15687 9.7394 0.025636 25.000 0.040000 636.43 692.40 2.5729 1.7778 2.1533 237.26 0.15687 9.7394 0.025636
77.375 203.75 undefined 638.21 694.40 2.5780 25.000 0.040000 638.21 694.40 2.5780 1.7816 2.1553 237.78 0.15530 9.7682 0.025769 25.000 0.040000 638.21 694.40 2.5780 1.7816 2.1553 237.78 0.15530 9.7682 0.025769
78.375 204.56 undefined 639.99 696.41 2.5831 25.000 0.040000 639.99 696.41 2.5831 1.7854 2.1574 238.30 0.15376 9.7970 0.025902 25.000 0.040000 639.99 696.41 2.5831 1.7854 2.1574 238.30 0.15376 9.7970 0.025902
79.375 205.37 undefined 641.78 698.42 2.5881 25.000 0.040000 641.78 698.42 2.5881 1.7892 2.1596 238.82 0.15223 9.8258 0.026036 25.000 0.040000 641.78 698.42 2.5881 1.7892 2.1596 238.82 0.15223 9.8258 0.026036
80.375 206.18 undefined 643.57 700.43 2.5932 25.000 0.040000 643.57 700.43 2.5932 1.7931 2.1618 239.33 0.15073 9.8546 0.026170 25.000 0.040000 643.57 700.43 2.5932 1.7931 2.1618 239.33 0.15073 9.8546 0.026170
81.375 206.99 undefined 645.36 702.45 2.5983 25.000 0.040000 645.36 702.45 2.5983 1.7969 2.1640 239.84 0.14925 9.8833 0.026305 25.000 0.040000 645.36 702.45 2.5983 1.7969 2.1640 239.84 0.14925 9.8833 0.026305
82.375 207.79 undefined 647.16 704.47 2.6034 25.000 0.040000 647.16 704.47 2.6034 1.8008 2.1662 240.35 0.14779 9.9120 0.026439 25.000 0.040000 647.16 704.47 2.6034 1.8008 2.1662 240.35 0.14779 9.9120 0.026439
83.375 208.60 undefined 648.96 706.49 2.6084 25.000 0.040000 648.96 706.49 2.6084 1.8046 2.1685 240.86 0.14635 9.9407 0.026574 25.000 0.040000 648.96 706.49 2.6084 1.8046 2.1685 240.86 0.14635 9.9407 0.026574
84.375 209.40 undefined 650.77 708.52 2.6135 25.000 0.040000 650.77 708.52 2.6135 1.8085 2.1708 241.37 0.14494 9.9694 0.026710 25.000 0.040000 650.77 708.52 2.6135 1.8085 2.1708 241.37 0.14494 9.9694 0.026710
85.375 210.21 undefined 652.58 710.55 2.6185 25.000 0.040000 652.58 710.55 2.6185 1.8124 2.1732 241.87 0.14354 9.9980 0.026845 25.000 0.040000 652.58 710.55 2.6185 1.8124 2.1732 241.87 0.14354 9.9980 0.026845
86.375 211.01 undefined 654.39 712.59 2.6236 25.000 0.040000 654.39 712.59 2.6236 1.8162 2.1756 242.38 0.14216 10.027 0.026981 25.000 0.040000 654.39 712.59 2.6236 1.8162 2.1756 242.38 0.14216 10.027 0.026981
87.375 211.81 undefined 656.21 714.63 2.6286 25.000 0.040000 656.21 714.63 2.6286 1.8201 2.1780 242.88 0.14080 10.055 0.027118 25.000 0.040000 656.21 714.63 2.6286 1.8201 2.1780 242.88 0.14080 10.055 0.027118
88.375 212.61 undefined 658.04 716.67 2.6337 25.000 0.040000 658.04 716.67 2.6337 1.8240 2.1805 243.38 0.13947 10.084 0.027254 25.000 0.040000 658.04 716.67 2.6337 1.8240 2.1805 243.38 0.13947 10.084 0.027254
89.375 213.41 undefined 659.86 718.72 2.6387 25.000 0.040000 659.86 718.72 2.6387 1.8279 2.1829 243.88 0.13815 10.112 0.027391 25.000 0.040000 659.86 718.72 2.6387 1.8279 2.1829 243.88 0.13815 10.112 0.027391
90.375 214.21 undefined 661.69 720.77 2.6438 25.000 0.040000 661.69 720.77 2.6438 1.8318 2.1854 244.38 0.13684 10.141 0.027528 25.000 0.040000 661.69 720.77 2.6438 1.8318 2.1854 244.38 0.13684 10.141 0.027528
91.375 215.01 undefined 663.52 722.82 2.6488 25.000 0.040000 663.52 722.82 2.6488 1.8358 2.1880 244.87 0.13556 10.169 0.027666 25.000 0.040000 663.52 722.82 2.6488 1.8358 2.1880 244.87 0.13556 10.169 0.027666
92.375 215.81 undefined 665.36 724.88 2.6538 25.000 0.040000 665.36 724.88 2.6538 1.8397 2.1905 245.37 0.13430 10.198 0.027804 25.000 0.040000 665.36 724.88 2.6538 1.8397 2.1905 245.37 0.13430 10.198 0.027804
93.375 216.61 undefined 667.20 726.94 2.6589 25.000 0.040000 667.20 726.94 2.6589 1.8436 2.1931 245.86 0.13305 10.226 0.027942 25.000 0.040000 667.20 726.94 2.6589 1.8436 2.1931 245.86 0.13305 10.226 0.027942
94.375 217.41 undefined 669.05 729.01 2.6639 25.000 0.040000 669.05 729.01 2.6639 1.8475 2.1957 246.36 0.13182 10.255 0.028080 25.000 0.040000 669.05 729.01 2.6639 1.8475 2.1957 246.36 0.13182 10.255 0.028080
95.375 218.21 undefined 670.90 731.08 2.6689 25.000 0.040000 670.90 731.08 2.6689 1.8515 2.1984 246.85 0.13060 10.283 0.028219 25.000 0.040000 670.90 731.08 2.6689 1.8515 2.1984 246.85 0.13060 10.283 0.028219
96.375 219.00 undefined 672.75 733.15 2.6739 25.000 0.040000 672.75 733.15 2.6739 1.8554 2.2010 247.34 0.12940 10.312 0.028358 25.000 0.040000 672.75 733.15 2.6739 1.8554 2.2010 247.34 0.12940 10.312 0.028358
97.375 219.80 undefined 674.61 735.23 2.6790 25.000 0.040000 674.61 735.23 2.6790 1.8594 2.2037 247.82 0.12822 10.340 0.028498 25.000 0.040000 674.61 735.23 2.6790 1.8594 2.2037 247.82 0.12822 10.340 0.028498
98.375 220.59 undefined 676.47 737.31 2.6840 25.000 0.040000 676.47 737.31 2.6840 1.8633 2.2064 248.31 0.12706 10.368 0.028637 25.000 0.040000 676.47 737.31 2.6840 1.8633 2.2064 248.31 0.12706 10.368 0.028637
99.375 221.39 undefined 678.34 739.39 2.6890 25.000 0.040000 678.34 739.39 2.6890 1.8673 2.2092 248.80 0.12591 10.396 0.028778 25.000 0.040000 678.34 739.39 2.6890 1.8673 2.2092 248.80 0.12591 10.396 0.028778
100.38 222.18 undefined 680.21 741.48 2.6940 25.000 0.040000 680.21 741.48 2.6940 1.8712 2.2119 249.28 0.12477 10.425 0.028918 25.000 0.040000 680.21 741.48 2.6940 1.8712 2.2119 249.28 0.12477 10.425 0.028918
101.38 222.98 undefined 682.08 743.57 2.6990 25.000 0.040000 682.08 743.57 2.6990 1.8752 2.2147 249.76 0.12365 10.453 0.029058 25.000 0.040000 682.08 743.57 2.6990 1.8752 2.2147 249.76 0.12365 10.453 0.029058
102.38 223.77 undefined 683.96 745.67 2.7040 25.000 0.040000 683.96 745.67 2.7040 1.8791 2.2175 250.24 0.12255 10.481 0.029199 25.000 0.040000 683.96 745.67 2.7040 1.8791 2.2175 250.24 0.12255 10.481 0.029199
103.38 224.56 undefined 685.84 747.77 2.7090 25.000 0.040000 685.84 747.77 2.7090 1.8831 2.2203 250.72 0.12146 10.509 0.029341 25.000 0.040000 685.84 747.77 2.7090 1.8831 2.2203 250.72 0.12146 10.509 0.029341
104.38 225.36 undefined 687.72 749.87 2.7140 25.000 0.040000 687.72 749.87 2.7140 1.8871 2.2232 251.20 0.12038 10.538 0.029482 25.000 0.040000 687.72 749.87 2.7140 1.8871 2.2232 251.20 0.12038 10.538 0.029482
105.38 226.15 undefined 689.61 751.98 2.7190 25.000 0.040000 689.61 751.98 2.7190 1.8911 2.2260 251.68 0.11932 10.566 0.029624 25.000 0.040000 689.61 751.98 2.7190 1.8911 2.2260 251.68 0.11932 10.566 0.029624
106.38 226.94 undefined 691.50 754.09 2.7240 25.000 0.040000 691.50 754.09 2.7240 1.8951 2.2289 252.16 0.11827 10.594 0.029766 25.000 0.040000 691.50 754.09 2.7240 1.8951 2.2289 252.16 0.11827 10.594 0.029766
107.38 227.73 undefined 693.40 756.21 2.7290 25.000 0.040000 693.40 756.21 2.7290 1.8990 2.2318 252.63 0.11723 10.622 0.029909 25.000 0.040000 693.40 756.21 2.7290 1.8990 2.2318 252.63 0.11723 10.622 0.029909
108.38 228.52 undefined 695.30 758.33 2.7340 25.000 0.040000 695.30 758.33 2.7340 1.9030 2.2348 253.11 0.11621 10.650 0.030052 25.000 0.040000 695.30 758.33 2.7340 1.9030 2.2348 253.11 0.11621 10.650 0.030052
109.38 229.31 undefined 697.21 760.45 2.7390 25.000 0.040000 697.21 760.45 2.7390 1.9070 2.2377 253.58 0.11520 10.678 0.030195 25.000 0.040000 697.21 760.45 2.7390 1.9070 2.2377 253.58 0.11520 10.678 0.030195
110.38 230.10 undefined 699.12 762.58 2.7440 25.000 0.040000 699.12 762.58 2.7440 1.9110 2.2407 254.05 0.11421 10.706 0.030338 25.000 0.040000 699.12 762.58 2.7440 1.9110 2.2407 254.05 0.11421 10.706 0.030338
111.38 230.89 undefined 701.03 764.71 2.7489 25.000 0.040000 701.03 764.71 2.7489 1.9150 2.2436 254.52 0.11323 10.734 0.030482 25.000 0.040000 701.03 764.71 2.7489 1.9150 2.2436 254.52 0.11323 10.734 0.030482
112.38 231.67 undefined 702.95 766.84 2.7539 25.000 0.040000 702.95 766.84 2.7539 1.9190 2.2466 254.99 0.11225 10.762 0.030626 25.000 0.040000 702.95 766.84 2.7539 1.9190 2.2466 254.99 0.11225 10.762 0.030626
113.38 232.46 undefined 704.87 768.98 2.7589 25.000 0.040000 704.87 768.98 2.7589 1.9230 2.2496 255.46 0.11130 10.790 0.030770 25.000 0.040000 704.87 768.98 2.7589 1.9230 2.2496 255.46 0.11130 10.790 0.030770
114.38 233.25 undefined 706.79 771.12 2.7639 25.000 0.040000 706.79 771.12 2.7639 1.9270 2.2526 255.92 0.11035 10.818 0.030915 25.000 0.040000 706.79 771.12 2.7639 1.9270 2.2526 255.92 0.11035 10.818 0.030915
115.38 234.03 undefined 708.72 773.27 2.7688 25.000 0.040000 708.72 773.27 2.7688 1.9310 2.2557 256.39 0.10942 10.846 0.031059 25.000 0.040000 708.72 773.27 2.7688 1.9310 2.2557 256.39 0.10942 10.846 0.031059
116.38 234.82 undefined 710.65 775.42 2.7738 25.000 0.040000 710.65 775.42 2.7738 1.9350 2.2587 256.85 0.10849 10.874 0.031205 25.000 0.040000 710.65 775.42 2.7738 1.9350 2.2587 256.85 0.10849 10.874 0.031205
117.38 235.61 undefined 712.59 777.57 2.7788 25.000 0.040000 712.59 777.57 2.7788 1.9390 2.2618 257.32 0.10758 10.902 0.031350 25.000 0.040000 712.59 777.57 2.7788 1.9390 2.2618 257.32 0.10758 10.902 0.031350
118.38 236.39 undefined 714.53 779.73 2.7837 25.000 0.040000 714.53 779.73 2.7837 1.9431 2.2649 257.78 0.10668 10.930 0.031496 25.000 0.040000 714.53 779.73 2.7837 1.9431 2.2649 257.78 0.10668 10.930 0.031496
119.38 237.18 undefined 716.48 781.89 2.7887 25.000 0.040000 716.48 781.89 2.7887 1.9471 2.2680 258.24 0.10579 10.958 0.031642 25.000 0.040000 716.48 781.89 2.7887 1.9471 2.2680 258.24 0.10579 10.958 0.031642
120.38 237.96 undefined 718.43 784.05 2.7937 25.000 0.040000 718.43 784.05 2.7937 1.9511 2.2711 258.70 0.10492 10.985 0.031789 25.000 0.040000 718.43 784.05 2.7937 1.9511 2.2711 258.70 0.10492 10.985 0.031789
121.38 238.74 undefined 720.38 786.22 2.7986 25.000 0.040000 720.38 786.22 2.7986 1.9551 2.2742 259.16 0.10405 11.013 0.031935 25.000 0.040000 720.38 786.22 2.7986 1.9551 2.2742 259.16 0.10405 11.013 0.031935
122.38 239.53 undefined 722.34 788.40 2.8036 25.000 0.040000 722.34 788.40 2.8036 1.9591 2.2774 259.62 0.10319 11.041 0.032082 25.000 0.040000 722.34 788.40 2.8036 1.9591 2.2774 259.62 0.10319 11.041 0.032082
123.38 240.31 undefined 724.30 790.57 2.8085 25.000 0.040000 724.30 790.57 2.8085 1.9631 2.2805 260.07 0.10235 11.069 0.032230 25.000 0.040000 724.30 790.57 2.8085 1.9631 2.2805 260.07 0.10235 11.069 0.032230
124.38 241.09 undefined 726.26 792.75 2.8135 25.000 0.040000 726.26 792.75 2.8135 1.9672 2.2837 260.53 0.10151 11.096 0.032377 25.000 0.040000 726.26 792.75 2.8135 1.9672 2.2837 260.53 0.10151 11.096 0.032377
125.38 241.87 undefined 728.23 794.94 2.8184 25.000 0.040000 728.23 794.94 2.8184 1.9712 2.2869 260.98 0.10068 11.124 0.032525 25.000 0.040000 728.23 794.94 2.8184 1.9712 2.2869 260.98 0.10068 11.124 0.032525
126.38 242.66 undefined 730.21 797.13 2.8234 25.000 0.040000 730.21 797.13 2.8234 1.9752 2.2900 261.44 0.099868 11.152 0.032673 25.000 0.040000 730.21 797.13 2.8234 1.9752 2.2900 261.44 0.099868 11.152 0.032673
127.38 243.44 undefined 732.18 799.32 2.8283 25.000 0.040000 732.18 799.32 2.8283 1.9792 2.2932 261.89 0.099062 11.179 0.032822 25.000 0.040000 732.18 799.32 2.8283 1.9792 2.2932 261.89 0.099062 11.179 0.032822
128.38 244.22 undefined 734.16 801.52 2.8333 25.000 0.040000 734.16 801.52 2.8333 1.9833 2.2965 262.34 0.098265 11.207 0.032971 25.000 0.040000 734.16 801.52 2.8333 1.9833 2.2965 262.34 0.098265 11.207 0.032971
129.38 245.00 undefined 736.15 803.72 2.8382 25.000 0.040000 736.15 803.72 2.8382 1.9873 2.2997 262.79 0.097478 11.234 0.033120 25.000 0.040000 736.15 803.72 2.8382 1.9873 2.2997 262.79 0.097478 11.234 0.033120
130.38 245.78 undefined 738.14 805.92 2.8431 25.000 0.040000 738.14 805.92 2.8431 1.9913 2.3029 263.24 0.096701 11.262 0.033269 25.000 0.040000 738.14 805.92 2.8431 1.9913 2.3029 263.24 0.096701 11.262 0.033269
131.38 246.56 undefined 740.13 808.13 2.8481 25.000 0.040000 740.13 808.13 2.8481 1.9953 2.3062 263.69 0.095932 11.290 0.033419 25.000 0.040000 740.13 808.13 2.8481 1.9953 2.3062 263.69 0.095932 11.290 0.033419
132.38 247.34 undefined 742.13 810.34 2.8530 25.000 0.040000 742.13 810.34 2.8530 1.9994 2.3094 264.14 0.095173 11.317 0.033569 25.000 0.040000 742.13 810.34 2.8530 1.9994 2.3094 264.14 0.095173 11.317 0.033569
133.38 248.12 undefined 744.13 812.56 2.8579 25.000 0.040000 744.13 812.56 2.8579 2.0034 2.3127 264.58 0.094422 11.345 0.033719 25.000 0.040000 744.13 812.56 2.8579 2.0034 2.3127 264.58 0.094422 11.345 0.033719
134.38 248.90 undefined 746.14 814.78 2.8629 25.000 0.040000 746.14 814.78 2.8629 2.0074 2.3160 265.03 0.093680 11.372 0.033870 25.000 0.040000 746.14 814.78 2.8629 2.0074 2.3160 265.03 0.093680 11.372 0.033870
135.38 249.67 undefined 748.15 817.00 2.8678 25.000 0.040000 748.15 817.00 2.8678 2.0115 2.3192 265.47 0.092947 11.400 0.034021 25.000 0.040000 748.15 817.00 2.8678 2.0115 2.3192 265.47 0.092947 11.400 0.034021
136.38 250.45 undefined 750.16 819.23 2.8727 25.000 0.040000 750.16 819.23 2.8727 2.0155 2.3225 265.92 0.092222 11.427 0.034172 25.000 0.040000 750.16 819.23 2.8727 2.0155 2.3225 265.92 0.092222 11.427 0.034172
137.38 251.23 undefined 752.18 821.46 2.8776 25.000 0.040000 752.18 821.46 2.8776 2.0195 2.3258 266.36 0.091506 11.454 0.034324 25.000 0.040000 752.18 821.46 2.8776 2.0195 2.3258 266.36 0.091506 11.454 0.034324
138.38 252.01 undefined 754.20 823.70 2.8825 25.000 0.040000 754.20 823.70 2.8825 2.0236 2.3292 266.80 0.090798 11.482 0.034475 25.000 0.040000 754.20 823.70 2.8825 2.0236 2.3292 266.80 0.090798 11.482 0.034475
139.38 252.78 undefined 756.22 825.94 2.8875 25.000 0.040000 756.22 825.94 2.8875 2.0276 2.3325 267.24 0.090098 11.509 0.034628 25.000 0.040000 756.22 825.94 2.8875 2.0276 2.3325 267.24 0.090098 11.509 0.034628
140.38 253.56 undefined 758.25 828.18 2.8924 25.000 0.040000 758.25 828.18 2.8924 2.0316 2.3358 267.68 0.089406 11.536 0.034780 25.000 0.040000 758.25 828.18 2.8924 2.0316 2.3358 267.68 0.089406 11.536 0.034780
141.38 254.34 undefined 760.29 830.43 2.8973 25.000 0.040000 760.29 830.43 2.8973 2.0357 2.3391 268.12 0.088722 11.564 0.034933 25.000 0.040000 760.29 830.43 2.8973 2.0357 2.3391 268.12 0.088722 11.564 0.034933
142.38 255.11 undefined 762.32 832.68 2.9022 25.000 0.040000 762.32 832.68 2.9022 2.0397 2.3425 268.56 0.088046 11.591 0.035086 25.000 0.040000 762.32 832.68 2.9022 2.0397 2.3425 268.56 0.088046 11.591 0.035086
143.38 255.89 undefined 764.37 834.94 2.9071 25.000 0.040000 764.37 834.94 2.9071 2.0437 2.3458 269.00 0.087377 11.618 0.035239 25.000 0.040000 764.37 834.94 2.9071 2.0437 2.3458 269.00 0.087377 11.618 0.035239
144.38 256.66 undefined 766.41 837.20 2.9120 25.000 0.040000 766.41 837.20 2.9120 2.0477 2.3492 269.43 0.086716 11.646 0.035393 25.000 0.040000 766.41 837.20 2.9120 2.0477 2.3492 269.43 0.086716 11.646 0.035393
145.38 257.44 undefined 768.46 839.46 2.9169 25.000 0.040000 768.46 839.46 2.9169 2.0518 2.3526 269.87 0.086062 11.673 0.035546 25.000 0.040000 768.46 839.46 2.9169 2.0518 2.3526 269.87 0.086062 11.673 0.035546
146.38 258.21 undefined 770.52 841.73 2.9218 25.000 0.040000 770.52 841.73 2.9218 2.0558 2.3560 270.30 0.085416 11.700 0.035701 25.000 0.040000 770.52 841.73 2.9218 2.0558 2.3560 270.30 0.085416 11.700 0.035701
147.38 258.99 undefined 772.57 844.00 2.9267 25.000 0.040000 772.57 844.00 2.9267 2.0598 2.3593 270.74 0.084777 11.727 0.035855 25.000 0.040000 772.57 844.00 2.9267 2.0598 2.3593 270.74 0.084777 11.727 0.035855
148.38 259.76 undefined 774.64 846.28 2.9316 25.000 0.040000 774.64 846.28 2.9316 2.0639 2.3627 271.17 0.084144 11.754 0.036010 25.000 0.040000 774.64 846.28 2.9316 2.0639 2.3627 271.17 0.084144 11.754 0.036010
149.38 260.53 undefined 776.70 848.55 2.9365 25.000 0.040000 776.70 848.55 2.9365 2.0679 2.3661 271.60 0.083519 11.781 0.036165 25.000 0.040000 776.70 848.55 2.9365 2.0679 2.3661 271.60 0.083519 11.781 0.036165
150.38 261.31 undefined 778.77 850.84 2.9414 25.000 0.040000 778.77 850.84 2.9414 2.0719 2.3695 272.03 0.082901 11.808 0.036320 25.000 0.040000 778.77 850.84 2.9414 2.0719 2.3695 272.03 0.082901 11.808 0.036320
151.38 262.08 undefined 780.85 853.12 2.9463 25.000 0.040000 780.85 853.12 2.9463 2.0759 2.3729 272.46 0.082290 11.836 0.036476 25.000 0.040000 780.85 853.12 2.9463 2.0759 2.3729 272.46 0.082290 11.836 0.036476
152.38 262.85 undefined 782.92 855.42 2.9512 25.000 0.040000 782.92 855.42 2.9512 2.0800 2.3763 272.89 0.081685 11.863 0.036632 25.000 0.040000 782.92 855.42 2.9512 2.0800 2.3763 272.89 0.081685 11.863 0.036632
153.38 263.63 undefined 785.00 857.71 2.9561 25.000 0.040000 785.00 857.71 2.9561 2.0840 2.3798 273.32 0.081087 11.890 0.036788 25.000 0.040000 785.00 857.71 2.9561 2.0840 2.3798 273.32 0.081087 11.890 0.036788
154.38 264.40 undefined 787.09 860.01 2.9609 25.000 0.040000 787.09 860.01 2.9609 2.0880 2.3832 273.75 0.080495 11.917 0.036945 25.000 0.040000 787.09 860.01 2.9609 2.0880 2.3832 273.75 0.080495 11.917 0.036945
155.38 265.17 undefined 789.18 862.31 2.9658 25.000 0.040000 789.18 862.31 2.9658 2.0920 2.3866 274.18 0.079910 11.944 0.037102 25.000 0.040000 789.18 862.31 2.9658 2.0920 2.3866 274.18 0.079910 11.944 0.037102
156.38 265.94 undefined 791.28 864.62 2.9707 25.000 0.040000 791.28 864.62 2.9707 2.0960 2.3901 274.60 0.079331 11.971 0.037259 25.000 0.040000 791.28 864.62 2.9707 2.0960 2.3901 274.60 0.079331 11.971 0.037259
157.38 266.71 undefined 793.37 866.93 2.9756 25.000 0.040000 793.37 866.93 2.9756 2.1001 2.3935 275.03 0.078759 11.997 0.037416 25.000 0.040000 793.37 866.93 2.9756 2.1001 2.3935 275.03 0.078759 11.997 0.037416
158.38 267.48 undefined 795.48 869.24 2.9805 25.000 0.040000 795.48 869.24 2.9805 2.1041 2.3970 275.45 0.078192 12.024 0.037574 25.000 0.040000 795.48 869.24 2.9805 2.1041 2.3970 275.45 0.078192 12.024 0.037574
159.38 268.26 undefined 797.58 871.56 2.9853 25.000 0.040000 797.58 871.56 2.9853 2.1081 2.4004 275.87 0.077632 12.051 0.037732 25.000 0.040000 797.58 871.56 2.9853 2.1081 2.4004 275.87 0.077632 12.051 0.037732
160.38 269.03 undefined 799.69 873.89 2.9902 25.000 0.040000 799.69 873.89 2.9902 2.1121 2.4039 276.30 0.077077 12.078 0.037891 25.000 0.040000 799.69 873.89 2.9902 2.1121 2.4039 276.30 0.077077 12.078 0.037891
161.38 269.80 undefined 801.81 876.21 2.9951 25.000 0.040000 801.81 876.21 2.9951 2.1161 2.4073 276.72 0.076529 12.105 0.038049 25.000 0.040000 801.81 876.21 2.9951 2.1161 2.4073 276.72 0.076529 12.105 0.038049
162.38 270.57 undefined 803.92 878.54 3.0000 25.000 0.040000 803.92 878.54 3.0000 2.1201 2.4108 277.14 0.075986 12.132 0.038208 25.000 0.040000 803.92 878.54 3.0000 2.1201 2.4108 277.14 0.075986 12.132 0.038208
163.38 271.34 undefined 806.05 880.88 3.0048 25.000 0.040000 806.05 880.88 3.0048 2.1241 2.4143 277.56 0.075449 12.159 0.038367 25.000 0.040000 806.05 880.88 3.0048 2.1241 2.4143 277.56 0.075449 12.159 0.038367
164.38 272.11 undefined 808.17 883.22 3.0097 25.000 0.040000 808.17 883.22 3.0097 2.1281 2.4177 277.98 0.074917 12.185 0.038527 25.000 0.040000 808.17 883.22 3.0097 2.1281 2.4177 277.98 0.074917 12.185 0.038527
165.38 272.87 undefined 810.30 885.56 3.0145 25.000 0.040000 810.30 885.56 3.0145 2.1321 2.4212 278.40 0.074391 12.212 0.038687 25.000 0.040000 810.30 885.56 3.0145 2.1321 2.4212 278.40 0.074391 12.212 0.038687
166.38 273.64 undefined 812.44 887.90 3.0194 25.000 0.040000 812.44 887.90 3.0194 2.1361 2.4247 278.82 0.073871 12.239 0.038847 25.000 0.040000 812.44 887.90 3.0194 2.1361 2.4247 278.82 0.073871 12.239 0.038847
167.38 274.41 undefined 814.57 890.25 3.0243 25.000 0.040000 814.57 890.25 3.0243 2.1401 2.4282 279.23 0.073356 12.266 0.039007 25.000 0.040000 814.57 890.25 3.0243 2.1401 2.4282 279.23 0.073356 12.266 0.039007
168.38 275.18 undefined 816.72 892.61 3.0291 25.000 0.040000 816.72 892.61 3.0291 2.1441 2.4317 279.65 0.072847 12.292 0.039168 25.000 0.040000 816.72 892.61 3.0291 2.1441 2.4317 279.65 0.072847 12.292 0.039168
169.38 275.95 undefined 818.86 894.97 3.0340 25.000 0.040000 818.86 894.97 3.0340 2.1481 2.4352 280.07 0.072342 12.319 0.039329 25.000 0.040000 818.86 894.97 3.0340 2.1481 2.4352 280.07 0.072342 12.319 0.039329
170.38 276.72 undefined 821.01 897.33 3.0388 25.000 0.040000 821.01 897.33 3.0388 2.1521 2.4387 280.48 0.071843 12.346 0.039490 25.000 0.040000 821.01 897.33 3.0388 2.1521 2.4387 280.48 0.071843 12.346 0.039490
171.38 277.48 undefined 823.17 899.69 3.0437 25.000 0.040000 823.17 899.69 3.0437 2.1561 2.4422 280.90 0.071349 12.372 0.039652 25.000 0.040000 823.17 899.69 3.0437 2.1561 2.4422 280.90 0.071349 12.372 0.039652
172.38 278.25 undefined 825.32 902.06 3.0485 25.000 0.040000 825.32 902.06 3.0485 2.1601 2.4457 281.31 0.070860 12.399 0.039814 25.000 0.040000 825.32 902.06 3.0485 2.1601 2.4457 281.31 0.070860 12.399 0.039814
173.38 279.02 undefined 827.49 904.44 3.0534 25.000 0.040000 827.49 904.44 3.0534 2.1641 2.4492 281.72 0.070376 12.425 0.039976 25.000 0.040000 827.49 904.44 3.0534 2.1641 2.4492 281.72 0.070376 12.425 0.039976
174.38 279.79 undefined 829.65 906.82 3.0582 25.000 0.040000 829.65 906.82 3.0582 2.1681 2.4527 282.14 0.069897 12.452 0.040138 25.000 0.040000 829.65 906.82 3.0582 2.1681 2.4527 282.14 0.069897 12.452 0.040138
175.38 280.55 undefined 831.82 909.20 3.0631 25.000 0.040000 831.82 909.20 3.0631 2.1721 2.4562 282.55 0.069423 12.478 0.040301 25.000 0.040000 831.82 909.20 3.0631 2.1721 2.4562 282.55 0.069423 12.478 0.040301
176.38 281.32 undefined 834.00 911.58 3.0679 25.000 0.040000 834.00 911.58 3.0679 2.1761 2.4597 282.96 0.068953 12.505 0.040464 25.000 0.040000 834.00 911.58 3.0679 2.1761 2.4597 282.96 0.068953 12.505 0.040464
177.38 282.09 undefined 836.18 913.97 3.0728 25.000 0.040000 836.18 913.97 3.0728 2.1800 2.4632 283.37 0.068488 12.531 0.040628 25.000 0.040000 836.18 913.97 3.0728 2.1800 2.4632 283.37 0.068488 12.531 0.040628
178.38 282.85 undefined 838.36 916.37 3.0776 25.000 0.040000 838.36 916.37 3.0776 2.1840 2.4667 283.78 0.068028 12.558 0.040791 25.000 0.040000 838.36 916.37 3.0776 2.1840 2.4667 283.78 0.068028 12.558 0.040791
179.38 283.62 undefined 840.54 918.76 3.0824 25.000 0.040000 840.54 918.76 3.0824 2.1880 2.4703 284.19 0.067573 12.584 0.040955 25.000 0.040000 840.54 918.76 3.0824 2.1880 2.4703 284.19 0.067573 12.584 0.040955
180.38 284.38 undefined 842.73 921.16 3.0873 25.000 0.040000 842.73 921.16 3.0873 2.1920 2.4738 284.59 0.067122 12.611 0.041120 25.000 0.040000 842.73 921.16 3.0873 2.1920 2.4738 284.59 0.067122 12.611 0.041120
181.38 285.15 undefined 844.93 923.57 3.0921 25.000 0.040000 844.93 923.57 3.0921 2.1959 2.4773 285.00 0.066675 12.637 0.041284 25.000 0.040000 844.93 923.57 3.0921 2.1959 2.4773 285.00 0.066675 12.637 0.041284
182.38 285.92 undefined 847.13 925.98 3.0969 25.000 0.040000 847.13 925.98 3.0969 2.1999 2.4808 285.41 0.066233 12.663 0.041449 25.000 0.040000 847.13 925.98 3.0969 2.1999 2.4808 285.41 0.066233 12.663 0.041449
183.38 286.68 undefined 849.33 928.39 3.1018 25.000 0.040000 849.33 928.39 3.1018 2.2039 2.4843 285.81 0.065795 12.690 0.041614 25.000 0.040000 849.33 928.39 3.1018 2.2039 2.4843 285.81 0.065795 12.690 0.041614
184.38 287.45 undefined 851.53 930.81 3.1066 25.000 0.040000 851.53 930.81 3.1066 2.2078 2.4879 286.22 0.065362 12.716 0.041779 25.000 0.040000 851.53 930.81 3.1066 2.2078 2.4879 286.22 0.065362 12.716 0.041779
185.38 288.21 undefined 853.74 933.23 3.1114 25.000 0.040000 853.74 933.23 3.1114 2.2118 2.4914 286.62 0.064933 12.742 0.041945 25.000 0.040000 853.74 933.23 3.1114 2.2118 2.4914 286.62 0.064933 12.742 0.041945
186.38 288.98 undefined 855.96 935.65 3.1162 25.000 0.040000 855.96 935.65 3.1162 2.2157 2.4949 287.03 0.064508 12.769 0.042111 25.000 0.040000 855.96 935.65 3.1162 2.2157 2.4949 287.03 0.064508 12.769 0.042111
187.38 289.74 undefined 858.17 938.08 3.1210 25.000 0.040000 858.17 938.08 3.1210 2.2197 2.4985 287.43 0.064087 12.795 0.042278 25.000 0.040000 858.17 938.08 3.1210 2.2197 2.4985 287.43 0.064087 12.795 0.042278
188.38 290.50 undefined 860.40 940.51 3.1259 25.000 0.040000 860.40 940.51 3.1259 2.2236 2.5020 287.83 0.063670 12.821 0.042444 25.000 0.040000 860.40 940.51 3.1259 2.2236 2.5020 287.83 0.063670 12.821 0.042444
189.38 291.27 undefined 862.62 942.95 3.1307 25.000 0.040000 862.62 942.95 3.1307 2.2276 2.5055 288.23 0.063257 12.847 0.042611 25.000 0.040000 862.62 942.95 3.1307 2.2276 2.5055 288.23 0.063257 12.847 0.042611
190.38 292.03 undefined 864.85 945.39 3.1355 25.000 0.040000 864.85 945.39 3.1355 2.2315 2.5091 288.63 0.062848 12.873 0.042778 25.000 0.040000 864.85 945.39 3.1355 2.2315 2.5091 288.63 0.062848 12.873 0.042778
191.38 292.80 undefined 867.08 947.83 3.1403 25.000 0.040000 867.08 947.83 3.1403 2.2355 2.5126 289.04 0.062443 12.900 0.042946 25.000 0.040000 867.08 947.83 3.1403 2.2355 2.5126 289.04 0.062443 12.900 0.042946
192.38 293.56 undefined 869.32 950.28 3.1451 25.000 0.040000 869.32 950.28 3.1451 2.2394 2.5161 289.44 0.062042 12.926 0.043113 25.000 0.040000 869.32 950.28 3.1451 2.2394 2.5161 289.44 0.062042 12.926 0.043113
193.38 294.32 undefined 871.56 952.73 3.1499 25.000 0.040000 871.56 952.73 3.1499 2.2433 2.5197 289.83 0.061645 12.952 0.043282 25.000 0.040000 871.56 952.73 3.1499 2.2433 2.5197 289.83 0.061645 12.952 0.043282
194.38 295.09 undefined 873.81 955.19 3.1547 25.000 0.040000 873.81 955.19 3.1547 2.2473 2.5232 290.23 0.061251 12.978 0.043450 25.000 0.040000 873.81 955.19 3.1547 2.2473 2.5232 290.23 0.061251 12.978 0.043450
195.38 295.85 undefined 876.06 957.65 3.1595 25.000 0.040000 876.06 957.65 3.1595 2.2512 2.5268 290.63 0.060862 13.004 0.043619 25.000 0.040000 876.06 957.65 3.1595 2.2512 2.5268 290.63 0.060862 13.004 0.043619
196.38 296.61 undefined 878.31 960.11 3.1644 25.000 0.040000 878.31 960.11 3.1644 2.2551 2.5303 291.03 0.060476 13.030 0.043787 25.000 0.040000 878.31 960.11 3.1644 2.2551 2.5303 291.03 0.060476 13.030 0.043787
197.38 297.37 undefined 880.57 962.58 3.1692 25.000 0.040000 880.57 962.58 3.1692 2.2591 2.5338 291.43 0.060093 13.056 0.043957 25.000 0.040000 880.57 962.58 3.1692 2.2591 2.5338 291.43 0.060093 13.056 0.043957
198.38 298.14 undefined 882.83 965.05 3.1740 25.000 0.040000 882.83 965.05 3.1740 2.2630 2.5374 291.82 0.059714 13.082 0.044126 25.000 0.040000 882.83 965.05 3.1740 2.2630 2.5374 291.82 0.059714 13.082 0.044126
199.38 298.90 undefined 885.09 967.53 3.1788 25.000 0.040000 885.09 967.53 3.1788 2.2669 2.5409 292.22 0.059339 13.108 0.044296 25.000 0.040000 885.09 967.53 3.1788 2.2669 2.5409 292.22 0.059339 13.108 0.044296
200.38 299.66 undefined 887.36 970.01 3.1835 25.000 0.040000 887.36 970.01 3.1835 2.2708 2.5445 292.61 0.058967 13.134 0.044466 25.000 0.040000 887.36 970.01 3.1835 2.2708 2.5445 292.61 0.058967 13.134 0.044466
201.38 300.42 undefined 889.64 972.49 3.1883 25.000 0.040000 889.64 972.49 3.1883 2.2747 2.5480 293.01 0.058599 13.160 0.044637 25.000 0.040000 889.64 972.49 3.1883 2.2747 2.5480 293.01 0.058599 13.160 0.044637
202.38 301.18 undefined 891.91 974.98 3.1931 25.000 0.040000 891.91 974.98 3.1931 2.2786 2.5515 293.40 0.058234 13.186 0.044807 25.000 0.040000 891.91 974.98 3.1931 2.2786 2.5515 293.40 0.058234 13.186 0.044807
203.38 301.95 undefined 894.19 977.47 3.1979 25.000 0.040000 894.19 977.47 3.1979 2.2825 2.5551 293.79 0.057872 13.212 0.044978 25.000 0.040000 894.19 977.47 3.1979 2.2825 2.5551 293.79 0.057872 13.212 0.044978
204.38 302.71 undefined 896.48 979.96 3.2027 25.000 0.040000 896.48 979.96 3.2027 2.2864 2.5586 294.18 0.057514 13.238 0.045150 25.000 0.040000 896.48 979.96 3.2027 2.2864 2.5586 294.18 0.057514 13.238 0.045150
205.38 303.47 undefined 898.77 982.46 3.2075 25.000 0.040000 898.77 982.46 3.2075 2.2903 2.5622 294.58 0.057158 13.263 0.045321 25.000 0.040000 898.77 982.46 3.2075 2.2903 2.5622 294.58 0.057158 13.263 0.045321
206.38 304.23 undefined 901.06 984.96 3.2123 25.000 0.040000 901.06 984.96 3.2123 2.2942 2.5657 294.97 0.056807 13.289 0.045493 25.000 0.040000 901.06 984.96 3.2123 2.2942 2.5657 294.97 0.056807 13.289 0.045493
207.38 304.99 undefined 903.35 987.47 3.2171 25.000 0.040000 903.35 987.47 3.2171 2.2981 2.5692 295.36 0.056458 13.315 0.045665 25.000 0.040000 903.35 987.47 3.2171 2.2981 2.5692 295.36 0.056458 13.315 0.045665
208.38 305.75 undefined 905.65 989.98 3.2219 25.000 0.040000 905.65 989.98 3.2219 2.3020 2.5728 295.75 0.056112 13.341 0.045838 25.000 0.040000 905.65 989.98 3.2219 2.3020 2.5728 295.75 0.056112 13.341 0.045838
209.38 306.51 undefined 907.96 992.49 3.2266 25.000 0.040000 907.96 992.49 3.2266 2.3059 2.5763 296.14 0.055770 13.367 0.046010 25.000 0.040000 907.96 992.49 3.2266 2.3059 2.5763 296.14 0.055770 13.367 0.046010
210.38 307.27 undefined 910.27 995.01 3.2314 25.000 0.040000 910.27 995.01 3.2314 2.3097 2.5798 296.53 0.055431 13.392 0.046183 25.000 0.040000 910.27 995.01 3.2314 2.3097 2.5798 296.53 0.055431 13.392 0.046183
211.38 308.03 undefined 912.58 997.53 3.2362 25.000 0.040000 912.58 997.53 3.2362 2.3136 2.5834 296.91 0.055095 13.418 0.046357 25.000 0.040000 912.58 997.53 3.2362 2.3136 2.5834 296.91 0.055095 13.418 0.046357
212.38 308.79 undefined 914.89 1000.1 3.2410 25.000 0.040000 914.89 1000.1 3.2410 2.3175 2.5869 297.30 0.054761 13.444 0.046530 25.000 0.040000 914.89 1000.1 3.2410 2.3175 2.5869 297.30 0.054761 13.444 0.046530
213.38 309.55 undefined 917.21 1002.6 3.2457 25.000 0.040000 917.21 1002.6 3.2457 2.3213 2.5904 297.69 0.054431 13.469 0.046704 25.000 0.040000 917.21 1002.6 3.2457 2.3213 2.5904 297.69 0.054431 13.469 0.046704
214.38 310.31 undefined 919.54 1005.1 3.2505 25.000 0.040000 919.54 1005.1 3.2505 2.3252 2.5940 298.08 0.054104 13.495 0.046879 25.000 0.040000 919.54 1005.1 3.2505 2.3252 2.5940 298.08 0.054104 13.495 0.046879
215.38 311.07 undefined 921.86 1007.7 3.2553 25.000 0.040000 921.86 1007.7 3.2553 2.3291 2.5975 298.46 0.053779 13.521 0.047053 25.000 0.040000 921.86 1007.7 3.2553 2.3291 2.5975 298.46 0.053779 13.521 0.047053
216.38 311.83 undefined 924.19 1010.2 3.2600 25.000 0.040000 924.19 1010.2 3.2600 2.3329 2.6010 298.85 0.053458 13.546 0.047228 25.000 0.040000 924.19 1010.2 3.2600 2.3329 2.6010 298.85 0.053458 13.546 0.047228
217.38 312.59 undefined 926.53 1012.7 3.2648 25.000 0.040000 926.53 1012.7 3.2648 2.3368 2.6046 299.23 0.053139 13.572 0.047403 25.000 0.040000 926.53 1012.7 3.2648 2.3368 2.6046 299.23 0.053139 13.572 0.047403
218.38 313.35 undefined 928.87 1015.3 3.2696 25.000 0.040000 928.87 1015.3 3.2696 2.3406 2.6081 299.62 0.052823 13.597 0.047578 25.000 0.040000 928.87 1015.3 3.2696 2.3406 2.6081 299.62 0.052823 13.597 0.047578
219.38 314.11 undefined 931.21 1017.8 3.2743 25.000 0.040000 931.21 1017.8 3.2743 2.3444 2.6116 300.00 0.052510 13.623 0.047754 25.000 0.040000 931.21 1017.8 3.2743 2.3444 2.6116 300.00 0.052510 13.623 0.047754
220.38 314.87 undefined 933.56 1020.4 3.2791 25.000 0.040000 933.56 1020.4 3.2791 2.3483 2.6152 300.38 0.052199 13.648 0.047930 25.000 0.040000 933.56 1020.4 3.2791 2.3483 2.6152 300.38 0.052199 13.648 0.047930
221.38 315.63 undefined 935.91 1023.0 3.2838 25.000 0.040000 935.91 1023.0 3.2838 2.3521 2.6187 300.77 0.051891 13.674 0.048106 25.000 0.040000 935.91 1023.0 3.2838 2.3521 2.6187 300.77 0.051891 13.674 0.048106
222.38 316.39 undefined 938.26 1025.5 3.2886 25.000 0.040000 938.26 1025.5 3.2886 2.3559 2.6222 301.15 0.051586 13.699 0.048283 25.000 0.040000 938.26 1025.5 3.2886 2.3559 2.6222 301.15 0.051586 13.699 0.048283
223.38 317.14 undefined 940.62 1028.1 3.2934 25.000 0.040000 940.62 1028.1 3.2934 2.3598 2.6257 301.53 0.051284 13.725 0.048460 25.000 0.040000 940.62 1028.1 3.2934 2.3598 2.6257 301.53 0.051284 13.725 0.048460
224.38 317.90 undefined 942.98 1030.7 3.2981 25.000 0.040000 942.98 1030.7 3.2981 2.3636 2.6292 301.91 0.050984 13.750 0.048637 25.000 0.040000 942.98 1030.7 3.2981 2.3636 2.6292 301.91 0.050984 13.750 0.048637
225.38 318.66 undefined 945.35 1033.2 3.3029 25.000 0.040000 945.35 1033.2 3.3029 2.3674 2.6328 302.29 0.050686 13.775 0.048814 25.000 0.040000 945.35 1033.2 3.3029 2.3674 2.6328 302.29 0.050686 13.775 0.048814
226.38 319.42 undefined 947.72 1035.8 3.3076 25.000 0.040000 947.72 1035.8 3.3076 2.3712 2.6363 302.67 0.050392 13.801 0.048992 25.000 0.040000 947.72 1035.8 3.3076 2.3712 2.6363 302.67 0.050392 13.801 0.048992
227.38 320.18 undefined 950.09 1038.4 3.3123 25.000 0.040000 950.09 1038.4 3.3123 2.3750 2.6398 303.05 0.050099 13.826 0.049170 25.000 0.040000 950.09 1038.4 3.3123 2.3750 2.6398 303.05 0.050099 13.826 0.049170
228.38 320.94 undefined 952.47 1041.0 3.3171 25.000 0.040000 952.47 1041.0 3.3171 2.3788 2.6433 303.43 0.049809 13.851 0.049348 25.000 0.040000 952.47 1041.0 3.3171 2.3788 2.6433 303.43 0.049809 13.851 0.049348
229.38 321.69 undefined 954.85 1043.6 3.3218 25.000 0.040000 954.85 1043.6 3.3218 2.3826 2.6468 303.81 0.049522 13.877 0.049527 25.000 0.040000 954.85 1043.6 3.3218 2.3826 2.6468 303.81 0.049522 13.877 0.049527
230.38 322.45 undefined 957.23 1046.2 3.3266 25.000 0.040000 957.23 1046.2 3.3266 2.3864 2.6503 304.19 0.049237 13.902 0.049706 25.000 0.040000 957.23 1046.2 3.3266 2.3864 2.6503 304.19 0.049237 13.902 0.049706
231.38 323.21 undefined 959.62 1048.8 3.3313 25.000 0.040000 959.62 1048.8 3.3313 2.3902 2.6538 304.56 0.048955 13.927 0.049885 25.000 0.040000 959.62 1048.8 3.3313 2.3902 2.6538 304.56 0.048955 13.927 0.049885
232.38 323.97 undefined 962.01 1051.4 3.3360 25.000 0.040000 962.01 1051.4 3.3360 2.3940 2.6573 304.94 0.048674 13.952 0.050064 25.000 0.040000 962.01 1051.4 3.3360 2.3940 2.6573 304.94 0.048674 13.952 0.050064
233.38 324.72 undefined 964.41 1054.0 3.3408 25.000 0.040000 964.41 1054.0 3.3408 2.3978 2.6609 305.32 0.048396 13.978 0.050244 25.000 0.040000 964.41 1054.0 3.3408 2.3978 2.6609 305.32 0.048396 13.978 0.050244
234.38 325.48 undefined 966.81 1056.6 3.3455 25.000 0.040000 966.81 1056.6 3.3455 2.4016 2.6644 305.69 0.048121 14.003 0.050424 25.000 0.040000 966.81 1056.6 3.3455 2.4016 2.6644 305.69 0.048121 14.003 0.050424
235.38 326.24 undefined 969.21 1059.2 3.3502 25.000 0.040000 969.21 1059.2 3.3502 2.4054 2.6679 306.07 0.047848 14.028 0.050604 25.000 0.040000 969.21 1059.2 3.3502 2.4054 2.6679 306.07 0.047848 14.028 0.050604
236.38 327.00 undefined 971.62 1061.8 3.3550 25.000 0.040000 971.62 1061.8 3.3550 2.4091 2.6714 306.44 0.047577 14.053 0.050785 25.000 0.040000 971.62 1061.8 3.3550 2.4091 2.6714 306.44 0.047577 14.053 0.050785
237.38 327.75 undefined 974.03 1064.4 3.3597 25.000 0.040000 974.03 1064.4 3.3597 2.4129 2.6748 306.82 0.047308 14.078 0.050966 25.000 0.040000 974.03 1064.4 3.3597 2.4129 2.6748 306.82 0.047308 14.078 0.050966
238.38 328.51 undefined 976.44 1067.0 3.3644 25.000 0.040000 976.44 1067.0 3.3644 2.4167 2.6783 307.19 0.047041 14.103 0.051147 25.000 0.040000 976.44 1067.0 3.3644 2.4167 2.6783 307.19 0.047041 14.103 0.051147
239.38 329.27 undefined 978.86 1069.7 3.3692 25.000 0.040000 978.86 1069.7 3.3692 2.4204 2.6818 307.56 0.046777 14.128 0.051329 25.000 0.040000 978.86 1069.7 3.3692 2.4204 2.6818 307.56 0.046777 14.128 0.051329
240.38 330.02 undefined 981.28 1072.3 3.3739 25.000 0.040000 981.28 1072.3 3.3739 2.4242 2.6853 307.93 0.046515 14.153 0.051510 25.000 0.040000 981.28 1072.3 3.3739 2.4242 2.6853 307.93 0.046515 14.153 0.051510
241.38 330.78 undefined 983.71 1074.9 3.3786 25.000 0.040000 983.71 1074.9 3.3786 2.4279 2.6888 308.31 0.046255 14.178 0.051692 25.000 0.040000 983.71 1074.9 3.3786 2.4279 2.6888 308.31 0.046255 14.178 0.051692
242.38 331.54 undefined 986.14 1077.6 3.3833 25.000 0.040000 986.14 1077.6 3.3833 2.4317 2.6923 308.68 0.045997 14.203 0.051875 25.000 0.040000 986.14 1077.6 3.3833 2.4317 2.6923 308.68 0.045997 14.203 0.051875
243.38 332.29 undefined 988.57 1080.2 3.3880 25.000 0.040000 988.57 1080.2 3.3880 2.4354 2.6958 309.05 0.045741 14.228 0.052057 25.000 0.040000 988.57 1080.2 3.3880 2.4354 2.6958 309.05 0.045741 14.228 0.052057
244.38 333.05 undefined 991.01 1082.9 3.3927 25.000 0.040000 991.01 1082.9 3.3927 2.4392 2.6993 309.42 0.045487 14.253 0.052240 25.000 0.040000 991.01 1082.9 3.3927 2.4392 2.6993 309.42 0.045487 14.253 0.052240
245.38 333.80 undefined 993.45 1085.5 3.3975 25.000 0.040000 993.45 1085.5 3.3975 2.4429 2.7027 309.79 0.045235 14.278 0.052424 25.000 0.040000 993.45 1085.5 3.3975 2.4429 2.7027 309.79 0.045235 14.278 0.052424
246.38 334.56 undefined 995.90 1088.2 3.4022 25.000 0.040000 995.90 1088.2 3.4022 2.4466 2.7062 310.16 0.044985 14.303 0.052607 25.000 0.040000 995.90 1088.2 3.4022 2.4466 2.7062 310.16 0.044985 14.303 0.052607
247.38 335.32 undefined 998.34 1090.8 3.4069 25.000 0.040000 998.34 1090.8 3.4069 2.4504 2.7097 310.53 0.044738 14.328 0.052791 25.000 0.040000 998.34 1090.8 3.4069 2.4504 2.7097 310.53 0.044738 14.328 0.052791
248.38 336.07 undefined 1000.8 1093.5 3.4116 25.000 0.040000 1000.8 1093.5 3.4116 2.4541 2.7131 310.90 0.044492 14.353 0.052975 25.000 0.040000 1000.8 1093.5 3.4116 2.4541 2.7131 310.90 0.044492 14.353 0.052975
249.38 336.83 undefined 1003.3 1096.1 3.4163 25.000 0.040000 1003.3 1096.1 3.4163 2.4578 2.7166 311.27 0.044248 14.378 0.053159 25.000 0.040000 1003.3 1096.1 3.4163 2.4578 2.7166 311.27 0.044248 14.378 0.053159
250.38 337.58 undefined 1005.7 1098.8 3.4210 25.000 0.040000 1005.7 1098.8 3.4210 2.4615 2.7201 311.63 0.044006 14.403 0.053344 25.000 0.040000 1005.7 1098.8 3.4210 2.4615 2.7201 311.63 0.044006 14.403 0.053344
251.38 338.34 undefined 1008.2 1101.5 3.4257 25.000 0.040000 1008.2 1101.5 3.4257 2.4652 2.7235 312.00 0.043766 14.427 0.053529 25.000 0.040000 1008.2 1101.5 3.4257 2.4652 2.7235 312.00 0.043766 14.427 0.053529
252.38 339.09 undefined 1010.6 1104.2 3.4304 25.000 0.040000 1010.6 1104.2 3.4304 2.4689 2.7270 312.37 0.043528 14.452 0.053714 25.000 0.040000 1010.6 1104.2 3.4304 2.4689 2.7270 312.37 0.043528 14.452 0.053714
253.38 339.85 undefined 1013.1 1106.8 3.4351 25.000 0.040000 1013.1 1106.8 3.4351 2.4726 2.7305 312.73 0.043292 14.477 0.053900 25.000 0.040000 1013.1 1106.8 3.4351 2.4726 2.7305 312.73 0.043292 14.477 0.053900
254.38 340.60 undefined 1015.6 1109.5 3.4398 25.000 0.040000 1015.6 1109.5 3.4398 2.4763 2.7339 313.10 0.043057 14.502 0.054086 25.000 0.040000 1015.6 1109.5 3.4398 2.4763 2.7339 313.10 0.043057 14.502 0.054086
255.38 341.36 undefined 1018.1 1112.2 3.4445 25.000 0.040000 1018.1 1112.2 3.4445 2.4800 2.7374 313.47 0.042825 14.526 0.054272 25.000 0.040000 1018.1 1112.2 3.4445 2.4800 2.7374 313.47 0.042825 14.526 0.054272
256.38 342.11 undefined 1020.5 1114.9 3.4492 25.000 0.040000 1020.5 1114.9 3.4492 2.4837 2.7408 313.83 0.042594 14.551 0.054458 25.000 0.040000 1020.5 1114.9 3.4492 2.4837 2.7408 313.83 0.042594 14.551 0.054458
257.38 342.87 undefined 1023.0 1117.6 3.4539 25.000 0.040000 1023.0 1117.6 3.4539 2.4874 2.7443 314.19 0.042365 14.576 0.054645 25.000 0.040000 1023.0 1117.6 3.4539 2.4874 2.7443 314.19 0.042365 14.576 0.054645
258.38 343.62 undefined 1025.5 1120.3 3.4585 25.000 0.040000 1025.5 1120.3 3.4585 2.4910 2.7477 314.56 0.042138 14.600 0.054832 25.000 0.040000 1025.5 1120.3 3.4585 2.4910 2.7477 314.56 0.042138 14.600 0.054832
259.38 344.38 undefined 1028.0 1123.0 3.4632 25.000 0.040000 1028.0 1123.0 3.4632 2.4947 2.7511 314.92 0.041912 14.625 0.055019 25.000 0.040000 1028.0 1123.0 3.4632 2.4947 2.7511 314.92 0.041912 14.625 0.055019
260.38 345.13 undefined 1030.5 1125.7 3.4679 25.000 0.040000 1030.5 1125.7 3.4679 2.4984 2.7546 315.28 0.041688 14.649 0.055207 25.000 0.040000 1030.5 1125.7 3.4679 2.4984 2.7546 315.28 0.041688 14.649 0.055207
261.38 345.89 undefined 1033.0 1128.4 3.4726 25.000 0.040000 1033.0 1128.4 3.4726 2.5020 2.7580 315.65 0.041466 14.674 0.055394 25.000 0.040000 1033.0 1128.4 3.4726 2.5020 2.7580 315.65 0.041466 14.674 0.055394
262.38 346.64 undefined 1035.5 1131.1 3.4773 25.000 0.040000 1035.5 1131.1 3.4773 2.5057 2.7614 316.01 0.041246 14.699 0.055582 25.000 0.040000 1035.5 1131.1 3.4773 2.5057 2.7614 316.01 0.041246 14.699 0.055582
263.38 347.39 undefined 1038.0 1133.8 3.4819 25.000 0.040000 1038.0 1133.8 3.4819 2.5093 2.7649 316.37 0.041027 14.723 0.055771 25.000 0.040000 1038.0 1133.8 3.4819 2.5093 2.7649 316.37 0.041027 14.723 0.055771
264.38 348.15 undefined 1040.5 1136.6 3.4866 25.000 0.040000 1040.5 1136.6 3.4866 2.5130 2.7683 316.73 0.040810 14.748 0.055960 25.000 0.040000 1040.5 1136.6 3.4866 2.5130 2.7683 316.73 0.040810 14.748 0.055960
265.38 348.90 undefined 1043.0 1139.3 3.4913 25.000 0.040000 1043.0 1139.3 3.4913 2.5166 2.7717 317.09 0.040595 14.772 0.056148 25.000 0.040000 1043.0 1139.3 3.4913 2.5166 2.7717 317.09 0.040595 14.772 0.056148
266.38 349.66 undefined 1045.6 1142.0 3.4960 25.000 0.040000 1045.6 1142.0 3.4960 2.5203 2.7751 317.45 0.040381 14.796 0.056338 25.000 0.040000 1045.6 1142.0 3.4960 2.5203 2.7751 317.45 0.040381 14.796 0.056338
267.38 350.41 undefined 1048.1 1144.7 3.5006 25.000 0.040000 1048.1 1144.7 3.5006 2.5239 2.7785 317.81 0.040169 14.821 0.056527 25.000 0.040000 1048.1 1144.7 3.5006 2.5239 2.7785 317.81 0.040169 14.821 0.056527
268.38 351.16 undefined 1050.6 1147.5 3.5053 25.000 0.040000 1050.6 1147.5 3.5053 2.5275 2.7820 318.17 0.039959 14.845 0.056717 25.000 0.040000 1050.6 1147.5 3.5053 2.5275 2.7820 318.17 0.039959 14.845 0.056717
269.38 351.92 undefined 1053.1 1150.2 3.5100 25.000 0.040000 1053.1 1150.2 3.5100 2.5312 2.7854 318.53 0.039750 14.870 0.056907 25.000 0.040000 1053.1 1150.2 3.5100 2.5312 2.7854 318.53 0.039750 14.870 0.056907
270.38 352.67 undefined 1055.7 1152.9 3.5146 25.000 0.040000 1055.7 1152.9 3.5146 2.5348 2.7888 318.89 0.039542 14.894 0.057097 25.000 0.040000 1055.7 1152.9 3.5146 2.5348 2.7888 318.89 0.039542 14.894 0.057097
271.38 353.43 undefined 1058.2 1155.7 3.5193 25.000 0.040000 1058.2 1155.7 3.5193 2.5384 2.7922 319.25 0.039336 14.918 0.057288 25.000 0.040000 1058.2 1155.7 3.5193 2.5384 2.7922 319.25 0.039336 14.918 0.057288
272.38 354.18 undefined 1060.8 1158.4 3.5240 25.000 0.040000 1060.8 1158.4 3.5240 2.5420 2.7956 319.61 0.039132 14.943 0.057479 25.000 0.040000 1060.8 1158.4 3.5240 2.5420 2.7956 319.61 0.039132 14.943 0.057479
273.38 354.93 undefined 1063.3 1161.2 3.5286 25.000 0.040000 1063.3 1161.2 3.5286 2.5456 2.7990 319.96 0.038929 14.967 0.057670 25.000 0.040000 1063.3 1161.2 3.5286 2.5456 2.7990 319.96 0.038929 14.967 0.057670
274.38 355.69 undefined 1065.8 1163.9 3.5333 25.000 0.040000 1065.8 1163.9 3.5333 2.5492 2.8024 320.32 0.038728 14.991 0.057861 25.000 0.040000 1065.8 1163.9 3.5333 2.5492 2.8024 320.32 0.038728 14.991 0.057861
275.38 356.44 undefined 1068.4 1166.7 3.5379 25.000 0.040000 1068.4 1166.7 3.5379 2.5528 2.8058 320.68 0.038528 15.016 0.058053 25.000 0.040000 1068.4 1166.7 3.5379 2.5528 2.8058 320.68 0.038528 15.016 0.058053
276.38 357.19 undefined 1071.0 1169.5 3.5426 25.000 0.040000 1071.0 1169.5 3.5426 2.5564 2.8091 321.03 0.038330 15.040 0.058245 25.000 0.040000 1071.0 1169.5 3.5426 2.5564 2.8091 321.03 0.038330 15.040 0.058245
277.38 357.94 undefined 1073.5 1172.2 3.5472 25.000 0.040000 1073.5 1172.2 3.5472 2.5600 2.8125 321.39 0.038133 15.064 0.058437 25.000 0.040000 1073.5 1172.2 3.5472 2.5600 2.8125 321.39 0.038133 15.064 0.058437
278.38 358.70 undefined 1076.1 1175.0 3.5519 25.000 0.040000 1076.1 1175.0 3.5519 2.5636 2.8159 321.74 0.037937 15.088 0.058629 25.000 0.040000 1076.1 1175.0 3.5519 2.5636 2.8159 321.74 0.037937 15.088 0.058629
279.38 359.45 undefined 1078.6 1177.8 3.5565 25.000 0.040000 1078.6 1177.8 3.5565 2.5672 2.8193 322.10 0.037743 15.112 0.058821 25.000 0.040000 1078.6 1177.8 3.5565 2.5672 2.8193 322.10 0.037743 15.112 0.058821
280.38 360.20 undefined 1081.2 1180.5 3.5612 25.000 0.040000 1081.2 1180.5 3.5612 2.5707 2.8227 322.45 0.037550 15.136 0.059014 25.000 0.040000 1081.2 1180.5 3.5612 2.5707 2.8227 322.45 0.037550 15.136 0.059014
281.38 360.96 undefined 1083.8 1183.3 3.5658 25.000 0.040000 1083.8 1183.3 3.5658 2.5743 2.8260 322.81 0.037359 15.161 0.059206 25.000 0.040000 1083.8 1183.3 3.5658 2.5743 2.8260 322.81 0.037359 15.161 0.059206
282.38 361.71 undefined 1086.4 1186.1 3.5705 25.000 0.040000 1086.4 1186.1 3.5705 2.5779 2.8294 323.16 0.037169 15.185 0.059398 25.000 0.040000 1086.4 1186.1 3.5705 2.5779 2.8294 323.16 0.037169 15.185 0.059398
283.38 362.46 undefined 1088.9 1188.9 3.5751 25.000 0.040000 1088.9 1188.9 3.5751 2.5814 2.8328 323.51 0.036981 15.209 0.059593 25.000 0.040000 1088.9 1188.9 3.5751 2.5814 2.8328 323.51 0.036981 15.209 0.059593
284.38 363.21 undefined 1091.5 1191.7 3.5797 25.000 0.040000 1091.5 1191.7 3.5797 2.5850 2.8361 323.86 0.036793 15.233 0.059788 25.000 0.040000 1091.5 1191.7 3.5797 2.5850 2.8361 323.86 0.036793 15.233 0.059788
285.38 363.97 undefined 1094.1 1194.5 3.5844 25.000 0.040000 1094.1 1194.5 3.5844 2.5885 2.8395 324.22 0.036608 15.257 0.059983 25.000 0.040000 1094.1 1194.5 3.5844 2.5885 2.8395 324.22 0.036608 15.257 0.059983
286.38 364.72 undefined 1096.7 1197.3 3.5890 25.000 0.040000 1096.7 1197.3 3.5890 2.5921 2.8428 324.57 0.036423 15.281 0.060179 25.000 0.040000 1096.7 1197.3 3.5890 2.5921 2.8428 324.57 0.036423 15.281 0.060179
287.38 365.47 undefined 1099.3 1200.1 3.5936 25.000 0.040000 1099.3 1200.1 3.5936 2.5956 2.8462 324.92 0.036240 15.305 0.060375 25.000 0.040000 1099.3 1200.1 3.5936 2.5956 2.8462 324.92 0.036240 15.305 0.060375
288.38 366.22 undefined 1101.9 1202.9 3.5983 25.000 0.040000 1101.9 1202.9 3.5983 2.5992 2.8495 325.27 0.036058 15.329 0.060571 25.000 0.040000 1101.9 1202.9 3.5983 2.5992 2.8495 325.27 0.036058 15.329 0.060571
289.38 366.98 undefined 1104.5 1205.7 3.6029 25.000 0.040000 1104.5 1205.7 3.6029 2.6027 2.8529 325.62 0.035877 15.353 0.060767 25.000 0.040000 1104.5 1205.7 3.6029 2.6027 2.8529 325.62 0.035877 15.353 0.060767
290.38 367.73 undefined 1107.1 1208.5 3.6075 25.000 0.040000 1107.1 1208.5 3.6075 2.6062 2.8562 325.97 0.035698 15.377 0.060964 25.000 0.040000 1107.1 1208.5 3.6075 2.6062 2.8562 325.97 0.035698 15.377 0.060964
291.38 368.48 undefined 1109.7 1211.3 3.6122 25.000 0.040000 1109.7 1211.3 3.6122 2.6097 2.8595 326.32 0.035520 15.400 0.061161 25.000 0.040000 1109.7 1211.3 3.6122 2.6097 2.8595 326.32 0.035520 15.400 0.061161
292.38 369.23 undefined 1112.3 1214.1 3.6168 25.000 0.040000 1112.3 1214.1 3.6168 2.6133 2.8629 326.67 0.035343 15.424 0.061358 25.000 0.040000 1112.3 1214.1 3.6168 2.6133 2.8629 326.67 0.035343 15.424 0.061358
293.38 369.98 undefined 1114.9 1217.0 3.6214 25.000 0.040000 1114.9 1217.0 3.6214 2.6168 2.8662 327.02 0.035167 15.448 0.061556 25.000 0.040000 1114.9 1217.0 3.6214 2.6168 2.8662 327.02 0.035167 15.448 0.061556
294.38 370.73 undefined 1117.5 1219.8 3.6260 25.000 0.040000 1117.5 1219.8 3.6260 2.6203 2.8695 327.37 0.034993 15.472 0.061754 25.000 0.040000 1117.5 1219.8 3.6260 2.6203 2.8695 327.37 0.034993 15.472 0.061754
295.38 371.49 undefined 1120.2 1222.6 3.6306 25.000 0.040000 1120.2 1222.6 3.6306 2.6238 2.8728 327.71 0.034820 15.496 0.061952 25.000 0.040000 1120.2 1222.6 3.6306 2.6238 2.8728 327.71 0.034820 15.496 0.061952
296.38 372.24 undefined 1122.8 1225.5 3.6352 25.000 0.040000 1122.8 1225.5 3.6352 2.6273 2.8762 328.06 0.034648 15.520 0.062151 25.000 0.040000 1122.8 1225.5 3.6352 2.6273 2.8762 328.06 0.034648 15.520 0.062151
297.38 372.99 undefined 1125.4 1228.3 3.6399 25.000 0.040000 1125.4 1228.3 3.6399 2.6308 2.8795 328.41 0.034477 15.543 0.062349 25.000 0.040000 1125.4 1228.3 3.6399 2.6308 2.8795 328.41 0.034477 15.543 0.062349
298.38 373.74 undefined 1128.1 1231.1 3.6445 25.000 0.040000 1128.1 1231.1 3.6445 2.6343 2.8828 328.76 0.034307 15.567 0.062548 25.000 0.040000 1128.1 1231.1 3.6445 2.6343 2.8828 328.76 0.034307 15.567 0.062548
299.38 374.49 undefined 1130.7 1234.0 3.6491 25.000 0.040000 1130.7 1234.0 3.6491 2.6378 2.8861 329.10 0.034139 15.591 0.062748 25.000 0.040000 1130.7 1234.0 3.6491 2.6378 2.8861 329.10 0.034139 15.591 0.062748
300.38 375.24 undefined 1133.3 1236.8 3.6537 25.000 0.040000 1133.3 1236.8 3.6537 2.6412 2.8894 329.45 0.033971 15.614 0.062947 25.000 0.040000 1133.3 1236.8 3.6537 2.6412 2.8894 329.45 0.033971 15.614 0.062947