Temperature (C) Pressure (psia) Quality (l+v) Internal Energy (l+v, kJ/kg) Enthalpy (l+v, kJ/kg) Entropy (l+v, J/g*K) Density (l, kg/m3) Volume (l, m3/kg) Internal Energy (l, kJ/kg) Enthalpy (l, kJ/kg) Entropy (l, J/g*K) Cv (l, J/g*K) Cp (l, J/g*K) Sound Spd. (l, m/s) Joule-Thomson (l, F/psia) Viscosity (l, uPa*s) Therm. Cond. (l, W/m*K) Density (v, kg/m3) Volume (v, m3/kg) Internal Energy (v, kJ/kg) Enthalpy (v, kJ/kg) Entropy (v, J/g*K) Cv (v, J/g*K) Cp (v, J/g*K) Sound Spd. (v, m/s) Joule-Thomson (v, F/psia) Viscosity (v, uPa*s) Therm. Cond. (v, W/m*K)
-187.62 2.4953e-08 2.6481e-11 -196.64 -196.64 -1.3959 733.13 0.0013640 -196.64 -196.64 -1.3959 1.3553 1.9158 2136.4 -0.0077592 10960. 0.20792 1.0669e-08 9.3732e+07 350.13 366.26 5.1858 0.69067 0.87923 143.28 6.1051 2.3259 0.0017061
-186.62 3.7339e-08 3.9137e-11 -194.73 -194.73 -1.3736 732.08 0.0013660 -194.73 -194.73 -1.3736 1.3539 1.9166 2129.6 -0.0077546 10073. 0.20765 1.5780e-08 6.3371e+07 350.82 367.14 5.1200 0.69462 0.88317 144.03 5.9178 2.3534 0.0017533
-185.62 5.5322e-08 5.7278e-11 -192.81 -192.81 -1.3516 731.04 0.0013679 -192.81 -192.81 -1.3516 1.3525 1.9174 2122.9 -0.0077498 9276.1 0.20737 2.3112e-08 4.3267e+07 351.52 368.02 5.0561 0.69857 0.88713 144.77 5.7383 2.3808 0.0018007
-184.62 8.1182e-08 8.3038e-11 -190.89 -190.89 -1.3298 730.00 0.0013699 -190.89 -190.89 -1.3298 1.3513 1.9182 2116.1 -0.0077448 8557.8 0.20708 3.3533e-08 2.9821e+07 352.22 368.91 4.9939 0.70253 0.89108 145.51 5.5662 2.4083 0.0018485
-183.62 1.1803e-07 1.1929e-10 -188.97 -188.97 -1.3083 728.96 0.0013718 -188.97 -188.97 -1.3083 1.3501 1.9191 2109.3 -0.0077395 7909.8 0.20678 4.8211e-08 2.0742e+07 352.92 369.81 4.9333 0.70648 0.89504 146.24 5.4011 2.4357 0.0018965
-182.62 1.7009e-07 1.6986e-10 -187.05 -187.05 -1.2869 727.92 0.0013738 -187.05 -187.05 -1.2869 1.3490 1.9201 2102.5 -0.0077340 7324.3 0.20647 6.8704e-08 1.4555e+07 353.63 370.70 4.8744 0.71043 0.89899 146.97 5.2426 2.4632 0.0019448
-181.62 2.4299e-07 2.3982e-10 -185.13 -185.13 -1.2658 726.88 0.0013757 -185.13 -185.13 -1.2658 1.3480 1.9210 2095.7 -0.0077283 6794.5 0.20616 9.7079e-08 1.0301e+07 354.35 371.60 4.8170 0.71438 0.90294 147.69 5.0904 2.4906 0.0019934
-180.62 3.4425e-07 3.3583e-10 -183.21 -183.21 -1.2450 725.85 0.0013777 -183.21 -183.21 -1.2450 1.3470 1.9220 2088.9 -0.0077225 6314.4 0.20584 1.3605e-07 7.3504e+06 355.06 372.51 4.7612 0.71833 0.90688 148.41 4.9442 2.5181 0.0020423
-179.62 4.8378e-07 4.6653e-10 -181.29 -181.29 -1.2243 724.81 0.0013797 -181.29 -181.29 -1.2243 1.3461 1.9231 2082.0 -0.0077164 5878.8 0.20551 1.8915e-07 5.2868e+06 355.78 373.42 4.7068 0.72227 0.91082 149.13 4.8038 2.5456 0.0020915
-178.62 6.7459e-07 6.4314e-10 -179.37 -179.37 -1.2038 723.78 0.0013816 -179.37 -179.37 -1.2038 1.3453 1.9241 2075.2 -0.0077102 5482.9 0.20517 2.6096e-07 3.8320e+06 356.51 374.33 4.6538 0.72620 0.91475 149.84 4.6688 2.5731 0.0021410
-177.62 9.3358e-07 8.8004e-10 -177.44 -177.44 -1.1836 722.75 0.0013836 -177.44 -177.44 -1.1836 1.3445 1.9252 2068.4 -0.0077039 5122.6 0.20483 3.5737e-07 2.7982e+06 357.23 375.25 4.6022 0.73012 0.91867 150.54 4.5390 2.6005 0.0021907
-176.62 1.2826e-06 1.1955e-09 -175.52 -175.52 -1.1635 721.72 0.0013856 -175.52 -175.52 -1.1635 1.3437 1.9263 2061.5 -0.0076973 4794.1 0.20447 4.8588e-07 2.0581e+06 357.97 376.17 4.5519 0.73403 0.92258 151.25 4.4142 2.6280 0.0022408
-175.62 1.7496e-06 1.6129e-09 -173.59 -173.59 -1.1437 720.69 0.0013876 -173.59 -173.59 -1.1437 1.3430 1.9274 2054.7 -0.0076907 4494.3 0.20411 6.5601e-07 1.5244e+06 358.70 377.09 4.5029 0.73792 0.92648 151.95 4.2941 2.6555 0.0022912
-174.62 2.3705e-06 2.1612e-09 -171.66 -171.66 -1.1240 719.66 0.0013895 -171.66 -171.66 -1.1240 1.3423 1.9286 2047.9 -0.0076838 4220.2 0.20375 8.7976e-07 1.1367e+06 359.44 378.02 4.4551 0.74181 0.93036 152.64 4.1784 2.6830 0.0023418
-173.62 3.1903e-06 2.8772e-09 -169.73 -169.73 -1.1045 718.64 0.0013915 -169.73 -169.73 -1.1045 1.3417 1.9298 2041.0 -0.0076769 3969.3 0.20338 1.1721e-06 8.5314e+05 360.19 378.95 4.4085 0.74568 0.93423 153.33 4.0671 2.7105 0.0023928
-172.62 4.2661e-06 3.8060e-09 -167.80 -167.80 -1.0852 717.61 0.0013935 -167.80 -167.80 -1.0852 1.3411 1.9310 2034.2 -0.0076698 3739.3 0.20300 1.5518e-06 6.4441e+05 360.93 379.89 4.3631 0.74953 0.93809 154.02 3.9599 2.7379 0.0024440
-171.62 5.6692e-06 5.0040e-09 -165.87 -165.87 -1.0661 716.58 0.0013955 -165.87 -165.87 -1.0661 1.3405 1.9322 2027.3 -0.0076625 3528.0 0.20261 2.0419e-06 4.8974e+05 361.69 380.83 4.3188 0.75337 0.94193 154.71 3.8566 2.7654 0.0024955
-170.62 7.4884e-06 6.5398e-09 -163.94 -163.94 -1.0472 715.56 0.0013975 -163.94 -163.94 -1.0472 1.3400 1.9334 2020.5 -0.0076552 3333.8 0.20222 2.6708e-06 3.7442e+05 362.44 381.77 4.2755 0.75720 0.94575 155.39 3.7570 2.7929 0.0025473
-169.62 9.8334e-06 8.4979e-09 -162.00 -162.00 -1.0284 714.54 0.0013995 -162.00 -162.00 -1.0284 1.3395 1.9347 2013.6 -0.0076477 3154.9 0.20182 3.4733e-06 2.8791e+05 363.20 382.72 4.2334 0.76100 0.94956 156.07 3.6609 2.8204 0.0025994
-168.62 1.2839e-05 1.0981e-08 -160.07 -160.07 -1.0098 713.52 0.0014015 -160.07 -160.07 -1.0098 1.3390 1.9359 2006.8 -0.0076401 2989.9 0.20141 4.4917e-06 2.2263e+05 363.96 383.67 4.1922 0.76479 0.95335 156.74 3.5683 2.8479 0.0026518
-167.62 1.6672e-05 1.4111e-08 -158.13 -158.13 -0.99134 712.49 0.0014035 -158.13 -158.13 -0.99134 1.3386 1.9372 2000.0 -0.0076323 2837.5 0.20100 5.7771e-06 1.7310e+05 364.73 384.63 4.1521 0.76856 0.95712 157.41 3.4790 2.8754 0.0027045
-166.62 2.1533e-05 1.8040e-08 -156.19 -156.19 -0.97306 711.47 0.0014055 -156.19 -156.19 -0.97306 1.3382 1.9385 1993.1 -0.0076245 2696.5 0.20058 7.3914e-06 1.3529e+05 365.50 385.59 4.1129 0.77232 0.96087 158.08 3.3927 2.9029 0.0027575
-165.62 2.7666e-05 2.2943e-08 -154.25 -154.25 -0.95494 710.45 0.0014075 -154.25 -154.25 -0.95494 1.3378 1.9398 1986.3 -0.0076165 2566.0 0.20016 9.4084e-06 1.0629e+05 366.27 386.55 4.0746 0.77605 0.96460 158.75 3.3095 2.9304 0.0028108
-164.62 3.5367e-05 2.9035e-08 -152.31 -152.31 -0.93698 709.44 0.0014096 -152.31 -152.31 -0.93698 1.3375 1.9411 1979.4 -0.0076084 2444.9 0.19973 1.1916e-05 83918. 367.05 387.52 4.0372 0.77976 0.96832 159.41 3.2291 2.9579 0.0028643
-163.62 4.4989e-05 3.6567e-08 -150.37 -150.37 -0.91917 708.42 0.0014116 -150.37 -150.37 -0.91917 1.3371 1.9424 1972.6 -0.0076002 2332.3 0.19930 1.5020e-05 66577. 367.83 388.49 4.0008 0.78346 0.97201 160.07 3.1514 2.9854 0.0029182
-162.62 5.6956e-05 4.5838e-08 -148.43 -148.43 -0.90151 707.40 0.0014136 -148.43 -148.43 -0.90151 1.3368 1.9437 1965.8 -0.0075919 2227.7 0.19886 1.8844e-05 53068. 368.62 389.46 3.9651 0.78713 0.97569 160.72 3.0764 3.0129 0.0029723
-161.62 7.1773e-05 5.7196e-08 -146.48 -146.48 -0.88400 706.38 0.0014157 -146.48 -146.48 -0.88400 1.3365 1.9451 1959.0 -0.0075834 2130.2 0.19841 2.3533e-05 42494. 369.41 390.44 3.9304 0.79079 0.97935 161.38 3.0038 3.0404 0.0030268
-160.62 9.0036e-05 7.1053e-08 -144.54 -144.54 -0.86663 705.37 0.0014177 -144.54 -144.54 -0.86663 1.3363 1.9465 1952.1 -0.0075748 2039.2 0.19796 2.9258e-05 34178. 370.20 391.42 3.8964 0.79443 0.98298 162.03 2.9337 3.0679 0.0030815
-159.62 0.00011245 8.7886e-08 -142.59 -142.59 -0.84940 704.35 0.0014197 -142.59 -142.59 -0.84940 1.3360 1.9478 1945.3 -0.0075661 1954.2 0.19751 3.6221e-05 27609. 371.00 392.40 3.8632 0.79805 0.98660 162.68 2.8658 3.0955 0.0031365
-158.62 0.00013985 1.0825e-07 -140.64 -140.64 -0.83231 703.34 0.0014218 -140.64 -140.64 -0.83231 1.3358 1.9492 1938.5 -0.0075573 1874.8 0.19705 4.4652e-05 22395. 371.80 393.39 3.8307 0.80164 0.99020 163.32 2.8002 3.1230 0.0031918
-157.62 0.00017320 1.3279e-07 -138.69 -138.69 -0.81536 702.32 0.0014238 -138.69 -138.69 -0.81536 1.3356 1.9506 1931.7 -0.0075484 1800.3 0.19658 5.4822e-05 18241. 372.60 394.38 3.7990 0.80522 0.99378 163.96 2.7367 3.1505 0.0032474
-156.62 0.00021364 1.6225e-07 -136.74 -136.74 -0.79854 701.31 0.0014259 -136.74 -136.74 -0.79854 1.3354 1.9520 1924.9 -0.0075393 1730.5 0.19611 6.7040e-05 14916. 373.41 395.38 3.7680 0.80878 0.99734 164.60 2.6752 3.1780 0.0033033
-155.62 0.00026248 1.9748e-07 -134.79 -134.79 -0.78185 700.30 0.0014280 -134.79 -134.79 -0.78185 1.3352 1.9534 1918.1 -0.0075302 1664.9 0.19564 8.1666e-05 12245. 374.22 396.38 3.7377 0.81232 1.0009 165.24 2.6157 3.2055 0.0033595
-154.62 0.00032125 2.3946e-07 -132.83 -132.83 -0.76530 699.29 0.0014300 -132.83 -132.83 -0.76530 1.3350 1.9548 1911.3 -0.0075209 1603.3 0.19516 9.9109e-05 10090. 375.03 397.38 3.7081 0.81585 1.0044 165.87 2.5580 3.2330 0.0034160
-153.62 0.00039171 2.8929e-07 -130.88 -130.88 -0.74887 698.27 0.0014321 -130.88 -130.88 -0.74887 1.3349 1.9563 1904.5 -0.0075114 1545.3 0.19468 0.00011984 8344.6 375.85 398.39 3.6792 0.81935 1.0079 166.50 2.5022 3.2606 0.0034727
-152.62 0.00047590 3.4825e-07 -128.92 -128.92 -0.73256 697.26 0.0014342 -128.92 -128.92 -0.73256 1.3348 1.9577 1897.8 -0.0075019 1490.6 0.19419 0.00014439 6925.9 376.67 399.40 3.6509 0.82284 1.0114 167.13 2.4481 3.2881 0.0035298
-151.62 0.00057613 4.1777e-07 -126.96 -126.96 -0.71638 696.25 0.0014363 -126.96 -126.96 -0.71638 1.3346 1.9592 1891.0 -0.0074922 1438.9 0.19370 0.00017336 5768.4 377.49 400.41 3.6232 0.82631 1.0149 167.76 2.3957 3.3156 0.0035872
-150.62 0.00069507 4.9947e-07 -125.00 -125.00 -0.70032 695.24 0.0014384 -125.00 -125.00 -0.70032 1.3345 1.9606 1884.2 -0.0074824 1390.2 0.19320 0.00020744 4820.7 378.32 401.42 3.5962 0.82976 1.0183 168.38 2.3448 3.3431 0.0036448
-149.62 0.00083574 5.9518e-07 -123.04 -123.04 -0.68437 694.23 0.0014404 -123.04 -123.04 -0.68438 1.3345 1.9621 1877.4 -0.0074724 1344.0 0.19270 0.00024740 4042.0 379.15 402.44 3.5697 0.83319 1.0218 169.00 2.2956 3.3706 0.0037027
-148.62 0.0010016 7.0694e-07 -121.08 -121.08 -0.66855 693.22 0.0014425 -121.08 -121.08 -0.66855 1.3344 1.9636 1870.7 -0.0074623 1300.3 0.19220 0.00029412 3400.0 379.99 403.47 3.5438 0.83661 1.0252 169.62 2.2478 3.3982 0.0037610
-147.62 0.0011965 8.3706e-07 -119.11 -119.11 -0.65283 692.21 0.0014447 -119.11 -119.11 -0.65284 1.3343 1.9651 1863.9 -0.0074521 1258.9 0.19169 0.00034856 2869.0 380.83 404.49 3.5185 0.84001 1.0286 170.24 2.2014 3.4257 0.0038195
-146.62 0.0014249 9.8810e-07 -117.15 -117.15 -0.63723 691.20 0.0014468 -117.15 -117.15 -0.63724 1.3343 1.9666 1857.2 -0.0074417 1219.6 0.19117 0.00041181 2428.3 381.67 405.52 3.4938 0.84340 1.0320 170.85 2.1565 3.4532 0.0038783
-145.62 0.0016917 1.1629e-06 -115.18 -115.18 -0.62175 690.19 0.0014489 -115.18 -115.18 -0.62175 1.3343 1.9682 1850.4 -0.0074312 1182.3 0.19066 0.00048510 2061.4 382.51 406.56 3.4695 0.84677 1.0353 171.46 2.1128 3.4807 0.0039374
-144.62 0.0020026 1.3647e-06 -113.21 -113.21 -0.60636 689.18 0.0014510 -113.21 -113.21 -0.60637 1.3343 1.9697 1843.7 -0.0074206 1146.8 0.19014 0.00056976 1755.1 383.36 407.59 3.4458 0.85012 1.0387 172.07 2.0705 3.5082 0.0039967
-143.62 0.0023637 1.5969e-06 -111.24 -111.24 -0.59109 688.17 0.0014531 -111.24 -111.24 -0.59110 1.3343 1.9713 1836.9 -0.0074098 1113.0 0.18962 0.00066731 1498.6 384.21 408.63 3.4226 0.85346 1.0420 172.68 2.0294 3.5358 0.0040564
-142.62 0.0027820 1.8634e-06 -109.27 -109.27 -0.57592 687.16 0.0014553 -109.27 -109.27 -0.57593 1.3343 1.9728 1830.2 -0.0073988 1080.8 0.18909 0.00077939 1283.1 385.07 409.68 3.3999 0.85679 1.0454 173.28 1.9896 3.5633 0.0041164
-141.62 0.0032653 2.1686e-06 -107.30 -107.30 -0.56086 686.15 0.0014574 -107.30 -107.30 -0.56087 1.3343 1.9744 1823.5 -0.0073878 1050.1 0.18856 0.00090784 1101.5 385.93 410.72 3.3777 0.86011 1.0487 173.88 1.9508 3.5908 0.0041766
-140.62 0.0038222 2.5171e-06 -105.32 -105.32 -0.54590 685.14 0.0014596 -105.32 -105.32 -0.54591 1.3344 1.9760 1816.7 -0.0073765 1020.7 0.18803 0.0010547 948.16 386.79 411.77 3.3560 0.86341 1.0520 174.48 1.9133 3.6183 0.0042372
-139.62 0.0044623 2.9140e-06 -103.34 -103.34 -0.53104 684.13 0.0014617 -103.34 -103.34 -0.53105 1.3344 1.9776 1810.0 -0.0073651 992.74 0.18749 0.0012221 818.26 387.65 412.83 3.3347 0.86670 1.0553 175.08 1.8768 3.6459 0.0042980
-138.62 0.0051963 3.3651e-06 -101.36 -101.36 -0.51627 683.12 0.0014639 -101.37 -101.37 -0.51629 1.3345 1.9792 1803.3 -0.0073536 965.97 0.18695 0.0014125 707.94 388.52 413.88 3.3139 0.86998 1.0586 175.67 1.8413 3.6734 0.0043592
-137.62 0.0060358 3.8764e-06 -99.384 -99.384 -0.50161 682.11 0.0014660 -99.386 -99.386 -0.50162 1.3346 1.9808 1796.6 -0.0073419 940.35 0.18641 0.0016287 614.00 389.39 414.94 3.2935 0.87325 1.0619 176.26 1.8069 3.7009 0.0044206
-136.62 0.0069938 4.4547e-06 -97.402 -97.402 -0.48704 681.10 0.0014682 -97.404 -97.404 -0.48705 1.3347 1.9825 1789.9 -0.0073301 915.81 0.18586 0.0018733 533.80 390.26 416.00 3.2735 0.87650 1.0651 176.85 1.7734 3.7284 0.0044823
-135.62 0.0080843 5.1073e-06 -95.419 -95.418 -0.47256 680.09 0.0014704 -95.421 -95.421 -0.47258 1.3348 1.9841 1783.2 -0.0073180 892.30 0.18531 0.0021497 465.17 391.14 417.07 3.2540 0.87975 1.0684 177.44 1.7409 3.7559 0.0045443
-134.62 0.0093230 5.8420e-06 -93.433 -93.433 -0.45818 679.08 0.0014726 -93.436 -93.436 -0.45820 1.3350 1.9858 1776.5 -0.0073059 869.75 0.18476 0.0024613 406.30 392.02 418.14 3.2348 0.88299 1.0716 178.02 1.7093 3.7834 0.0046066
-133.62 0.010727 6.6675e-06 -91.446 -91.446 -0.44388 678.07 0.0014748 -91.450 -91.449 -0.44391 1.3351 1.9875 1769.8 -0.0072935 848.11 0.18421 0.0028116 355.67 392.91 419.21 3.2161 0.88622 1.0749 178.61 1.6786 3.8109 0.0046691
-132.62 0.012315 7.5929e-06 -89.458 -89.457 -0.42968 677.06 0.0014770 -89.461 -89.461 -0.42971 1.3353 1.9892 1763.1 -0.0072810 827.32 0.18365 0.0032049 312.03 393.79 420.29 3.1977 0.88944 1.0781 179.19 1.6488 3.8385 0.0047320
-131.62 0.014106 8.6282e-06 -87.467 -87.467 -0.41557 676.04 0.0014792 -87.471 -87.471 -0.41560 1.3354 1.9909 1756.4 -0.0072684 807.34 0.18309 0.0036453 274.33 394.68 421.36 3.1798 0.89266 1.0813 179.76 1.6197 3.8660 0.0047951
-130.62 0.016124 9.7843e-06 -85.475 -85.474 -0.40154 675.03 0.0014814 -85.479 -85.479 -0.40157 1.3356 1.9926 1749.7 -0.0072555 788.12 0.18253 0.0041375 241.69 395.58 422.44 3.1622 0.89586 1.0846 180.34 1.5915 3.8935 0.0048586
-129.62 0.018392 1.1072e-05 -83.481 -83.480 -0.38760 674.02 0.0014836 -83.486 -83.486 -0.38763 1.3358 1.9944 1743.0 -0.0072425 769.63 0.18196 0.0046867 213.37 396.47 423.53 3.1450 0.89906 1.0878 180.91 1.5641 3.9210 0.0049223
-128.62 0.020935 1.2505e-05 -81.485 -81.484 -0.37374 673.01 0.0014859 -81.491 -81.490 -0.37378 1.3360 1.9961 1736.3 -0.0072294 751.83 0.18140 0.0052981 188.75 397.37 424.62 3.1281 0.90226 1.0910 181.48 1.5374 3.9485 0.0049863
-127.62 0.023783 1.4096e-05 -79.487 -79.486 -0.35996 672.00 0.0014881 -79.494 -79.493 -0.36001 1.3363 1.9979 1729.6 -0.0072160 734.67 0.18083 0.0059776 167.29 398.27 425.71 3.1116 0.90545 1.0942 182.05 1.5114 3.9760 0.0050506
-126.62 0.026966 1.5858e-05 -77.487 -77.487 -0.34627 670.98 0.0014904 -77.495 -77.495 -0.34632 1.3365 1.9997 1722.9 -0.0072025 718.14 0.18025 0.0067313 148.56 399.18 426.80 3.0954 0.90863 1.0974 182.62 1.4861 4.0035 0.0051152
-125.62 0.030515 1.7807e-05 -75.486 -75.485 -0.33266 669.97 0.0014926 -75.494 -75.494 -0.33272 1.3368 2.0015 1716.2 -0.0071888 702.18 0.17968 0.0075660 132.17 400.09 427.89 3.0795 0.91181 1.1006 183.18 1.4615 4.0310 0.0051800
-124.62 0.034467 1.9959e-05 -73.482 -73.481 -0.31912 668.95 0.0014949 -73.492 -73.492 -0.31919 1.3371 2.0033 1709.5 -0.0071749 686.79 0.17910 0.0084885 117.81 401.00 428.99 3.0640 0.91499 1.1038 183.74 1.4375 4.0584 0.0052452
-123.62 0.038859 2.2331e-05 -71.477 -71.476 -0.30566 667.94 0.0014971 -71.488 -71.487 -0.30574 1.3374 2.0051 1702.8 -0.0071609 671.93 0.17852 0.0095065 105.19 401.91 430.10 3.0488 0.91816 1.1070 184.30 1.4141 4.0859 0.0053106
-122.62 0.043731 2.4941e-05 -69.470 -69.469 -0.29229 666.92 0.0014994 -69.482 -69.481 -0.29237 1.3377 2.0070 1696.2 -0.0071466 657.57 0.17794 0.010628 94.092 402.83 431.20 3.0339 0.92134 1.1102 184.86 1.3913 4.1134 0.0053764
-121.62 0.049128 2.7808e-05 -67.461 -67.459 -0.27898 665.91 0.0015017 -67.474 -67.473 -0.27907 1.3380 2.0089 1689.5 -0.0071322 643.70 0.17736 0.011861 84.309 403.75 432.31 3.0193 0.92451 1.1134 185.41 1.3691 4.1409 0.0054424
-120.62 0.055096 3.0953e-05 -65.449 -65.448 -0.26575 664.89 0.0015040 -65.464 -65.463 -0.26585 1.3384 2.0107 1682.8 -0.0071176 630.28 0.17678 0.013215 75.669 404.67 433.42 3.0050 0.92767 1.1166 185.96 1.3475 4.1683 0.0055087
-119.62 0.061684 3.4396e-05 -63.436 -63.434 -0.25259 663.87 0.0015063 -63.452 -63.452 -0.25271 1.3387 2.0126 1676.1 -0.0071028 617.30 0.17619 0.014700 68.027 405.60 434.53 2.9909 0.93084 1.1198 186.51 1.3264 4.1958 0.0055752
-118.62 0.068946 3.8161e-05 -61.421 -61.419 -0.23951 662.86 0.0015086 -61.439 -61.438 -0.23963 1.3391 2.0146 1669.4 -0.0070878 604.74 0.17560 0.016325 61.255 406.53 435.64 2.9772 0.93401 1.1231 187.06 1.3058 4.2233 0.0056421
-117.62 0.076937 4.2271e-05 -59.403 -59.401 -0.22650 661.84 0.0015109 -59.423 -59.422 -0.22663 1.3395 2.0165 1662.8 -0.0070726 592.58 0.17501 0.018101 55.245 407.46 436.76 2.9638 0.93718 1.1263 187.60 1.2857 4.2507 0.0057092
-116.62 0.085718 4.6752e-05 -57.384 -57.382 -0.21355 660.82 0.0015133 -57.406 -57.405 -0.21370 1.3400 2.0184 1656.1 -0.0070573 580.80 0.17442 0.020040 49.901 408.39 437.88 2.9506 0.94035 1.1295 188.14 1.2660 4.2782 0.0057767
-115.62 0.095353 5.1628e-05 -55.362 -55.360 -0.20068 659.80 0.0015156 -55.386 -55.385 -0.20084 1.3404 2.0204 1649.4 -0.0070417 569.38 0.17383 0.022152 45.142 409.33 439.01 2.9377 0.94352 1.1327 188.68 1.2468 4.3056 0.0058444
-114.62 0.10591 5.6929e-05 -53.339 -53.336 -0.18787 658.78 0.0015180 -53.365 -53.364 -0.18805 1.3409 2.0224 1642.7 -0.0070260 558.32 0.17323 0.024451 40.898 410.27 440.13 2.9250 0.94669 1.1360 189.22 1.2281 4.3330 0.0059123
-113.62 0.11746 6.2682e-05 -51.313 -51.309 -0.17513 657.76 0.0015203 -51.342 -51.340 -0.17533 1.3413 2.0244 1636.0 -0.0070100 547.59 0.17264 0.026949 37.107 411.21 441.26 2.9126 0.94987 1.1392 189.75 1.2097 4.3604 0.0059806
-112.62 0.13008 6.8919e-05 -49.284 -49.281 -0.16246 656.73 0.0015227 -49.316 -49.315 -0.16267 1.3418 2.0264 1629.3 -0.0069938 537.18 0.17204 0.029661 33.715 412.16 442.39 2.9005 0.95305 1.1424 190.28 1.1918 4.3879 0.0060491
-111.62 0.14384 7.5670e-05 -47.254 -47.250 -0.14985 655.71 0.0015251 -47.289 -47.287 -0.15008 1.3424 2.0285 1622.7 -0.0069774 527.08 0.17144 0.032600 30.675 413.10 443.53 2.8885 0.95623 1.1457 190.81 1.1742 4.4153 0.0061180
-110.62 0.15884 8.2969e-05 -45.221 -45.217 -0.13730 654.69 0.0015274 -45.259 -45.258 -0.13755 1.3429 2.0305 1616.0 -0.0069609 517.28 0.17084 0.035781 27.948 414.06 444.66 2.8769 0.95942 1.1490 191.34 1.1570 4.4427 0.0061871
-109.62 0.17516 9.0850e-05 -43.186 -43.181 -0.12482 653.66 0.0015298 -43.228 -43.226 -0.12509 1.3435 2.0326 1609.3 -0.0069441 507.76 0.17024 0.039220 25.497 415.01 445.80 2.8654 0.96261 1.1522 191.86 1.1402 4.4701 0.0062564
-108.62 0.19290 9.9349e-05 -41.149 -41.144 -0.11240 652.64 0.0015322 -41.194 -41.192 -0.11269 1.3441 2.0347 1602.6 -0.0069271 498.51 0.16964 0.042933 23.292 415.96 446.94 2.8542 0.96581 1.1555 192.38 1.1236 4.4974 0.0063261
-107.62 0.21215 0.00010850 -39.109 -39.103 -0.10004 651.61 0.0015347 -39.158 -39.156 -0.10036 1.3447 2.0369 1595.9 -0.0069098 489.52 0.16903 0.046937 21.305 416.92 448.09 2.8433 0.96901 1.1588 192.90 1.1075 4.5248 0.0063960
-106.62 0.23301 0.00011835 -37.067 -37.060 -0.087737 650.58 0.0015371 -37.120 -37.118 -0.088082 1.3453 2.0390 1589.2 -0.0068924 480.79 0.16843 0.051250 19.512 417.88 449.23 2.8325 0.97222 1.1621 193.41 1.0916 4.5522 0.0064662
-105.62 0.25561 0.00012893 -35.022 -35.015 -0.075495 649.55 0.0015395 -35.080 -35.078 -0.075868 1.3460 2.0412 1582.6 -0.0068747 472.30 0.16782 0.055891 17.892 418.85 450.38 2.8220 0.97544 1.1655 193.93 1.0760 4.5795 0.0065367
-104.62 0.28004 0.00014029 -32.975 -32.967 -0.063311 648.52 0.0015420 -33.038 -33.035 -0.063714 1.3467 2.0434 1575.9 -0.0068569 464.04 0.16721 0.060878 16.426 419.81 451.53 2.8116 0.97867 1.1688 194.44 1.0608 4.6069 0.0066074
-103.62 0.30643 0.00015246 -30.925 -30.917 -0.051184 647.49 0.0015444 -30.994 -30.991 -0.051619 1.3474 2.0456 1569.2 -0.0068387 456.00 0.16660 0.066231 15.099 420.78 452.68 2.8015 0.98191 1.1722 194.94 1.0458 4.6342 0.0066785
-102.62 0.33490 0.00016550 -28.873 -28.864 -0.039113 646.46 0.0015469 -28.947 -28.944 -0.039582 1.3481 2.0478 1562.5 -0.0068204 448.18 0.16600 0.071971 13.894 421.75 453.84 2.7916 0.98516 1.1755 195.44 1.0310 4.6615 0.0067498
-101.62 0.36558 0.00017945 -26.818 -26.808 -0.027098 645.43 0.0015494 -26.898 -26.894 -0.027602 1.3489 2.0501 1555.8 -0.0068018 440.57 0.16539 0.078120 12.801 422.73 454.99 2.7818 0.98841 1.1789 195.95 1.0166 4.6888 0.0068213
-100.62 0.39862 0.00019435 -24.760 -24.749 -0.015136 644.39 0.0015519 -24.847 -24.843 -0.015678 1.3497 2.0524 1549.1 -0.0067830 433.16 0.16478 0.084699 11.807 423.70 456.15 2.7723 0.99168 1.1823 196.44 1.0024 4.7161 0.0068932
-99.625 0.43414 0.00021026 -22.700 -22.688 -0.0032285 643.36 0.0015544 -22.794 -22.789 -0.0038103 1.3505 2.0547 1542.4 -0.0067639 425.95 0.16416 0.091731 10.901 424.68 457.31 2.7630 0.99496 1.1858 196.94 0.98838 4.7434 0.0069653
-98.625 0.47230 0.00022723 -20.637 -20.624 0.0086267 642.32 0.0015569 -20.738 -20.733 0.0080027 1.3514 2.0570 1535.7 -0.0067447 418.92 0.16355 0.099240 10.077 425.66 458.48 2.7538 0.99825 1.1892 197.43 0.97464 4.7707 0.0070377
-97.625 0.51325 0.00024530 -18.571 -18.557 0.020430 641.28 0.0015594 -18.680 -18.674 0.019762 1.3522 2.0594 1529.0 -0.0067251 412.07 0.16294 0.10725 9.3239 426.65 459.64 2.7448 1.0016 1.1927 197.92 0.96112 4.7979 0.0071103
-96.625 0.55714 0.00026454 -16.502 -16.487 0.032183 640.24 0.0015619 -16.620 -16.614 0.031467 1.3531 2.0618 1522.3 -0.0067053 405.39 0.16233 0.11579 8.6365 427.63 460.81 2.7360 1.0049 1.1962 198.40 0.94783 4.8251 0.0071832
-95.625 0.60416 0.00028499 -14.430 -14.414 0.043885 639.20 0.0015645 -14.557 -14.550 0.043120 1.3540 2.0642 1515.7 -0.0066853 398.88 0.16171 0.12488 8.0078 428.62 461.98 2.7274 1.0082 1.1997 198.88 0.93475 4.8524 0.0072564
-94.625 0.65446 0.00030672 -12.356 -12.338 0.055538 638.16 0.0015670 -12.491 -12.484 0.054721 1.3550 2.0667 1509.0 -0.0066650 392.53 0.16110 0.13455 7.4323 429.61 463.15 2.7189 1.0116 1.2032 199.36 0.92188 4.8796 0.0073299
-93.625 0.70822 0.00032978 -10.278 -10.259 0.067143 637.12 0.0015696 -10.424 -10.416 0.066271 1.3560 2.0691 1502.3 -0.0066444 386.34 0.16048 0.14482 6.9050 430.60 464.32 2.7107 1.0149 1.2068 199.83 0.90921 4.9068 0.0074036
-92.625 0.76564 0.00035423 -8.1977 -8.1774 0.078700 636.07 0.0015722 -8.3535 -8.3452 0.077771 1.3570 2.0716 1495.6 -0.0066236 380.31 0.15987 0.15573 6.4212 431.60 465.49 2.7025 1.0183 1.2104 200.30 0.89673 4.9340 0.0074776
-91.625 0.82689 0.00038013 -6.1140 -6.0921 0.090211 635.02 0.0015747 -6.2808 -6.2719 0.089220 1.3580 2.0742 1488.9 -0.0066025 374.41 0.15925 0.16731 5.9769 432.59 466.67 2.6946 1.0217 1.2140 200.77 0.88445 4.9611 0.0075518
-90.625 0.89218 0.00040755 -4.0272 -4.0036 0.10168 633.98 0.0015773 -4.2056 -4.1959 0.10062 1.3591 2.0767 1482.2 -0.0065811 368.66 0.15864 0.17958 5.5685 433.59 467.84 2.6868 1.0251 1.2177 201.24 0.87236 4.9883 0.0076263
-89.625 0.96172 0.00043655 -1.9372 -1.9117 0.11309 632.93 0.0015800 -2.1279 -2.1174 0.11197 1.3602 2.0793 1475.5 -0.0065595 363.05 0.15802 0.19258 5.1928 434.59 469.02 2.6791 1.0285 1.2213 201.70 0.86045 5.0154 0.0077011
-88.625 1.0357 0.00046719 0.15601 0.18348 0.12447 631.88 0.0015826 -0.047516 -0.036215 0.12328 1.3613 2.0819 1468.8 -0.0065375 357.56 0.15740 0.20633 4.8466 435.59 470.20 2.6717 1.0320 1.2250 202.15 0.84873 5.0425 0.0077761
-87.625 1.1144 0.00049954 2.2525 2.2821 0.13580 630.83 0.0015852 2.0355 2.0476 0.13454 1.3625 2.0846 1462.1 -0.0065153 352.21 0.15679 0.22087 4.5276 436.60 471.39 2.6643 1.0354 1.2288 202.61 0.83718 5.0696 0.0078514
-86.625 1.1979 0.00053368 4.3524 4.3842 0.14709 629.77 0.0015879 4.1211 4.1342 0.14575 1.3637 2.0873 1455.4 -0.0064928 346.98 0.15617 0.23623 4.2331 437.61 472.57 2.6571 1.0389 1.2325 203.06 0.82580 5.0967 0.0079270
-85.625 1.2866 0.00056966 6.4557 6.4898 0.15833 628.72 0.0015905 6.2094 6.2235 0.15691 1.3649 2.0900 1448.8 -0.0064701 341.87 0.15555 0.25245 3.9612 438.61 473.75 2.6501 1.0424 1.2363 203.50 0.81460 5.1237 0.0080028
-84.625 1.3806 0.00060756 8.5624 8.5990 0.16954 627.66 0.0015932 8.3004 8.3155 0.16803 1.3661 2.0927 1442.1 -0.0064470 336.87 0.15494 0.26956 3.7097 439.63 474.94 2.6432 1.0460 1.2402 203.95 0.80356 5.1508 0.0080789
-83.625 1.4803 0.00064746 10.673 10.712 0.18070 626.60 0.0015959 10.394 10.410 0.17911 1.3674 2.0955 1435.4 -0.0064236 331.99 0.15432 0.28760 3.4771 440.64 476.13 2.6364 1.0495 1.2440 204.38 0.79269 5.1778 0.0081553
-82.625 1.5858 0.00068942 12.786 12.829 0.19183 625.54 0.0015986 12.491 12.508 0.19014 1.3687 2.0983 1428.7 -0.0063999 327.22 0.15370 0.30659 3.2616 441.65 477.31 2.6298 1.0531 1.2479 204.82 0.78199 5.2048 0.0082319
-81.625 1.6975 0.00073353 14.904 14.949 0.20291 624.48 0.0016013 14.590 14.609 0.20113 1.3700 2.1012 1422.0 -0.0063759 322.55 0.15309 0.32659 3.0619 442.67 478.50 2.6233 1.0567 1.2519 205.25 0.77144 5.2318 0.0083088
-80.625 1.8155 0.00077985 17.025 17.073 0.21396 623.42 0.0016041 16.692 16.712 0.21208 1.3714 2.1041 1415.4 -0.0063516 317.99 0.15247 0.34763 2.8766 443.69 479.70 2.6169 1.0603 1.2558 205.67 0.76106 5.2587 0.0083860
-79.625 1.9402 0.00082847 19.150 19.201 0.22497 622.36 0.0016068 18.797 18.819 0.22299 1.3728 2.1070 1408.7 -0.0063270 313.52 0.15186 0.36974 2.7046 444.71 480.89 2.6106 1.0639 1.2598 206.10 0.75083 5.2857 0.0084634
-78.625 2.0718 0.00087946 21.279 21.334 0.23594 621.29 0.0016096 20.905 20.928 0.23385 1.3742 2.1099 1402.0 -0.0063021 309.15 0.15124 0.39296 2.5448 445.73 482.08 2.6045 1.0676 1.2639 206.51 0.74076 5.3126 0.0085411
-77.625 2.2107 0.00093291 23.411 23.470 0.24687 620.22 0.0016123 23.016 23.040 0.24468 1.3757 2.1129 1395.3 -0.0062768 304.88 0.15062 0.41735 2.3961 446.75 483.27 2.5985 1.0712 1.2680 206.93 0.73084 5.3395 0.0086190
-76.625 2.3571 0.00098889 25.548 25.610 0.25777 619.15 0.0016151 25.130 25.156 0.25546 1.3772 2.1159 1388.7 -0.0062512 300.69 0.15001 0.44292 2.2577 447.78 484.47 2.5926 1.0749 1.2721 207.34 0.72107 5.3664 0.0086972
-75.625 2.5113 0.0010475 27.688 27.755 0.26863 618.08 0.0016179 27.247 27.275 0.26620 1.3787 2.1190 1382.0 -0.0062253 296.59 0.14939 0.46974 2.1288 448.81 485.67 2.5869 1.0787 1.2762 207.74 0.71146 5.3933 0.0087757
-74.625 2.6736 0.0011088 29.833 29.904 0.27946 617.01 0.0016207 29.366 29.396 0.27691 1.3802 2.1221 1375.4 -0.0061990 292.58 0.14878 0.49783 2.0087 449.83 486.86 2.5812 1.0824 1.2804 208.14 0.70200 5.4201 0.0088544
-73.625 2.8444 0.0011729 31.981 32.057 0.29026 615.93 0.0016236 31.489 31.521 0.28758 1.3818 2.1252 1368.7 -0.0061724 288.65 0.14816 0.52725 1.8966 450.86 488.06 2.5757 1.0862 1.2847 208.54 0.69268 5.4469 0.0089334
-72.625 3.0240 0.0012398 34.134 34.214 0.30102 614.85 0.0016264 33.615 33.649 0.29821 1.3834 2.1284 1362.0 -0.0061454 284.81 0.14755 0.55804 1.7920 451.90 489.26 2.5703 1.0900 1.2889 208.93 0.68351 5.4737 0.0090126
-71.625 3.2127 0.0013098 36.291 36.376 0.31175 613.78 0.0016293 35.745 35.781 0.30880 1.3851 2.1316 1355.4 -0.0061181 281.03 0.14694 0.59024 1.6942 452.93 490.46 2.5650 1.0938 1.2932 209.32 0.67448 5.5005 0.0090922
-70.625 3.4108 0.0013827 38.452 38.543 0.32245 612.69 0.0016321 37.877 37.915 0.31935 1.3867 2.1349 1348.7 -0.0060904 277.34 0.14632 0.62390 1.6028 453.96 491.66 2.5598 1.0976 1.2976 209.70 0.66560 5.5273 0.0091720
-69.625 3.6187 0.0014588 40.618 40.714 0.33312 611.61 0.0016350 40.013 40.053 0.32987 1.3884 2.1382 1342.1 -0.0060624 273.72 0.14571 0.65906 1.5173 455.00 492.86 2.5547 1.1015 1.3020 210.08 0.65687 5.5540 0.0092520
-68.625 3.8367 0.0015382 42.788 42.890 0.34375 610.53 0.0016379 42.152 42.195 0.34036 1.3902 2.1415 1335.5 -0.0060339 270.17 0.14510 0.69577 1.4372 456.04 494.06 2.5497 1.1054 1.3064 210.45 0.64827 5.5807 0.0093324
-67.625 4.0652 0.0016208 44.963 45.071 0.35436 609.44 0.0016409 44.294 44.340 0.35080 1.3919 2.1449 1328.8 -0.0060051 266.69 0.14449 0.73408 1.3622 457.08 495.26 2.5448 1.1093 1.3109 210.82 0.63981 5.6074 0.0094130
-66.625 4.3046 0.0017069 47.142 47.256 0.36494 608.35 0.0016438 46.439 46.488 0.36122 1.3937 2.1483 1322.2 -0.0059760 263.28 0.14388 0.77404 1.2919 458.12 496.46 2.5400 1.1133 1.3154 211.18 0.63150 5.6341 0.0094939
-65.625 4.5551 0.0017965 49.326 49.446 0.37549 607.26 0.0016467 48.588 48.640 0.37160 1.3955 2.1518 1315.6 -0.0059464 259.93 0.14327 0.81570 1.2259 459.16 497.67 2.5353 1.1172 1.3200 211.54 0.62332 5.6608 0.0095750
-64.625 4.8173 0.0018896 51.514 51.642 0.38601 606.16 0.0016497 50.740 50.795 0.38195 1.3974 2.1553 1308.9 -0.0059164 256.65 0.14266 0.85910 1.1640 460.21 498.87 2.5307 1.1212 1.3246 211.89 0.61527 5.6874 0.0096564
-63.625 5.0915 0.0019865 53.707 53.842 0.39650 605.07 0.0016527 52.896 52.954 0.39226 1.3993 2.1588 1302.3 -0.0058861 253.42 0.14205 0.90429 1.1058 461.25 500.07 2.5262 1.1252 1.3293 212.24 0.60736 5.7140 0.0097382
-62.625 5.3781 0.0020871 55.905 56.048 0.40696 603.97 0.0016557 55.055 55.117 0.40254 1.4012 2.1624 1295.7 -0.0058553 250.26 0.14144 0.95134 1.0511 462.30 501.28 2.5218 1.1293 1.3340 212.58 0.59958 5.7406 0.0098201
-61.625 5.6774 0.0021917 58.108 58.259 0.41740 602.87 0.0016587 57.218 57.283 0.41279 1.4031 2.1660 1289.1 -0.0058241 247.16 0.14084 1.0003 0.99972 463.35 502.48 2.5175 1.1333 1.3387 212.92 0.59194 5.7672 0.0099024
-60.625 5.9899 0.0023002 60.316 60.475 0.42782 601.77 0.0016618 59.385 59.453 0.42301 1.4051 2.1697 1282.5 -0.0057925 244.12 0.14023 1.0512 0.95131 464.40 503.68 2.5133 1.1374 1.3435 213.26 0.58442 5.7938 0.0099850
-59.625 6.3160 0.0024128 62.529 62.696 0.43820 600.66 0.0016648 61.554 61.627 0.43320 1.4071 2.1734 1275.9 -0.0057605 241.13 0.13962 1.1041 0.90573 465.45 504.89 2.5091 1.1415 1.3483 213.58 0.57704 5.8203 0.010068
-58.625 6.6561 0.0025296 64.747 64.923 0.44857 599.55 0.0016679 63.728 63.805 0.44335 1.4091 2.1772 1269.3 -0.0057280 238.19 0.13902 1.1591 0.86277 466.50 506.09 2.5051 1.1457 1.3532 213.90 0.56978 5.8468 0.010151
-57.625 7.0107 0.0026507 66.970 67.156 0.45891 598.44 0.0016710 65.905 65.986 0.45348 1.4111 2.1810 1262.7 -0.0056951 235.31 0.13842 1.2161 0.82228 467.55 507.30 2.5011 1.1498 1.3581 214.22 0.56265 5.8733 0.010234
-56.625 7.3801 0.0027761 69.198 69.394 0.46922 597.33 0.0016741 68.086 68.172 0.46358 1.4132 2.1848 1256.1 -0.0056617 232.48 0.13781 1.2754 0.78408 468.60 508.50 2.4972 1.1540 1.3631 214.53 0.55564 5.8998 0.010318
-55.625 7.7648 0.0029061 71.432 71.638 0.47951 596.22 0.0016772 70.271 70.361 0.47364 1.4153 2.1887 1249.5 -0.0056279 229.69 0.13721 1.3369 0.74802 469.66 509.71 2.4934 1.1582 1.3681 214.84 0.54875 5.9263 0.010402
-54.625 8.1652 0.0030406 73.671 73.887 0.48978 595.10 0.0016804 72.460 72.554 0.48368 1.4174 2.1927 1242.9 -0.0055937 226.96 0.13661 1.4006 0.71396 470.72 510.91 2.4897 1.1624 1.3731 215.14 0.54199 5.9527 0.010486
-53.625 8.5819 0.0031798 75.915 76.143 0.50003 593.98 0.0016836 74.652 74.752 0.49369 1.4196 2.1967 1236.3 -0.0055589 224.27 0.13601 1.4667 0.68178 471.77 512.11 2.4860 1.1667 1.3782 215.43 0.53535 5.9792 0.010571
-52.625 9.0151 0.0033238 78.165 78.404 0.51025 592.86 0.0016867 76.849 76.954 0.50368 1.4218 2.2007 1229.8 -0.0055237 221.63 0.13541 1.5353 0.65136 472.83 513.32 2.4824 1.1710 1.3834 215.72 0.52882 6.0056 0.010656
-51.625 9.4655 0.0034728 80.420 80.671 0.52046 591.73 0.0016900 79.049 79.159 0.51363 1.4240 2.2048 1223.2 -0.0054880 219.04 0.13482 1.6062 0.62258 473.89 514.52 2.4789 1.1752 1.3886 216.00 0.52241 6.0320 0.010741
-50.625 9.9335 0.0036267 82.681 82.945 0.53064 590.60 0.0016932 81.253 81.369 0.52356 1.4262 2.2089 1216.6 -0.0054519 216.48 0.13422 1.6797 0.59534 474.95 515.73 2.4755 1.1796 1.3938 216.28 0.51612 6.0584 0.010827
-49.625 10.419 0.0037857 84.948 85.224 0.54080 589.47 0.0016964 83.462 83.584 0.53347 1.4285 2.2131 1210.1 -0.0054152 213.98 0.13363 1.7558 0.56954 476.01 516.93 2.4722 1.1839 1.3991 216.55 0.50994 6.0848 0.010913
-48.625 10.924 0.0039500 87.220 87.510 0.55095 588.34 0.0016997 85.674 85.802 0.54334 1.4308 2.2173 1203.5 -0.0053780 211.51 0.13303 1.8345 0.54510 477.07 518.13 2.4689 1.1883 1.4044 216.82 0.50387 6.1112 0.010999
-47.625 11.448 0.0041196 89.498 89.802 0.56107 587.20 0.0017030 87.891 88.025 0.55319 1.4331 2.2216 1196.9 -0.0053403 209.08 0.13244 1.9159 0.52194 478.14 519.33 2.4657 1.1927 1.4098 217.08 0.49792 6.1375 0.011085
-46.625 11.991 0.0042946 91.782 92.100 0.57118 586.06 0.0017063 90.111 90.252 0.56302 1.4354 2.2259 1190.4 -0.0053020 206.69 0.13185 2.0001 0.49997 479.20 520.53 2.4625 1.1971 1.4153 217.33 0.49207 6.1639 0.011172
-45.625 12.554 0.0044752 94.072 94.405 0.58126 584.92 0.0017096 92.336 92.484 0.57282 1.4378 2.2303 1183.8 -0.0052633 204.34 0.13126 2.0872 0.47912 480.27 521.74 2.4594 1.2015 1.4207 217.58 0.48633 6.1902 0.011259
-44.625 13.137 0.0046615 96.368 96.717 0.59133 583.77 0.0017130 94.565 94.720 0.58260 1.4402 2.2347 1177.3 -0.0052240 202.03 0.13067 2.1771 0.45933 481.33 522.94 2.4564 1.2060 1.4263 217.82 0.48069 6.2165 0.011347
-43.625 13.741 0.0048535 98.670 99.035 0.60138 582.62 0.0017164 96.799 96.961 0.59235 1.4426 2.2392 1170.7 -0.0051841 199.75 0.13008 2.2700 0.44053 482.40 524.14 2.4535 1.2104 1.4319 218.05 0.47516 6.2429 0.011435
-42.625 14.367 0.0050514 100.98 101.36 0.61142 581.47 0.0017198 99.036 99.207 0.60208 1.4450 2.2437 1164.2 -0.0051437 197.51 0.12949 2.3659 0.42267 483.46 525.33 2.4506 1.2149 1.4375 218.28 0.46973 6.2692 0.011523
-41.625 15.015 0.0052553 103.29 103.69 0.62144 580.32 0.0017232 101.28 101.46 0.61179 1.4475 2.2483 1157.7 -0.0051027 195.30 0.12891 2.4649 0.40569 484.53 526.53 2.4478 1.2195 1.4432 218.50 0.46440 6.2955 0.011612
-40.625 15.686 0.0054653 105.61 106.03 0.63144 579.16 0.0017266 103.52 103.71 0.62147 1.4500 2.2529 1151.1 -0.0050611 193.13 0.12832 2.5671 0.38954 485.60 527.73 2.4450 1.2240 1.4489 218.72 0.45917 6.3218 0.011701
-39.625 16.380 0.0056815 107.94 108.37 0.64142 578.00 0.0017301 105.78 105.97 0.63113 1.4525 2.2576 1144.6 -0.0050189 190.99 0.12774 2.6725 0.37418 486.67 528.93 2.4423 1.2286 1.4547 218.93 0.45403 6.3481 0.011790
-38.625 17.097 0.0059040 110.27 110.73 0.65139 576.83 0.0017336 108.03 108.24 0.64077 1.4550 2.2623 1138.0 -0.0049761 188.88 0.12716 2.7813 0.35955 487.74 530.12 2.4397 1.2332 1.4606 219.13 0.44900 6.3744 0.011880
-37.625 17.838 0.0061330 112.61 113.09 0.66135 575.66 0.0017371 110.29 110.51 0.65039 1.4576 2.2671 1131.5 -0.0049327 186.81 0.12658 2.8934 0.34562 488.81 531.32 2.4371 1.2378 1.4665 219.33 0.44405 6.4007 0.011970
-36.625 18.604 0.0063686 114.96 115.45 0.67129 574.49 0.0017407 112.56 112.78 0.65999 1.4602 2.2719 1125.0 -0.0048887 184.76 0.12600 3.0089 0.33235 489.88 532.51 2.4346 1.2424 1.4724 219.52 0.43920 6.4270 0.012060
-35.625 19.395 0.0066108 117.31 117.83 0.68121 573.32 0.0017442 114.83 115.06 0.66956 1.4628 2.2768 1118.5 -0.0048440 182.75 0.12542 3.1280 0.31969 490.95 533.70 2.4321 1.2471 1.4784 219.70 0.43444 6.4533 0.012151
-34.625 20.212 0.0068599 119.67 120.21 0.69113 572.14 0.0017478 117.10 117.34 0.67912 1.4654 2.2818 1111.9 -0.0047987 180.76 0.12485 3.2506 0.30763 492.02 534.89 2.4297 1.2517 1.4845 219.88 0.42977 6.4797 0.012243
-33.625 21.056 0.0071159 122.04 122.60 0.70103 570.96 0.0017514 119.38 119.63 0.68865 1.4681 2.2868 1105.4 -0.0047527 178.80 0.12427 3.3770 0.29612 493.09 536.08 2.4273 1.2564 1.4906 220.05 0.42519 6.5060 0.012334
-32.625 21.926 0.0073789 124.41 124.99 0.71091 569.77 0.0017551 121.66 121.93 0.69817 1.4708 2.2918 1098.9 -0.0047061 176.87 0.12370 3.5071 0.28514 494.17 537.27 2.4250 1.2611 1.4968 220.21 0.42070 6.5323 0.012426
-31.625 22.823 0.0076491 126.79 127.40 0.72078 568.58 0.0017588 123.95 124.23 0.70767 1.4735 2.2970 1092.3 -0.0046587 174.97 0.12313 3.6410 0.27465 495.24 538.46 2.4227 1.2659 1.5031 220.36 0.41629 6.5587 0.012519
-30.625 23.749 0.0079265 129.18 129.81 0.73065 567.39 0.0017625 126.24 126.53 0.71714 1.4762 2.3021 1085.8 -0.0046107 173.09 0.12256 3.7787 0.26464 496.31 539.64 2.4205 1.2706 1.5094 220.51 0.41196 6.5850 0.012612
-29.625 24.703 0.0082114 131.57 132.22 0.74049 566.19 0.0017662 128.54 128.84 0.72660 1.4790 2.3074 1079.3 -0.0045619 171.24 0.12200 3.9205 0.25507 497.38 540.83 2.4184 1.2754 1.5157 220.65 0.40772 6.6114 0.012706
-28.625 25.687 0.0085037 133.97 134.65 0.75033 564.99 0.0017699 130.84 131.16 0.73604 1.4818 2.3126 1072.8 -0.0045124 169.42 0.12143 4.0663 0.24592 498.46 542.01 2.4162 1.2802 1.5222 220.79 0.40356 6.6378 0.012800
-27.625 26.700 0.0088038 136.38 137.09 0.76016 563.78 0.0017737 133.15 133.48 0.74547 1.4846 2.3180 1066.2 -0.0044621 167.62 0.12087 4.2163 0.23717 499.53 543.19 2.4142 1.2850 1.5286 220.91 0.39947 6.6642 0.012894
-26.625 27.743 0.0091116 138.79 139.53 0.76997 562.57 0.0017775 135.47 135.81 0.75487 1.4874 2.3234 1059.7 -0.0044111 165.84 0.12031 4.3705 0.22881 500.60 544.37 2.4122 1.2899 1.5352 221.03 0.39547 6.6906 0.012989
-25.625 28.817 0.0094273 141.21 141.98 0.77977 561.36 0.0017814 137.78 138.14 0.76426 1.4902 2.3289 1053.2 -0.0043593 164.09 0.11975 4.5290 0.22080 501.68 545.55 2.4102 1.2947 1.5418 221.14 0.39154 6.7171 0.013084
-24.625 29.923 0.0097510 143.64 144.44 0.78957 560.14 0.0017853 140.11 140.48 0.77363 1.4931 2.3344 1046.7 -0.0043067 162.36 0.11919 4.6918 0.21314 502.75 546.72 2.4083 1.2996 1.5485 221.25 0.38768 6.7436 0.013180
-23.625 31.061 0.010083 146.08 146.90 0.79935 558.92 0.0017892 142.44 142.82 0.78298 1.4960 2.3400 1040.1 -0.0042533 160.65 0.11863 4.8592 0.20580 503.82 547.90 2.4064 1.3045 1.5552 221.35 0.38391 6.7701 0.013277
-22.625 32.232 0.010423 148.52 149.38 0.80913 557.69 0.0017931 144.77 145.17 0.79232 1.4990 2.3457 1033.6 -0.0041990 158.97 0.11807 5.0311 0.19877 504.90 549.07 2.4045 1.3095 1.5621 221.44 0.38020 6.7967 0.013374
-21.625 33.435 0.010772 150.97 151.86 0.81889 556.46 0.0017971 147.11 147.52 0.80164 1.5019 2.3514 1027.1 -0.0041439 157.30 0.11752 5.2076 0.19203 505.97 550.24 2.4027 1.3144 1.5690 221.52 0.37656 6.8232 0.013471
-20.625 34.673 0.011129 153.43 154.35 0.82865 555.23 0.0018011 149.45 149.88 0.81095 1.5049 2.3572 1020.6 -0.0040879 155.66 0.11697 5.3889 0.18557 507.04 551.40 2.4010 1.3194 1.5759 221.59 0.37300 6.8499 0.013569
-19.625 35.946 0.011495 155.90 156.85 0.83839 553.99 0.0018051 151.80 152.25 0.82024 1.5079 2.3630 1014.0 -0.0040311 154.04 0.11642 5.5750 0.17937 508.11 552.57 2.3992 1.3244 1.5829 221.66 0.36950 6.8765 0.013668
-18.625 37.253 0.011869 158.37 159.36 0.84813 552.74 0.0018092 154.16 154.62 0.82952 1.5109 2.3689 1007.5 -0.0039733 152.44 0.11587 5.7660 0.17343 509.19 553.73 2.3976 1.3294 1.5901 221.72 0.36608 6.9032 0.013767
-17.625 38.596 0.012253 160.85 161.88 0.85786 551.49 0.0018133 156.52 157.00 0.83878 1.5140 2.3749 1001.0 -0.0039145 150.86 0.11532 5.9621 0.16773 510.26 554.89 2.3959 1.3345 1.5972 221.77 0.36272 6.9300 0.013867
-16.625 39.976 0.012645 163.34 164.40 0.86758 550.24 0.0018174 158.89 159.39 0.84803 1.5171 2.3810 994.44 -0.0038549 149.29 0.11478 6.1632 0.16225 511.33 556.05 2.3943 1.3395 1.6045 221.81 0.35942 6.9568 0.013968
-15.625 41.392 0.013047 165.84 166.94 0.87730 548.98 0.0018216 161.26 161.78 0.85726 1.5202 2.3871 987.91 -0.0037942 147.75 0.11423 6.3696 0.15700 512.40 557.20 2.3927 1.3446 1.6119 221.85 0.35619 6.9836 0.014069
-14.625 42.846 0.013458 168.35 169.48 0.88701 547.71 0.0018258 163.64 164.18 0.86649 1.5233 2.3933 981.37 -0.0037325 146.22 0.11369 6.5812 0.15195 513.47 558.36 2.3912 1.3497 1.6193 221.87 0.35302 7.0105 0.014170
-13.625 44.338 0.013879 170.86 172.03 0.89671 546.44 0.0018300 166.02 166.58 0.87569 1.5264 2.3996 974.83 -0.0036698 144.72 0.11315 6.7983 0.14710 514.54 559.51 2.3897 1.3549 1.6268 221.89 0.34992 7.0375 0.014273
-12.625 45.870 0.014309 173.38 174.60 0.90640 545.17 0.0018343 168.41 168.99 0.88489 1.5296 2.4059 968.29 -0.0036061 143.23 0.11261 7.0208 0.14243 515.61 560.65 2.3883 1.3600 1.6344 221.90 0.34688 7.0646 0.014376
-11.625 47.440 0.014749 175.91 177.17 0.91609 543.89 0.0018386 170.81 171.41 0.89407 1.5328 2.4124 961.75 -0.0035413 141.76 0.11208 7.2490 0.13795 516.68 561.80 2.3868 1.3652 1.6421 221.91 0.34389 7.0917 0.014479
-10.625 49.051 0.015199 178.44 179.74 0.92577 542.60 0.0018430 173.21 173.83 0.90324 1.5360 2.4189 955.20 -0.0034753 140.30 0.11154 7.4829 0.13364 517.75 562.94 2.3854 1.3704 1.6498 221.90 0.34097 7.1188 0.014584
-9.6250 50.703 0.015659 180.99 182.33 0.93544 541.31 0.0018474 175.61 176.26 0.91240 1.5393 2.4255 948.65 -0.0034082 138.86 0.11101 7.7226 0.12949 518.81 564.08 2.3841 1.3757 1.6577 221.88 0.33810 7.1461 0.014689
-8.6250 52.396 0.016130 183.54 184.93 0.94511 540.02 0.0018518 178.03 178.70 0.92154 1.5426 2.4321 942.10 -0.0033400 137.44 0.11048 7.9683 0.12550 519.88 565.21 2.3827 1.3809 1.6657 221.86 0.33529 7.1734 0.014795
-7.6250 54.131 0.016610 186.10 187.54 0.95478 538.72 0.0018563 180.45 181.14 0.93068 1.5459 2.4389 935.55 -0.0032705 136.03 0.10995 8.2200 0.12165 520.94 566.35 2.3814 1.3862 1.6737 221.83 0.33254 7.2008 0.014902
-6.6250 55.909 0.017102 188.67 190.16 0.96444 537.41 0.0018608 182.87 183.59 0.93980 1.5492 2.4457 928.99 -0.0031998 134.64 0.10942 8.4779 0.11795 522.01 567.48 2.3801 1.3915 1.6819 221.79 0.32984 7.2284 0.015009
-5.6250 57.730 0.017603 191.25 192.78 0.97409 536.10 0.0018653 185.30 186.05 0.94892 1.5525 2.4526 922.43 -0.0031279 133.27 0.10889 8.7420 0.11439 523.07 568.60 2.3789 1.3969 1.6902 221.74 0.32720 7.2560 0.015117
-4.6250 59.595 0.018116 193.84 195.42 0.98374 534.78 0.0018699 187.74 188.51 0.95802 1.5559 2.4596 915.87 -0.0030546 131.91 0.10837 9.0126 0.11096 524.13 569.72 2.3777 1.4022 1.6985 221.68 0.32461 7.2837 0.015226
-3.6250 61.505 0.018640 196.43 198.06 0.99338 533.45 0.0018746 190.19 190.98 0.96711 1.5593 2.4667 909.30 -0.0029800 130.56 0.10785 9.2896 0.10765 525.19 570.84 2.3765 1.4076 1.7070 221.62 0.32207 7.3115 0.015336
-2.6250 63.461 0.019174 199.03 200.72 1.0030 532.12 0.0018793 192.64 193.46 0.97620 1.5627 2.4739 902.73 -0.0029041 129.23 0.10733 9.5733 0.10446 526.25 571.96 2.3753 1.4131 1.7156 221.54 0.31958 7.3394 0.015447
-1.6250 65.462 0.019721 201.65 203.38 1.0127 530.78 0.0018840 195.10 195.95 0.98527 1.5662 2.4811 896.16 -0.0028267 127.91 0.10681 9.8638 0.10138 527.31 573.07 2.3742 1.4185 1.7243 221.45 0.31715 7.3674 0.015559
-0.62500 67.510 0.020278 204.27 206.06 1.0223 529.44 0.0018888 197.56 198.44 0.99434 1.5696 2.4885 889.58 -0.0027478 126.61 0.10629 10.161 0.098414 528.37 574.18 2.3731 1.4240 1.7331 221.36 0.31476 7.3956 0.015671
0.37500 69.606 0.020847 206.90 208.74 1.0319 528.09 0.0018936 200.03 200.94 1.0034 1.5731 2.4960 883.00 -0.0026675 125.32 0.10578 10.466 0.095552 529.42 575.28 2.3720 1.4295 1.7421 221.26 0.31242 7.4239 0.015785
1.3750 71.749 0.021428 209.53 211.44 1.0416 526.73 0.0018985 202.51 203.45 1.0124 1.5767 2.5035 876.42 -0.0025856 124.04 0.10527 10.777 0.092790 530.48 576.38 2.3709 1.4350 1.7512 221.14 0.31013 7.4523 0.015899
2.3750 73.941 0.022021 212.18 214.14 1.0512 525.37 0.0019034 204.99 205.96 1.0215 1.5802 2.5112 869.83 -0.0025022 122.78 0.10476 11.096 0.090123 531.53 577.47 2.3699 1.4406 1.7604 221.02 0.30789 7.4808 0.016015
3.3750 76.183 0.022626 214.84 216.86 1.0608 523.99 0.0019084 207.48 208.48 1.0305 1.5838 2.5190 863.24 -0.0024171 121.53 0.10425 11.422 0.087549 532.58 578.56 2.3688 1.4462 1.7697 220.89 0.30569 7.5095 0.016131
4.3750 78.475 0.023244 217.50 219.58 1.0704 522.62 0.0019134 209.98 211.01 1.0395 1.5874 2.5268 856.64 -0.0023303 120.29 0.10374 11.756 0.085062 533.63 579.65 2.3678 1.4518 1.7792 220.75 0.30354 7.5384 0.016249
5.3750 80.817 0.023874 220.18 222.32 1.0800 521.23 0.0019185 212.48 213.55 1.0486 1.5910 2.5348 850.04 -0.0022417 119.06 0.10324 12.098 0.082660 534.67 580.73 2.3669 1.4575 1.7888 220.60 0.30144 7.5674 0.016368
6.3750 83.211 0.024516 222.86 225.06 1.0896 519.84 0.0019237 215.00 216.10 1.0576 1.5946 2.5429 843.43 -0.0021514 117.85 0.10273 12.447 0.080340 535.72 581.81 2.3659 1.4632 1.7986 220.44 0.29938 7.5966 0.016487
7.3750 85.657 0.025172 225.55 227.82 1.0993 518.44 0.0019289 217.51 218.65 1.0666 1.5983 2.5511 836.82 -0.0020593 116.65 0.10223 12.805 0.078096 536.76 582.88 2.3650 1.4689 1.8085 220.27 0.29736 7.6259 0.016608
8.3750 88.156 0.025841 228.25 230.59 1.1089 517.03 0.0019341 220.04 221.22 1.0756 1.6020 2.5595 830.20 -0.0019652 115.46 0.10173 13.170 0.075928 537.80 583.95 2.3640 1.4746 1.8186 220.08 0.29538 7.6555 0.016730
9.3750 90.708 0.026522 230.96 233.37 1.1185 515.62 0.0019394 222.57 223.79 1.0846 1.6057 2.5679 823.58 -0.0018691 114.28 0.10124 13.545 0.073830 538.84 585.01 2.3631 1.4804 1.8288 219.89 0.29345 7.6852 0.016853
10.375 93.315 0.027218 233.68 236.16 1.1281 514.19 0.0019448 225.11 226.37 1.0936 1.6095 2.5765 816.96 -0.0017710 113.11 0.10074 13.927 0.071802 539.87 586.07 2.3622 1.4863 1.8392 219.69 0.29156 7.7151 0.016978
11.375 95.977 0.027927 236.41 238.96 1.1377 512.76 0.0019502 227.66 228.95 1.1025 1.6132 2.5852 810.32 -0.0016708 111.95 0.10025 14.319 0.069840 540.90 587.12 2.3614 1.4921 1.8498 219.48 0.28971 7.7452 0.017103
12.375 98.694 0.028650 239.15 241.77 1.1473 511.32 0.0019557 230.22 231.55 1.1115 1.6170 2.5940 803.68 -0.0015685 110.80 0.099756 14.719 0.067941 541.93 588.17 2.3605 1.4980 1.8605 219.26 0.28790 7.7756 0.017230
13.375 101.47 0.029386 241.90 244.59 1.1569 509.87 0.0019613 232.78 234.15 1.1205 1.6208 2.6030 797.04 -0.0014639 109.67 0.099267 15.128 0.066103 542.96 589.21 2.3597 1.5040 1.8715 219.03 0.28612 7.8061 0.017359
14.375 104.30 0.030138 244.65 247.42 1.1665 508.42 0.0019669 235.35 236.77 1.1295 1.6247 2.6121 790.39 -0.0013569 108.54 0.098779 15.547 0.064323 543.99 590.24 2.3588 1.5099 1.8826 218.79 0.28439 7.8369 0.017488
15.375 107.19 0.030903 247.42 250.26 1.1761 506.95 0.0019726 237.93 239.39 1.1384 1.6286 2.6214 783.73 -0.0012476 107.43 0.098294 15.974 0.062600 545.01 591.27 2.3580 1.5159 1.8940 218.53 0.28270 7.8680 0.017619
16.375 110.13 0.031684 250.20 253.12 1.1857 505.48 0.0019783 240.52 242.02 1.1474 1.6324 2.6308 777.07 -0.0011357 106.32 0.097810 16.412 0.060931 546.03 592.29 2.3572 1.5220 1.9055 218.27 0.28104 7.8993 0.017752
17.375 113.14 0.032479 252.98 255.98 1.1953 504.00 0.0019841 243.11 244.66 1.1564 1.6364 2.6403 770.40 -0.0010213 105.22 0.097328 16.859 0.059314 547.04 593.31 2.3564 1.5281 1.9172 217.99 0.27942 7.9308 0.017886
18.375 116.21 0.033289 255.78 258.86 1.2050 502.50 0.0019900 245.72 247.31 1.1653 1.6403 2.6501 763.72 -0.00090422 104.14 0.096848 17.317 0.057747 548.05 594.32 2.3557 1.5342 1.9292 217.71 0.27783 7.9626 0.018021
19.375 119.33 0.034115 258.59 261.75 1.2146 501.00 0.0019960 248.33 249.97 1.1743 1.6443 2.6599 757.04 -0.00078435 103.06 0.096371 17.785 0.056228 549.06 595.33 2.3549 1.5404 1.9414 217.41 0.27628 7.9947 0.018159
20.375 122.52 0.034957 261.40 264.65 1.2242 499.49 0.0020020 250.95 252.64 1.1832 1.6483 2.6700 750.35 -0.00066161 101.99 0.095895 18.263 0.054756 550.07 596.32 2.3541 1.5466 1.9538 217.10 0.27477 8.0272 0.018297
21.375 125.77 0.035814 264.23 267.56 1.2338 497.97 0.0020082 253.57 255.32 1.1922 1.6523 2.6802 743.64 -0.00053589 100.93 0.095420 18.752 0.053328 551.07 597.31 2.3534 1.5528 1.9665 216.78 0.27329 8.0599 0.018438
22.375 129.08 0.036688 267.06 270.49 1.2434 496.43 0.0020144 256.21 258.00 1.2012 1.6563 2.6906 736.94 -0.00040708 99.877 0.094948 19.252 0.051943 552.07 598.30 2.3526 1.5591 1.9795 216.45 0.27184 8.0929 0.018580
23.375 132.46 0.037578 269.91 273.42 1.2530 494.89 0.0020206 258.86 260.70 1.2101 1.6604 2.7012 730.22 -0.00027505 98.834 0.094478 19.763 0.050600 553.06 599.27 2.3519 1.5655 1.9927 216.11 0.27043 8.1263 0.018724
24.375 135.90 0.038485 272.77 276.37 1.2626 493.34 0.0020270 261.51 263.41 1.2191 1.6645 2.7120 723.49 -0.00013968 97.800 0.094009 20.285 0.049297 554.05 600.24 2.3512 1.5718 2.0061 215.75 0.26906 8.1600 0.018870
25.375 139.41 0.039408 275.63 279.33 1.2722 491.77 0.0020335 264.17 266.13 1.2280 1.6686 2.7230 716.76 -8.3775e-07 96.773 0.093543 20.820 0.048032 555.03 601.20 2.3504 1.5783 2.0199 215.39 0.26771 8.1941 0.019017
26.375 142.98 0.040349 278.51 282.30 1.2819 490.20 0.0020400 266.84 268.85 1.2370 1.6728 2.7342 710.01 0.00014161 95.755 0.093078 21.366 0.046804 556.01 602.15 2.3497 1.5847 2.0340 215.01 0.26640 8.2286 0.019167
27.375 146.62 0.041307 281.40 285.29 1.2915 488.61 0.0020466 269.52 271.59 1.2459 1.6770 2.7456 703.26 0.00028782 94.745 0.092615 21.924 0.045612 556.99 603.10 2.3490 1.5913 2.0484 214.62 0.26512 8.2634 0.019319
28.375 150.33 0.042283 284.30 288.28 1.3011 487.01 0.0020533 272.21 274.34 1.2549 1.6812 2.7573 696.49 0.00043793 93.742 0.092154 22.495 0.044454 557.96 604.03 2.3483 1.5978 2.0631 214.21 0.26387 8.2987 0.019472
29.375 154.10 0.043277 287.20 291.29 1.3107 485.40 0.0020601 274.91 277.10 1.2638 1.6854 2.7691 689.72 0.00059212 92.747 0.091695 23.079 0.043329 558.92 604.96 2.3476 1.6044 2.0781 213.80 0.26265 8.3344 0.019628
30.375 157.94 0.044290 290.12 294.31 1.3204 483.78 0.0020671 277.62 279.87 1.2728 1.6897 2.7813 682.93 0.00075055 91.760 0.091238 23.676 0.042237 559.88 605.88 2.3469 1.6111 2.0935 213.37 0.26147 8.3705 0.019786
31.375 161.86 0.045321 293.05 297.35 1.3300 482.15 0.0020741 280.34 282.66 1.2818 1.6939 2.7936 676.13 0.00091340 90.779 0.090782 24.287 0.041175 560.84 606.79 2.3462 1.6178 2.1092 212.93 0.26031 8.4071 0.019947
32.375 165.84 0.046371 295.99 300.39 1.3397 480.50 0.0020812 283.07 285.45 1.2908 1.6983 2.8063 669.32 0.0010809 89.806 0.090328 24.911 0.040143 561.79 607.69 2.3455 1.6246 2.1254 212.48 0.25919 8.4442 0.020110
33.375 169.90 0.047441 298.95 303.45 1.3493 478.83 0.0020884 285.81 288.26 1.2997 1.7026 2.8192 662.50 0.0012532 88.840 0.089876 25.549 0.039140 562.73 608.58 2.3448 1.6314 2.1419 212.01 0.25809 8.4818 0.020275
34.375 174.02 0.048530 301.91 306.52 1.3590 477.16 0.0020957 288.56 291.07 1.3087 1.7070 2.8324 655.67 0.0014305 87.880 0.089426 26.202 0.038164 563.67 609.46 2.3440 1.6383 2.1589 211.53 0.25702 8.5199 0.020443
35.375 178.22 0.049639 304.88 309.61 1.3686 475.47 0.0021032 291.32 293.90 1.3177 1.7114 2.8459 648.82 0.0016131 86.927 0.088977 26.870 0.037216 564.60 610.33 2.3433 1.6452 2.1763 211.04 0.25599 8.5586 0.020613
36.375 182.50 0.050769 307.87 312.71 1.3783 473.77 0.0021107 294.09 296.74 1.3267 1.7158 2.8597 641.96 0.0018012 85.980 0.088531 27.553 0.036293 565.52 611.19 2.3426 1.6522 2.1942 210.53 0.25498 8.5978 0.020786
37.375 186.84 0.051919 310.86 315.82 1.3879 472.05 0.0021184 296.87 299.60 1.3357 1.7203 2.8739 635.08 0.0019950 85.040 0.088085 28.252 0.035395 566.44 612.04 2.3419 1.6592 2.2125 210.01 0.25400 8.6376 0.020962
38.375 191.27 0.053091 313.87 318.94 1.3976 470.31 0.0021262 299.66 302.46 1.3447 1.7248 2.8884 628.19 0.0021949 84.105 0.087642 28.967 0.034522 567.35 612.88 2.3411 1.6663 2.2314 209.47 0.25305 8.6780 0.021141
39.375 195.77 0.054284 316.89 322.08 1.4073 468.56 0.0021342 302.46 305.34 1.3537 1.7293 2.9033 621.29 0.0024011 83.177 0.087200 29.699 0.033671 568.26 613.70 2.3404 1.6734 2.2508 208.92 0.25213 8.7190 0.021323
40.375 200.34 0.055499 319.92 325.23 1.4170 466.80 0.0021423 305.27 308.23 1.3627 1.7339 2.9185 614.37 0.0026140 82.254 0.086760 30.447 0.032844 569.15 614.52 2.3396 1.6806 2.2708 208.36 0.25123 8.7608 0.021508
41.375 205.00 0.056737 322.96 328.40 1.4266 465.01 0.0021505 308.10 311.14 1.3718 1.7385 2.9342 607.43 0.0028338 81.338 0.086322 31.214 0.032037 570.04 615.32 2.3389 1.6879 2.2913 207.78 0.25037 8.8032 0.021696
42.375 209.73 0.057997 326.02 331.58 1.4363 463.21 0.0021588 310.94 314.06 1.3808 1.7432 2.9502 600.47 0.0030609 80.426 0.085885 31.998 0.031252 570.92 616.11 2.3381 1.6952 2.3125 207.19 0.24953 8.8463 0.021888
43.375 214.54 0.059280 329.08 334.77 1.4460 461.40 0.0021673 313.79 316.99 1.3899 1.7478 2.9667 593.50 0.0032957 79.520 0.085449 32.800 0.030488 571.79 616.88 2.3373 1.7027 2.3344 206.58 0.24871 8.8902 0.022084
44.375 219.43 0.060587 332.16 337.98 1.4557 459.56 0.0021760 316.65 319.94 1.3989 1.7525 2.9837 586.51 0.0035386 78.619 0.085015 33.622 0.029742 572.65 617.65 2.3365 1.7101 2.3569 205.96 0.24793 8.9349 0.022283
45.375 224.41 0.061918 335.25 341.20 1.4655 457.71 0.0021848 319.52 322.90 1.4080 1.7573 3.0012 579.50 0.0037900 77.723 0.084583 34.463 0.029016 573.50 618.40 2.3357 1.7177 2.3802 205.32 0.24717 8.9805 0.022485
46.375 229.46 0.063274 338.35 344.43 1.4752 455.83 0.0021938 322.41 325.88 1.4171 1.7621 3.0192 572.46 0.0040504 76.832 0.084152 35.325 0.028308 574.34 619.13 2.3349 1.7253 2.4042 204.67 0.24644 9.0269 0.022692
47.375 234.60 0.064655 341.46 347.68 1.4849 453.94 0.0022029 325.31 328.87 1.4262 1.7669 3.0377 565.41 0.0043202 75.946 0.083723 36.208 0.027618 575.17 619.85 2.3340 1.7329 2.4291 204.00 0.24573 9.0742 0.022903
48.375 239.83 0.066061 344.59 350.95 1.4946 452.03 0.0022123 328.22 331.88 1.4353 1.7718 3.0569 558.34 0.0046000 75.064 0.083295 37.112 0.026945 576.00 620.55 2.3332 1.7407 2.4548 203.31 0.24505 9.1224 0.023119
49.375 245.13 0.067494 347.73 354.23 1.5044 450.09 0.0022218 331.15 334.90 1.4445 1.7767 3.0766 551.24 0.0048904 74.186 0.082868 38.039 0.026289 576.81 621.24 2.3323 1.7485 2.4815 202.61 0.24440 9.1716 0.023339
50.375 250.53 0.068953 350.88 357.52 1.5142 448.13 0.0022315 334.09 337.94 1.4536 1.7817 3.0970 544.13 0.0051920 73.313 0.082442 38.989 0.025648 577.61 621.91 2.3314 1.7564 2.5092 201.89 0.24377 9.2219 0.023564
51.375 256.01 0.070439 354.04 360.83 1.5239 446.15 0.0022414 337.04 341.00 1.4628 1.7867 3.1181 536.98 0.0055054 72.443 0.082018 39.962 0.025024 578.39 622.56 2.3304 1.7644 2.5379 201.16 0.24317 9.2733 0.023794
52.375 261.57 0.071954 357.22 364.16 1.5337 444.15 0.0022515 340.01 344.07 1.4720 1.7918 3.1400 529.82 0.0058313 71.577 0.081595 40.961 0.024414 579.17 623.20 2.3295 1.7724 2.5677 200.41 0.24260 9.3258 0.024029
53.375 267.23 0.073496 360.41 367.50 1.5435 442.12 0.0022618 343.00 347.17 1.4812 1.7969 3.1627 522.62 0.0061705 70.715 0.081174 41.985 0.023818 579.93 623.81 2.3285 1.7805 2.5987 199.63 0.24205 9.3795 0.024270
54.375 272.97 0.075068 363.62 370.85 1.5533 440.06 0.0022724 346.00 350.28 1.4904 1.8021 3.1862 515.40 0.0065239 69.856 0.080753 43.036 0.023237 580.68 624.41 2.3274 1.7887 2.6310 198.85 0.24154 9.4344 0.024516
55.375 278.81 0.076670 366.83 374.23 1.5631 437.98 0.0022832 349.02 353.40 1.4997 1.8073 3.2106 508.15 0.0068923 69.001 0.080334 44.114 0.022669 581.41 624.99 2.3264 1.7969 2.6646 198.04 0.24105 9.4907 0.024769
56.375 284.74 0.078302 370.06 377.61 1.5729 435.87 0.0022943 352.05 356.55 1.5090 1.8126 3.2360 500.87 0.0072767 68.148 0.079915 45.221 0.022114 582.13 625.54 2.3253 1.8052 2.6998 197.22 0.24059 9.5484 0.025028
57.375 290.76 0.079964 373.31 381.02 1.5827 433.73 0.0023056 355.10 359.72 1.5183 1.8179 3.2624 493.56 0.0076782 67.299 0.079498 46.358 0.021571 582.83 626.07 2.3241 1.8136 2.7365 196.37 0.24016 9.6075 0.025294
58.375 296.87 0.081659 376.57 384.44 1.5926 431.56 0.0023172 358.17 362.91 1.5276 1.8233 3.2900 486.22 0.0080980 66.451 0.079082 47.525 0.021041 583.52 626.58 2.3230 1.8220 2.7749 195.51 0.23976 9.6682 0.025568
59.375 303.08 0.083386 379.84 387.88 1.6024 429.36 0.0023290 361.25 366.12 1.5370 1.8288 3.3188 478.84 0.0085373 65.606 0.078666 48.726 0.020523 584.18 627.07 2.3218 1.8305 2.8152 194.63 0.23939 9.7305 0.025849
60.375 309.38 0.085146 383.13 391.33 1.6123 427.13 0.0023412 364.36 369.35 1.5464 1.8343 3.3489 471.43 0.0089976 64.763 0.078251 49.960 0.020016 584.83 627.53 2.3205 1.8391 2.8576 193.73 0.23905 9.7945 0.026138
61.375 315.78 0.086940 386.43 394.80 1.6222 424.87 0.0023537 367.48 372.60 1.5558 1.8400 3.3805 463.99 0.0094803 63.922 0.077838 51.229 0.019520 585.46 627.96 2.3192 1.8479 2.9022 192.82 0.23873 9.8603 0.026436
62.375 322.28 0.088769 389.75 398.29 1.6321 422.56 0.0023665 370.62 375.88 1.5653 1.8457 3.4136 456.50 0.0099871 63.083 0.077425 52.535 0.019035 586.07 628.37 2.3178 1.8567 2.9492 191.88 0.23845 9.9281 0.026744
63.375 328.88 0.090633 393.08 401.80 1.6420 420.22 0.0023797 373.79 379.18 1.5748 1.8514 3.4483 448.97 0.010520 62.244 0.077012 53.879 0.018560 586.66 628.74 2.3164 1.8656 2.9989 190.92 0.23819 9.9979 0.027061
64.375 335.58 0.092534 396.43 405.33 1.6520 417.85 0.0023932 376.97 382.51 1.5844 1.8573 3.4850 441.40 0.011081 61.407 0.076600 55.265 0.018095 587.22 629.09 2.3149 1.8747 3.0517 189.95 0.23796 10.070 0.027389
65.375 342.38 0.094471 399.79 408.87 1.6619 415.42 0.0024072 380.18 385.86 1.5939 1.8633 3.5236 433.79 0.011672 60.570 0.076189 56.692 0.017639 587.76 629.40 2.3133 1.8839 3.1077 188.95 0.23775 10.144 0.027729
66.375 349.28 0.096446 403.17 412.43 1.6719 412.96 0.0024215 383.41 389.25 1.6036 1.8693 3.5645 426.12 0.012296 59.733 0.075779 58.165 0.017193 588.28 629.68 2.3117 1.8933 3.1674 187.93 0.23757 10.221 0.028080
67.375 356.28 0.098460 406.57 416.02 1.6819 410.45 0.0024363 386.67 392.65 1.6133 1.8755 3.6078 418.41 0.012956 58.897 0.075368 59.684 0.016755 588.76 629.92 2.3100 1.9030 3.2311 186.89 0.23740 10.300 0.028446
68.375 363.40 0.10051 409.98 419.62 1.6919 407.89 0.0024516 389.95 396.09 1.6230 1.8818 3.6537 410.64 0.013655 58.059 0.074959 61.253 0.016326 589.22 630.13 2.3082 1.9129 3.2994 185.83 0.23724 10.382 0.028825
69.375 370.61 0.10261 413.41 423.24 1.7019 405.28 0.0024674 393.26 399.57 1.6328 1.8882 3.7027 402.81 0.014396 57.221 0.074549 62.875 0.015905 589.65 630.29 2.3064 1.9231 3.3727 184.74 0.23710 10.467 0.029221
70.375 377.94 0.10474 416.86 426.88 1.7119 402.62 0.0024838 396.60 403.07 1.6426 1.8947 3.7550 394.92 0.015183 56.381 0.074141 64.552 0.015491 590.04 630.41 2.3044 1.9336 3.4518 183.63 0.23697 10.555 0.029633
71.375 385.37 0.10691 420.32 430.54 1.7220 399.89 0.0025007 399.96 406.61 1.6525 1.9014 3.8109 386.97 0.016021 55.540 0.073732 66.288 0.015086 590.40 630.49 2.3024 1.9444 3.5371 182.50 0.23684 10.647 0.030064
72.375 392.92 0.10913 423.81 434.23 1.7321 397.11 0.0025182 403.36 410.18 1.6625 1.9083 3.8711 378.95 0.016915 54.696 0.073324 68.087 0.014687 590.73 630.51 2.3002 1.9556 3.6297 181.34 0.23671 10.743 0.030515
73.375 400.57 0.11138 427.31 437.93 1.7422 394.26 0.0025364 406.79 413.80 1.6726 1.9153 3.9359 370.85 0.017871 53.848 0.072917 69.953 0.014295 591.01 630.49 2.2979 1.9673 3.7303 180.16 0.23658 10.842 0.030989
74.375 408.34 0.11368 430.83 441.66 1.7524 391.34 0.0025553 410.26 417.45 1.6827 1.9226 4.0060 362.67 0.018894 52.997 0.072510 71.890 0.013910 591.25 630.41 2.2955 1.9793 3.8401 178.95 0.23643 10.946 0.031488
75.375 416.23 0.11602 434.38 445.41 1.7626 388.34 0.0025751 413.76 421.15 1.6930 1.9301 4.0822 354.41 0.019993 52.142 0.072104 73.904 0.013531 591.44 630.27 2.2930 1.9919 3.9604 177.71 0.23627 11.054 0.032014
76.375 424.23 0.11839 437.94 449.19 1.7728 385.26 0.0025957 417.31 424.90 1.7033 1.9378 4.1654 346.06 0.021177 51.281 0.071699 76.001 0.013158 591.59 630.07 2.2903 2.0050 4.0927 176.44 0.23609 11.168 0.032570
77.375 432.35 0.12081 441.53 452.99 1.7830 382.09 0.0026172 420.89 428.70 1.7137 1.9459 4.2565 337.60 0.022455 50.414 0.071295 78.187 0.012790 591.68 629.80 2.2874 2.0186 4.2389 175.15 0.23588 11.287 0.033161
78.375 440.59 0.12326 445.13 456.82 1.7933 378.83 0.0026397 424.53 432.54 1.7243 1.9543 4.3570 329.05 0.023838 49.539 0.070893 80.469 0.012427 591.71 629.46 2.2844 2.0328 4.4012 173.82 0.23563 11.412 0.033789
79.375 448.95 0.12575 448.76 460.67 1.8036 375.46 0.0026634 428.21 436.45 1.7349 1.9631 4.4684 320.38 0.025341 48.657 0.070494 82.856 0.012069 591.68 629.04 2.2812 2.0475 4.5824 172.46 0.23535 11.544 0.034461
80.375 457.44 0.12826 452.42 464.55 1.8140 371.97 0.0026884 431.94 440.42 1.7457 1.9723 4.5928 311.58 0.026980 47.764 0.070099 85.359 0.011715 591.58 628.53 2.2778 2.0630 4.7859 171.07 0.23501 11.684 0.035181
81.375 466.05 0.13079 456.10 468.46 1.8244 368.36 0.0027147 435.74 444.46 1.7567 1.9820 4.7327 302.66 0.028773 46.860 0.069708 87.988 0.011365 591.40 627.92 2.2742 2.0791 5.0161 169.64 0.23461 11.832 0.035957
82.375 474.79 0.13334 459.81 472.40 1.8348 364.61 0.0027427 439.60 448.58 1.7678 1.9924 4.8914 293.60 0.030744 45.942 0.069323 90.757 0.011018 591.14 627.21 2.2703 2.0959 5.2786 168.17 0.23413 11.989 0.036797
83.375 483.66 0.13588 463.54 476.37 1.8453 360.70 0.0027724 443.53 452.78 1.7791 2.0034 5.0731 284.38 0.032920 45.010 0.068948 93.681 0.010674 590.79 626.38 2.2661 2.1136 5.5807 166.67 0.23357 12.157 0.037711
84.375 492.67 0.13841 467.31 480.37 1.8558 356.61 0.0028041 447.54 457.07 1.7907 2.0153 5.2834 275.00 0.035335 44.059 0.068586 96.781 0.010333 590.33 625.42 2.2616 2.1321 5.9321 165.13 0.23290 12.338 0.038713
85.375 501.81 0.14089 471.10 484.41 1.8665 352.33 0.0028382 451.65 461.47 1.8025 2.0281 5.5302 265.44 0.038030 43.088 0.068241 100.08 0.0099920 589.74 624.31 2.2567 2.1517 6.3459 163.54 0.23209 12.532 0.039819
86.375 511.09 0.14329 474.94 488.49 1.8771 347.82 0.0028751 455.85 465.98 1.8145 2.0420 5.8240 255.69 0.041058 42.092 0.067923 103.61 0.0096520 589.03 623.04 2.2514 2.1723 6.8405 161.91 0.23112 12.743 0.041051
87.375 520.51 0.14556 478.80 492.61 1.8879 343.04 0.0029151 460.18 470.64 1.8269 2.0574 6.1803 245.72 0.044485 41.066 0.067640 107.40 0.0093114 588.15 621.56 2.2456 2.1943 7.4422 160.23 0.22995 12.973 0.042436
88.375 530.07 0.14761 482.71 496.77 1.8987 337.95 0.0029590 464.64 475.45 1.8397 2.0745 6.6221 235.52 0.048397 40.005 0.067412 111.50 0.0089689 587.08 619.86 2.2392 2.2178 8.1900 158.49 0.22854 13.226 0.044014
89.375 539.79 0.14932 486.67 500.98 1.9096 332.48 0.0030077 469.27 480.46 1.8530 2.0936 7.1851 225.04 0.052906 38.901 0.067265 115.97 0.0086228 585.79 617.88 2.2321 2.2433 9.1445 156.69 0.22681 13.508 0.045839
90.375 549.66 0.15049 490.67 505.25 1.9206 326.55 0.0030623 474.10 485.71 1.8669 2.1156 7.9284 214.26 0.058166 37.742 0.067243 120.91 0.0082708 584.22 615.56 2.2241 2.2711 10.405 154.82 0.22467 13.825 0.047992
91.375 559.68 0.15077 494.73 509.58 1.9318 320.03 0.0031247 479.19 491.25 1.8815 2.1412 8.9568 203.11 0.064389 36.514 0.067421 126.43 0.0079097 582.29 612.82 2.2150 2.3019 12.146 152.85 0.22200 14.189 0.050600
92.375 569.87 0.14954 498.87 513.98 1.9431 312.73 0.0031976 484.62 497.18 1.8972 2.1718 10.475 191.54 0.071885 35.195 0.067931 132.72 0.0075346 579.91 609.51 2.2045 2.3370 14.705 150.75 0.21862 14.618 0.053877
93.375 580.24 0.14550 503.09 518.47 1.9547 304.34 0.0032858 490.52 503.67 1.9143 2.2100 12.945 179.43 0.081133 33.755 0.069025 140.11 0.0071373 576.87 605.42 2.1919 2.3779 18.828 148.48 0.21421 15.146 0.058225
94.375 590.79 0.13549 507.42 523.09 1.9665 294.25 0.0033985 497.17 511.01 1.9336 2.2603 17.657 166.61 0.092934 32.154 0.071243 149.20 0.0067025 572.82 600.12 2.1761 2.4283 26.557 145.93 0.20825 15.847 0.064529
95.375 601.53 0.10903 511.93 527.89 1.9787 280.99 0.0035589 505.21 519.97 1.9572 2.3343 30.014 152.73 0.10888 30.366 0.076197 161.45 0.0061937 566.92 592.61 2.1544 2.4956 46.113 142.79 0.19953 16.960 0.075419
96.375 612.62 undefined 516.69 532.94 1.9916 260.00 0.0038462 516.69 532.94 1.9916 2.4639 100.93 138.09 0.13174 28.610 0.092867 260.00 0.0038462 516.69 532.94 1.9916 2.4639 100.93 138.09 0.13174 28.610 0.092867
97.375 626.01 undefined 519.13 535.73 1.9982 260.00 0.0038462 519.13 535.73 1.9982 2.4146 49.527 143.57 0.12607 28.381 0.081106 260.00 0.0038462 519.13 535.73 1.9982 2.4146 49.527 143.57 0.12607 28.381 0.081106
98.375 639.57 undefined 521.53 538.49 2.0047 260.00 0.0038462 521.53 538.49 2.0047 2.3733 33.674 148.52 0.12118 27.764 0.076377 260.00 0.0038462 521.53 538.49 2.0047 2.3733 33.674 148.52 0.12118 27.764 0.076377
99.375 653.29 undefined 523.88 541.21 2.0110 260.00 0.0038462 523.88 541.21 2.0110 2.3390 25.910 153.02 0.11689 27.465 0.073351 260.00 0.0038462 523.88 541.21 2.0110 2.3390 25.910 153.02 0.11689 27.465 0.073351
100.38 667.15 undefined 526.21 543.90 2.0172 260.00 0.0038462 526.21 543.90 2.0172 2.3106 21.277 157.15 0.11306 27.327 0.071156 260.00 0.0038462 526.21 543.90 2.0172 2.3106 21.277 157.15 0.11306 27.327 0.071156
101.38 681.12 undefined 528.50 546.57 2.0234 260.00 0.0038462 528.50 546.57 2.0234 2.2870 18.187 160.95 0.10959 27.272 0.069463 260.00 0.0038462 528.50 546.57 2.0234 2.2870 18.187 160.95 0.10959 27.272 0.069463
102.38 695.19 undefined 530.78 549.22 2.0294 260.00 0.0038462 530.78 549.22 2.0294 2.2676 15.972 164.47 0.10641 27.259 0.068113 260.00 0.0038462 530.78 549.22 2.0294 2.2676 15.972 164.47 0.10641 27.259 0.068113
103.38 709.35 undefined 533.04 551.85 2.0355 260.00 0.0038462 533.04 551.85 2.0355 2.2515 14.305 167.77 0.10346 27.267 0.067010 260.00 0.0038462 533.04 551.85 2.0355 2.2515 14.305 167.77 0.10346 27.267 0.067010
104.38 723.59 undefined 535.28 554.47 2.0414 260.00 0.0038462 535.28 554.47 2.0414 2.2382 13.003 170.88 0.10071 27.286 0.066095 260.00 0.0038462 535.28 554.47 2.0414 2.2382 13.003 170.88 0.10071 27.286 0.066095
105.38 737.90 undefined 537.52 557.09 2.0473 260.00 0.0038462 537.52 557.09 2.0473 2.2272 11.957 173.83 0.098125 27.311 0.065326 260.00 0.0038462 537.52 557.09 2.0473 2.2272 11.957 173.83 0.098125 27.311 0.065326
106.38 752.27 undefined 539.74 559.69 2.0532 260.00 0.0038462 539.74 559.69 2.0532 2.2180 11.099 176.65 0.095684 27.339 0.064674 260.00 0.0038462 539.74 559.69 2.0532 2.2180 11.099 176.65 0.095684 27.339 0.064674
107.38 766.71 undefined 541.95 562.29 2.0590 260.00 0.0038462 541.95 562.29 2.0590 2.2103 10.382 179.36 0.093370 27.369 0.064118 260.00 0.0038462 541.95 562.29 2.0590 2.2103 10.382 179.36 0.093370 27.369 0.064118
108.38 781.20 undefined 544.16 564.88 2.0648 260.00 0.0038462 544.16 564.88 2.0648 2.2038 9.7732 181.96 0.091170 27.399 0.063640 260.00 0.0038462 544.16 564.88 2.0648 2.2038 9.7732 181.96 0.091170 27.399 0.063640
109.38 795.73 undefined 546.36 567.46 2.0706 260.00 0.0038462 546.36 567.46 2.0706 2.1984 9.2506 184.49 0.089071 27.429 0.063227 260.00 0.0038462 546.36 567.46 2.0706 2.1984 9.2506 184.49 0.089071 27.429 0.063227
110.38 810.32 undefined 548.56 570.05 2.0763 260.00 0.0038462 548.56 570.05 2.0763 2.1938 8.7968 186.95 0.087066 27.460 0.062869 260.00 0.0038462 548.56 570.05 2.0763 2.1938 8.7968 186.95 0.087066 27.460 0.062869
111.38 824.95 undefined 550.75 572.63 2.0820 260.00 0.0038462 550.75 572.63 2.0820 2.1900 8.3992 189.34 0.085146 27.491 0.062559 260.00 0.0038462 550.75 572.63 2.0820 2.1900 8.3992 189.34 0.085146 27.491 0.062559
112.38 839.62 undefined 552.94 575.20 2.0877 260.00 0.0038462 552.94 575.20 2.0877 2.1867 8.0480 191.68 0.083305 27.522 0.062288 260.00 0.0038462 552.94 575.20 2.0877 2.1867 8.0480 191.68 0.083305 27.522 0.062288
113.38 854.33 undefined 555.12 577.78 2.0933 260.00 0.0038462 555.12 577.78 2.0933 2.1839 7.7355 193.96 0.081537 27.553 0.062053 260.00 0.0038462 555.12 577.78 2.0933 2.1839 7.7355 193.96 0.081537 27.553 0.062053
114.38 869.08 undefined 557.31 580.35 2.0990 260.00 0.0038462 557.31 580.35 2.0990 2.1816 7.4557 196.21 0.079837 27.583 0.061848 260.00 0.0038462 557.31 580.35 2.0990 2.1816 7.4557 196.21 0.079837 27.583 0.061848
115.38 883.86 undefined 559.49 582.92 2.1046 260.00 0.0038462 559.49 582.92 2.1046 2.1796 7.2037 198.41 0.078201 27.614 0.061669 260.00 0.0038462 559.49 582.92 2.1046 2.1796 7.2037 198.41 0.078201 27.614 0.061669
116.38 898.67 undefined 561.67 585.50 2.1102 260.00 0.0038462 561.67 585.50 2.1102 2.1780 6.9755 200.57 0.076624 27.645 0.061514 260.00 0.0038462 561.67 585.50 2.1102 2.1780 6.9755 200.57 0.076624 27.645 0.061514
117.38 913.52 undefined 563.84 588.07 2.1158 260.00 0.0038462 563.84 588.07 2.1158 2.1767 6.7680 202.70 0.075103 27.676 0.061380 260.00 0.0038462 563.84 588.07 2.1158 2.1767 6.7680 202.70 0.075103 27.676 0.061380
118.38 928.40 undefined 566.02 590.64 2.1214 260.00 0.0038462 566.02 590.64 2.1214 2.1757 6.5786 204.79 0.073635 27.706 0.061264 260.00 0.0038462 566.02 590.64 2.1214 2.1757 6.5786 204.79 0.073635 27.706 0.061264
119.38 943.31 undefined 568.19 593.21 2.1269 260.00 0.0038462 568.19 593.21 2.1269 2.1749 6.4049 206.85 0.072216 27.737 0.061165 260.00 0.0038462 568.19 593.21 2.1269 2.1749 6.4049 206.85 0.072216 27.737 0.061165
120.38 958.24 undefined 570.37 595.78 2.1324 260.00 0.0038462 570.37 595.78 2.1324 2.1744 6.2451 208.88 0.070845 27.768 0.061080 260.00 0.0038462 570.37 595.78 2.1324 2.1744 6.2451 208.88 0.070845 27.768 0.061080
121.38 973.20 undefined 572.54 598.35 2.1380 260.00 0.0038462 572.54 598.35 2.1380 2.1740 6.0976 210.89 0.069517 27.798 0.061009 260.00 0.0038462 572.54 598.35 2.1380 2.1740 6.0976 210.89 0.069517 27.798 0.061009
122.38 988.19 undefined 574.72 600.92 2.1435 260.00 0.0038462 574.72 600.92 2.1435 2.1739 5.9610 212.86 0.068232 27.829 0.060949 260.00 0.0038462 574.72 600.92 2.1435 2.1739 5.9610 212.86 0.068232 27.829 0.060949
123.38 1003.2 undefined 576.89 603.49 2.1489 260.00 0.0038462 576.89 603.49 2.1489 2.1740 5.8343 214.82 0.066986 27.860 0.060901 260.00 0.0038462 576.89 603.49 2.1489 2.1740 5.8343 214.82 0.066986 27.860 0.060901
124.38 1018.2 undefined 579.06 606.07 2.1544 260.00 0.0038462 579.06 606.07 2.1544 2.1742 5.7164 216.74 0.065778 27.890 0.060863 260.00 0.0038462 579.06 606.07 2.1544 2.1742 5.7164 216.74 0.065778 27.890 0.060863
125.38 1033.3 undefined 581.24 608.64 2.1599 260.00 0.0038462 581.24 608.64 2.1599 2.1746 5.6064 218.65 0.064606 27.921 0.060834 260.00 0.0038462 581.24 608.64 2.1599 2.1746 5.6064 218.65 0.064606 27.921 0.060834
126.38 1048.4 undefined 583.41 611.21 2.1653 260.00 0.0038462 583.41 611.21 2.1653 2.1751 5.5036 220.53 0.063468 27.951 0.060813 260.00 0.0038462 583.41 611.21 2.1653 2.1751 5.5036 220.53 0.063468 27.951 0.060813
127.38 1063.5 undefined 585.59 613.79 2.1708 260.00 0.0038462 585.59 613.79 2.1708 2.1758 5.4073 222.39 0.062363 27.981 0.060799 260.00 0.0038462 585.59 613.79 2.1708 2.1758 5.4073 222.39 0.062363 27.981 0.060799
128.38 1078.6 undefined 587.77 616.37 2.1762 260.00 0.0038462 587.77 616.37 2.1762 2.1767 5.3170 224.23 0.061289 28.012 0.060793 260.00 0.0038462 587.77 616.37 2.1762 2.1767 5.3170 224.23 0.061289 28.012 0.060793
129.38 1093.7 undefined 589.94 618.95 2.1816 260.00 0.0038462 589.94 618.95 2.1816 2.1776 5.2321 226.04 0.060245 28.042 0.060793 260.00 0.0038462 589.94 618.95 2.1816 2.1776 5.2321 226.04 0.060245 28.042 0.060793
130.38 1108.9 undefined 592.12 621.53 2.1870 260.00 0.0038462 592.12 621.53 2.1870 2.1787 5.1521 227.84 0.059229 28.072 0.060799 260.00 0.0038462 592.12 621.53 2.1870 2.1787 5.1521 227.84 0.059229 28.072 0.060799
131.38 1124.1 undefined 594.30 624.11 2.1924 260.00 0.0038462 594.30 624.11 2.1924 2.1799 5.0767 229.63 0.058240 28.103 0.060811 260.00 0.0038462 594.30 624.11 2.1924 2.1799 5.0767 229.63 0.058240 28.103 0.060811
132.38 1139.3 undefined 596.48 626.69 2.1978 260.00 0.0038462 596.48 626.69 2.1978 2.1812 5.0055 231.39 0.057278 28.133 0.060828 260.00 0.0038462 596.48 626.69 2.1978 2.1812 5.0055 231.39 0.057278 28.133 0.060828
133.38 1154.5 undefined 598.66 629.28 2.2032 260.00 0.0038462 598.66 629.28 2.2032 2.1826 4.9382 233.14 0.056340 28.163 0.060850 260.00 0.0038462 598.66 629.28 2.2032 2.1826 4.9382 233.14 0.056340 28.163 0.060850
134.38 1169.7 undefined 600.85 631.86 2.2085 260.00 0.0038462 600.85 631.86 2.2085 2.1841 4.8744 234.87 0.055427 28.193 0.060877 260.00 0.0038462 600.85 631.86 2.2085 2.1841 4.8744 234.87 0.055427 28.193 0.060877
135.38 1184.9 undefined 603.03 634.45 2.2139 260.00 0.0038462 603.03 634.45 2.2139 2.1857 4.8140 236.58 0.054536 28.224 0.060907 260.00 0.0038462 603.03 634.45 2.2139 2.1857 4.8140 236.58 0.054536 28.224 0.060907
136.38 1200.2 undefined 605.22 637.04 2.2192 260.00 0.0038462 605.22 637.04 2.2192 2.1874 4.7566 238.28 0.053668 28.254 0.060942 260.00 0.0038462 605.22 637.04 2.2192 2.1874 4.7566 238.28 0.053668 28.254 0.060942
137.38 1215.5 undefined 607.41 639.64 2.2246 260.00 0.0038462 607.41 639.64 2.2246 2.1891 4.7021 239.96 0.052821 28.284 0.060980 260.00 0.0038462 607.41 639.64 2.2246 2.1891 4.7021 239.96 0.052821 28.284 0.060980
138.38 1230.7 undefined 609.60 642.23 2.2299 260.00 0.0038462 609.60 642.23 2.2299 2.1910 4.6502 241.63 0.051995 28.314 0.061022 260.00 0.0038462 609.60 642.23 2.2299 2.1910 4.6502 241.63 0.051995 28.314 0.061022
139.38 1246.0 undefined 611.79 644.83 2.2352 260.00 0.0038462 611.79 644.83 2.2352 2.1929 4.6009 243.29 0.051188 28.344 0.061067 260.00 0.0038462 611.79 644.83 2.2352 2.1929 4.6009 243.29 0.051188 28.344 0.061067
140.38 1261.3 undefined 613.98 647.43 2.2405 260.00 0.0038462 613.98 647.43 2.2405 2.1949 4.5538 244.93 0.050401 28.374 0.061115 260.00 0.0038462 613.98 647.43 2.2405 2.1949 4.5538 244.93 0.050401 28.374 0.061115
141.38 1276.7 undefined 616.18 650.03 2.2458 260.00 0.0038462 616.18 650.03 2.2458 2.1969 4.5089 246.56 0.049632 28.404 0.061166 260.00 0.0038462 616.18 650.03 2.2458 2.1969 4.5089 246.56 0.049632 28.404 0.061166
142.38 1292.0 undefined 618.38 652.64 2.2511 260.00 0.0038462 618.38 652.64 2.2511 2.1990 4.4661 248.18 0.048880 28.434 0.061220 260.00 0.0038462 618.38 652.64 2.2511 2.1990 4.4661 248.18 0.048880 28.434 0.061220
143.38 1307.3 undefined 620.58 655.24 2.2564 260.00 0.0038462 620.58 655.24 2.2564 2.2012 4.4252 249.78 0.048146 28.464 0.061276 260.00 0.0038462 620.58 655.24 2.2564 2.2012 4.4252 249.78 0.048146 28.464 0.061276
144.38 1322.7 undefined 622.78 657.85 2.2617 260.00 0.0038462 622.78 657.85 2.2617 2.2034 4.3861 251.37 0.047429 28.493 0.061335 260.00 0.0038462 622.78 657.85 2.2617 2.2034 4.3861 251.37 0.047429 28.493 0.061335
145.38 1338.1 undefined 624.98 660.47 2.2670 260.00 0.0038462 624.98 660.47 2.2670 2.2057 4.3486 252.95 0.046727 28.523 0.061397 260.00 0.0038462 624.98 660.47 2.2670 2.2057 4.3486 252.95 0.046727 28.523 0.061397
146.38 1353.4 undefined 627.19 663.08 2.2722 260.00 0.0038462 627.19 663.08 2.2722 2.2080 4.3128 254.52 0.046041 28.553 0.061460 260.00 0.0038462 627.19 663.08 2.2722 2.2080 4.3128 254.52 0.046041 28.553 0.061460
147.38 1368.8 undefined 629.40 665.70 2.2775 260.00 0.0038462 629.40 665.70 2.2775 2.2103 4.2784 256.08 0.045370 28.583 0.061526 260.00 0.0038462 629.40 665.70 2.2775 2.2103 4.2784 256.08 0.045370 28.583 0.061526
148.38 1384.2 undefined 631.61 668.32 2.2828 260.00 0.0038462 631.61 668.32 2.2828 2.2127 4.2455 257.63 0.044714 28.613 0.061594 260.00 0.0038462 631.61 668.32 2.2828 2.2127 4.2455 257.63 0.044714 28.613 0.061594
149.38 1399.6 undefined 633.82 670.94 2.2880 260.00 0.0038462 633.82 670.94 2.2880 2.2152 4.2139 259.16 0.044071 28.642 0.061663 260.00 0.0038462 633.82 670.94 2.2880 2.2152 4.2139 259.16 0.044071 28.642 0.061663
150.38 1415.1 undefined 636.04 673.56 2.2932 260.00 0.0038462 636.04 673.56 2.2932 2.2177 4.1836 260.69 0.043442 28.672 0.061735 260.00 0.0038462 636.04 673.56 2.2932 2.2177 4.1836 260.69 0.043442 28.672 0.061735
151.38 1430.5 undefined 638.26 676.19 2.2985 260.00 0.0038462 638.26 676.19 2.2985 2.2202 4.1545 262.21 0.042827 28.702 0.061808 260.00 0.0038462 638.26 676.19 2.2985 2.2202 4.1545 262.21 0.042827 28.702 0.061808
152.38 1445.9 undefined 640.48 678.82 2.3037 260.00 0.0038462 640.48 678.82 2.3037 2.2228 4.1265 263.71 0.042224 28.731 0.061883 260.00 0.0038462 640.48 678.82 2.3037 2.2228 4.1265 263.71 0.042224 28.731 0.061883
153.38 1461.4 undefined 642.70 681.46 2.3089 260.00 0.0038462 642.70 681.46 2.3089 2.2254 4.0996 265.21 0.041634 28.761 0.061960 260.00 0.0038462 642.70 681.46 2.3089 2.2254 4.0996 265.21 0.041634 28.761 0.061960
154.38 1476.8 undefined 644.93 684.09 2.3141 260.00 0.0038462 644.93 684.09 2.3141 2.2280 4.0737 266.70 0.041055 28.790 0.062038 260.00 0.0038462 644.93 684.09 2.3141 2.2280 4.0737 266.70 0.041055 28.790 0.062038
155.38 1492.3 undefined 647.16 686.73 2.3193 260.00 0.0038462 647.16 686.73 2.3193 2.2307 4.0488 268.18 0.040489 28.820 0.062118 260.00 0.0038462 647.16 686.73 2.3193 2.2307 4.0488 268.18 0.040489 28.820 0.062118
156.38 1507.7 undefined 649.39 689.37 2.3245 260.00 0.0038462 649.39 689.37 2.3245 2.2333 4.0248 269.65 0.039933 28.849 0.062199 260.00 0.0038462 649.39 689.37 2.3245 2.2333 4.0248 269.65 0.039933 28.849 0.062199
157.38 1523.2 undefined 651.63 692.02 2.3297 260.00 0.0038462 651.63 692.02 2.3297 2.2361 4.0017 271.11 0.039389 28.879 0.062281 260.00 0.0038462 651.63 692.02 2.3297 2.2361 4.0017 271.11 0.039389 28.879 0.062281
158.38 1538.7 undefined 653.86 694.67 2.3349 260.00 0.0038462 653.86 694.67 2.3349 2.2388 3.9795 272.56 0.038855 28.908 0.062365 260.00 0.0038462 653.86 694.67 2.3349 2.2388 3.9795 272.56 0.038855 28.908 0.062365
159.38 1554.2 undefined 656.10 697.32 2.3401 260.00 0.0038462 656.10 697.32 2.3401 2.2416 3.9580 274.01 0.038332 28.938 0.062450 260.00 0.0038462 656.10 697.32 2.3401 2.2416 3.9580 274.01 0.038332 28.938 0.062450
160.38 1569.7 undefined 658.35 699.97 2.3453 260.00 0.0038462 658.35 699.97 2.3453 2.2444 3.9373 275.44 0.037819 28.967 0.062537 260.00 0.0038462 658.35 699.97 2.3453 2.2444 3.9373 275.44 0.037819 28.967 0.062537
161.38 1585.2 undefined 660.59 702.63 2.3505 260.00 0.0038462 660.59 702.63 2.3505 2.2472 3.9174 276.87 0.037316 28.996 0.062624 260.00 0.0038462 660.59 702.63 2.3505 2.2472 3.9174 276.87 0.037316 28.996 0.062624
162.38 1600.7 undefined 662.84 705.29 2.3556 260.00 0.0038462 662.84 705.29 2.3556 2.2500 3.8981 278.29 0.036822 29.026 0.062713 260.00 0.0038462 662.84 705.29 2.3556 2.2500 3.8981 278.29 0.036822 29.026 0.062713
163.38 1616.2 undefined 665.09 707.95 2.3608 260.00 0.0038462 665.09 707.95 2.3608 2.2529 3.8795 279.70 0.036338 29.055 0.062803 260.00 0.0038462 665.09 707.95 2.3608 2.2529 3.8795 279.70 0.036338 29.055 0.062803
164.38 1631.7 undefined 667.35 710.62 2.3660 260.00 0.0038462 667.35 710.62 2.3660 2.2558 3.8615 281.11 0.035863 29.084 0.062894 260.00 0.0038462 667.35 710.62 2.3660 2.2558 3.8615 281.11 0.035863 29.084 0.062894
165.38 1647.2 undefined 669.61 713.29 2.3711 260.00 0.0038462 669.61 713.29 2.3711 2.2586 3.8442 282.51 0.035396 29.113 0.062986 260.00 0.0038462 669.61 713.29 2.3711 2.2586 3.8442 282.51 0.035396 29.113 0.062986
166.38 1662.8 undefined 671.87 715.96 2.3763 260.00 0.0038462 671.87 715.96 2.3763 2.2616 3.8274 283.90 0.034938 29.142 0.063079 260.00 0.0038462 671.87 715.96 2.3763 2.2616 3.8274 283.90 0.034938 29.142 0.063079
167.38 1678.3 undefined 674.13 718.63 2.3814 260.00 0.0038462 674.13 718.63 2.3814 2.2645 3.8112 285.28 0.034489 29.172 0.063174 260.00 0.0038462 674.13 718.63 2.3814 2.2645 3.8112 285.28 0.034489 29.172 0.063174
168.38 1693.8 undefined 676.39 721.31 2.3865 260.00 0.0038462 676.39 721.31 2.3865 2.2674 3.7955 286.66 0.034047 29.201 0.063269 260.00 0.0038462 676.39 721.31 2.3865 2.2674 3.7955 286.66 0.034047 29.201 0.063269
169.38 1709.4 undefined 678.66 723.99 2.3917 260.00 0.0038462 678.66 723.99 2.3917 2.2704 3.7804 288.03 0.033614 29.230 0.063365 260.00 0.0038462 678.66 723.99 2.3917 2.2704 3.7804 288.03 0.033614 29.230 0.063365
170.38 1724.9 undefined 680.94 726.68 2.3968 260.00 0.0038462 680.94 726.68 2.3968 2.2734 3.7657 289.39 0.033188 29.259 0.063461 260.00 0.0038462 680.94 726.68 2.3968 2.2734 3.7657 289.39 0.033188 29.259 0.063461
171.38 1740.5 undefined 683.21 729.36 2.4019 260.00 0.0038462 683.21 729.36 2.4019 2.2764 3.7515 290.74 0.032770 29.288 0.063559 260.00 0.0038462 683.21 729.36 2.4019 2.2764 3.7515 290.74 0.032770 29.288 0.063559
172.38 1756.0 undefined 685.49 732.06 2.4070 260.00 0.0038462 685.49 732.06 2.4070 2.2794 3.7378 292.09 0.032359 29.317 0.063658 260.00 0.0038462 685.49 732.06 2.4070 2.2794 3.7378 292.09 0.032359 29.317 0.063658
173.38 1771.6 undefined 687.77 734.75 2.4122 260.00 0.0038462 687.77 734.75 2.4122 2.2824 3.7245 293.44 0.031955 29.346 0.063757 260.00 0.0038462 687.77 734.75 2.4122 2.2824 3.7245 293.44 0.031955 29.346 0.063757
174.38 1787.2 undefined 690.05 737.45 2.4173 260.00 0.0038462 690.05 737.45 2.4173 2.2854 3.7117 294.77 0.031558 29.375 0.063858 260.00 0.0038462 690.05 737.45 2.4173 2.2854 3.7117 294.77 0.031558 29.375 0.063858
175.38 1802.7 undefined 692.34 740.15 2.4224 260.00 0.0038462 692.34 740.15 2.4224 2.2885 3.6992 296.10 0.031169 29.403 0.063959 260.00 0.0038462 692.34 740.15 2.4224 2.2885 3.6992 296.10 0.031169 29.403 0.063959
176.38 1818.3 undefined 694.63 742.85 2.4275 260.00 0.0038462 694.63 742.85 2.4275 2.2915 3.6872 297.43 0.030785 29.432 0.064061 260.00 0.0038462 694.63 742.85 2.4275 2.2915 3.6872 297.43 0.030785 29.432 0.064061
177.38 1833.9 undefined 696.92 745.55 2.4326 260.00 0.0038462 696.92 745.55 2.4326 2.2946 3.6755 298.74 0.030409 29.461 0.064163 260.00 0.0038462 696.92 745.55 2.4326 2.2946 3.6755 298.74 0.030409 29.461 0.064163
178.38 1849.5 undefined 699.22 748.26 2.4377 260.00 0.0038462 699.22 748.26 2.4377 2.2977 3.6641 300.05 0.030038 29.490 0.064267 260.00 0.0038462 699.22 748.26 2.4377 2.2977 3.6641 300.05 0.030038 29.490 0.064267
179.38 1865.1 undefined 701.52 750.98 2.4427 260.00 0.0038462 701.52 750.98 2.4427 2.3008 3.6532 301.36 0.029674 29.519 0.064371 260.00 0.0038462 701.52 750.98 2.4427 2.3008 3.6532 301.36 0.029674 29.519 0.064371
180.38 1880.7 undefined 703.82 753.69 2.4478 260.00 0.0038462 703.82 753.69 2.4478 2.3039 3.6425 302.66 0.029316 29.547 0.064476 260.00 0.0038462 703.82 753.69 2.4478 2.3039 3.6425 302.66 0.029316 29.547 0.064476
181.38 1896.3 undefined 706.13 756.41 2.4529 260.00 0.0038462 706.13 756.41 2.4529 2.3070 3.6322 303.95 0.028963 29.576 0.064581 260.00 0.0038462 706.13 756.41 2.4529 2.3070 3.6322 303.95 0.028963 29.576 0.064581
182.38 1911.9 undefined 708.43 759.13 2.4580 260.00 0.0038462 708.43 759.13 2.4580 2.3101 3.6222 305.24 0.028617 29.605 0.064687 260.00 0.0038462 708.43 759.13 2.4580 2.3101 3.6222 305.24 0.028617 29.605 0.064687
183.38 1927.5 undefined 710.75 761.86 2.4631 260.00 0.0038462 710.75 761.86 2.4631 2.3132 3.6126 306.52 0.028276 29.633 0.064794 260.00 0.0038462 710.75 761.86 2.4631 2.3132 3.6126 306.52 0.028276 29.633 0.064794
184.38 1943.1 undefined 713.06 764.59 2.4681 260.00 0.0038462 713.06 764.59 2.4681 2.3164 3.6032 307.80 0.027940 29.662 0.064902 260.00 0.0038462 713.06 764.59 2.4681 2.3164 3.6032 307.80 0.027940 29.662 0.064902
185.38 1958.7 undefined 715.38 767.32 2.4732 260.00 0.0038462 715.38 767.32 2.4732 2.3195 3.5941 309.07 0.027610 29.691 0.065010 260.00 0.0038462 715.38 767.32 2.4732 2.3195 3.5941 309.07 0.027610 29.691 0.065010
186.38 1974.3 undefined 717.70 770.05 2.4782 260.00 0.0038462 717.70 770.05 2.4782 2.3226 3.5852 310.34 0.027285 29.719 0.065119 260.00 0.0038462 717.70 770.05 2.4782 2.3226 3.5852 310.34 0.027285 29.719 0.065119
187.38 1989.9 undefined 720.02 772.79 2.4833 260.00 0.0038462 720.02 772.79 2.4833 2.3258 3.5767 311.60 0.026966 29.748 0.065228 260.00 0.0038462 720.02 772.79 2.4833 2.3258 3.5767 311.60 0.026966 29.748 0.065228
188.38 2005.5 undefined 722.35 775.53 2.4883 260.00 0.0038462 722.35 775.53 2.4883 2.3290 3.5684 312.85 0.026651 29.776 0.065338 260.00 0.0038462 722.35 775.53 2.4883 2.3290 3.5684 312.85 0.026651 29.776 0.065338
189.38 2021.2 undefined 724.68 778.28 2.4934 260.00 0.0038462 724.68 778.28 2.4934 2.3321 3.5603 314.10 0.026341 29.805 0.065449 260.00 0.0038462 724.68 778.28 2.4934 2.3321 3.5603 314.10 0.026341 29.805 0.065449
190.38 2036.8 undefined 727.02 781.03 2.4984 260.00 0.0038462 727.02 781.03 2.4984 2.3353 3.5525 315.35 0.026036 29.833 0.065560 260.00 0.0038462 727.02 781.03 2.4984 2.3353 3.5525 315.35 0.026036 29.833 0.065560
191.38 2052.4 undefined 729.35 783.78 2.5035 260.00 0.0038462 729.35 783.78 2.5035 2.3385 3.5449 316.59 0.025736 29.861 0.065672 260.00 0.0038462 729.35 783.78 2.5035 2.3385 3.5449 316.59 0.025736 29.861 0.065672
192.38 2068.0 undefined 731.69 786.53 2.5085 260.00 0.0038462 731.69 786.53 2.5085 2.3417 3.5375 317.82 0.025440 29.890 0.065784 260.00 0.0038462 731.69 786.53 2.5085 2.3417 3.5375 317.82 0.025440 29.890 0.065784
193.38 2083.7 undefined 734.04 789.29 2.5135 260.00 0.0038462 734.04 789.29 2.5135 2.3449 3.5304 319.05 0.025149 29.918 0.065897 260.00 0.0038462 734.04 789.29 2.5135 2.3449 3.5304 319.05 0.025149 29.918 0.065897
194.38 2099.3 undefined 736.38 792.05 2.5185 260.00 0.0038462 736.38 792.05 2.5185 2.3481 3.5235 320.28 0.024863 29.947 0.066010 260.00 0.0038462 736.38 792.05 2.5185 2.3481 3.5235 320.28 0.024863 29.947 0.066010
195.38 2114.9 undefined 738.73 794.82 2.5236 260.00 0.0038462 738.73 794.82 2.5236 2.3513 3.5168 321.50 0.024580 29.975 0.066124 260.00 0.0038462 738.73 794.82 2.5236 2.3513 3.5168 321.50 0.024580 29.975 0.066124
196.38 2130.6 undefined 741.09 797.58 2.5286 260.00 0.0038462 741.09 797.58 2.5286 2.3545 3.5102 322.71 0.024302 30.003 0.066238 260.00 0.0038462 741.09 797.58 2.5286 2.3545 3.5102 322.71 0.024302 30.003 0.066238
197.38 2146.2 undefined 743.44 800.35 2.5336 260.00 0.0038462 743.44 800.35 2.5336 2.3577 3.5039 323.92 0.024028 30.031 0.066353 260.00 0.0038462 743.44 800.35 2.5336 2.3577 3.5039 323.92 0.024028 30.031 0.066353
198.38 2161.8 undefined 745.80 803.13 2.5386 260.00 0.0038462 745.80 803.13 2.5386 2.3610 3.4978 325.13 0.023758 30.059 0.066469 260.00 0.0038462 745.80 803.13 2.5386 2.3610 3.4978 325.13 0.023758 30.059 0.066469
199.38 2177.5 undefined 748.16 805.91 2.5436 260.00 0.0038462 748.16 805.91 2.5436 2.3642 3.4918 326.33 0.023492 30.088 0.066585 260.00 0.0038462 748.16 805.91 2.5436 2.3642 3.4918 326.33 0.023492 30.088 0.066585
200.38 2193.1 undefined 750.53 808.69 2.5486 260.00 0.0038462 750.53 808.69 2.5486 2.3674 3.4861 327.52 0.023229 30.116 0.066701 260.00 0.0038462 750.53 808.69 2.5486 2.3674 3.4861 327.52 0.023229 30.116 0.066701
201.38 2208.8 undefined 752.90 811.47 2.5536 260.00 0.0038462 752.90 811.47 2.5536 2.3707 3.4805 328.72 0.022971 30.144 0.066818 260.00 0.0038462 752.90 811.47 2.5536 2.3707 3.4805 328.72 0.022971 30.144 0.066818
202.38 2224.4 undefined 755.27 814.26 2.5586 260.00 0.0038462 755.27 814.26 2.5586 2.3739 3.4750 329.90 0.022716 30.172 0.066935 260.00 0.0038462 755.27 814.26 2.5586 2.3739 3.4750 329.90 0.022716 30.172 0.066935
203.38 2240.1 undefined 757.65 817.05 2.5636 260.00 0.0038462 757.65 817.05 2.5636 2.3771 3.4697 331.09 0.022465 30.200 0.067053 260.00 0.0038462 757.65 817.05 2.5636 2.3771 3.4697 331.09 0.022465 30.200 0.067053
204.38 2255.7 undefined 760.02 819.84 2.5686 260.00 0.0038462 760.02 819.84 2.5686 2.3804 3.4646 332.26 0.022218 30.228 0.067172 260.00 0.0038462 760.02 819.84 2.5686 2.3804 3.4646 332.26 0.022218 30.228 0.067172
205.38 2271.4 undefined 762.41 822.64 2.5736 260.00 0.0038462 762.41 822.64 2.5736 2.3836 3.4597 333.44 0.021974 30.256 0.067290 260.00 0.0038462 762.41 822.64 2.5736 2.3836 3.4597 333.44 0.021974 30.256 0.067290
206.38 2287.0 undefined 764.79 825.44 2.5785 260.00 0.0038462 764.79 825.44 2.5785 2.3869 3.4549 334.61 0.021733 30.284 0.067410 260.00 0.0038462 764.79 825.44 2.5785 2.3869 3.4549 334.61 0.021733 30.284 0.067410
207.38 2302.7 undefined 767.18 828.24 2.5835 260.00 0.0038462 767.18 828.24 2.5835 2.3902 3.4502 335.77 0.021496 30.312 0.067529 260.00 0.0038462 767.18 828.24 2.5835 2.3902 3.4502 335.77 0.021496 30.312 0.067529
208.38 2318.3 undefined 769.57 831.05 2.5885 260.00 0.0038462 769.57 831.05 2.5885 2.3934 3.4457 336.93 0.021263 30.340 0.067649 260.00 0.0038462 769.57 831.05 2.5885 2.3934 3.4457 336.93 0.021263 30.340 0.067649
209.38 2334.0 undefined 771.97 833.86 2.5935 260.00 0.0038462 771.97 833.86 2.5935 2.3967 3.4413 338.09 0.021032 30.368 0.067770 260.00 0.0038462 771.97 833.86 2.5935 2.3967 3.4413 338.09 0.021032 30.368 0.067770
210.38 2349.6 undefined 774.37 836.67 2.5984 260.00 0.0038462 774.37 836.67 2.5984 2.4000 3.4371 339.24 0.020805 30.395 0.067891 260.00 0.0038462 774.37 836.67 2.5984 2.4000 3.4371 339.24 0.020805 30.395 0.067891
211.38 2365.3 undefined 776.77 839.49 2.6034 260.00 0.0038462 776.77 839.49 2.6034 2.4032 3.4330 340.39 0.020580 30.423 0.068012 260.00 0.0038462 776.77 839.49 2.6034 2.4032 3.4330 340.39 0.020580 30.423 0.068012
212.38 2380.9 undefined 779.17 842.31 2.6083 260.00 0.0038462 779.17 842.31 2.6083 2.4065 3.4290 341.54 0.020359 30.451 0.068134 260.00 0.0038462 779.17 842.31 2.6083 2.4065 3.4290 341.54 0.020359 30.451 0.068134
213.38 2396.6 undefined 781.58 845.13 2.6133 260.00 0.0038462 781.58 845.13 2.6133 2.4098 3.4251 342.68 0.020141 30.479 0.068256 260.00 0.0038462 781.58 845.13 2.6133 2.4098 3.4251 342.68 0.020141 30.479 0.068256
214.38 2412.3 undefined 783.99 847.96 2.6182 260.00 0.0038462 783.99 847.96 2.6182 2.4131 3.4214 343.81 0.019926 30.506 0.068379 260.00 0.0038462 783.99 847.96 2.6182 2.4131 3.4214 343.81 0.019926 30.506 0.068379
215.38 2427.9 undefined 786.41 850.79 2.6232 260.00 0.0038462 786.41 850.79 2.6232 2.4164 3.4178 344.94 0.019713 30.534 0.068502 260.00 0.0038462 786.41 850.79 2.6232 2.4164 3.4178 344.94 0.019713 30.534 0.068502
216.38 2443.6 undefined 788.82 853.62 2.6281 260.00 0.0038462 788.82 853.62 2.6281 2.4197 3.4143 346.07 0.019504 30.562 0.068625 260.00 0.0038462 788.82 853.62 2.6281 2.4197 3.4143 346.07 0.019504 30.562 0.068625
217.38 2459.2 undefined 791.25 856.46 2.6331 260.00 0.0038462 791.25 856.46 2.6331 2.4229 3.4109 347.20 0.019297 30.589 0.068749 260.00 0.0038462 791.25 856.46 2.6331 2.4229 3.4109 347.20 0.019297 30.589 0.068749
218.38 2474.9 undefined 793.67 859.30 2.6380 260.00 0.0038462 793.67 859.30 2.6380 2.4262 3.4076 348.32 0.019093 30.617 0.068873 260.00 0.0038462 793.67 859.30 2.6380 2.4262 3.4076 348.32 0.019093 30.617 0.068873
219.38 2490.6 undefined 796.10 862.14 2.6429 260.00 0.0038462 796.10 862.14 2.6429 2.4295 3.4044 349.43 0.018891 30.645 0.068998 260.00 0.0038462 796.10 862.14 2.6429 2.4295 3.4044 349.43 0.018891 30.645 0.068998
220.38 2506.2 undefined 798.53 864.99 2.6479 260.00 0.0038462 798.53 864.99 2.6479 2.4328 3.4013 350.55 0.018693 30.672 0.069122 260.00 0.0038462 798.53 864.99 2.6479 2.4328 3.4013 350.55 0.018693 30.672 0.069122
221.38 2521.9 undefined 800.96 867.84 2.6528 260.00 0.0038462 800.96 867.84 2.6528 2.4361 3.3984 351.66 0.018497 30.700 0.069248 260.00 0.0038462 800.96 867.84 2.6528 2.4361 3.3984 351.66 0.018497 30.700 0.069248
222.38 2537.5 undefined 803.40 870.69 2.6577 260.00 0.0038462 803.40 870.69 2.6577 2.4394 3.3955 352.76 0.018303 30.727 0.069373 260.00 0.0038462 803.40 870.69 2.6577 2.4394 3.3955 352.76 0.018303 30.727 0.069373
223.38 2553.2 undefined 805.84 873.55 2.6627 260.00 0.0038462 805.84 873.55 2.6627 2.4427 3.3927 353.86 0.018112 30.755 0.069499 260.00 0.0038462 805.84 873.55 2.6627 2.4427 3.3927 353.86 0.018112 30.755 0.069499
224.38 2568.9 undefined 808.29 876.41 2.6676 260.00 0.0038462 808.29 876.41 2.6676 2.4460 3.3901 354.96 0.017923 30.782 0.069626 260.00 0.0038462 808.29 876.41 2.6676 2.4460 3.3901 354.96 0.017923 30.782 0.069626
225.38 2584.5 undefined 810.73 879.27 2.6725 260.00 0.0038462 810.73 879.27 2.6725 2.4494 3.3875 356.06 0.017737 30.809 0.069752 260.00 0.0038462 810.73 879.27 2.6725 2.4494 3.3875 356.06 0.017737 30.809 0.069752
226.38 2600.2 undefined 813.19 882.14 2.6774 260.00 0.0038462 813.19 882.14 2.6774 2.4527 3.3850 357.15 0.017553 30.837 0.069879 260.00 0.0038462 813.19 882.14 2.6774 2.4527 3.3850 357.15 0.017553 30.837 0.069879
227.38 2615.8 undefined 815.64 885.01 2.6823 260.00 0.0038462 815.64 885.01 2.6823 2.4560 3.3826 358.23 0.017372 30.864 0.070007 260.00 0.0038462 815.64 885.01 2.6823 2.4560 3.3826 358.23 0.017372 30.864 0.070007
228.38 2631.5 undefined 818.10 887.88 2.6872 260.00 0.0038462 818.10 887.88 2.6872 2.4593 3.3803 359.32 0.017193 30.891 0.070134 260.00 0.0038462 818.10 887.88 2.6872 2.4593 3.3803 359.32 0.017193 30.891 0.070134
229.38 2647.2 undefined 820.56 890.76 2.6921 260.00 0.0038462 820.56 890.76 2.6921 2.4626 3.3780 360.40 0.017016 30.919 0.070262 260.00 0.0038462 820.56 890.76 2.6921 2.4626 3.3780 360.40 0.017016 30.919 0.070262
230.38 2662.8 undefined 823.02 893.64 2.6970 260.00 0.0038462 823.02 893.64 2.6970 2.4659 3.3759 361.47 0.016841 30.946 0.070391 260.00 0.0038462 823.02 893.64 2.6970 2.4659 3.3759 361.47 0.016841 30.946 0.070391
231.38 2678.5 undefined 825.49 896.52 2.7019 260.00 0.0038462 825.49 896.52 2.7019 2.4692 3.3738 362.55 0.016668 30.973 0.070519 260.00 0.0038462 825.49 896.52 2.7019 2.4692 3.3738 362.55 0.016668 30.973 0.070519
232.38 2694.2 undefined 827.96 899.41 2.7068 260.00 0.0038462 827.96 899.41 2.7068 2.4725 3.3718 363.62 0.016498 31.000 0.070648 260.00 0.0038462 827.96 899.41 2.7068 2.4725 3.3718 363.62 0.016498 31.000 0.070648
233.38 2709.8 undefined 830.44 902.30 2.7117 260.00 0.0038462 830.44 902.30 2.7117 2.4759 3.3699 364.68 0.016329 31.027 0.070777 260.00 0.0038462 830.44 902.30 2.7117 2.4759 3.3699 364.68 0.016329 31.027 0.070777
234.38 2725.5 undefined 832.91 905.19 2.7166 260.00 0.0038462 832.91 905.19 2.7166 2.4792 3.3681 365.75 0.016163 31.055 0.070907 260.00 0.0038462 832.91 905.19 2.7166 2.4792 3.3681 365.75 0.016163 31.055 0.070907
235.38 2741.1 undefined 835.39 908.08 2.7215 260.00 0.0038462 835.39 908.08 2.7215 2.4825 3.3663 366.81 0.015999 31.082 0.071037 260.00 0.0038462 835.39 908.08 2.7215 2.4825 3.3663 366.81 0.015999 31.082 0.071037
236.38 2756.8 undefined 837.88 910.98 2.7263 260.00 0.0038462 837.88 910.98 2.7263 2.4858 3.3646 367.86 0.015837 31.109 0.071167 260.00 0.0038462 837.88 910.98 2.7263 2.4858 3.3646 367.86 0.015837 31.109 0.071167
237.38 2772.5 undefined 840.37 913.89 2.7312 260.00 0.0038462 840.37 913.89 2.7312 2.4891 3.3630 368.92 0.015676 31.136 0.071297 260.00 0.0038462 840.37 913.89 2.7312 2.4891 3.3630 368.92 0.015676 31.136 0.071297
238.38 2788.1 undefined 842.86 916.79 2.7361 260.00 0.0038462 842.86 916.79 2.7361 2.4925 3.3614 369.97 0.015518 31.163 0.071428 260.00 0.0038462 842.86 916.79 2.7361 2.4925 3.3614 369.97 0.015518 31.163 0.071428
239.38 2803.8 undefined 845.35 919.70 2.7410 260.00 0.0038462 845.35 919.70 2.7410 2.4958 3.3600 371.01 0.015361 31.190 0.071559 260.00 0.0038462 845.35 919.70 2.7410 2.4958 3.3600 371.01 0.015361 31.190 0.071559
240.38 2819.4 undefined 847.85 922.61 2.7458 260.00 0.0038462 847.85 922.61 2.7458 2.4991 3.3585 372.06 0.015207 31.217 0.071690 260.00 0.0038462 847.85 922.61 2.7458 2.4991 3.3585 372.06 0.015207 31.217 0.071690
241.38 2835.1 undefined 850.35 925.53 2.7507 260.00 0.0038462 850.35 925.53 2.7507 2.5024 3.3572 373.10 0.015054 31.244 0.071822 260.00 0.0038462 850.35 925.53 2.7507 2.5024 3.3572 373.10 0.015054 31.244 0.071822
242.38 2850.7 undefined 852.85 928.45 2.7556 260.00 0.0038462 852.85 928.45 2.7556 2.5058 3.3559 374.13 0.014903 31.271 0.071953 260.00 0.0038462 852.85 928.45 2.7556 2.5058 3.3559 374.13 0.014903 31.271 0.071953
243.38 2866.4 undefined 855.36 931.37 2.7604 260.00 0.0038462 855.36 931.37 2.7604 2.5091 3.3547 375.17 0.014754 31.298 0.072085 260.00 0.0038462 855.36 931.37 2.7604 2.5091 3.3547 375.17 0.014754 31.298 0.072085
244.38 2882.1 undefined 857.87 934.30 2.7653 260.00 0.0038462 857.87 934.30 2.7653 2.5124 3.3535 376.20 0.014606 31.324 0.072217 260.00 0.0038462 857.87 934.30 2.7653 2.5124 3.3535 376.20 0.014606 31.324 0.072217
245.38 2897.7 undefined 860.38 937.23 2.7701 260.00 0.0038462 860.38 937.23 2.7701 2.5157 3.3524 377.23 0.014461 31.351 0.072350 260.00 0.0038462 860.38 937.23 2.7701 2.5157 3.3524 377.23 0.014461 31.351 0.072350
246.38 2913.4 undefined 862.90 940.16 2.7750 260.00 0.0038462 862.90 940.16 2.7750 2.5191 3.3513 378.25 0.014317 31.378 0.072482 260.00 0.0038462 862.90 940.16 2.7750 2.5191 3.3513 378.25 0.014317 31.378 0.072482
247.38 2929.0 undefined 865.42 943.10 2.7798 260.00 0.0038462 865.42 943.10 2.7798 2.5224 3.3504 379.27 0.014174 31.405 0.072615 260.00 0.0038462 865.42 943.10 2.7798 2.5224 3.3504 379.27 0.014174 31.405 0.072615
248.38 2944.7 undefined 867.95 946.03 2.7847 260.00 0.0038462 867.95 946.03 2.7847 2.5257 3.3494 380.29 0.014034 31.432 0.072748 260.00 0.0038462 867.95 946.03 2.7847 2.5257 3.3494 380.29 0.014034 31.432 0.072748
249.38 2960.3 undefined 870.47 948.98 2.7895 260.00 0.0038462 870.47 948.98 2.7895 2.5290 3.3485 381.31 0.013894 31.458 0.072882 260.00 0.0038462 870.47 948.98 2.7895 2.5290 3.3485 381.31 0.013894 31.458 0.072882
250.38 2976.0 undefined 873.01 951.92 2.7943 260.00 0.0038462 873.01 951.92 2.7943 2.5324 3.3477 382.32 0.013757 31.485 0.073015 260.00 0.0038462 873.01 951.92 2.7943 2.5324 3.3477 382.32 0.013757 31.485 0.073015
251.38 2991.6 undefined 875.54 954.87 2.7992 260.00 0.0038462 875.54 954.87 2.7992 2.5357 3.3469 383.33 0.013621 31.512 0.073149 260.00 0.0038462 875.54 954.87 2.7992 2.5357 3.3469 383.33 0.013621 31.512 0.073149
252.38 3007.3 undefined 878.08 957.82 2.8040 260.00 0.0038462 878.08 957.82 2.8040 2.5390 3.3462 384.34 0.013487 31.538 0.073282 260.00 0.0038462 878.08 957.82 2.8040 2.5390 3.3462 384.34 0.013487 31.538 0.073282
253.38 3022.9 undefined 880.62 960.78 2.8088 260.00 0.0038462 880.62 960.78 2.8088 2.5423 3.3455 385.34 0.013354 31.565 0.073416 260.00 0.0038462 880.62 960.78 2.8088 2.5423 3.3455 385.34 0.013354 31.565 0.073416
254.38 3038.5 undefined 883.16 963.74 2.8137 260.00 0.0038462 883.16 963.74 2.8137 2.5457 3.3449 386.34 0.013222 31.591 0.073550 260.00 0.0038462 883.16 963.74 2.8137 2.5457 3.3449 386.34 0.013222 31.591 0.073550
255.38 3054.2 undefined 885.71 966.70 2.8185 260.00 0.0038462 885.71 966.70 2.8185 2.5490 3.3443 387.34 0.013093 31.618 0.073684 260.00 0.0038462 885.71 966.70 2.8185 2.5490 3.3443 387.34 0.013093 31.618 0.073684
256.38 3069.8 undefined 888.26 969.67 2.8233 260.00 0.0038462 888.26 969.67 2.8233 2.5523 3.3438 388.34 0.012964 31.644 0.073819 260.00 0.0038462 888.26 969.67 2.8233 2.5523 3.3438 388.34 0.012964 31.644 0.073819
257.38 3085.5 undefined 890.81 972.63 2.8281 260.00 0.0038462 890.81 972.63 2.8281 2.5556 3.3433 389.33 0.012837 31.671 0.073953 260.00 0.0038462 890.81 972.63 2.8281 2.5556 3.3433 389.33 0.012837 31.671 0.073953
258.38 3101.1 undefined 893.37 975.61 2.8330 260.00 0.0038462 893.37 975.61 2.8330 2.5589 3.3429 390.32 0.012712 31.697 0.074087 260.00 0.0038462 893.37 975.61 2.8330 2.5589 3.3429 390.32 0.012712 31.697 0.074087
259.38 3116.8 undefined 895.93 978.58 2.8378 260.00 0.0038462 895.93 978.58 2.8378 2.5623 3.3425 391.31 0.012587 31.724 0.074222 260.00 0.0038462 895.93 978.58 2.8378 2.5623 3.3425 391.31 0.012587 31.724 0.074222
260.38 3132.4 undefined 898.49 981.56 2.8426 260.00 0.0038462 898.49 981.56 2.8426 2.5656 3.3422 392.29 0.012465 31.750 0.074356 260.00 0.0038462 898.49 981.56 2.8426 2.5656 3.3422 392.29 0.012465 31.750 0.074356
261.38 3148.0 undefined 901.06 984.54 2.8474 260.00 0.0038462 901.06 984.54 2.8474 2.5689 3.3419 393.27 0.012343 31.777 0.074491 260.00 0.0038462 901.06 984.54 2.8474 2.5689 3.3419 393.27 0.012343 31.777 0.074491
262.38 3163.7 undefined 903.63 987.53 2.8522 260.00 0.0038462 903.63 987.53 2.8522 2.5722 3.3416 394.25 0.012223 31.803 0.074625 260.00 0.0038462 903.63 987.53 2.8522 2.5722 3.3416 394.25 0.012223 31.803 0.074625
263.38 3179.3 undefined 906.21 990.52 2.8570 260.00 0.0038462 906.21 990.52 2.8570 2.5756 3.3414 395.23 0.012104 31.829 0.074759 260.00 0.0038462 906.21 990.52 2.8570 2.5756 3.3414 395.23 0.012104 31.829 0.074759
264.38 3194.9 undefined 908.78 993.51 2.8618 260.00 0.0038462 908.78 993.51 2.8618 2.5789 3.3412 396.20 0.011987 31.855 0.074894 260.00 0.0038462 908.78 993.51 2.8618 2.5789 3.3412 396.20 0.011987 31.855 0.074894
265.38 3210.6 undefined 911.36 996.50 2.8666 260.00 0.0038462 911.36 996.50 2.8666 2.5822 3.3411 397.17 0.011870 31.882 0.075028 260.00 0.0038462 911.36 996.50 2.8666 2.5822 3.3411 397.17 0.011870 31.882 0.075028
266.38 3226.2 undefined 913.95 999.50 2.8714 260.00 0.0038462 913.95 999.50 2.8714 2.5855 3.3410 398.14 0.011755 31.908 0.075162 260.00 0.0038462 913.95 999.50 2.8714 2.5855 3.3410 398.14 0.011755 31.908 0.075162
267.38 3241.8 undefined 916.54 1002.5 2.8762 260.00 0.0038462 916.54 1002.5 2.8762 2.5888 3.3409 399.11 0.011642 31.934 0.075295 260.00 0.0038462 916.54 1002.5 2.8762 2.5888 3.3409 399.11 0.011642 31.934 0.075295
268.38 3257.4 undefined 919.13 1005.5 2.8810 260.00 0.0038462 919.13 1005.5 2.8810 2.5921 3.3409 400.07 0.011529 31.960 0.075429 260.00 0.0038462 919.13 1005.5 2.8810 2.5921 3.3409 400.07 0.011529 31.960 0.075429
269.38 3273.1 undefined 921.72 1008.5 2.8857 260.00 0.0038462 921.72 1008.5 2.8857 2.5955 3.3409 401.03 0.011418 31.986 0.075562 260.00 0.0038462 921.72 1008.5 2.8857 2.5955 3.3409 401.03 0.011418 31.986 0.075562
270.38 3288.7 undefined 924.32 1011.5 2.8905 260.00 0.0038462 924.32 1011.5 2.8905 2.5988 3.3410 401.99 0.011307 32.013 0.075694 260.00 0.0038462 924.32 1011.5 2.8905 2.5988 3.3410 401.99 0.011307 32.013 0.075694
271.38 3304.3 undefined 926.92 1014.5 2.8953 260.00 0.0038462 926.92 1014.5 2.8953 2.6021 3.3410 402.95 0.011198 32.039 0.075826 260.00 0.0038462 926.92 1014.5 2.8953 2.6021 3.3410 402.95 0.011198 32.039 0.075826
272.38 3319.9 undefined 929.52 1017.6 2.9001 260.00 0.0038462 929.52 1017.6 2.9001 2.6054 3.3412 403.90 0.011091 32.065 0.075957 260.00 0.0038462 929.52 1017.6 2.9001 2.6054 3.3412 403.90 0.011091 32.065 0.075957
273.38 3335.6 undefined 932.13 1020.6 2.9049 260.00 0.0038462 932.13 1020.6 2.9049 2.6087 3.3413 404.85 0.010984 32.091 0.076087 260.00 0.0038462 932.13 1020.6 2.9049 2.6087 3.3413 404.85 0.010984 32.091 0.076087
274.38 3351.2 undefined 934.74 1023.6 2.9096 260.00 0.0038462 934.74 1023.6 2.9096 2.6120 3.3415 405.80 0.010878 32.117 0.076216 260.00 0.0038462 934.74 1023.6 2.9096 2.6120 3.3415 405.80 0.010878 32.117 0.076216
275.38 3366.8 undefined 937.35 1026.6 2.9144 260.00 0.0038462 937.35 1026.6 2.9144 2.6153 3.3417 406.74 0.010774 32.143 0.076343 260.00 0.0038462 937.35 1026.6 2.9144 2.6153 3.3417 406.74 0.010774 32.143 0.076343
276.38 3382.4 undefined 939.97 1029.7 2.9192 260.00 0.0038462 939.97 1029.7 2.9192 2.6186 3.3420 407.69 0.010670 32.169 0.076469 260.00 0.0038462 939.97 1029.7 2.9192 2.6186 3.3420 407.69 0.010670 32.169 0.076469
277.38 3398.0 undefined 942.59 1032.7 2.9239 260.00 0.0038462 942.59 1032.7 2.9239 2.6219 3.3423 408.63 0.010568 32.195 0.076591 260.00 0.0038462 942.59 1032.7 2.9239 2.6219 3.3423 408.63 0.010568 32.195 0.076591
278.38 3413.6 undefined 945.21 1035.7 2.9287 260.00 0.0038462 945.21 1035.7 2.9287 2.6252 3.3426 409.57 0.010467 32.221 0.076710 260.00 0.0038462 945.21 1035.7 2.9287 2.6252 3.3426 409.57 0.010467 32.221 0.076710
279.38 3429.2 undefined 947.84 1038.8 2.9335 260.00 0.0038462 947.84 1038.8 2.9335 2.6285 3.3430 410.50 0.010366 32.246 0.076822 260.00 0.0038462 947.84 1038.8 2.9335 2.6285 3.3430 410.50 0.010366 32.246 0.076822
280.38 3444.8 undefined 950.47 1041.8 2.9382 260.00 0.0038462 950.47 1041.8 2.9382 2.6318 3.3433 411.43 0.010267 32.272 0.076922 260.00 0.0038462 950.47 1041.8 2.9382 2.6318 3.3433 411.43 0.010267 32.272 0.076922
281.38 3460.5 undefined 953.10 1044.9 2.9430 260.00 0.0038462 953.10 1044.9 2.9430 2.6351 3.3437 412.37 0.010169 32.298 0.076985 260.00 0.0038462 953.10 1044.9 2.9430 2.6351 3.3437 412.37 0.010169 32.298 0.076985
282.38 3476.1 undefined 955.74 1047.9 2.9477 260.00 0.0038462 955.74 1047.9 2.9477 2.6384 3.3442 413.29 0.010072 32.324 0.077077 260.00 0.0038462 955.74 1047.9 2.9477 2.6384 3.3442 413.29 0.010072 32.324 0.077077
283.38 3491.7 undefined 958.38 1051.0 2.9525 260.00 0.0038462 958.38 1051.0 2.9525 2.6417 3.3447 414.22 0.0099756 32.350 0.077236 260.00 0.0038462 958.38 1051.0 2.9525 2.6417 3.3447 414.22 0.0099756 32.350 0.077236
284.38 3507.3 undefined 961.02 1054.0 2.9572 260.00 0.0038462 961.02 1054.0 2.9572 2.6450 3.3452 415.15 0.0098803 32.375 0.077395 260.00 0.0038462 961.02 1054.0 2.9572 2.6450 3.3452 415.15 0.0098803 32.375 0.077395
285.38 3522.9 undefined 963.67 1057.1 2.9619 260.00 0.0038462 963.67 1057.1 2.9619 2.6483 3.3457 416.07 0.0097861 32.401 0.077555 260.00 0.0038462 963.67 1057.1 2.9619 2.6483 3.3457 416.07 0.0097861 32.401 0.077555
286.38 3538.5 undefined 966.32 1060.2 2.9667 260.00 0.0038462 966.32 1060.2 2.9667 2.6516 3.3462 416.99 0.0096928 32.427 0.077715 260.00 0.0038462 966.32 1060.2 2.9667 2.6516 3.3462 416.99 0.0096928 32.427 0.077715
287.38 3554.0 undefined 968.97 1063.2 2.9714 260.00 0.0038462 968.97 1063.2 2.9714 2.6549 3.3468 417.90 0.0096004 32.452 0.077875 260.00 0.0038462 968.97 1063.2 2.9714 2.6549 3.3468 417.90 0.0096004 32.452 0.077875
288.38 3569.6 undefined 971.63 1066.3 2.9762 260.00 0.0038462 971.63 1066.3 2.9762 2.6582 3.3474 418.82 0.0095089 32.478 0.078036 260.00 0.0038462 971.63 1066.3 2.9762 2.6582 3.3474 418.82 0.0095089 32.478 0.078036
289.38 3585.2 undefined 974.29 1069.4 2.9809 260.00 0.0038462 974.29 1069.4 2.9809 2.6615 3.3480 419.73 0.0094184 32.504 0.078196 260.00 0.0038462 974.29 1069.4 2.9809 2.6615 3.3480 419.73 0.0094184 32.504 0.078196
290.38 3600.8 undefined 976.95 1072.4 2.9856 260.00 0.0038462 976.95 1072.4 2.9856 2.6648 3.3487 420.64 0.0093287 32.529 0.078357 260.00 0.0038462 976.95 1072.4 2.9856 2.6648 3.3487 420.64 0.0093287 32.529 0.078357
291.38 3616.4 undefined 979.62 1075.5 2.9904 260.00 0.0038462 979.62 1075.5 2.9904 2.6681 3.3494 421.55 0.0092400 32.555 0.078519 260.00 0.0038462 979.62 1075.5 2.9904 2.6681 3.3494 421.55 0.0092400 32.555 0.078519
292.38 3632.0 undefined 982.29 1078.6 2.9951 260.00 0.0038462 982.29 1078.6 2.9951 2.6713 3.3501 422.46 0.0091521 32.580 0.078680 260.00 0.0038462 982.29 1078.6 2.9951 2.6713 3.3501 422.46 0.0091521 32.580 0.078680
293.38 3647.6 undefined 984.96 1081.7 2.9998 260.00 0.0038462 984.96 1081.7 2.9998 2.6746 3.3508 423.36 0.0090651 32.606 0.078842 260.00 0.0038462 984.96 1081.7 2.9998 2.6746 3.3508 423.36 0.0090651 32.606 0.078842
294.38 3663.2 undefined 987.64 1084.8 3.0045 260.00 0.0038462 987.64 1084.8 3.0045 2.6779 3.3516 424.26 0.0089789 32.631 0.079005 260.00 0.0038462 987.64 1084.8 3.0045 2.6779 3.3516 424.26 0.0089789 32.631 0.079005
295.38 3678.7 undefined 990.32 1087.9 3.0092 260.00 0.0038462 990.32 1087.9 3.0092 2.6812 3.3523 425.16 0.0088936 32.657 0.079167 260.00 0.0038462 990.32 1087.9 3.0092 2.6812 3.3523 425.16 0.0088936 32.657 0.079167
296.38 3694.3 undefined 993.00 1091.0 3.0139 260.00 0.0038462 993.00 1091.0 3.0139 2.6844 3.3531 426.06 0.0088091 32.682 0.079330 260.00 0.0038462 993.00 1091.0 3.0139 2.6844 3.3531 426.06 0.0088091 32.682 0.079330
297.38 3709.9 undefined 995.69 1094.1 3.0187 260.00 0.0038462 995.69 1094.1 3.0187 2.6877 3.3540 426.95 0.0087255 32.707 0.079493 260.00 0.0038462 995.69 1094.1 3.0187 2.6877 3.3540 426.95 0.0087255 32.707 0.079493
298.38 3725.5 undefined 998.38 1097.2 3.0234 260.00 0.0038462 998.38 1097.2 3.0234 2.6910 3.3548 427.85 0.0086426 32.733 0.079657 260.00 0.0038462 998.38 1097.2 3.0234 2.6910 3.3548 427.85 0.0086426 32.733 0.079657
299.38 3741.0 undefined 1001.1 1100.3 3.0281 260.00 0.0038462 1001.1 1100.3 3.0281 2.6943 3.3557 428.74 0.0085606 32.758 0.079820 260.00 0.0038462 1001.1 1100.3 3.0281 2.6943 3.3557 428.74 0.0085606 32.758 0.079820
300.38 3756.6 undefined 1003.8 1103.4 3.0328 260.00 0.0038462 1003.8 1103.4 3.0328 2.6975 3.3566 429.63 0.0084793 32.783 0.079984 260.00 0.0038462 1003.8 1103.4 3.0328 2.6975 3.3566 429.63 0.0084793 32.783 0.079984