Temperature (C) Pressure (psia) Quality (l+v) Internal Energy (l+v, kJ/kg) Enthalpy (l+v, kJ/kg) Entropy (l+v, J/g*K) Density (l, kg/m3) Volume (l, m3/kg) Internal Energy (l, kJ/kg) Enthalpy (l, kJ/kg) Entropy (l, J/g*K) Cv (l, J/g*K) Cp (l, J/g*K) Sound Spd. (l, m/s) Joule-Thomson (l, F/psia) Viscosity (l, uPa*s) Therm. Cond. (l, W/m*K) Density (v, kg/m3) Volume (v, m3/kg) Internal Energy (v, kJ/kg) Enthalpy (v, kJ/kg) Entropy (v, J/g*K) Cv (v, J/g*K) Cp (v, J/g*K) Sound Spd. (v, m/s) Joule-Thomson (v, F/psia) Viscosity (v, uPa*s) Therm. Cond. (v, W/m*K)
-187.62 2.4953e-08 2.5707e-11 -196.64 -196.64 -1.3959 733.13 0.0013640 -196.64 -196.64 -1.3959 1.3553 1.9158 2136.4 -0.0077592 10960. 0.20792 1.0669e-08 9.3732e+07 350.13 366.26 5.1858 0.69067 0.87923 143.28 6.1051 2.3259 0.0017061
-186.62 3.7339e-08 3.7992e-11 -194.73 -194.73 -1.3736 732.08 0.0013660 -194.73 -194.73 -1.3736 1.3539 1.9166 2129.6 -0.0077546 10073. 0.20765 1.5780e-08 6.3371e+07 350.82 367.14 5.1200 0.69462 0.88317 144.03 5.9178 2.3534 0.0017533
-185.62 5.5322e-08 5.5601e-11 -192.81 -192.81 -1.3516 731.04 0.0013679 -192.81 -192.81 -1.3516 1.3525 1.9174 2122.9 -0.0077498 9276.1 0.20737 2.3112e-08 4.3267e+07 351.52 368.02 5.0561 0.69857 0.88713 144.77 5.7383 2.3808 0.0018007
-184.62 8.1182e-08 8.0605e-11 -190.89 -190.89 -1.3298 730.00 0.0013699 -190.89 -190.89 -1.3298 1.3513 1.9182 2116.1 -0.0077448 8557.8 0.20708 3.3533e-08 2.9821e+07 352.22 368.91 4.9939 0.70253 0.89108 145.51 5.5662 2.4083 0.0018485
-183.62 1.1803e-07 1.1579e-10 -188.97 -188.97 -1.3083 728.96 0.0013718 -188.97 -188.97 -1.3083 1.3501 1.9191 2109.3 -0.0077395 7909.8 0.20678 4.8211e-08 2.0742e+07 352.92 369.81 4.9333 0.70648 0.89504 146.24 5.4011 2.4357 0.0018965
-182.62 1.7009e-07 1.6488e-10 -187.05 -187.05 -1.2869 727.92 0.0013738 -187.05 -187.05 -1.2869 1.3490 1.9201 2102.5 -0.0077340 7324.3 0.20647 6.8704e-08 1.4555e+07 353.63 370.70 4.8744 0.71043 0.89899 146.97 5.2426 2.4632 0.0019448
-181.62 2.4299e-07 2.3278e-10 -185.13 -185.13 -1.2658 726.88 0.0013757 -185.13 -185.13 -1.2658 1.3480 1.9210 2095.7 -0.0077283 6794.5 0.20616 9.7079e-08 1.0301e+07 354.35 371.60 4.8170 0.71438 0.90294 147.69 5.0904 2.4906 0.0019934
-180.62 3.4425e-07 3.2595e-10 -183.21 -183.21 -1.2450 725.85 0.0013777 -183.21 -183.21 -1.2450 1.3470 1.9220 2088.9 -0.0077225 6314.4 0.20584 1.3605e-07 7.3504e+06 355.06 372.51 4.7612 0.71833 0.90688 148.41 4.9442 2.5181 0.0020423
-179.62 4.8378e-07 4.5281e-10 -181.29 -181.29 -1.2243 724.81 0.0013797 -181.29 -181.29 -1.2243 1.3461 1.9231 2082.0 -0.0077164 5878.8 0.20551 1.8915e-07 5.2868e+06 355.78 373.42 4.7068 0.72227 0.91082 149.13 4.8038 2.5456 0.0020915
-178.62 6.7459e-07 6.2421e-10 -179.37 -179.37 -1.2038 723.78 0.0013816 -179.37 -179.37 -1.2038 1.3453 1.9241 2075.2 -0.0077102 5482.9 0.20517 2.6096e-07 3.8320e+06 356.51 374.33 4.6538 0.72620 0.91475 149.84 4.6688 2.5731 0.0021410
-177.62 9.3358e-07 8.5410e-10 -177.44 -177.44 -1.1836 722.75 0.0013836 -177.44 -177.44 -1.1836 1.3445 1.9252 2068.4 -0.0077039 5122.6 0.20483 3.5737e-07 2.7982e+06 357.23 375.25 4.6022 0.73012 0.91867 150.54 4.5390 2.6005 0.0021907
-176.62 1.2826e-06 1.1603e-09 -175.52 -175.52 -1.1635 721.72 0.0013856 -175.52 -175.52 -1.1635 1.3437 1.9263 2061.5 -0.0076973 4794.1 0.20447 4.8588e-07 2.0581e+06 357.97 376.17 4.5519 0.73403 0.92258 151.25 4.4142 2.6280 0.0022408
-175.62 1.7496e-06 1.5653e-09 -173.59 -173.59 -1.1437 720.69 0.0013876 -173.59 -173.59 -1.1437 1.3430 1.9274 2054.7 -0.0076907 4494.3 0.20411 6.5601e-07 1.5244e+06 358.70 377.09 4.5029 0.73792 0.92648 151.95 4.2941 2.6555 0.0022912
-174.62 2.3705e-06 2.0974e-09 -171.66 -171.66 -1.1240 719.66 0.0013895 -171.66 -171.66 -1.1240 1.3423 1.9286 2047.9 -0.0076838 4220.2 0.20375 8.7976e-07 1.1367e+06 359.44 378.02 4.4551 0.74181 0.93036 152.64 4.1784 2.6830 0.0023418
-173.62 3.1903e-06 2.7921e-09 -169.73 -169.73 -1.1045 718.64 0.0013915 -169.73 -169.73 -1.1045 1.3417 1.9298 2041.0 -0.0076769 3969.3 0.20338 1.1721e-06 8.5314e+05 360.19 378.95 4.4085 0.74568 0.93423 153.33 4.0671 2.7105 0.0023928
-172.62 4.2661e-06 3.6934e-09 -167.80 -167.80 -1.0852 717.61 0.0013935 -167.80 -167.80 -1.0852 1.3411 1.9310 2034.2 -0.0076698 3739.3 0.20300 1.5518e-06 6.4441e+05 360.93 379.89 4.3631 0.74953 0.93809 154.02 3.9599 2.7379 0.0024440
-171.62 5.6692e-06 4.8558e-09 -165.87 -165.87 -1.0661 716.58 0.0013955 -165.87 -165.87 -1.0661 1.3405 1.9322 2027.3 -0.0076625 3528.0 0.20261 2.0419e-06 4.8974e+05 361.69 380.83 4.3188 0.75337 0.94193 154.71 3.8566 2.7654 0.0024955
-170.62 7.4884e-06 6.3460e-09 -163.94 -163.94 -1.0472 715.56 0.0013975 -163.94 -163.94 -1.0472 1.3400 1.9334 2020.5 -0.0076552 3333.8 0.20222 2.6708e-06 3.7442e+05 362.44 381.77 4.2755 0.75720 0.94575 155.39 3.7570 2.7929 0.0025473
-169.62 9.8334e-06 8.2458e-09 -162.00 -162.00 -1.0284 714.54 0.0013995 -162.00 -162.00 -1.0284 1.3395 1.9347 2013.6 -0.0076477 3154.9 0.20182 3.4733e-06 2.8791e+05 363.20 382.72 4.2334 0.76100 0.94956 156.07 3.6609 2.8204 0.0025994
-168.62 1.2839e-05 1.0655e-08 -160.07 -160.07 -1.0098 713.52 0.0014015 -160.07 -160.07 -1.0098 1.3390 1.9359 2006.8 -0.0076401 2989.9 0.20141 4.4917e-06 2.2263e+05 363.96 383.67 4.1922 0.76479 0.95335 156.74 3.5683 2.8479 0.0026518
-167.62 1.6672e-05 1.3692e-08 -158.13 -158.13 -0.99134 712.49 0.0014035 -158.13 -158.13 -0.99134 1.3386 1.9372 2000.0 -0.0076323 2837.5 0.20100 5.7771e-06 1.7310e+05 364.73 384.63 4.1521 0.76856 0.95712 157.41 3.4790 2.8754 0.0027045
-166.62 2.1533e-05 1.7503e-08 -156.19 -156.19 -0.97306 711.47 0.0014055 -156.19 -156.19 -0.97306 1.3382 1.9385 1993.1 -0.0076245 2696.5 0.20058 7.3914e-06 1.3529e+05 365.50 385.59 4.1129 0.77232 0.96087 158.08 3.3927 2.9029 0.0027575
-165.62 2.7666e-05 2.2261e-08 -154.25 -154.25 -0.95494 710.45 0.0014075 -154.25 -154.25 -0.95494 1.3378 1.9398 1986.3 -0.0076165 2566.0 0.20016 9.4084e-06 1.0629e+05 366.27 386.55 4.0746 0.77605 0.96460 158.75 3.3095 2.9304 0.0028108
-164.62 3.5367e-05 2.8170e-08 -152.31 -152.31 -0.93698 709.44 0.0014096 -152.31 -152.31 -0.93698 1.3375 1.9411 1979.4 -0.0076084 2444.9 0.19973 1.1916e-05 83918. 367.05 387.52 4.0372 0.77976 0.96832 159.41 3.2291 2.9579 0.0028643
-163.62 4.4989e-05 3.5477e-08 -150.37 -150.37 -0.91917 708.42 0.0014116 -150.37 -150.37 -0.91917 1.3371 1.9424 1972.6 -0.0076002 2332.3 0.19930 1.5020e-05 66577. 367.83 388.49 4.0008 0.78346 0.97201 160.07 3.1514 2.9854 0.0029182
-162.62 5.6956e-05 4.4470e-08 -148.43 -148.43 -0.90151 707.40 0.0014136 -148.43 -148.43 -0.90151 1.3368 1.9437 1965.8 -0.0075919 2227.7 0.19886 1.8844e-05 53068. 368.62 389.46 3.9651 0.78713 0.97569 160.72 3.0764 3.0129 0.0029723
-161.62 7.1773e-05 5.5488e-08 -146.48 -146.48 -0.88400 706.38 0.0014157 -146.48 -146.48 -0.88400 1.3365 1.9451 1959.0 -0.0075834 2130.2 0.19841 2.3533e-05 42494. 369.41 390.44 3.9304 0.79079 0.97935 161.38 3.0038 3.0404 0.0030268
-160.62 9.0036e-05 6.8930e-08 -144.54 -144.54 -0.86663 705.37 0.0014177 -144.54 -144.54 -0.86663 1.3363 1.9465 1952.1 -0.0075748 2039.2 0.19796 2.9258e-05 34178. 370.20 391.42 3.8964 0.79443 0.98298 162.03 2.9337 3.0679 0.0030815
-159.62 0.00011245 8.5258e-08 -142.59 -142.59 -0.84940 704.35 0.0014197 -142.59 -142.59 -0.84940 1.3360 1.9478 1945.3 -0.0075661 1954.2 0.19751 3.6221e-05 27609. 371.00 392.40 3.8632 0.79805 0.98660 162.68 2.8658 3.0955 0.0031365
-158.62 0.00013985 1.0501e-07 -140.64 -140.64 -0.83231 703.34 0.0014218 -140.64 -140.64 -0.83231 1.3358 1.9492 1938.5 -0.0075573 1874.8 0.19705 4.4652e-05 22395. 371.80 393.39 3.8307 0.80164 0.99020 163.32 2.8002 3.1230 0.0031918
-157.62 0.00017320 1.2882e-07 -138.69 -138.69 -0.81536 702.32 0.0014238 -138.69 -138.69 -0.81536 1.3356 1.9506 1931.7 -0.0075484 1800.3 0.19658 5.4822e-05 18241. 372.60 394.38 3.7990 0.80522 0.99378 163.96 2.7367 3.1505 0.0032474
-156.62 0.00021364 1.5739e-07 -136.74 -136.74 -0.79854 701.31 0.0014259 -136.74 -136.74 -0.79854 1.3354 1.9520 1924.9 -0.0075393 1730.5 0.19611 6.7040e-05 14916. 373.41 395.38 3.7680 0.80878 0.99734 164.60 2.6752 3.1780 0.0033033
-155.62 0.00026248 1.9156e-07 -134.79 -134.79 -0.78185 700.30 0.0014280 -134.79 -134.79 -0.78185 1.3352 1.9534 1918.1 -0.0075302 1664.9 0.19564 8.1666e-05 12245. 374.22 396.38 3.7377 0.81232 1.0009 165.24 2.6157 3.2055 0.0033595
-154.62 0.00032125 2.3227e-07 -132.83 -132.83 -0.76530 699.29 0.0014300 -132.83 -132.83 -0.76530 1.3350 1.9548 1911.3 -0.0075209 1603.3 0.19516 9.9109e-05 10090. 375.03 397.38 3.7081 0.81585 1.0044 165.87 2.5580 3.2330 0.0034160
-153.62 0.00039171 2.8060e-07 -130.88 -130.88 -0.74887 698.27 0.0014321 -130.88 -130.88 -0.74887 1.3349 1.9563 1904.5 -0.0075114 1545.3 0.19468 0.00011984 8344.6 375.85 398.39 3.6792 0.81935 1.0079 166.50 2.5022 3.2606 0.0034727
-152.62 0.00047590 3.3778e-07 -128.92 -128.92 -0.73256 697.26 0.0014342 -128.92 -128.92 -0.73256 1.3348 1.9577 1897.8 -0.0075019 1490.6 0.19419 0.00014439 6925.9 376.67 399.40 3.6509 0.82284 1.0114 167.13 2.4481 3.2881 0.0035298
-151.62 0.00057613 4.0519e-07 -126.96 -126.96 -0.71638 696.25 0.0014363 -126.96 -126.96 -0.71638 1.3346 1.9592 1891.0 -0.0074922 1438.9 0.19370 0.00017336 5768.4 377.49 400.41 3.6232 0.82631 1.0149 167.76 2.3957 3.3156 0.0035872
-150.62 0.00069507 4.8442e-07 -125.00 -125.00 -0.70032 695.24 0.0014384 -125.00 -125.00 -0.70032 1.3345 1.9606 1884.2 -0.0074824 1390.2 0.19320 0.00020744 4820.7 378.32 401.42 3.5962 0.82976 1.0183 168.38 2.3448 3.3431 0.0036448
-149.62 0.00083574 5.7722e-07 -123.04 -123.04 -0.68437 694.23 0.0014404 -123.04 -123.04 -0.68438 1.3345 1.9621 1877.4 -0.0074724 1344.0 0.19270 0.00024740 4042.0 379.15 402.44 3.5697 0.83319 1.0218 169.00 2.2956 3.3706 0.0037027
-148.62 0.0010016 6.8560e-07 -121.08 -121.08 -0.66855 693.22 0.0014425 -121.08 -121.08 -0.66855 1.3344 1.9636 1870.7 -0.0074623 1300.3 0.19220 0.00029412 3400.0 379.99 403.47 3.5438 0.83661 1.0252 169.62 2.2478 3.3982 0.0037610
-147.62 0.0011965 8.1177e-07 -119.11 -119.11 -0.65283 692.21 0.0014447 -119.11 -119.11 -0.65284 1.3343 1.9651 1863.9 -0.0074521 1258.9 0.19169 0.00034856 2869.0 380.83 404.49 3.5185 0.84001 1.0286 170.24 2.2014 3.4257 0.0038195
-146.62 0.0014249 9.5821e-07 -117.15 -117.15 -0.63723 691.20 0.0014468 -117.15 -117.15 -0.63724 1.3343 1.9666 1857.2 -0.0074417 1219.6 0.19117 0.00041181 2428.3 381.67 405.52 3.4938 0.84340 1.0320 170.85 2.1565 3.4532 0.0038783
-145.62 0.0016917 1.1277e-06 -115.18 -115.18 -0.62175 690.19 0.0014489 -115.18 -115.18 -0.62175 1.3343 1.9682 1850.4 -0.0074312 1182.3 0.19066 0.00048510 2061.4 382.51 406.56 3.4695 0.84677 1.0353 171.46 2.1128 3.4807 0.0039374
-144.62 0.0020026 1.3233e-06 -113.21 -113.21 -0.60637 689.18 0.0014510 -113.21 -113.21 -0.60637 1.3343 1.9697 1843.7 -0.0074206 1146.8 0.19014 0.00056976 1755.1 383.36 407.59 3.4458 0.85012 1.0387 172.07 2.0705 3.5082 0.0039967
-143.62 0.0023637 1.5485e-06 -111.24 -111.24 -0.59109 688.17 0.0014531 -111.24 -111.24 -0.59110 1.3343 1.9713 1836.9 -0.0074098 1113.0 0.18962 0.00066731 1498.6 384.21 408.63 3.4226 0.85346 1.0420 172.68 2.0294 3.5358 0.0040564
-142.62 0.0027820 1.8069e-06 -109.27 -109.27 -0.57592 687.16 0.0014553 -109.27 -109.27 -0.57593 1.3343 1.9728 1830.2 -0.0073988 1080.8 0.18909 0.00077939 1283.1 385.07 409.68 3.3999 0.85679 1.0454 173.28 1.9896 3.5633 0.0041164
-141.62 0.0032653 2.1027e-06 -107.30 -107.30 -0.56086 686.15 0.0014574 -107.30 -107.30 -0.56087 1.3343 1.9744 1823.5 -0.0073878 1050.1 0.18856 0.00090784 1101.5 385.93 410.72 3.3777 0.86011 1.0487 173.88 1.9508 3.5908 0.0041766
-140.62 0.0038222 2.4405e-06 -105.32 -105.32 -0.54590 685.14 0.0014596 -105.32 -105.32 -0.54591 1.3344 1.9760 1816.7 -0.0073765 1020.7 0.18803 0.0010547 948.16 386.79 411.77 3.3560 0.86341 1.0520 174.48 1.9133 3.6183 0.0042372
-139.62 0.0044623 2.8253e-06 -103.34 -103.34 -0.53104 684.13 0.0014617 -103.34 -103.34 -0.53105 1.3344 1.9776 1810.0 -0.0073651 992.74 0.18749 0.0012221 818.26 387.65 412.83 3.3347 0.86670 1.0553 175.08 1.8768 3.6459 0.0042980
-138.62 0.0051963 3.2626e-06 -101.36 -101.36 -0.51627 683.12 0.0014639 -101.37 -101.37 -0.51629 1.3345 1.9792 1803.3 -0.0073536 965.97 0.18695 0.0014125 707.94 388.52 413.88 3.3139 0.86998 1.0586 175.67 1.8413 3.6734 0.0043592
-137.62 0.0060358 3.7582e-06 -99.384 -99.384 -0.50161 682.11 0.0014660 -99.386 -99.386 -0.50162 1.3346 1.9808 1796.6 -0.0073419 940.35 0.18641 0.0016287 614.00 389.39 414.94 3.2935 0.87325 1.0619 176.26 1.8069 3.7009 0.0044206
-136.62 0.0069938 4.3188e-06 -97.402 -97.402 -0.48704 681.10 0.0014682 -97.404 -97.404 -0.48705 1.3347 1.9825 1789.9 -0.0073301 915.81 0.18586 0.0018733 533.80 390.26 416.00 3.2735 0.87650 1.0651 176.85 1.7734 3.7284 0.0044823
-135.62 0.0080843 4.9513e-06 -95.419 -95.419 -0.47256 680.09 0.0014704 -95.421 -95.421 -0.47258 1.3348 1.9841 1783.2 -0.0073180 892.30 0.18531 0.0021497 465.17 391.14 417.07 3.2540 0.87975 1.0684 177.44 1.7409 3.7559 0.0045443
-134.62 0.0093230 5.6634e-06 -93.433 -93.433 -0.45818 679.08 0.0014726 -93.436 -93.436 -0.45820 1.3350 1.9858 1776.5 -0.0073059 869.75 0.18476 0.0024613 406.30 392.02 418.14 3.2348 0.88299 1.0716 178.02 1.7093 3.7834 0.0046066
-133.62 0.010727 6.4634e-06 -91.446 -91.446 -0.44388 678.07 0.0014748 -91.450 -91.449 -0.44391 1.3351 1.9875 1769.8 -0.0072935 848.11 0.18421 0.0028116 355.67 392.91 419.21 3.2161 0.88622 1.0749 178.61 1.6786 3.8109 0.0046691
-132.62 0.012315 7.3603e-06 -89.458 -89.457 -0.42968 677.06 0.0014770 -89.461 -89.461 -0.42971 1.3353 1.9892 1763.1 -0.0072810 827.32 0.18365 0.0032049 312.03 393.79 420.29 3.1977 0.88944 1.0781 179.19 1.6488 3.8385 0.0047320
-131.62 0.014106 8.3637e-06 -87.467 -87.467 -0.41557 676.04 0.0014792 -87.471 -87.471 -0.41560 1.3354 1.9909 1756.4 -0.0072684 807.34 0.18309 0.0036453 274.33 394.68 421.36 3.1798 0.89266 1.0813 179.76 1.6197 3.8660 0.0047951
-130.62 0.016124 9.4840e-06 -85.475 -85.474 -0.40154 675.03 0.0014814 -85.479 -85.479 -0.40157 1.3356 1.9926 1749.7 -0.0072555 788.12 0.18253 0.0041375 241.69 395.58 422.44 3.1622 0.89586 1.0846 180.34 1.5915 3.8935 0.0048586
-129.62 0.018392 1.0732e-05 -83.481 -83.480 -0.38760 674.02 0.0014836 -83.486 -83.486 -0.38763 1.3358 1.9944 1743.0 -0.0072425 769.63 0.18196 0.0046867 213.37 396.47 423.53 3.1450 0.89906 1.0878 180.91 1.5641 3.9210 0.0049223
-128.62 0.020935 1.2121e-05 -81.485 -81.484 -0.37374 673.01 0.0014859 -81.491 -81.490 -0.37378 1.3360 1.9961 1736.3 -0.0072294 751.83 0.18140 0.0052981 188.75 397.37 424.62 3.1281 0.90226 1.0910 181.48 1.5374 3.9485 0.0049863
-127.62 0.023783 1.3662e-05 -79.487 -79.486 -0.35996 672.00 0.0014881 -79.494 -79.493 -0.36001 1.3363 1.9979 1729.6 -0.0072160 734.67 0.18083 0.0059776 167.29 398.27 425.71 3.1116 0.90545 1.0942 182.05 1.5114 3.9760 0.0050506
-126.62 0.026966 1.5369e-05 -77.488 -77.487 -0.34627 670.98 0.0014904 -77.495 -77.495 -0.34632 1.3365 1.9997 1722.9 -0.0072025 718.14 0.18025 0.0067313 148.56 399.18 426.80 3.0954 0.90863 1.0974 182.62 1.4861 4.0035 0.0051152
-125.62 0.030515 1.7258e-05 -75.486 -75.485 -0.33266 669.97 0.0014926 -75.494 -75.494 -0.33272 1.3368 2.0015 1716.2 -0.0071888 702.18 0.17968 0.0075660 132.17 400.09 427.89 3.0795 0.91181 1.1006 183.18 1.4615 4.0310 0.0051800
-124.62 0.034467 1.9343e-05 -73.483 -73.482 -0.31912 668.95 0.0014949 -73.492 -73.492 -0.31919 1.3371 2.0033 1709.5 -0.0071749 686.79 0.17910 0.0084885 117.81 401.00 428.99 3.0640 0.91499 1.1038 183.74 1.4375 4.0584 0.0052452
-123.62 0.038859 2.1641e-05 -71.477 -71.476 -0.30567 667.94 0.0014971 -71.488 -71.487 -0.30574 1.3374 2.0051 1702.8 -0.0071609 671.93 0.17852 0.0095065 105.19 401.91 430.10 3.0488 0.91816 1.1070 184.30 1.4141 4.0859 0.0053106
-122.62 0.043731 2.4170e-05 -69.470 -69.469 -0.29229 666.92 0.0014994 -69.482 -69.481 -0.29237 1.3377 2.0070 1696.2 -0.0071466 657.57 0.17794 0.010628 94.092 402.83 431.20 3.0339 0.92134 1.1102 184.86 1.3913 4.1134 0.0053764
-121.62 0.049128 2.6948e-05 -67.461 -67.460 -0.27898 665.91 0.0015017 -67.474 -67.473 -0.27907 1.3380 2.0089 1689.5 -0.0071322 643.70 0.17736 0.011861 84.309 403.75 432.31 3.0193 0.92451 1.1134 185.41 1.3691 4.1409 0.0054424
-120.62 0.055096 2.9994e-05 -65.450 -65.448 -0.26575 664.89 0.0015040 -65.464 -65.463 -0.26585 1.3384 2.0107 1682.8 -0.0071176 630.28 0.17678 0.013215 75.669 404.67 433.42 3.0050 0.92767 1.1166 185.96 1.3475 4.1683 0.0055087
-119.62 0.061684 3.3330e-05 -63.437 -63.435 -0.25260 663.87 0.0015063 -63.452 -63.452 -0.25271 1.3387 2.0126 1676.1 -0.0071028 617.30 0.17619 0.014700 68.027 405.60 434.53 2.9909 0.93084 1.1198 186.51 1.3264 4.1958 0.0055752
-118.62 0.068946 3.6977e-05 -61.421 -61.420 -0.23951 662.86 0.0015086 -61.439 -61.438 -0.23963 1.3391 2.0146 1669.4 -0.0070878 604.74 0.17560 0.016325 61.255 406.53 435.64 2.9772 0.93401 1.1231 187.06 1.3058 4.2233 0.0056421
-117.62 0.076937 4.0958e-05 -59.404 -59.402 -0.22650 661.84 0.0015109 -59.423 -59.422 -0.22663 1.3395 2.0165 1662.8 -0.0070726 592.58 0.17501 0.018101 55.245 407.46 436.76 2.9638 0.93718 1.1263 187.60 1.2857 4.2507 0.0057092
-116.62 0.085718 4.5297e-05 -57.385 -57.382 -0.21356 660.82 0.0015133 -57.406 -57.405 -0.21370 1.3400 2.0184 1656.1 -0.0070573 580.80 0.17442 0.020040 49.901 408.39 437.88 2.9506 0.94035 1.1295 188.14 1.2660 4.2782 0.0057767
-115.62 0.095353 5.0021e-05 -55.363 -55.361 -0.20068 659.80 0.0015156 -55.386 -55.385 -0.20084 1.3404 2.0204 1649.4 -0.0070417 569.38 0.17383 0.022152 45.142 409.33 439.01 2.9377 0.94352 1.1327 188.68 1.2468 4.3056 0.0058444
-114.62 0.10591 5.5154e-05 -53.339 -53.337 -0.18788 658.78 0.0015180 -53.365 -53.364 -0.18805 1.3409 2.0224 1642.7 -0.0070260 558.32 0.17323 0.024451 40.898 410.27 440.13 2.9250 0.94669 1.1360 189.22 1.2281 4.3330 0.0059123
-113.62 0.11746 6.0727e-05 -51.313 -51.310 -0.17514 657.76 0.0015203 -51.342 -51.340 -0.17533 1.3413 2.0244 1636.0 -0.0070100 547.59 0.17264 0.026949 37.107 411.21 441.26 2.9126 0.94987 1.1392 189.75 1.2097 4.3604 0.0059806
-112.62 0.13008 6.6766e-05 -49.285 -49.282 -0.16246 656.73 0.0015227 -49.316 -49.315 -0.16267 1.3418 2.0264 1629.3 -0.0069938 537.18 0.17204 0.029661 33.715 412.16 442.39 2.9005 0.95305 1.1424 190.28 1.1918 4.3879 0.0060491
-111.62 0.14384 7.3304e-05 -47.255 -47.251 -0.14986 655.71 0.0015251 -47.289 -47.287 -0.15008 1.3424 2.0285 1622.7 -0.0069774 527.08 0.17144 0.032600 30.675 413.10 443.53 2.8885 0.95623 1.1457 190.81 1.1742 4.4153 0.0061180
-110.62 0.15884 8.0373e-05 -45.222 -45.218 -0.13731 654.69 0.0015274 -45.259 -45.258 -0.13755 1.3429 2.0305 1616.0 -0.0069609 517.28 0.17084 0.035781 27.948 414.06 444.66 2.8769 0.95942 1.1490 191.34 1.1570 4.4427 0.0061871
-109.62 0.17516 8.8004e-05 -43.187 -43.183 -0.12483 653.66 0.0015298 -43.228 -43.226 -0.12509 1.3435 2.0326 1609.3 -0.0069441 507.76 0.17024 0.039220 25.497 415.01 445.80 2.8654 0.96261 1.1522 191.86 1.1402 4.4701 0.0062564
-108.62 0.19290 9.6233e-05 -41.150 -41.145 -0.11241 652.64 0.0015322 -41.194 -41.192 -0.11269 1.3441 2.0347 1602.6 -0.0069271 498.51 0.16964 0.042933 23.292 415.96 446.94 2.8542 0.96581 1.1555 192.38 1.1236 4.4974 0.0063261
-107.62 0.21215 0.00010510 -39.110 -39.105 -0.10005 651.61 0.0015347 -39.158 -39.156 -0.10036 1.3447 2.0369 1595.9 -0.0069098 489.52 0.16903 0.046937 21.305 416.92 448.09 2.8433 0.96901 1.1588 192.90 1.1075 4.5248 0.0063960
-106.62 0.23301 0.00011463 -37.068 -37.062 -0.087748 650.58 0.0015371 -37.120 -37.118 -0.088082 1.3453 2.0390 1589.2 -0.0068924 480.79 0.16843 0.051250 19.512 417.88 449.23 2.8325 0.97222 1.1621 193.41 1.0916 4.5522 0.0064662
-105.62 0.25561 0.00012487 -35.024 -35.017 -0.075507 649.55 0.0015395 -35.080 -35.078 -0.075868 1.3460 2.0412 1582.6 -0.0068747 472.30 0.16782 0.055891 17.892 418.85 450.38 2.8220 0.97544 1.1655 193.93 1.0760 4.5795 0.0065367
-104.62 0.28004 0.00013587 -32.977 -32.969 -0.063324 648.52 0.0015420 -33.038 -33.035 -0.063714 1.3467 2.0434 1575.9 -0.0068569 464.04 0.16721 0.060878 16.426 419.81 451.53 2.8116 0.97867 1.1688 194.44 1.0608 4.6069 0.0066074
-103.62 0.30643 0.00014765 -30.927 -30.919 -0.051198 647.49 0.0015444 -30.994 -30.991 -0.051619 1.3474 2.0456 1569.2 -0.0068387 456.00 0.16660 0.066231 15.099 420.78 452.68 2.8015 0.98191 1.1722 194.94 1.0458 4.6342 0.0066785
-102.62 0.33490 0.00016028 -28.875 -28.866 -0.039128 646.46 0.0015469 -28.947 -28.944 -0.039582 1.3481 2.0478 1562.5 -0.0068204 448.18 0.16600 0.071971 13.894 421.75 453.84 2.7916 0.98516 1.1755 195.44 1.0310 4.6615 0.0067498
-101.62 0.36558 0.00017378 -26.820 -26.811 -0.027113 645.43 0.0015494 -26.898 -26.894 -0.027602 1.3489 2.0501 1555.8 -0.0068018 440.57 0.16539 0.078120 12.801 422.73 454.99 2.7818 0.98841 1.1789 195.95 1.0166 4.6888 0.0068213
-100.62 0.39862 0.00018820 -24.763 -24.752 -0.015153 644.39 0.0015519 -24.847 -24.843 -0.015678 1.3497 2.0524 1549.1 -0.0067830 433.16 0.16478 0.084699 11.807 423.70 456.15 2.7723 0.99168 1.1823 196.44 1.0024 4.7161 0.0068932
-99.625 0.43414 0.00020360 -22.703 -22.691 -0.0032469 643.36 0.0015544 -22.794 -22.789 -0.0038103 1.3505 2.0547 1542.4 -0.0067639 425.95 0.16416 0.091731 10.901 424.68 457.31 2.7630 0.99496 1.1858 196.94 0.98838 4.7434 0.0069653
-98.625 0.47230 0.00022002 -20.640 -20.628 0.0086069 642.32 0.0015569 -20.738 -20.733 0.0080027 1.3514 2.0570 1535.7 -0.0067447 418.92 0.16355 0.099240 10.077 425.66 458.48 2.7538 0.99825 1.1892 197.43 0.97464 4.7707 0.0070377
-97.625 0.51325 0.00023752 -18.574 -18.561 0.020409 641.28 0.0015594 -18.680 -18.674 0.019762 1.3522 2.0594 1529.0 -0.0067251 412.07 0.16294 0.10725 9.3239 426.65 459.64 2.7448 1.0016 1.1927 197.92 0.96112 4.7979 0.0071103
-96.625 0.55714 0.00025613 -16.506 -16.491 0.032160 640.24 0.0015619 -16.620 -16.614 0.031467 1.3531 2.0618 1522.3 -0.0067053 405.39 0.16233 0.11579 8.6365 427.63 460.81 2.7360 1.0049 1.1962 198.40 0.94783 4.8251 0.0071832
-95.625 0.60416 0.00027593 -14.434 -14.419 0.043861 639.20 0.0015645 -14.557 -14.550 0.043120 1.3540 2.0642 1515.7 -0.0066853 398.88 0.16171 0.12488 8.0078 428.62 461.98 2.7274 1.0082 1.1997 198.88 0.93475 4.8524 0.0072564
-94.625 0.65446 0.00029695 -12.360 -12.343 0.055512 638.16 0.0015670 -12.491 -12.484 0.054721 1.3550 2.0667 1509.0 -0.0066650 392.53 0.16110 0.13455 7.4323 429.61 463.15 2.7189 1.0116 1.2032 199.36 0.92188 4.8796 0.0073299
-93.625 0.70822 0.00031926 -10.283 -10.264 0.067115 637.12 0.0015696 -10.424 -10.416 0.066271 1.3560 2.0691 1502.3 -0.0066444 386.34 0.16048 0.14482 6.9050 430.60 464.32 2.7107 1.0149 1.2068 199.83 0.90921 4.9068 0.0074036
-92.625 0.76564 0.00034292 -8.2027 -8.1827 0.078671 636.07 0.0015722 -8.3535 -8.3452 0.077771 1.3570 2.0716 1495.6 -0.0066236 380.31 0.15987 0.15573 6.4212 431.60 465.49 2.7025 1.0183 1.2104 200.30 0.89673 4.9340 0.0074776
-91.625 0.82689 0.00036799 -6.1193 -6.0978 0.090179 635.02 0.0015747 -6.2808 -6.2719 0.089220 1.3580 2.0742 1488.9 -0.0066025 374.41 0.15925 0.16731 5.9769 432.59 466.67 2.6946 1.0217 1.2140 200.77 0.88445 4.9611 0.0075518
-90.625 0.89218 0.00039451 -4.0329 -4.0097 0.10164 633.98 0.0015773 -4.2056 -4.1959 0.10062 1.3591 2.0767 1482.2 -0.0065811 368.66 0.15864 0.17958 5.5685 433.59 467.84 2.6868 1.0251 1.2177 201.24 0.87236 4.9883 0.0076263
-89.625 0.96172 0.00042257 -1.9433 -1.9183 0.11306 632.93 0.0015800 -2.1279 -2.1174 0.11197 1.3602 2.0793 1475.5 -0.0065595 363.05 0.15802 0.19258 5.1928 434.59 469.02 2.6791 1.0285 1.2213 201.70 0.86045 5.0154 0.0077011
-88.625 1.0357 0.00045221 0.14949 0.17643 0.12443 631.88 0.0015826 -0.047516 -0.036215 0.12328 1.3613 2.0819 1468.8 -0.0065375 357.56 0.15740 0.20633 4.8466 435.59 470.20 2.6717 1.0320 1.2250 202.15 0.84873 5.0425 0.0077761
-87.625 1.1144 0.00048351 2.2456 2.2746 0.13576 630.83 0.0015852 2.0355 2.0476 0.13454 1.3625 2.0846 1462.1 -0.0065153 352.21 0.15679 0.22087 4.5276 436.60 471.39 2.6643 1.0354 1.2288 202.61 0.83718 5.0696 0.0078514
-86.625 1.1979 0.00051653 4.3450 4.3761 0.14705 629.77 0.0015879 4.1211 4.1342 0.14575 1.3637 2.0873 1455.4 -0.0064928 346.98 0.15617 0.23623 4.2331 437.61 472.57 2.6571 1.0389 1.2325 203.06 0.82580 5.0967 0.0079270
-85.625 1.2866 0.00055133 6.4478 6.4812 0.15829 628.72 0.0015905 6.2094 6.2235 0.15691 1.3649 2.0900 1448.8 -0.0064701 341.87 0.15555 0.25245 3.9612 438.61 473.75 2.6501 1.0424 1.2363 203.50 0.81460 5.1237 0.0080028
-84.625 1.3806 0.00058799 8.5540 8.5899 0.16949 627.66 0.0015932 8.3004 8.3155 0.16803 1.3661 2.0927 1442.1 -0.0064470 336.87 0.15494 0.26956 3.7097 439.63 474.94 2.6432 1.0460 1.2402 203.95 0.80356 5.1508 0.0080789
-83.625 1.4803 0.00062658 10.664 10.702 0.18065 626.60 0.0015959 10.394 10.410 0.17911 1.3674 2.0955 1435.4 -0.0064236 331.99 0.15432 0.28760 3.4771 440.64 476.13 2.6364 1.0495 1.2440 204.38 0.79269 5.1778 0.0081553
-82.625 1.5858 0.00066716 12.777 12.818 0.19177 625.54 0.0015986 12.491 12.508 0.19014 1.3687 2.0983 1428.7 -0.0063999 327.22 0.15370 0.30659 3.2616 441.65 477.31 2.6298 1.0531 1.2479 204.82 0.78199 5.2048 0.0082319
-81.625 1.6975 0.00070981 14.894 14.938 0.20285 624.48 0.0016013 14.590 14.609 0.20113 1.3700 2.1012 1422.0 -0.0063759 322.55 0.15309 0.32659 3.0619 442.67 478.50 2.6233 1.0567 1.2519 205.25 0.77144 5.2318 0.0083088
-80.625 1.8155 0.00075461 17.014 17.062 0.21390 623.42 0.0016041 16.692 16.712 0.21208 1.3714 2.1041 1415.4 -0.0063516 317.99 0.15247 0.34763 2.8766 443.69 479.70 2.6169 1.0603 1.2558 205.67 0.76106 5.2587 0.0083860
-79.625 1.9402 0.00080162 19.138 19.189 0.22490 622.36 0.0016068 18.797 18.819 0.22299 1.3728 2.1070 1408.7 -0.0063270 313.52 0.15186 0.36974 2.7046 444.71 480.89 2.6106 1.0639 1.2598 206.10 0.75083 5.2857 0.0084634
-78.625 2.0718 0.00085092 21.266 21.320 0.23587 621.29 0.0016096 20.905 20.928 0.23385 1.3742 2.1099 1402.0 -0.0063021 309.15 0.15124 0.39296 2.5448 445.73 482.08 2.6045 1.0676 1.2639 206.51 0.74076 5.3126 0.0085411
-77.625 2.2107 0.00090260 23.398 23.456 0.24680 620.22 0.0016123 23.016 23.040 0.24468 1.3757 2.1129 1395.3 -0.0062768 304.88 0.15062 0.41735 2.3961 446.75 483.27 2.5985 1.0712 1.2680 206.93 0.73084 5.3395 0.0086190
-76.625 2.3571 0.00095672 25.534 25.595 0.25770 619.15 0.0016151 25.130 25.156 0.25546 1.3772 2.1159 1388.7 -0.0062512 300.69 0.15001 0.44292 2.2577 447.78 484.47 2.5926 1.0749 1.2721 207.34 0.72107 5.3664 0.0086972
-75.625 2.5113 0.0010134 27.674 27.739 0.26856 618.08 0.0016179 27.247 27.275 0.26620 1.3787 2.1190 1382.0 -0.0062253 296.59 0.14939 0.46974 2.1288 448.81 485.67 2.5869 1.0787 1.2762 207.74 0.71146 5.3933 0.0087757
-74.625 2.6736 0.0010726 29.817 29.887 0.27938 617.01 0.0016207 29.366 29.396 0.27691 1.3802 2.1221 1375.4 -0.0061990 292.58 0.14878 0.49783 2.0087 449.83 486.86 2.5812 1.0824 1.2804 208.14 0.70200 5.4201 0.0088544
-73.625 2.8444 0.0011346 31.965 32.039 0.29017 615.93 0.0016236 31.489 31.521 0.28758 1.3818 2.1252 1368.7 -0.0061724 288.65 0.14816 0.52725 1.8966 450.86 488.06 2.5757 1.0862 1.2847 208.54 0.69268 5.4469 0.0089334
-72.625 3.0240 0.0011993 34.117 34.196 0.30093 614.85 0.0016264 33.615 33.649 0.29821 1.3834 2.1284 1362.0 -0.0061454 284.81 0.14755 0.55804 1.7920 451.90 489.26 2.5703 1.0900 1.2889 208.93 0.68351 5.4737 0.0090126
-71.625 3.2127 0.0012669 36.273 36.357 0.31166 613.78 0.0016293 35.745 35.781 0.30880 1.3851 2.1316 1355.4 -0.0061181 281.03 0.14694 0.59024 1.6942 452.93 490.46 2.5650 1.0938 1.2932 209.32 0.67448 5.5005 0.0090922
-70.625 3.4108 0.0013374 38.433 38.522 0.32235 612.69 0.0016321 37.877 37.915 0.31935 1.3867 2.1349 1348.7 -0.0060904 277.34 0.14632 0.62390 1.6028 453.96 491.66 2.5598 1.0976 1.2976 209.70 0.66560 5.5273 0.0091720
-69.625 3.6187 0.0014110 40.598 40.692 0.33301 611.61 0.0016350 40.013 40.053 0.32987 1.3884 2.1382 1342.1 -0.0060624 273.72 0.14571 0.65906 1.5173 455.00 492.86 2.5547 1.1015 1.3020 210.08 0.65687 5.5540 0.0092520
-68.625 3.8367 0.0014876 42.767 42.867 0.34364 610.53 0.0016379 42.152 42.195 0.34036 1.3902 2.1415 1335.5 -0.0060339 270.17 0.14510 0.69577 1.4372 456.04 494.06 2.5497 1.1054 1.3064 210.45 0.64827 5.5807 0.0093324
-67.625 4.0652 0.0015675 44.941 45.047 0.35424 609.44 0.0016409 44.294 44.340 0.35080 1.3919 2.1449 1328.8 -0.0060051 266.69 0.14449 0.73408 1.3622 457.08 495.26 2.5448 1.1093 1.3109 210.82 0.63981 5.6074 0.0094130
-66.625 4.3046 0.0016507 47.119 47.231 0.36482 608.35 0.0016438 46.439 46.488 0.36122 1.3937 2.1483 1322.2 -0.0059760 263.28 0.14388 0.77404 1.2919 458.12 496.46 2.5400 1.1133 1.3154 211.18 0.63150 5.6341 0.0094939
-65.625 4.5551 0.0017372 49.301 49.420 0.37536 607.26 0.0016467 48.588 48.640 0.37160 1.3955 2.1518 1315.6 -0.0059464 259.93 0.14327 0.81570 1.2259 459.16 497.67 2.5353 1.1172 1.3200 211.54 0.62332 5.6608 0.0095750
-64.625 4.8173 0.0018272 51.489 51.614 0.38587 606.16 0.0016497 50.740 50.795 0.38195 1.3974 2.1553 1308.9 -0.0059164 256.65 0.14266 0.85910 1.1640 460.21 498.87 2.5307 1.1212 1.3246 211.89 0.61527 5.6874 0.0096564
-63.625 5.0915 0.0019208 53.681 53.813 0.39636 605.07 0.0016527 52.896 52.954 0.39226 1.3993 2.1588 1302.3 -0.0058861 253.42 0.14205 0.90429 1.1058 461.25 500.07 2.5262 1.1252 1.3293 212.24 0.60736 5.7140 0.0097382
-62.625 5.3781 0.0020180 55.877 56.017 0.40682 603.97 0.0016557 55.055 55.117 0.40254 1.4012 2.1624 1295.7 -0.0058553 250.26 0.14144 0.95134 1.0511 462.30 501.28 2.5218 1.1293 1.3340 212.58 0.59958 5.7406 0.0098201
-61.625 5.6774 0.0021190 58.079 58.226 0.41725 602.87 0.0016587 57.218 57.283 0.41279 1.4031 2.1660 1289.1 -0.0058241 247.16 0.14084 1.0003 0.99972 463.35 502.48 2.5175 1.1333 1.3387 212.92 0.59194 5.7672 0.0099024
-60.625 5.9899 0.0022238 60.285 60.441 0.42766 601.77 0.0016618 59.385 59.453 0.42301 1.4051 2.1697 1282.5 -0.0057925 244.12 0.14023 1.0512 0.95131 464.40 503.68 2.5133 1.1374 1.3435 213.26 0.58442 5.7938 0.0099850
-59.625 6.3160 0.0023325 62.497 62.661 0.43804 600.66 0.0016648 61.554 61.627 0.43320 1.4071 2.1734 1275.9 -0.0057605 241.13 0.13962 1.1041 0.90573 465.45 504.89 2.5091 1.1415 1.3483 213.58 0.57704 5.8203 0.010068
-58.625 6.6561 0.0024453 64.713 64.886 0.44839 599.55 0.0016679 63.728 63.805 0.44335 1.4091 2.1772 1269.3 -0.0057280 238.19 0.13902 1.1591 0.86277 466.50 506.09 2.5051 1.1457 1.3532 213.90 0.56978 5.8468 0.010151
-57.625 7.0107 0.0025622 66.935 67.117 0.45873 598.44 0.0016710 65.905 65.986 0.45348 1.4111 2.1810 1262.7 -0.0056951 235.31 0.13842 1.2161 0.82228 467.55 507.30 2.5011 1.1498 1.3581 214.22 0.56265 5.8733 0.010234
-56.625 7.3801 0.0026834 69.161 69.353 0.46903 597.33 0.0016741 68.086 68.172 0.46358 1.4132 2.1848 1256.1 -0.0056617 232.48 0.13781 1.2754 0.78408 468.60 508.50 2.4972 1.1540 1.3631 214.53 0.55564 5.8998 0.010318
-55.625 7.7648 0.0028088 71.393 71.595 0.47932 596.22 0.0016772 70.271 70.361 0.47364 1.4153 2.1887 1249.5 -0.0056279 229.69 0.13721 1.3369 0.74802 469.66 509.71 2.4934 1.1582 1.3681 214.84 0.54875 5.9263 0.010402
-54.625 8.1652 0.0029387 73.630 73.843 0.48958 595.10 0.0016804 72.460 72.554 0.48368 1.4174 2.1927 1242.9 -0.0055937 226.96 0.13661 1.4006 0.71396 470.72 510.91 2.4897 1.1624 1.3731 215.14 0.54199 5.9527 0.010486
-53.625 8.5819 0.0030731 75.873 76.096 0.49982 593.98 0.0016836 74.652 74.752 0.49369 1.4196 2.1967 1236.3 -0.0055589 224.27 0.13601 1.4667 0.68178 471.77 512.11 2.4860 1.1667 1.3782 215.43 0.53535 5.9792 0.010571
-52.625 9.0151 0.0032121 78.121 78.355 0.51003 592.86 0.0016867 76.849 76.954 0.50368 1.4218 2.2007 1229.8 -0.0055237 221.63 0.13541 1.5353 0.65136 472.83 513.32 2.4824 1.1710 1.3834 215.72 0.52882 6.0056 0.010656
-51.625 9.4655 0.0033559 80.374 80.620 0.52023 591.73 0.0016900 79.049 79.159 0.51363 1.4240 2.2048 1223.2 -0.0054880 219.04 0.13482 1.6062 0.62258 473.89 514.52 2.4789 1.1752 1.3886 216.00 0.52241 6.0320 0.010741
-50.625 9.9335 0.0035045 82.633 82.892 0.53040 590.60 0.0016932 81.253 81.369 0.52356 1.4262 2.2089 1216.6 -0.0054519 216.48 0.13422 1.6797 0.59534 474.95 515.73 2.4755 1.1796 1.3938 216.28 0.51612 6.0584 0.010827
-49.625 10.419 0.0036579 84.898 85.169 0.54056 589.47 0.0016964 83.462 83.584 0.53347 1.4285 2.2131 1210.1 -0.0054152 213.98 0.13363 1.7558 0.56954 476.01 516.93 2.4722 1.1839 1.3991 216.55 0.50994 6.0848 0.010913
-48.625 10.924 0.0038165 87.168 87.452 0.55069 588.34 0.0016997 85.674 85.802 0.54334 1.4308 2.2173 1203.5 -0.0053780 211.51 0.13303 1.8345 0.54510 477.07 518.13 2.4689 1.1883 1.4044 216.82 0.50387 6.1112 0.010999
-47.625 11.448 0.0039801 89.444 89.742 0.56081 587.20 0.0017030 87.891 88.025 0.55319 1.4331 2.2216 1196.9 -0.0053403 209.08 0.13244 1.9159 0.52194 478.14 519.33 2.4657 1.1927 1.4098 217.08 0.49792 6.1375 0.011085
-46.625 11.991 0.0041490 91.726 92.038 0.57090 586.06 0.0017063 90.111 90.252 0.56302 1.4354 2.2259 1190.4 -0.0053020 206.69 0.13185 2.0001 0.49997 479.20 520.53 2.4625 1.1971 1.4153 217.33 0.49207 6.1639 0.011172
-45.625 12.554 0.0043232 94.013 94.340 0.58098 584.92 0.0017096 92.336 92.484 0.57282 1.4378 2.2303 1183.8 -0.0052633 204.34 0.13126 2.0872 0.47912 480.27 521.74 2.4594 1.2015 1.4207 217.58 0.48633 6.1902 0.011259
-44.625 13.137 0.0045029 96.307 96.649 0.59104 583.77 0.0017130 94.565 94.720 0.58260 1.4402 2.2347 1177.3 -0.0052240 202.03 0.13067 2.1771 0.45933 481.33 522.94 2.4564 1.2060 1.4263 217.82 0.48069 6.2165 0.011347
-43.625 13.741 0.0046881 98.606 98.964 0.60108 582.62 0.0017164 96.799 96.961 0.59235 1.4426 2.2392 1170.7 -0.0051841 199.75 0.13008 2.2700 0.44053 482.40 524.14 2.4535 1.2104 1.4319 218.05 0.47516 6.2429 0.011435
-42.625 14.367 0.0048790 100.91 101.29 0.61110 581.47 0.0017198 99.036 99.207 0.60208 1.4450 2.2437 1164.2 -0.0051437 197.51 0.12949 2.3659 0.42267 483.46 525.33 2.4506 1.2149 1.4375 218.28 0.46973 6.2692 0.011523
-41.625 15.015 0.0050756 103.22 103.61 0.62111 580.32 0.0017232 101.28 101.46 0.61179 1.4475 2.2483 1157.7 -0.0051027 195.30 0.12891 2.4649 0.40569 484.53 526.53 2.4478 1.2195 1.4432 218.50 0.46440 6.2955 0.011612
-40.625 15.686 0.0052781 105.54 105.95 0.63110 579.16 0.0017266 103.52 103.71 0.62147 1.4500 2.2529 1151.1 -0.0050611 193.13 0.12832 2.5671 0.38954 485.60 527.73 2.4450 1.2240 1.4489 218.72 0.45917 6.3218 0.011701
-39.625 16.380 0.0054866 107.87 108.29 0.64107 578.00 0.0017301 105.78 105.97 0.63113 1.4525 2.2576 1144.6 -0.0050189 190.99 0.12774 2.6725 0.37418 486.67 528.93 2.4423 1.2286 1.4547 218.93 0.45403 6.3481 0.011790
-38.625 17.097 0.0057012 110.20 110.64 0.65103 576.83 0.0017336 108.03 108.24 0.64077 1.4550 2.2623 1138.0 -0.0049761 188.88 0.12716 2.7813 0.35955 487.74 530.12 2.4397 1.2332 1.4606 219.13 0.44900 6.3744 0.011880
-37.625 17.838 0.0059220 112.53 113.00 0.66097 575.66 0.0017371 110.29 110.51 0.65039 1.4576 2.2671 1131.5 -0.0049327 186.81 0.12658 2.8934 0.34562 488.81 531.32 2.4371 1.2378 1.4665 219.33 0.44405 6.4007 0.011970
-36.625 18.604 0.0061491 114.88 115.36 0.67090 574.49 0.0017407 112.56 112.78 0.65999 1.4602 2.2719 1125.0 -0.0048887 184.76 0.12600 3.0089 0.33235 489.88 532.51 2.4346 1.2424 1.4724 219.52 0.43920 6.4270 0.012060
-35.625 19.395 0.0063826 117.23 117.73 0.68081 573.32 0.0017442 114.83 115.06 0.66956 1.4628 2.2768 1118.5 -0.0048440 182.75 0.12542 3.1280 0.31969 490.95 533.70 2.4321 1.2471 1.4784 219.70 0.43444 6.4533 0.012151
-34.625 20.212 0.0066227 119.58 120.11 0.69071 572.14 0.0017478 117.10 117.34 0.67912 1.4654 2.2818 1111.9 -0.0047987 180.76 0.12485 3.2506 0.30763 492.02 534.89 2.4297 1.2517 1.4845 219.88 0.42977 6.4797 0.012243
-33.625 21.056 0.0068694 121.95 122.49 0.70060 570.96 0.0017514 119.38 119.63 0.68865 1.4681 2.2868 1105.4 -0.0047527 178.80 0.12427 3.3770 0.29612 493.09 536.08 2.4273 1.2564 1.4906 220.05 0.42519 6.5060 0.012334
-32.625 21.926 0.0071228 124.31 124.89 0.71047 569.77 0.0017551 121.66 121.93 0.69817 1.4708 2.2918 1098.9 -0.0047061 176.87 0.12370 3.5071 0.28514 494.17 537.27 2.4250 1.2611 1.4968 220.21 0.42070 6.5323 0.012426
-31.625 22.823 0.0073831 126.69 127.28 0.72033 568.58 0.0017588 123.95 124.23 0.70767 1.4735 2.2970 1092.3 -0.0046587 174.97 0.12313 3.6410 0.27465 495.24 538.46 2.4227 1.2659 1.5031 220.36 0.41629 6.5587 0.012519
-30.625 23.749 0.0076505 129.07 129.69 0.73017 567.39 0.0017625 126.24 126.53 0.71714 1.4762 2.3021 1085.8 -0.0046107 173.09 0.12256 3.7787 0.26464 496.31 539.64 2.4205 1.2706 1.5094 220.51 0.41196 6.5850 0.012612
-29.625 24.703 0.0079249 131.46 132.11 0.74001 566.19 0.0017662 128.54 128.84 0.72660 1.4790 2.3074 1079.3 -0.0045619 171.24 0.12200 3.9205 0.25507 497.38 540.83 2.4184 1.2754 1.5157 220.65 0.40772 6.6114 0.012706
-28.625 25.687 0.0082065 133.86 134.53 0.74983 564.99 0.0017699 130.84 131.16 0.73604 1.4818 2.3126 1072.8 -0.0045124 169.42 0.12143 4.0663 0.24592 498.46 542.01 2.4162 1.2802 1.5222 220.79 0.40356 6.6378 0.012800
-27.625 26.700 0.0084955 136.26 136.96 0.75964 563.78 0.0017737 133.15 133.48 0.74547 1.4846 2.3180 1066.2 -0.0044621 167.62 0.12087 4.2163 0.23717 499.53 543.19 2.4142 1.2850 1.5286 220.91 0.39947 6.6642 0.012894
-26.625 27.743 0.0087919 138.68 139.40 0.76944 562.57 0.0017775 135.47 135.81 0.75487 1.4874 2.3234 1059.7 -0.0044111 165.84 0.12031 4.3705 0.22881 500.60 544.37 2.4122 1.2899 1.5352 221.03 0.39547 6.6906 0.012989
-25.625 28.817 0.0090959 141.09 141.84 0.77923 561.36 0.0017814 137.78 138.14 0.76426 1.4902 2.3289 1053.2 -0.0043593 164.09 0.11975 4.5290 0.22080 501.68 545.55 2.4102 1.2947 1.5418 221.14 0.39154 6.7171 0.013084
-24.625 29.923 0.0094076 143.52 144.30 0.78901 560.14 0.0017853 140.11 140.48 0.77363 1.4931 2.3344 1046.7 -0.0043067 162.36 0.11919 4.6918 0.21314 502.75 546.72 2.4083 1.2996 1.5485 221.25 0.38768 6.7436 0.013180
-23.625 31.061 0.0097272 145.95 146.76 0.79877 558.92 0.0017892 142.44 142.82 0.78298 1.4960 2.3400 1040.1 -0.0042533 160.65 0.11863 4.8592 0.20580 503.82 547.90 2.4064 1.3045 1.5552 221.35 0.38391 6.7701 0.013277
-22.625 32.232 0.010055 148.39 149.23 0.80853 557.69 0.0017931 144.77 145.17 0.79232 1.4990 2.3457 1033.6 -0.0041990 158.97 0.11807 5.0311 0.19877 504.90 549.07 2.4045 1.3095 1.5621 221.44 0.38020 6.7967 0.013374
-21.625 33.435 0.010390 150.84 151.71 0.81828 556.46 0.0017971 147.11 147.52 0.80164 1.5019 2.3514 1027.1 -0.0041439 157.30 0.11752 5.2076 0.19203 505.97 550.24 2.4027 1.3144 1.5690 221.52 0.37656 6.8232 0.013471
-20.625 34.673 0.010734 153.29 154.19 0.82802 555.23 0.0018011 149.45 149.88 0.81095 1.5049 2.3572 1020.6 -0.0040879 155.66 0.11697 5.3889 0.18557 507.04 551.40 2.4010 1.3194 1.5759 221.59 0.37300 6.8499 0.013569
-19.625 35.946 0.011086 155.75 156.69 0.83775 553.99 0.0018051 151.80 152.25 0.82024 1.5079 2.3630 1014.0 -0.0040311 154.04 0.11642 5.5750 0.17937 508.11 552.57 2.3992 1.3244 1.5829 221.66 0.36950 6.8765 0.013668
-18.625 37.253 0.011446 158.22 159.19 0.84747 552.74 0.0018092 154.16 154.62 0.82952 1.5109 2.3689 1007.5 -0.0039733 152.44 0.11587 5.7660 0.17343 509.19 553.73 2.3976 1.3294 1.5901 221.72 0.36608 6.9032 0.013767
-17.625 38.596 0.011815 160.70 161.70 0.85718 551.49 0.0018133 156.52 157.00 0.83878 1.5140 2.3749 1001.0 -0.0039145 150.86 0.11532 5.9621 0.16773 510.26 554.89 2.3959 1.3345 1.5972 221.77 0.36272 6.9300 0.013867
-16.625 39.976 0.012193 163.18 164.22 0.86688 550.24 0.0018174 158.89 159.39 0.84803 1.5171 2.3810 994.44 -0.0038549 149.29 0.11478 6.1632 0.16225 511.33 556.05 2.3943 1.3395 1.6045 221.81 0.35942 6.9568 0.013968
-15.625 41.392 0.012579 165.68 166.75 0.87658 548.98 0.0018216 161.26 161.78 0.85726 1.5202 2.3871 987.91 -0.0037942 147.75 0.11423 6.3696 0.15700 512.40 557.20 2.3927 1.3446 1.6119 221.85 0.35619 6.9836 0.014069
-14.625 42.846 0.012975 168.18 169.29 0.88627 547.71 0.0018258 163.64 164.18 0.86649 1.5233 2.3933 981.37 -0.0037325 146.22 0.11369 6.5812 0.15195 513.47 558.36 2.3912 1.3497 1.6193 221.87 0.35302 7.0105 0.014170
-13.625 44.338 0.013379 170.68 171.84 0.89595 546.44 0.0018300 166.02 166.58 0.87569 1.5264 2.3996 974.83 -0.0036698 144.72 0.11315 6.7983 0.14710 514.54 559.51 2.3897 1.3549 1.6268 221.89 0.34992 7.0375 0.014273
-12.625 45.870 0.013793 173.20 174.39 0.90562 545.17 0.0018343 168.41 168.99 0.88489 1.5296 2.4059 968.29 -0.0036061 143.23 0.11261 7.0208 0.14243 515.61 560.65 2.3883 1.3600 1.6344 221.90 0.34688 7.0646 0.014376
-11.625 47.440 0.014216 175.72 176.96 0.91529 543.89 0.0018386 170.81 171.41 0.89407 1.5328 2.4124 961.75 -0.0035413 141.76 0.11208 7.2490 0.13795 516.68 561.80 2.3868 1.3652 1.6421 221.91 0.34389 7.0917 0.014479
-10.625 49.051 0.014649 178.25 179.53 0.92495 542.60 0.0018430 173.21 173.83 0.90324 1.5360 2.4189 955.20 -0.0034753 140.30 0.11154 7.4829 0.13364 517.75 562.94 2.3854 1.3704 1.6498 221.90 0.34097 7.1188 0.014584
-9.6250 50.703 0.015091 180.79 182.11 0.93461 541.31 0.0018474 175.61 176.26 0.91240 1.5393 2.4255 948.65 -0.0034082 138.86 0.11101 7.7226 0.12949 518.81 564.08 2.3841 1.3757 1.6577 221.88 0.33810 7.1461 0.014689
-8.6250 52.396 0.015543 183.34 184.70 0.94426 540.02 0.0018518 178.03 178.70 0.92154 1.5426 2.4321 942.10 -0.0033400 137.44 0.11048 7.9683 0.12550 519.88 565.21 2.3827 1.3809 1.6657 221.86 0.33529 7.1734 0.014795
-7.6250 54.131 0.016005 185.90 187.31 0.95390 538.72 0.0018563 180.45 181.14 0.93068 1.5459 2.4389 935.55 -0.0032705 136.03 0.10995 8.2200 0.12165 520.94 566.35 2.3814 1.3862 1.6737 221.83 0.33254 7.2008 0.014902
-6.6250 55.909 0.016476 188.46 189.92 0.96354 537.41 0.0018608 182.87 183.59 0.93980 1.5492 2.4457 928.99 -0.0031998 134.64 0.10942 8.4779 0.11795 522.01 567.48 2.3801 1.3915 1.6819 221.79 0.32984 7.2284 0.015009
-5.6250 57.730 0.016958 191.03 192.53 0.97317 536.10 0.0018653 185.30 186.05 0.94892 1.5525 2.4526 922.43 -0.0031279 133.27 0.10889 8.7420 0.11439 523.07 568.60 2.3789 1.3969 1.6902 221.74 0.32720 7.2560 0.015117
-4.6250 59.595 0.017451 193.61 195.16 0.98280 534.78 0.0018699 187.74 188.51 0.95802 1.5559 2.4596 915.87 -0.0030546 131.91 0.10837 9.0126 0.11096 524.13 569.72 2.3777 1.4022 1.6985 221.68 0.32461 7.2837 0.015226
-3.6250 61.505 0.017954 196.20 197.80 0.99242 533.45 0.0018746 190.19 190.98 0.96711 1.5593 2.4667 909.30 -0.0029800 130.56 0.10785 9.2896 0.10765 525.19 570.84 2.3765 1.4076 1.7070 221.62 0.32207 7.3115 0.015336
-2.6250 63.461 0.018467 198.80 200.45 1.0020 532.12 0.0018793 192.64 193.46 0.97620 1.5627 2.4739 902.73 -0.0029041 129.23 0.10733 9.5733 0.10446 526.25 571.96 2.3753 1.4131 1.7156 221.54 0.31958 7.3394 0.015447
-1.6250 65.462 0.018991 201.40 203.11 1.0116 530.78 0.0018840 195.10 195.95 0.98527 1.5662 2.4811 896.16 -0.0028267 127.91 0.10681 9.8638 0.10138 527.31 573.07 2.3742 1.4185 1.7243 221.45 0.31715 7.3674 0.015559
-0.62500 67.510 0.019526 204.02 205.78 1.0213 529.44 0.0018888 197.56 198.44 0.99434 1.5696 2.4885 889.58 -0.0027478 126.61 0.10629 10.161 0.098414 528.37 574.18 2.3731 1.4240 1.7331 221.36 0.31476 7.3956 0.015671
0.37500 69.606 0.020072 206.64 208.45 1.0309 528.09 0.0018936 200.03 200.94 1.0034 1.5731 2.4960 883.00 -0.0026675 125.32 0.10578 10.466 0.095552 529.42 575.28 2.3720 1.4295 1.7421 221.26 0.31242 7.4239 0.015785
1.3750 71.749 0.020630 209.27 211.14 1.0405 526.73 0.0018985 202.51 203.45 1.0124 1.5767 2.5035 876.42 -0.0025856 124.04 0.10527 10.777 0.092790 530.48 576.38 2.3709 1.4350 1.7512 221.14 0.31013 7.4523 0.015899
2.3750 73.941 0.021199 211.91 213.84 1.0501 525.37 0.0019034 204.99 205.96 1.0215 1.5802 2.5112 869.83 -0.0025022 122.78 0.10476 11.096 0.090123 531.53 577.47 2.3699 1.4406 1.7604 221.02 0.30789 7.4808 0.016015
3.3750 76.183 0.021779 214.56 216.54 1.0597 523.99 0.0019084 207.48 208.48 1.0305 1.5838 2.5190 863.24 -0.0024171 121.53 0.10425 11.422 0.087549 532.58 578.56 2.3688 1.4462 1.7697 220.89 0.30569 7.5095 0.016131
4.3750 78.475 0.022371 217.22 219.26 1.0693 522.62 0.0019134 209.98 211.01 1.0395 1.5874 2.5268 856.64 -0.0023303 120.29 0.10374 11.756 0.085062 533.63 579.65 2.3678 1.4518 1.7792 220.75 0.30354 7.5384 0.016249
5.3750 80.817 0.022975 219.89 221.99 1.0788 521.23 0.0019185 212.48 213.55 1.0486 1.5910 2.5348 850.04 -0.0022417 119.06 0.10324 12.098 0.082660 534.67 580.73 2.3669 1.4575 1.7888 220.60 0.30144 7.5674 0.016368
6.3750 83.211 0.023591 222.56 224.73 1.0884 519.84 0.0019237 215.00 216.10 1.0576 1.5946 2.5429 843.43 -0.0021514 117.85 0.10273 12.447 0.080340 535.72 581.81 2.3659 1.4632 1.7986 220.44 0.29938 7.5966 0.016487
7.3750 85.657 0.024219 225.25 227.47 1.0980 518.44 0.0019289 217.51 218.65 1.0666 1.5983 2.5511 836.82 -0.0020593 116.65 0.10223 12.805 0.078096 536.76 582.88 2.3650 1.4689 1.8085 220.27 0.29736 7.6259 0.016608
8.3750 88.156 0.024860 227.94 230.23 1.1076 517.03 0.0019341 220.04 221.22 1.0756 1.6020 2.5595 830.20 -0.0019652 115.46 0.10173 13.170 0.075928 537.80 583.95 2.3640 1.4746 1.8186 220.08 0.29538 7.6555 0.016730
9.3750 90.708 0.025513 230.64 233.00 1.1172 515.62 0.0019394 222.57 223.79 1.0846 1.6057 2.5679 823.58 -0.0018691 114.28 0.10124 13.545 0.073830 538.84 585.01 2.3631 1.4804 1.8288 219.89 0.29345 7.6852 0.016853
10.375 93.315 0.026179 233.35 235.78 1.1268 514.19 0.0019448 225.11 226.37 1.0936 1.6095 2.5765 816.96 -0.0017710 113.11 0.10074 13.927 0.071802 539.87 586.07 2.3622 1.4863 1.8392 219.69 0.29156 7.7151 0.016978
11.375 95.977 0.026858 236.08 238.57 1.1364 512.76 0.0019502 227.66 228.95 1.1025 1.6132 2.5852 810.32 -0.0016708 111.95 0.10025 14.319 0.069840 540.90 587.12 2.3614 1.4921 1.8498 219.48 0.28971 7.7452 0.017103
12.375 98.694 0.027550 238.81 241.37 1.1459 511.32 0.0019557 230.22 231.55 1.1115 1.6170 2.5940 803.68 -0.0015685 110.80 0.099756 14.719 0.067941 541.93 588.17 2.3605 1.4980 1.8605 219.26 0.28790 7.7756 0.017230
13.375 101.47 0.028255 241.55 244.19 1.1555 509.87 0.0019613 232.78 234.15 1.1205 1.6208 2.6030 797.04 -0.0014639 109.67 0.099267 15.128 0.066103 542.96 589.21 2.3597 1.5040 1.8715 219.03 0.28612 7.8061 0.017359
14.375 104.30 0.028974 244.29 247.01 1.1651 508.42 0.0019669 235.35 236.77 1.1295 1.6247 2.6121 790.39 -0.0013569 108.54 0.098779 15.547 0.064323 543.99 590.24 2.3588 1.5099 1.8826 218.79 0.28439 7.8369 0.017488
15.375 107.19 0.029706 247.05 249.84 1.1747 506.95 0.0019726 237.93 239.39 1.1384 1.6286 2.6214 783.73 -0.0012476 107.43 0.098294 15.974 0.062600 545.01 591.27 2.3580 1.5159 1.8940 218.53 0.28270 7.8680 0.017619
16.375 110.13 0.030453 249.82 252.69 1.1842 505.48 0.0019783 240.52 242.02 1.1474 1.6324 2.6308 777.07 -0.0011357 106.32 0.097810 16.412 0.060931 546.03 592.29 2.3572 1.5220 1.9055 218.27 0.28104 7.8993 0.017752
17.375 113.14 0.031213 252.60 255.54 1.1938 504.00 0.0019841 243.11 244.66 1.1564 1.6364 2.6403 770.40 -0.0010213 105.22 0.097328 16.859 0.059314 547.04 593.31 2.3564 1.5281 1.9172 217.99 0.27942 7.9308 0.017886
18.375 116.21 0.031988 255.39 258.41 1.2034 502.50 0.0019900 245.72 247.31 1.1653 1.6403 2.6501 763.72 -0.00090422 104.14 0.096848 17.317 0.057747 548.05 594.32 2.3557 1.5342 1.9292 217.71 0.27783 7.9626 0.018021
19.375 119.33 0.032777 258.18 261.29 1.2130 501.00 0.0019960 248.33 249.97 1.1743 1.6443 2.6599 757.04 -0.00078435 103.06 0.096371 17.785 0.056228 549.06 595.33 2.3549 1.5404 1.9414 217.41 0.27628 7.9947 0.018159
20.375 122.52 0.033581 260.99 264.18 1.2226 499.49 0.0020020 250.95 252.64 1.1832 1.6483 2.6700 750.35 -0.00066161 101.99 0.095895 18.263 0.054756 550.07 596.32 2.3541 1.5466 1.9538 217.10 0.27477 8.0272 0.018297
21.375 125.77 0.034400 263.81 267.08 1.2321 497.97 0.0020082 253.57 255.32 1.1922 1.6523 2.6802 743.64 -0.00053589 100.93 0.095420 18.752 0.053328 551.07 597.31 2.3534 1.5528 1.9665 216.78 0.27329 8.0599 0.018438
22.375 129.08 0.035234 266.63 269.99 1.2417 496.43 0.0020144 256.21 258.00 1.2012 1.6563 2.6906 736.94 -0.00040708 99.877 0.094948 19.252 0.051943 552.07 598.30 2.3526 1.5591 1.9795 216.45 0.27184 8.0929 0.018580
23.375 132.46 0.036084 269.47 272.92 1.2513 494.89 0.0020206 258.86 260.70 1.2101 1.6604 2.7012 730.22 -0.00027505 98.834 0.094478 19.763 0.050600 553.06 599.27 2.3519 1.5655 1.9927 216.11 0.27043 8.1263 0.018724
24.375 135.90 0.036949 272.32 275.85 1.2609 493.34 0.0020270 261.51 263.41 1.2191 1.6645 2.7120 723.49 -0.00013968 97.800 0.094009 20.285 0.049297 554.05 600.24 2.3512 1.5718 2.0061 215.75 0.26906 8.1600 0.018870
25.375 139.41 0.037830 275.17 278.80 1.2705 491.77 0.0020335 264.17 266.13 1.2280 1.6686 2.7230 716.76 -8.3775e-07 96.773 0.093543 20.820 0.048032 555.03 601.20 2.3504 1.5783 2.0199 215.39 0.26771 8.1941 0.019017
26.375 142.98 0.038728 278.04 281.76 1.2801 490.20 0.0020400 266.84 268.85 1.2370 1.6728 2.7342 710.01 0.00014161 95.755 0.093078 21.366 0.046804 556.01 602.15 2.3497 1.5847 2.0340 215.01 0.26640 8.2286 0.019167
27.375 146.62 0.039641 280.92 284.73 1.2897 488.61 0.0020466 269.52 271.59 1.2459 1.6770 2.7456 703.26 0.00028782 94.745 0.092615 21.924 0.045612 556.99 603.10 2.3490 1.5913 2.0484 214.62 0.26512 8.2634 0.019319
28.375 150.33 0.040572 283.81 287.72 1.2992 487.01 0.0020533 272.21 274.34 1.2549 1.6812 2.7573 696.49 0.00043793 93.742 0.092154 22.495 0.044454 557.96 604.03 2.3483 1.5978 2.0631 214.21 0.26387 8.2987 0.019472
29.375 154.10 0.041519 286.71 290.71 1.3088 485.40 0.0020601 274.91 277.10 1.2638 1.6854 2.7691 689.72 0.00059212 92.747 0.091695 23.079 0.043329 558.92 604.96 2.3476 1.6044 2.0781 213.80 0.26265 8.3344 0.019628
30.375 157.94 0.042483 289.61 293.72 1.3184 483.78 0.0020671 277.62 279.87 1.2728 1.6897 2.7813 682.93 0.00075055 91.760 0.091238 23.676 0.042237 559.88 605.88 2.3469 1.6111 2.0935 213.37 0.26147 8.3705 0.019786
31.375 161.86 0.043465 292.53 296.74 1.3280 482.15 0.0020741 280.34 282.66 1.2818 1.6939 2.7936 676.13 0.00091340 90.779 0.090782 24.287 0.041175 560.84 606.79 2.3462 1.6178 2.1092 212.93 0.26031 8.4071 0.019947
32.375 165.84 0.044465 295.46 299.78 1.3377 480.50 0.0020812 283.07 285.45 1.2908 1.6983 2.8063 669.32 0.0010809 89.806 0.090328 24.911 0.040143 561.79 607.69 2.3455 1.6246 2.1254 212.48 0.25919 8.4442 0.020110
33.375 169.90 0.045482 298.40 302.82 1.3473 478.83 0.0020884 285.81 288.26 1.2997 1.7026 2.8192 662.50 0.0012532 88.840 0.089876 25.549 0.039140 562.73 608.58 2.3448 1.6314 2.1419 212.01 0.25809 8.4818 0.020275
34.375 174.02 0.046518 301.36 305.88 1.3569 477.16 0.0020957 288.56 291.07 1.3087 1.7070 2.8324 655.67 0.0014305 87.880 0.089426 26.202 0.038164 563.67 609.46 2.3440 1.6383 2.1589 211.53 0.25702 8.5199 0.020443
35.375 178.22 0.047573 304.32 308.95 1.3665 475.47 0.0021032 291.32 293.90 1.3177 1.7114 2.8459 648.82 0.0016131 86.927 0.088977 26.870 0.037216 564.60 610.33 2.3433 1.6452 2.1763 211.04 0.25599 8.5586 0.020613
36.375 182.50 0.048646 307.29 312.04 1.3761 473.77 0.0021107 294.09 296.74 1.3267 1.7158 2.8597 641.96 0.0018012 85.980 0.088531 27.553 0.036293 565.52 611.19 2.3426 1.6522 2.1942 210.53 0.25498 8.5978 0.020786
37.375 186.84 0.049739 310.28 315.14 1.3857 472.05 0.0021184 296.87 299.60 1.3357 1.7203 2.8739 635.08 0.0019950 85.040 0.088085 28.252 0.035395 566.44 612.04 2.3419 1.6592 2.2125 210.01 0.25400 8.6376 0.020962
38.375 191.27 0.050851 313.27 318.25 1.3954 470.31 0.0021262 299.66 302.46 1.3447 1.7248 2.8884 628.19 0.0021949 84.105 0.087642 28.967 0.034522 567.35 612.88 2.3411 1.6663 2.2314 209.47 0.25305 8.6780 0.021141
39.375 195.77 0.051983 316.28 321.37 1.4050 468.56 0.0021342 302.46 305.34 1.3537 1.7293 2.9033 621.29 0.0024011 83.177 0.087200 29.699 0.033671 568.26 613.70 2.3404 1.6734 2.2508 208.92 0.25213 8.7190 0.021323
40.375 200.34 0.053135 319.30 324.51 1.4146 466.80 0.0021423 305.27 308.23 1.3627 1.7339 2.9185 614.37 0.0026140 82.254 0.086760 30.447 0.032844 569.15 614.52 2.3396 1.6806 2.2708 208.36 0.25123 8.7608 0.021508
41.375 205.00 0.054308 322.33 327.66 1.4243 465.01 0.0021505 308.10 311.14 1.3718 1.7385 2.9342 607.43 0.0028338 81.338 0.086322 31.214 0.032037 570.04 615.32 2.3389 1.6879 2.2913 207.78 0.25037 8.8032 0.021696
42.375 209.73 0.055502 325.37 330.82 1.4339 463.21 0.0021588 310.94 314.06 1.3808 1.7432 2.9502 600.47 0.0030609 80.426 0.085885 31.998 0.031252 570.92 616.11 2.3381 1.6952 2.3125 207.19 0.24953 8.8463 0.021888
43.375 214.54 0.056718 328.42 334.00 1.4436 461.40 0.0021673 313.79 316.99 1.3899 1.7478 2.9667 593.50 0.0032957 79.520 0.085449 32.800 0.030488 571.79 616.88 2.3373 1.7027 2.3344 206.58 0.24871 8.8902 0.022084
44.375 219.43 0.057954 331.48 337.19 1.4533 459.56 0.0021760 316.65 319.94 1.3989 1.7525 2.9837 586.51 0.0035386 78.619 0.085015 33.622 0.029742 572.65 617.65 2.3365 1.7101 2.3569 205.96 0.24793 8.9349 0.022283
45.375 224.41 0.059213 334.56 340.40 1.4629 457.71 0.0021848 319.52 322.90 1.4080 1.7573 3.0012 579.50 0.0037900 77.723 0.084583 34.463 0.029016 573.50 618.40 2.3357 1.7177 2.3802 205.32 0.24717 8.9805 0.022485
46.375 229.46 0.060495 337.65 343.62 1.4726 455.83 0.0021938 322.41 325.88 1.4171 1.7621 3.0192 572.46 0.0040504 76.832 0.084152 35.325 0.028308 574.34 619.13 2.3349 1.7253 2.4042 204.67 0.24644 9.0269 0.022692
47.375 234.60 0.061799 340.75 346.85 1.4823 453.94 0.0022029 325.31 328.87 1.4262 1.7669 3.0377 565.41 0.0043202 75.946 0.083723 36.208 0.027618 575.17 619.85 2.3340 1.7329 2.4291 204.00 0.24573 9.0742 0.022903
48.375 239.83 0.063127 343.86 350.10 1.4920 452.03 0.0022123 328.22 331.88 1.4353 1.7718 3.0569 558.34 0.0046000 75.064 0.083295 37.112 0.026945 576.00 620.55 2.3332 1.7407 2.4548 203.31 0.24505 9.1224 0.023119
49.375 245.13 0.064478 346.99 353.37 1.5017 450.09 0.0022218 331.15 334.90 1.4445 1.7767 3.0766 551.24 0.0048904 74.186 0.082868 38.039 0.026289 576.81 621.24 2.3323 1.7485 2.4815 202.61 0.24440 9.1716 0.023339
50.375 250.53 0.065854 350.13 356.64 1.5114 448.13 0.0022315 334.09 337.94 1.4536 1.7817 3.0970 544.13 0.0051920 73.313 0.082442 38.989 0.025648 577.61 621.91 2.3314 1.7564 2.5092 201.89 0.24377 9.2219 0.023564
51.375 256.01 0.067254 353.28 359.94 1.5212 446.15 0.0022414 337.04 341.00 1.4628 1.7867 3.1181 536.98 0.0055054 72.443 0.082018 39.962 0.025024 578.39 622.56 2.3304 1.7644 2.5379 201.16 0.24317 9.2733 0.023794
52.375 261.57 0.068679 356.44 363.24 1.5309 444.15 0.0022515 340.01 344.07 1.4720 1.7918 3.1400 529.82 0.0058313 71.577 0.081595 40.961 0.024414 579.17 623.20 2.3295 1.7724 2.5677 200.41 0.24260 9.3258 0.024029
53.375 267.23 0.070130 359.61 366.57 1.5406 442.12 0.0022618 343.00 347.17 1.4812 1.7969 3.1627 522.62 0.0061705 70.715 0.081174 41.985 0.023818 579.93 623.81 2.3285 1.7805 2.5987 199.63 0.24205 9.3795 0.024270
54.375 272.97 0.071607 362.80 369.91 1.5504 440.06 0.0022724 346.00 350.28 1.4904 1.8021 3.1862 515.40 0.0065239 69.856 0.080753 43.036 0.023237 580.68 624.41 2.3274 1.7887 2.6310 198.85 0.24154 9.4344 0.024516
55.375 278.81 0.073110 366.01 373.26 1.5601 437.98 0.0022832 349.02 353.40 1.4997 1.8073 3.2106 508.15 0.0068923 69.001 0.080334 44.114 0.022669 581.41 624.99 2.3264 1.7969 2.6646 198.04 0.24105 9.4907 0.024769
56.375 284.74 0.074640 369.22 376.63 1.5699 435.87 0.0022943 352.05 356.55 1.5090 1.8126 3.2360 500.87 0.0072767 68.148 0.079915 45.221 0.022114 582.13 625.54 2.3253 1.8052 2.6998 197.22 0.24059 9.5484 0.025028
57.375 290.76 0.076198 372.45 380.02 1.5797 433.73 0.0023056 355.10 359.72 1.5183 1.8179 3.2624 493.56 0.0076782 67.299 0.079498 46.358 0.021571 582.83 626.07 2.3241 1.8136 2.7365 196.37 0.24016 9.6075 0.025294
58.375 296.87 0.077783 375.69 383.42 1.5895 431.56 0.0023172 358.17 362.91 1.5276 1.8233 3.2900 486.22 0.0080980 66.451 0.079082 47.525 0.021041 583.52 626.58 2.3230 1.8220 2.7749 195.51 0.23976 9.6682 0.025568
59.375 303.08 0.079397 378.95 386.84 1.5993 429.36 0.0023290 361.25 366.12 1.5370 1.8288 3.3188 478.84 0.0085373 65.606 0.078666 48.726 0.020523 584.18 627.07 2.3218 1.8305 2.8152 194.63 0.23939 9.7305 0.025849
60.375 309.38 0.081040 382.22 390.27 1.6091 427.13 0.0023412 364.36 369.35 1.5464 1.8343 3.3489 471.43 0.0089976 64.763 0.078251 49.960 0.020016 584.83 627.53 2.3205 1.8391 2.8576 193.73 0.23905 9.7945 0.026138
61.375 315.78 0.082713 385.51 393.73 1.6190 424.87 0.0023537 367.48 372.60 1.5558 1.8400 3.3805 463.99 0.0094803 63.922 0.077838 51.229 0.019520 585.46 627.96 2.3192 1.8479 2.9022 192.82 0.23873 9.8603 0.026436
62.375 322.28 0.084415 388.81 397.20 1.6288 422.56 0.0023665 370.62 375.88 1.5653 1.8457 3.4136 456.50 0.0099871 63.083 0.077425 52.535 0.019035 586.07 628.37 2.3178 1.8567 2.9492 191.88 0.23845 9.9281 0.026744
63.375 328.88 0.086148 392.13 400.68 1.6387 420.22 0.0023797 373.79 379.18 1.5748 1.8514 3.4483 448.97 0.010520 62.244 0.077012 53.879 0.018560 586.66 628.74 2.3164 1.8656 2.9989 190.92 0.23819 9.9979 0.027061
64.375 335.58 0.087912 395.46 404.19 1.6486 417.85 0.0023932 376.97 382.51 1.5844 1.8573 3.4850 441.40 0.011081 61.407 0.076600 55.265 0.018095 587.22 629.09 2.3149 1.8747 3.0517 189.95 0.23796 10.070 0.027389
65.375 342.38 0.089707 398.80 407.71 1.6585 415.42 0.0024072 380.18 385.86 1.5939 1.8633 3.5236 433.79 0.011672 60.570 0.076189 56.692 0.017639 587.76 629.40 2.3133 1.8839 3.1077 188.95 0.23775 10.144 0.027729
66.375 349.28 0.091534 402.17 411.25 1.6684 412.96 0.0024215 383.41 389.25 1.6036 1.8693 3.5645 426.12 0.012296 59.733 0.075779 58.165 0.017193 588.28 629.68 2.3117 1.8933 3.1674 187.93 0.23757 10.221 0.028080
67.375 356.28 0.093392 405.54 414.81 1.6783 410.45 0.0024363 386.67 392.65 1.6133 1.8755 3.6078 418.41 0.012956 58.897 0.075368 59.684 0.016755 588.76 629.92 2.3100 1.9030 3.2311 186.89 0.23740 10.300 0.028446
68.375 363.40 0.095282 408.94 418.39 1.6883 407.89 0.0024516 389.95 396.09 1.6230 1.8818 3.6537 410.64 0.013655 58.059 0.074959 61.253 0.016326 589.22 630.13 2.3082 1.9129 3.2994 185.83 0.23724 10.382 0.028825
69.375 370.61 0.097205 412.35 421.99 1.6983 405.28 0.0024674 393.26 399.57 1.6328 1.8882 3.7027 402.81 0.014396 57.221 0.074549 62.875 0.015905 589.65 630.29 2.3064 1.9231 3.3727 184.74 0.23710 10.467 0.029221
70.375 377.94 0.099159 415.78 425.61 1.7083 402.62 0.0024838 396.60 403.07 1.6426 1.8947 3.7550 394.92 0.015183 56.381 0.074141 64.552 0.015491 590.04 630.41 2.3044 1.9336 3.4518 183.63 0.23697 10.555 0.029633
71.375 385.37 0.10115 419.23 429.25 1.7183 399.89 0.0025007 399.96 406.61 1.6525 1.9014 3.8109 386.97 0.016021 55.540 0.073732 66.288 0.015086 590.40 630.49 2.3024 1.9444 3.5371 182.50 0.23684 10.647 0.030064
72.375 392.92 0.10316 422.69 432.91 1.7283 397.11 0.0025182 403.36 410.18 1.6625 1.9083 3.8711 378.95 0.016915 54.696 0.073324 68.087 0.014687 590.73 630.51 2.3002 1.9556 3.6297 181.34 0.23671 10.743 0.030515
73.375 400.57 0.10521 426.17 436.60 1.7384 394.26 0.0025364 406.79 413.80 1.6726 1.9153 3.9359 370.85 0.017871 53.848 0.072917 69.953 0.014295 591.01 630.49 2.2979 1.9673 3.7303 180.16 0.23658 10.842 0.030989
74.375 408.34 0.10729 429.68 440.30 1.7485 391.34 0.0025553 410.26 417.45 1.6827 1.9226 4.0060 362.67 0.018894 52.997 0.072510 71.890 0.013910 591.25 630.41 2.2955 1.9793 3.8401 178.95 0.23643 10.946 0.031488
75.375 416.23 0.10939 433.20 444.03 1.7586 388.34 0.0025751 413.76 421.15 1.6930 1.9301 4.0822 354.41 0.019993 52.142 0.072104 73.904 0.013531 591.44 630.27 2.2930 1.9919 3.9604 177.71 0.23627 11.054 0.032014
76.375 424.23 0.11152 436.74 447.78 1.7688 385.26 0.0025957 417.31 424.90 1.7033 1.9378 4.1654 346.06 0.021177 51.281 0.071699 76.001 0.013158 591.59 630.07 2.2903 2.0050 4.0927 176.44 0.23609 11.168 0.032570
77.375 432.35 0.11368 440.31 451.56 1.7789 382.09 0.0026172 420.89 428.70 1.7137 1.9459 4.2565 337.60 0.022455 50.414 0.071295 78.187 0.012790 591.68 629.80 2.2874 2.0186 4.2389 175.15 0.23588 11.287 0.033161
78.375 440.59 0.11585 443.89 455.36 1.7891 378.83 0.0026397 424.53 432.54 1.7243 1.9543 4.3570 329.05 0.023838 49.539 0.070893 80.469 0.012427 591.71 629.46 2.2844 2.0328 4.4012 173.82 0.23563 11.412 0.033789
79.375 448.95 0.11803 447.50 459.18 1.7994 375.46 0.0026634 428.21 436.45 1.7349 1.9631 4.4684 320.38 0.025341 48.657 0.070494 82.856 0.012069 591.68 629.04 2.2812 2.0475 4.5824 172.46 0.23535 11.544 0.034461
80.375 457.44 0.12022 451.14 463.04 1.8097 371.97 0.0026884 431.94 440.42 1.7457 1.9723 4.5928 311.58 0.026980 47.764 0.070099 85.359 0.011715 591.58 628.53 2.2778 2.0630 4.7859 171.07 0.23501 11.684 0.035181
81.375 466.05 0.12240 454.79 466.92 1.8200 368.36 0.0027147 435.74 444.46 1.7567 1.9820 4.7327 302.66 0.028773 46.860 0.069708 87.988 0.011365 591.40 627.92 2.2742 2.0791 5.0161 169.64 0.23461 11.832 0.035957
82.375 474.79 0.12457 458.48 470.83 1.8304 364.61 0.0027427 439.60 448.58 1.7678 1.9924 4.8914 293.60 0.030744 45.942 0.069323 90.757 0.011018 591.14 627.21 2.2703 2.0959 5.2786 168.17 0.23413 11.989 0.036797
83.375 483.66 0.12670 462.19 474.77 1.8408 360.70 0.0027724 443.53 452.78 1.7791 2.0034 5.0731 284.38 0.032920 45.010 0.068948 93.681 0.010674 590.79 626.38 2.2661 2.1136 5.5807 166.67 0.23357 12.157 0.037711
84.375 492.67 0.12877 465.93 478.75 1.8513 356.61 0.0028041 447.54 457.07 1.7907 2.0153 5.2834 275.00 0.035335 44.059 0.068586 96.781 0.010333 590.33 625.42 2.2616 2.1321 5.9321 165.13 0.23290 12.338 0.038713
85.375 501.81 0.13075 469.70 482.76 1.8618 352.33 0.0028382 451.65 461.47 1.8025 2.0281 5.5302 265.44 0.038030 43.088 0.068241 100.08 0.0099920 589.74 624.31 2.2567 2.1517 6.3459 163.54 0.23209 12.532 0.039819
86.375 511.09 0.13258 473.51 486.81 1.8724 347.82 0.0028751 455.85 465.98 1.8145 2.0420 5.8240 255.69 0.041058 42.092 0.067923 103.61 0.0096520 589.03 623.04 2.2514 2.1723 6.8405 161.91 0.23112 12.743 0.041051
87.375 520.51 0.13421 477.35 490.89 1.8831 343.04 0.0029151 460.18 470.64 1.8269 2.0574 6.1803 245.72 0.044485 41.066 0.067640 107.40 0.0093114 588.15 621.56 2.2456 2.1943 7.4422 160.23 0.22995 12.973 0.042436
88.375 530.07 0.13553 481.23 495.03 1.8939 337.95 0.0029590 464.64 475.45 1.8397 2.0745 6.6221 235.52 0.048397 40.005 0.067412 111.50 0.0089689 587.08 619.86 2.2392 2.2178 8.1900 158.49 0.22854 13.226 0.044014
89.375 539.79 0.13640 485.16 499.20 1.9047 332.48 0.0030077 469.27 480.46 1.8530 2.0936 7.1851 225.04 0.052906 38.901 0.067265 115.97 0.0086228 585.79 617.88 2.2321 2.2433 9.1445 156.69 0.22681 13.508 0.045839
90.375 549.66 0.13656 489.14 503.44 1.9157 326.55 0.0030623 474.10 485.71 1.8669 2.1156 7.9284 214.26 0.058166 37.742 0.067243 120.91 0.0082708 584.22 615.56 2.2241 2.2711 10.405 154.82 0.22467 13.825 0.047992
91.375 559.68 0.13561 493.17 507.73 1.9267 320.03 0.0031247 479.19 491.25 1.8815 2.1412 8.9568 203.11 0.064389 36.514 0.067421 126.43 0.0079097 582.29 612.82 2.2150 2.3019 12.146 152.85 0.22200 14.189 0.050600
92.375 569.87 0.13281 497.27 512.10 1.9380 312.73 0.0031976 484.62 497.18 1.8972 2.1718 10.475 191.54 0.071885 35.195 0.067931 132.72 0.0075346 579.91 609.51 2.2045 2.3370 14.705 150.75 0.21862 14.618 0.053877
93.375 580.24 0.12665 501.46 516.56 1.9494 304.34 0.0032858 490.52 503.67 1.9143 2.2100 12.945 179.43 0.081133 33.755 0.069025 140.11 0.0071373 576.87 605.42 2.1919 2.3779 18.828 148.48 0.21421 15.146 0.058225
94.375 590.79 0.11353 505.76 521.13 1.9611 294.25 0.0033985 497.17 511.01 1.9336 2.2603 17.657 166.61 0.092934 32.154 0.071243 149.20 0.0067025 572.82 600.12 2.1761 2.4283 26.557 145.93 0.20825 15.847 0.064529
95.375 601.53 0.081483 510.23 525.88 1.9733 280.99 0.0035589 505.21 519.97 1.9572 2.3343 30.014 152.73 0.10888 30.366 0.076197 161.45 0.0061937 566.92 592.61 2.1544 2.4956 46.113 142.79 0.19953 16.960 0.075419
96.375 613.07 undefined 514.51 530.46 1.9849 265.00 0.0037736 514.51 530.46 1.9849 2.4237 62.899 141.83 0.12568 29.065 0.084904 265.00 0.0037736 514.51 530.46 1.9849 2.4237 62.899 141.83 0.12568 29.065 0.084904
97.375 626.86 undefined 516.91 533.22 1.9914 265.00 0.0037736 516.91 533.22 1.9914 2.3803 37.737 147.34 0.12015 28.874 0.077728 265.00 0.0037736 516.91 533.22 1.9914 2.3803 37.737 147.34 0.12015 28.874 0.077728
98.375 640.84 undefined 519.27 535.94 1.9977 265.00 0.0037736 519.27 535.94 1.9977 2.3439 27.618 152.32 0.11540 28.350 0.074228 265.00 0.0037736 519.27 535.94 1.9977 2.3439 27.618 152.32 0.11540 28.350 0.074228
99.375 654.99 undefined 521.60 538.64 2.0040 265.00 0.0037736 521.60 538.64 2.0040 2.3137 22.110 156.85 0.11125 28.098 0.071814 265.00 0.0037736 521.60 538.64 2.0040 2.3137 22.110 156.85 0.11125 28.098 0.071814
100.38 669.27 undefined 523.90 541.31 2.0102 265.00 0.0037736 523.90 541.31 2.0102 2.2885 18.623 161.00 0.10754 27.985 0.070000 265.00 0.0037736 523.90 541.31 2.0102 2.2885 18.623 161.00 0.10754 27.985 0.070000
101.38 683.67 undefined 526.18 543.97 2.0163 265.00 0.0037736 526.18 543.97 2.0163 2.2677 16.207 164.83 0.10419 27.942 0.068574 265.00 0.0037736 526.18 543.97 2.0163 2.2677 16.207 164.83 0.10419 27.942 0.068574
102.38 698.18 undefined 528.44 546.60 2.0223 265.00 0.0037736 528.44 546.60 2.0223 2.2505 14.428 168.40 0.10112 27.935 0.067423 265.00 0.0037736 528.44 546.60 2.0223 2.2505 14.428 168.40 0.10112 27.935 0.067423
103.38 712.78 undefined 530.68 549.22 2.0282 265.00 0.0037736 530.68 549.22 2.0282 2.2362 13.060 171.74 0.098282 27.947 0.066477 265.00 0.0037736 530.68 549.22 2.0282 2.2362 13.060 171.74 0.098282 27.947 0.066477
104.38 727.46 undefined 532.91 551.84 2.0342 265.00 0.0037736 532.91 551.84 2.0342 2.2244 11.975 174.89 0.095635 27.968 0.065688 265.00 0.0037736 532.91 551.84 2.0342 2.2244 11.975 174.89 0.095635 27.968 0.065688
105.38 742.22 undefined 535.13 554.44 2.0400 265.00 0.0037736 535.13 554.44 2.0400 2.2146 11.091 177.88 0.093151 27.994 0.065024 265.00 0.0037736 535.13 554.44 2.0400 2.2146 11.091 177.88 0.093151 27.994 0.065024
106.38 757.05 undefined 537.34 557.04 2.0459 265.00 0.0037736 537.34 557.04 2.0459 2.2065 10.358 180.75 0.090808 28.022 0.064461 265.00 0.0037736 537.34 557.04 2.0459 2.2065 10.358 180.75 0.090808 28.022 0.064461
107.38 771.94 undefined 539.54 559.63 2.0517 265.00 0.0037736 539.54 559.63 2.0517 2.1996 9.7392 183.50 0.088590 28.052 0.063979 265.00 0.0037736 539.54 559.63 2.0517 2.1996 9.7392 183.50 0.088590 28.052 0.063979
108.38 786.89 undefined 541.74 562.21 2.0574 265.00 0.0037736 541.74 562.21 2.0574 2.1939 9.2101 186.15 0.086483 28.082 0.063566 265.00 0.0037736 541.74 562.21 2.0574 2.1939 9.2101 186.15 0.086483 28.082 0.063566
109.38 801.89 undefined 543.93 564.79 2.0632 265.00 0.0037736 543.93 564.79 2.0632 2.1891 8.7523 188.73 0.084476 28.112 0.063209 265.00 0.0037736 543.93 564.79 2.0632 2.1891 8.7523 188.73 0.084476 28.112 0.063209
110.38 816.94 undefined 546.12 567.37 2.0689 265.00 0.0037736 546.12 567.37 2.0689 2.1851 8.3524 191.23 0.082559 28.143 0.062901 265.00 0.0037736 546.12 567.37 2.0689 2.1851 8.3524 191.23 0.082559 28.143 0.062901
111.38 832.04 undefined 548.30 569.95 2.0746 265.00 0.0037736 548.30 569.95 2.0746 2.1817 8.0001 193.66 0.080725 28.174 0.062634 265.00 0.0037736 548.30 569.95 2.0746 2.1817 8.0001 193.66 0.080725 28.174 0.062634
112.38 847.18 undefined 550.48 572.52 2.0802 265.00 0.0037736 550.48 572.52 2.0802 2.1789 7.6872 196.05 0.078968 28.204 0.062402 265.00 0.0037736 550.48 572.52 2.0802 2.1789 7.6872 196.05 0.078968 28.204 0.062402
113.38 862.37 undefined 552.66 575.10 2.0859 265.00 0.0037736 552.66 575.10 2.0859 2.1765 7.4076 198.38 0.077282 28.235 0.062201 265.00 0.0037736 552.66 575.10 2.0859 2.1765 7.4076 198.38 0.077282 28.235 0.062201
114.38 877.59 undefined 554.83 577.67 2.0915 265.00 0.0037736 554.83 577.67 2.0915 2.1745 7.1562 200.66 0.075661 28.266 0.062027 265.00 0.0037736 554.83 577.67 2.0915 2.1745 7.1562 200.66 0.075661 28.266 0.062027
115.38 892.85 undefined 557.01 580.24 2.0971 265.00 0.0037736 557.01 580.24 2.0971 2.1729 6.9290 202.90 0.074102 28.296 0.061876 265.00 0.0037736 557.01 580.24 2.0971 2.1729 6.9290 202.90 0.074102 28.296 0.061876
116.38 908.15 undefined 559.18 582.81 2.1027 265.00 0.0037736 559.18 582.81 2.1027 2.1715 6.7225 205.11 0.072601 28.327 0.061747 265.00 0.0037736 559.18 582.81 2.1027 2.1715 6.7225 205.11 0.072601 28.327 0.061747
117.38 923.48 undefined 561.35 585.38 2.1082 265.00 0.0037736 561.35 585.38 2.1082 2.1705 6.5342 207.27 0.071154 28.357 0.061635 265.00 0.0037736 561.35 585.38 2.1082 2.1705 6.5342 207.27 0.071154 28.357 0.061635
118.38 938.84 undefined 563.52 587.95 2.1138 265.00 0.0037736 563.52 587.95 2.1138 2.1698 6.3618 209.40 0.069757 28.388 0.061540 265.00 0.0037736 563.52 587.95 2.1138 2.1698 6.3618 209.40 0.069757 28.388 0.061540
119.38 954.24 undefined 565.69 590.52 2.1193 265.00 0.0037736 565.69 590.52 2.1193 2.1692 6.2032 211.50 0.068407 28.418 0.061459 265.00 0.0037736 565.69 590.52 2.1193 2.1692 6.2032 211.50 0.068407 28.418 0.061459
120.38 969.66 undefined 567.86 593.09 2.1248 265.00 0.0037736 567.86 593.09 2.1248 2.1689 6.0570 213.57 0.067103 28.449 0.061392 265.00 0.0037736 567.86 593.09 2.1248 2.1689 6.0570 213.57 0.067103 28.449 0.061392
121.38 985.12 undefined 570.03 595.66 2.1303 265.00 0.0037736 570.03 595.66 2.1303 2.1688 5.9217 215.61 0.065842 28.479 0.061336 265.00 0.0037736 570.03 595.66 2.1303 2.1688 5.9217 215.61 0.065842 28.479 0.061336
122.38 1000.6 undefined 572.20 598.23 2.1358 265.00 0.0037736 572.20 598.23 2.1358 2.1689 5.7963 217.62 0.064620 28.510 0.061292 265.00 0.0037736 572.20 598.23 2.1358 2.1689 5.7963 217.62 0.064620 28.510 0.061292
123.38 1016.1 undefined 574.37 600.80 2.1413 265.00 0.0037736 574.37 600.80 2.1413 2.1691 5.6796 219.61 0.063437 28.540 0.061257 265.00 0.0037736 574.37 600.80 2.1413 2.1691 5.6796 219.61 0.063437 28.540 0.061257
124.38 1031.6 undefined 576.54 603.38 2.1468 265.00 0.0037736 576.54 603.38 2.1468 2.1695 5.5708 221.57 0.062289 28.570 0.061231 265.00 0.0037736 576.54 603.38 2.1468 2.1695 5.5708 221.57 0.062289 28.570 0.061231
125.38 1047.2 undefined 578.71 605.95 2.1522 265.00 0.0037736 578.71 605.95 2.1522 2.1701 5.4691 223.50 0.061176 28.601 0.061213 265.00 0.0037736 578.71 605.95 2.1522 2.1701 5.4691 223.50 0.061176 28.601 0.061213
126.38 1062.8 undefined 580.88 608.53 2.1577 265.00 0.0037736 580.88 608.53 2.1577 2.1708 5.3740 225.42 0.060096 28.631 0.061203 265.00 0.0037736 580.88 608.53 2.1577 2.1708 5.3740 225.42 0.060096 28.631 0.061203
127.38 1078.4 undefined 583.05 611.10 2.1631 265.00 0.0037736 583.05 611.10 2.1631 2.1717 5.2847 227.31 0.059047 28.661 0.061199 265.00 0.0037736 583.05 611.10 2.1631 2.1717 5.2847 227.31 0.059047 28.661 0.061199
128.38 1094.0 undefined 585.22 613.68 2.1685 265.00 0.0037736 585.22 613.68 2.1685 2.1727 5.2008 229.18 0.058028 28.691 0.061202 265.00 0.0037736 585.22 613.68 2.1685 2.1727 5.2008 229.18 0.058028 28.691 0.061202
129.38 1109.7 undefined 587.39 616.26 2.1739 265.00 0.0037736 587.39 616.26 2.1739 2.1738 5.1218 231.03 0.057037 28.721 0.061211 265.00 0.0037736 587.39 616.26 2.1739 2.1738 5.1218 231.03 0.057037 28.721 0.061211
130.38 1125.3 undefined 589.57 618.85 2.1793 265.00 0.0037736 589.57 618.85 2.1793 2.1750 5.0474 232.86 0.056073 28.752 0.061225 265.00 0.0037736 589.57 618.85 2.1793 2.1750 5.0474 232.86 0.056073 28.752 0.061225
131.38 1141.0 undefined 591.74 621.43 2.1847 265.00 0.0037736 591.74 621.43 2.1847 2.1763 4.9771 234.67 0.055135 28.782 0.061245 265.00 0.0037736 591.74 621.43 2.1847 2.1763 4.9771 234.67 0.055135 28.782 0.061245
132.38 1156.7 undefined 593.92 624.01 2.1901 265.00 0.0037736 593.92 624.01 2.1901 2.1777 4.9106 236.46 0.054222 28.812 0.061269 265.00 0.0037736 593.92 624.01 2.1901 2.1777 4.9106 236.46 0.054222 28.812 0.061269
133.38 1172.4 undefined 596.10 626.60 2.1954 265.00 0.0037736 596.10 626.60 2.1954 2.1793 4.8477 238.23 0.053332 28.842 0.061297 265.00 0.0037736 596.10 626.60 2.1954 2.1793 4.8477 238.23 0.053332 28.842 0.061297
134.38 1188.2 undefined 598.28 629.19 2.2008 265.00 0.0037736 598.28 629.19 2.2008 2.1809 4.7880 239.99 0.052466 28.872 0.061330 265.00 0.0037736 598.28 629.19 2.2008 2.1809 4.7880 239.99 0.052466 28.872 0.061330
135.38 1203.9 undefined 600.46 631.78 2.2061 265.00 0.0037736 600.46 631.78 2.2061 2.1826 4.7314 241.73 0.051621 28.902 0.061366 265.00 0.0037736 600.46 631.78 2.2061 2.1826 4.7314 241.73 0.051621 28.902 0.061366
136.38 1219.7 undefined 602.64 634.38 2.2115 265.00 0.0037736 602.64 634.38 2.2115 2.1844 4.6776 243.46 0.050798 28.932 0.061406 265.00 0.0037736 602.64 634.38 2.2115 2.1844 4.6776 243.46 0.050798 28.932 0.061406
137.38 1235.5 undefined 604.83 636.97 2.2168 265.00 0.0037736 604.83 636.97 2.2168 2.1862 4.6265 245.17 0.049995 28.962 0.061450 265.00 0.0037736 604.83 636.97 2.2168 2.1862 4.6265 245.17 0.049995 28.962 0.061450
138.38 1251.3 undefined 607.02 639.57 2.2221 265.00 0.0037736 607.02 639.57 2.2221 2.1881 4.5778 246.86 0.049211 28.991 0.061496 265.00 0.0037736 607.02 639.57 2.2221 2.1881 4.5778 246.86 0.049211 28.991 0.061496
139.38 1267.1 undefined 609.20 642.17 2.2274 265.00 0.0037736 609.20 642.17 2.2274 2.1901 4.5314 248.54 0.048447 29.021 0.061546 265.00 0.0037736 609.20 642.17 2.2274 2.1901 4.5314 248.54 0.048447 29.021 0.061546
140.38 1282.9 undefined 611.40 644.77 2.2327 265.00 0.0037736 611.40 644.77 2.2327 2.1922 4.4871 250.21 0.047700 29.051 0.061598 265.00 0.0037736 611.40 644.77 2.2327 2.1922 4.4871 250.21 0.047700 29.051 0.061598
141.38 1298.8 undefined 613.59 647.38 2.2380 265.00 0.0037736 613.59 647.38 2.2380 2.1943 4.4449 251.86 0.046971 29.081 0.061653 265.00 0.0037736 613.59 647.38 2.2380 2.1943 4.4449 251.86 0.046971 29.081 0.061653
142.38 1314.6 undefined 615.78 649.99 2.2433 265.00 0.0037736 615.78 649.99 2.2433 2.1965 4.4045 253.50 0.046258 29.111 0.061711 265.00 0.0037736 615.78 649.99 2.2433 2.1965 4.4045 253.50 0.046258 29.111 0.061711
143.38 1330.5 undefined 617.98 652.60 2.2486 265.00 0.0037736 617.98 652.60 2.2486 2.1987 4.3659 255.13 0.045562 29.140 0.061771 265.00 0.0037736 617.98 652.60 2.2486 2.1987 4.3659 255.13 0.045562 29.140 0.061771
144.38 1346.4 undefined 620.18 655.21 2.2539 265.00 0.0037736 620.18 655.21 2.2539 2.2010 4.3290 256.75 0.044882 29.170 0.061833 265.00 0.0037736 620.18 655.21 2.2539 2.2010 4.3290 256.75 0.044882 29.170 0.061833
145.38 1362.2 undefined 622.38 657.83 2.2592 265.00 0.0037736 622.38 657.83 2.2592 2.2034 4.2937 258.35 0.044217 29.200 0.061898 265.00 0.0037736 622.38 657.83 2.2592 2.2034 4.2937 258.35 0.044217 29.200 0.061898
146.38 1378.1 undefined 624.59 660.45 2.2644 265.00 0.0037736 624.59 660.45 2.2644 2.2057 4.2598 259.94 0.043566 29.229 0.061965 265.00 0.0037736 624.59 660.45 2.2644 2.2057 4.2598 259.94 0.043566 29.229 0.061965
147.38 1394.1 undefined 626.80 663.07 2.2697 265.00 0.0037736 626.80 663.07 2.2697 2.2082 4.2273 261.53 0.042930 29.259 0.062033 265.00 0.0037736 626.80 663.07 2.2697 2.2082 4.2273 261.53 0.042930 29.259 0.062033
148.38 1410.0 undefined 629.01 665.69 2.2749 265.00 0.0037736 629.01 665.69 2.2749 2.2106 4.1962 263.09 0.042308 29.288 0.062104 265.00 0.0037736 629.01 665.69 2.2749 2.2106 4.1962 263.09 0.042308 29.288 0.062104
149.38 1425.9 undefined 631.22 668.32 2.2802 265.00 0.0037736 631.22 668.32 2.2802 2.2132 4.1663 264.65 0.041699 29.318 0.062176 265.00 0.0037736 631.22 668.32 2.2802 2.2132 4.1663 264.65 0.041699 29.318 0.062176
150.38 1441.9 undefined 633.43 670.95 2.2854 265.00 0.0037736 633.43 670.95 2.2854 2.2157 4.1376 266.20 0.041102 29.347 0.062250 265.00 0.0037736 633.43 670.95 2.2854 2.2157 4.1376 266.20 0.041102 29.347 0.062250
151.38 1457.8 undefined 635.65 673.58 2.2906 265.00 0.0037736 635.65 673.58 2.2906 2.2183 4.1100 267.74 0.040519 29.377 0.062326 265.00 0.0037736 635.65 673.58 2.2906 2.2183 4.1100 267.74 0.040519 29.377 0.062326
152.38 1473.8 undefined 637.87 676.21 2.2958 265.00 0.0037736 637.87 676.21 2.2958 2.2209 4.0835 269.27 0.039947 29.406 0.062403 265.00 0.0037736 637.87 676.21 2.2958 2.2209 4.0835 269.27 0.039947 29.406 0.062403
153.38 1489.8 undefined 640.09 678.85 2.3011 265.00 0.0037736 640.09 678.85 2.3011 2.2236 4.0580 270.79 0.039387 29.436 0.062482 265.00 0.0037736 640.09 678.85 2.3011 2.2236 4.0580 270.79 0.039387 29.436 0.062482
154.38 1505.7 undefined 642.32 681.49 2.3063 265.00 0.0037736 642.32 681.49 2.3063 2.2262 4.0334 272.30 0.038839 29.465 0.062562 265.00 0.0037736 642.32 681.49 2.3063 2.2262 4.0334 272.30 0.038839 29.465 0.062562
155.38 1521.7 undefined 644.54 684.14 2.3115 265.00 0.0037736 644.54 684.14 2.3115 2.2289 4.0098 273.80 0.038301 29.495 0.062644 265.00 0.0037736 644.54 684.14 2.3115 2.2289 4.0098 273.80 0.038301 29.495 0.062644
156.38 1537.7 undefined 646.77 686.78 2.3167 265.00 0.0037736 646.77 686.78 2.3167 2.2317 3.9870 275.29 0.037775 29.524 0.062727 265.00 0.0037736 646.77 686.78 2.3167 2.2317 3.9870 275.29 0.037775 29.524 0.062727
157.38 1553.7 undefined 649.01 689.43 2.3219 265.00 0.0037736 649.01 689.43 2.3219 2.2344 3.9651 276.77 0.037259 29.553 0.062811 265.00 0.0037736 649.01 689.43 2.3219 2.2344 3.9651 276.77 0.037259 29.553 0.062811
158.38 1569.7 undefined 651.24 692.08 2.3271 265.00 0.0037736 651.24 692.08 2.3271 2.2372 3.9439 278.24 0.036753 29.582 0.062897 265.00 0.0037736 651.24 692.08 2.3271 2.2372 3.9439 278.24 0.036753 29.582 0.062897
159.38 1585.8 undefined 653.48 694.74 2.3322 265.00 0.0037736 653.48 694.74 2.3322 2.2400 3.9235 279.71 0.036256 29.612 0.062984 265.00 0.0037736 653.48 694.74 2.3322 2.2400 3.9235 279.71 0.036256 29.612 0.062984
160.38 1601.8 undefined 655.72 697.40 2.3374 265.00 0.0037736 655.72 697.40 2.3374 2.2429 3.9038 281.16 0.035770 29.641 0.063072 265.00 0.0037736 655.72 697.40 2.3374 2.2429 3.9038 281.16 0.035770 29.641 0.063072
161.38 1617.8 undefined 657.97 700.06 2.3426 265.00 0.0037736 657.97 700.06 2.3426 2.2457 3.8848 282.61 0.035292 29.670 0.063161 265.00 0.0037736 657.97 700.06 2.3426 2.2457 3.8848 282.61 0.035292 29.670 0.063161
162.38 1633.9 undefined 660.21 702.72 2.3477 265.00 0.0037736 660.21 702.72 2.3477 2.2486 3.8665 284.05 0.034824 29.699 0.063251 265.00 0.0037736 660.21 702.72 2.3477 2.2486 3.8665 284.05 0.034824 29.699 0.063251
163.38 1649.9 undefined 662.46 705.39 2.3529 265.00 0.0037736 662.46 705.39 2.3529 2.2515 3.8488 285.49 0.034365 29.728 0.063342 265.00 0.0037736 662.46 705.39 2.3529 2.2515 3.8488 285.49 0.034365 29.728 0.063342
164.38 1666.0 undefined 664.72 708.06 2.3581 265.00 0.0037736 664.72 708.06 2.3581 2.2544 3.8317 286.91 0.033914 29.757 0.063435 265.00 0.0037736 664.72 708.06 2.3581 2.2544 3.8317 286.91 0.033914 29.757 0.063435
165.38 1682.0 undefined 666.97 710.74 2.3632 265.00 0.0037736 666.97 710.74 2.3632 2.2574 3.8152 288.33 0.033471 29.786 0.063528 265.00 0.0037736 666.97 710.74 2.3632 2.2574 3.8152 288.33 0.033471 29.786 0.063528
166.38 1698.1 undefined 669.23 713.41 2.3684 265.00 0.0037736 669.23 713.41 2.3684 2.2603 3.7992 289.74 0.033037 29.815 0.063622 265.00 0.0037736 669.23 713.41 2.3684 2.2603 3.7992 289.74 0.033037 29.815 0.063622
167.38 1714.2 undefined 671.49 716.09 2.3735 265.00 0.0037736 671.49 716.09 2.3735 2.2633 3.7838 291.14 0.032611 29.844 0.063717 265.00 0.0037736 671.49 716.09 2.3735 2.2633 3.7838 291.14 0.032611 29.844 0.063717
168.38 1730.3 undefined 673.76 718.78 2.3786 265.00 0.0037736 673.76 718.78 2.3786 2.2663 3.7688 292.53 0.032192 29.873 0.063813 265.00 0.0037736 673.76 718.78 2.3786 2.2663 3.7688 292.53 0.032192 29.873 0.063813
169.38 1746.4 undefined 676.03 721.46 2.3838 265.00 0.0037736 676.03 721.46 2.3838 2.2693 3.7544 293.92 0.031780 29.902 0.063910 265.00 0.0037736 676.03 721.46 2.3838 2.2693 3.7544 293.92 0.031780 29.902 0.063910
170.38 1762.5 undefined 678.30 724.15 2.3889 265.00 0.0037736 678.30 724.15 2.3889 2.2723 3.7404 295.30 0.031376 29.931 0.064008 265.00 0.0037736 678.30 724.15 2.3889 2.2723 3.7404 295.30 0.031376 29.931 0.064008
171.38 1778.6 undefined 680.57 726.84 2.3940 265.00 0.0037736 680.57 726.84 2.3940 2.2753 3.7269 296.68 0.030980 29.960 0.064107 265.00 0.0037736 680.57 726.84 2.3940 2.2753 3.7269 296.68 0.030980 29.960 0.064107
172.38 1794.7 undefined 682.85 729.54 2.3991 265.00 0.0037736 682.85 729.54 2.3991 2.2783 3.7138 298.04 0.030590 29.989 0.064207 265.00 0.0037736 682.85 729.54 2.3991 2.2783 3.7138 298.04 0.030590 29.989 0.064207
173.38 1810.8 undefined 685.13 732.24 2.4042 265.00 0.0037736 685.13 732.24 2.4042 2.2814 3.7011 299.40 0.030207 30.017 0.064307 265.00 0.0037736 685.13 732.24 2.4042 2.2814 3.7011 299.40 0.030207 30.017 0.064307
174.38 1826.9 undefined 687.41 734.94 2.4093 265.00 0.0037736 687.41 734.94 2.4093 2.2844 3.6889 300.76 0.029830 30.046 0.064408 265.00 0.0037736 687.41 734.94 2.4093 2.2844 3.6889 300.76 0.029830 30.046 0.064408
175.38 1843.0 undefined 689.70 737.65 2.4144 265.00 0.0037736 689.70 737.65 2.4144 2.2875 3.6770 302.10 0.029460 30.075 0.064510 265.00 0.0037736 689.70 737.65 2.4144 2.2875 3.6770 302.10 0.029460 30.075 0.064510
176.38 1859.1 undefined 691.98 740.36 2.4195 265.00 0.0037736 691.98 740.36 2.4195 2.2906 3.6655 303.45 0.029096 30.104 0.064612 265.00 0.0037736 691.98 740.36 2.4195 2.2906 3.6655 303.45 0.029096 30.104 0.064612
177.38 1875.2 undefined 694.28 743.07 2.4246 265.00 0.0037736 694.28 743.07 2.4246 2.2937 3.6543 304.78 0.028739 30.132 0.064716 265.00 0.0037736 694.28 743.07 2.4246 2.2937 3.6543 304.78 0.028739 30.132 0.064716
178.38 1891.4 undefined 696.57 745.78 2.4297 265.00 0.0037736 696.57 745.78 2.4297 2.2968 3.6435 306.11 0.028387 30.161 0.064820 265.00 0.0037736 696.57 745.78 2.4297 2.2968 3.6435 306.11 0.028387 30.161 0.064820
179.38 1907.5 undefined 698.87 748.50 2.4348 265.00 0.0037736 698.87 748.50 2.4348 2.2999 3.6330 307.43 0.028041 30.190 0.064925 265.00 0.0037736 698.87 748.50 2.4348 2.2999 3.6330 307.43 0.028041 30.190 0.064925
180.38 1923.6 undefined 701.17 751.22 2.4399 265.00 0.0037736 701.17 751.22 2.4399 2.3030 3.6229 308.75 0.027701 30.218 0.065030 265.00 0.0037736 701.17 751.22 2.4399 2.3030 3.6229 308.75 0.027701 30.218 0.065030
181.38 1939.8 undefined 703.48 753.95 2.4450 265.00 0.0037736 703.48 753.95 2.4450 2.3062 3.6131 310.06 0.027367 30.247 0.065136 265.00 0.0037736 703.48 753.95 2.4450 2.3062 3.6131 310.06 0.027367 30.247 0.065136
182.38 1955.9 undefined 705.78 756.67 2.4500 265.00 0.0037736 705.78 756.67 2.4500 2.3093 3.6035 311.36 0.027038 30.275 0.065243 265.00 0.0037736 705.78 756.67 2.4500 2.3093 3.6035 311.36 0.027038 30.275 0.065243
183.38 1972.1 undefined 708.10 759.40 2.4551 265.00 0.0037736 708.10 759.40 2.4551 2.3125 3.5943 312.66 0.026714 30.304 0.065350 265.00 0.0037736 708.10 759.40 2.4551 2.3125 3.5943 312.66 0.026714 30.304 0.065350
184.38 1988.2 undefined 710.41 762.14 2.4602 265.00 0.0037736 710.41 762.14 2.4602 2.3156 3.5853 313.96 0.026396 30.332 0.065458 265.00 0.0037736 710.41 762.14 2.4602 2.3156 3.5853 313.96 0.026396 30.332 0.065458
185.38 2004.4 undefined 712.73 764.88 2.4652 265.00 0.0037736 712.73 764.88 2.4652 2.3188 3.5766 315.24 0.026082 30.361 0.065567 265.00 0.0037736 712.73 764.88 2.4652 2.3188 3.5766 315.24 0.026082 30.361 0.065567
186.38 2020.6 undefined 715.05 767.62 2.4703 265.00 0.0037736 715.05 767.62 2.4703 2.3220 3.5682 316.53 0.025774 30.389 0.065676 265.00 0.0037736 715.05 767.62 2.4703 2.3220 3.5682 316.53 0.025774 30.389 0.065676
187.38 2036.7 undefined 717.37 770.36 2.4753 265.00 0.0037736 717.37 770.36 2.4753 2.3251 3.5600 317.80 0.025470 30.417 0.065786 265.00 0.0037736 717.37 770.36 2.4753 2.3251 3.5600 317.80 0.025470 30.417 0.065786
188.38 2052.9 undefined 719.70 773.11 2.4804 265.00 0.0037736 719.70 773.11 2.4804 2.3283 3.5521 319.08 0.025171 30.446 0.065896 265.00 0.0037736 719.70 773.11 2.4804 2.3283 3.5521 319.08 0.025171 30.446 0.065896
189.38 2069.0 undefined 722.03 775.86 2.4854 265.00 0.0037736 722.03 775.86 2.4854 2.3315 3.5444 320.34 0.024877 30.474 0.066007 265.00 0.0037736 722.03 775.86 2.4854 2.3315 3.5444 320.34 0.024877 30.474 0.066007
190.38 2085.2 undefined 724.36 778.61 2.4905 265.00 0.0037736 724.36 778.61 2.4905 2.3347 3.5369 321.60 0.024588 30.502 0.066119 265.00 0.0037736 724.36 778.61 2.4905 2.3347 3.5369 321.60 0.024588 30.502 0.066119
191.38 2101.4 undefined 726.70 781.37 2.4955 265.00 0.0037736 726.70 781.37 2.4955 2.3379 3.5297 322.86 0.024302 30.531 0.066231 265.00 0.0037736 726.70 781.37 2.4955 2.3379 3.5297 322.86 0.024302 30.531 0.066231
192.38 2117.6 undefined 729.04 784.13 2.5005 265.00 0.0037736 729.04 784.13 2.5005 2.3411 3.5226 324.11 0.024022 30.559 0.066343 265.00 0.0037736 729.04 784.13 2.5005 2.3411 3.5226 324.11 0.024022 30.559 0.066343
193.38 2133.8 undefined 731.38 786.89 2.5056 265.00 0.0037736 731.38 786.89 2.5056 2.3444 3.5158 325.35 0.023745 30.587 0.066457 265.00 0.0037736 731.38 786.89 2.5056 2.3444 3.5158 325.35 0.023745 30.587 0.066457
194.38 2149.9 undefined 733.72 789.66 2.5106 265.00 0.0037736 733.72 789.66 2.5106 2.3476 3.5092 326.59 0.023473 30.615 0.066570 265.00 0.0037736 733.72 789.66 2.5106 2.3476 3.5092 326.59 0.023473 30.615 0.066570
195.38 2166.1 undefined 736.07 792.43 2.5156 265.00 0.0037736 736.07 792.43 2.5156 2.3508 3.5028 327.83 0.023204 30.643 0.066684 265.00 0.0037736 736.07 792.43 2.5156 2.3508 3.5028 327.83 0.023204 30.643 0.066684
196.38 2182.3 undefined 738.43 795.21 2.5206 265.00 0.0037736 738.43 795.21 2.5206 2.3540 3.4966 329.06 0.022940 30.671 0.066799 265.00 0.0037736 738.43 795.21 2.5206 2.3540 3.4966 329.06 0.022940 30.671 0.066799
197.38 2198.5 undefined 740.78 797.98 2.5256 265.00 0.0037736 740.78 797.98 2.5256 2.3573 3.4905 330.28 0.022680 30.699 0.066914 265.00 0.0037736 740.78 797.98 2.5256 2.3573 3.4905 330.28 0.022680 30.699 0.066914
198.38 2214.7 undefined 743.14 800.76 2.5306 265.00 0.0037736 743.14 800.76 2.5306 2.3605 3.4847 331.50 0.022423 30.728 0.067030 265.00 0.0037736 743.14 800.76 2.5306 2.3605 3.4847 331.50 0.022423 30.728 0.067030
199.38 2230.9 undefined 745.50 803.55 2.5356 265.00 0.0037736 745.50 803.55 2.5356 2.3638 3.4790 332.72 0.022170 30.756 0.067146 265.00 0.0037736 745.50 803.55 2.5356 2.3638 3.4790 332.72 0.022170 30.756 0.067146
200.38 2247.1 undefined 747.87 806.33 2.5406 265.00 0.0037736 747.87 806.33 2.5406 2.3670 3.4735 333.93 0.021921 30.784 0.067263 265.00 0.0037736 747.87 806.33 2.5406 2.3670 3.4735 333.93 0.021921 30.784 0.067263
201.38 2263.3 undefined 750.24 809.12 2.5456 265.00 0.0037736 750.24 809.12 2.5456 2.3703 3.4682 335.14 0.021675 30.811 0.067380 265.00 0.0037736 750.24 809.12 2.5456 2.3703 3.4682 335.14 0.021675 30.811 0.067380
202.38 2279.5 undefined 752.61 811.92 2.5506 265.00 0.0037736 752.61 811.92 2.5506 2.3735 3.4630 336.34 0.021433 30.839 0.067497 265.00 0.0037736 752.61 811.92 2.5506 2.3735 3.4630 336.34 0.021433 30.839 0.067497
203.38 2295.7 undefined 754.98 814.71 2.5556 265.00 0.0037736 754.98 814.71 2.5556 2.3768 3.4580 337.54 0.021195 30.867 0.067615 265.00 0.0037736 754.98 814.71 2.5556 2.3768 3.4580 337.54 0.021195 30.867 0.067615
204.38 2311.9 undefined 757.36 817.51 2.5606 265.00 0.0037736 757.36 817.51 2.5606 2.3801 3.4531 338.73 0.020960 30.895 0.067734 265.00 0.0037736 757.36 817.51 2.5606 2.3801 3.4531 338.73 0.020960 30.895 0.067734
205.38 2328.1 undefined 759.74 820.32 2.5656 265.00 0.0037736 759.74 820.32 2.5656 2.3833 3.4484 339.92 0.020728 30.923 0.067853 265.00 0.0037736 759.74 820.32 2.5656 2.3833 3.4484 339.92 0.020728 30.923 0.067853
206.38 2344.3 undefined 762.13 823.12 2.5706 265.00 0.0037736 762.13 823.12 2.5706 2.3866 3.4438 341.10 0.020499 30.951 0.067972 265.00 0.0037736 762.13 823.12 2.5706 2.3866 3.4438 341.10 0.020499 30.951 0.067972
207.38 2360.5 undefined 764.52 825.93 2.5755 265.00 0.0037736 764.52 825.93 2.5755 2.3899 3.4394 342.28 0.020274 30.979 0.068092 265.00 0.0037736 764.52 825.93 2.5755 2.3899 3.4394 342.28 0.020274 30.979 0.068092
208.38 2376.7 undefined 766.91 828.75 2.5805 265.00 0.0037736 766.91 828.75 2.5805 2.3932 3.4351 343.46 0.020052 31.006 0.068212 265.00 0.0037736 766.91 828.75 2.5805 2.3932 3.4351 343.46 0.020052 31.006 0.068212
209.38 2392.9 undefined 769.30 831.56 2.5855 265.00 0.0037736 769.30 831.56 2.5855 2.3965 3.4309 344.63 0.019832 31.034 0.068333 265.00 0.0037736 769.30 831.56 2.5855 2.3965 3.4309 344.63 0.019832 31.034 0.068333
210.38 2409.1 undefined 771.70 834.38 2.5904 265.00 0.0037736 771.70 834.38 2.5904 2.3997 3.4269 345.79 0.019616 31.062 0.068454 265.00 0.0037736 771.70 834.38 2.5904 2.3997 3.4269 345.79 0.019616 31.062 0.068454
211.38 2425.3 undefined 774.10 837.21 2.5954 265.00 0.0037736 774.10 837.21 2.5954 2.4030 3.4229 346.96 0.019403 31.089 0.068575 265.00 0.0037736 774.10 837.21 2.5954 2.4030 3.4229 346.96 0.019403 31.089 0.068575
212.38 2441.5 undefined 776.51 840.03 2.6004 265.00 0.0037736 776.51 840.03 2.6004 2.4063 3.4192 348.12 0.019193 31.117 0.068697 265.00 0.0037736 776.51 840.03 2.6004 2.4063 3.4192 348.12 0.019193 31.117 0.068697
213.38 2457.7 undefined 778.92 842.86 2.6053 265.00 0.0037736 778.92 842.86 2.6053 2.4096 3.4155 349.27 0.018985 31.145 0.068819 265.00 0.0037736 778.92 842.86 2.6053 2.4096 3.4155 349.27 0.018985 31.145 0.068819
214.38 2474.0 undefined 781.33 845.69 2.6103 265.00 0.0037736 781.33 845.69 2.6103 2.4129 3.4119 350.42 0.018780 31.172 0.068942 265.00 0.0037736 781.33 845.69 2.6103 2.4129 3.4119 350.42 0.018780 31.172 0.068942
215.38 2490.2 undefined 783.74 848.53 2.6152 265.00 0.0037736 783.74 848.53 2.6152 2.4162 3.4085 351.57 0.018579 31.200 0.069065 265.00 0.0037736 783.74 848.53 2.6152 2.4162 3.4085 351.57 0.018579 31.200 0.069065
216.38 2506.4 undefined 786.16 851.37 2.6202 265.00 0.0037736 786.16 851.37 2.6202 2.4195 3.4052 352.71 0.018379 31.227 0.069188 265.00 0.0037736 786.16 851.37 2.6202 2.4195 3.4052 352.71 0.018379 31.227 0.069188
217.38 2522.6 undefined 788.58 854.21 2.6251 265.00 0.0037736 788.58 854.21 2.6251 2.4228 3.4020 353.85 0.018183 31.255 0.069312 265.00 0.0037736 788.58 854.21 2.6251 2.4228 3.4020 353.85 0.018183 31.255 0.069312
218.38 2538.8 undefined 791.01 857.06 2.6300 265.00 0.0037736 791.01 857.06 2.6300 2.4261 3.3988 354.98 0.017989 31.282 0.069436 265.00 0.0037736 791.01 857.06 2.6300 2.4261 3.3988 354.98 0.017989 31.282 0.069436
219.38 2555.0 undefined 793.43 859.91 2.6350 265.00 0.0037736 793.43 859.91 2.6350 2.4294 3.3958 356.11 0.017797 31.310 0.069561 265.00 0.0037736 793.43 859.91 2.6350 2.4294 3.3958 356.11 0.017797 31.310 0.069561
220.38 2571.2 undefined 795.86 862.76 2.6399 265.00 0.0037736 795.86 862.76 2.6399 2.4328 3.3929 357.24 0.017608 31.337 0.069686 265.00 0.0037736 795.86 862.76 2.6399 2.4328 3.3929 357.24 0.017608 31.337 0.069686
221.38 2587.5 undefined 798.30 865.62 2.6448 265.00 0.0037736 798.30 865.62 2.6448 2.4361 3.3901 358.36 0.017422 31.365 0.069811 265.00 0.0037736 798.30 865.62 2.6448 2.4361 3.3901 358.36 0.017422 31.365 0.069811
222.38 2603.7 undefined 800.74 868.48 2.6498 265.00 0.0037736 800.74 868.48 2.6498 2.4394 3.3874 359.48 0.017238 31.392 0.069936 265.00 0.0037736 800.74 868.48 2.6498 2.4394 3.3874 359.48 0.017238 31.392 0.069936
223.38 2619.9 undefined 803.18 871.34 2.6547 265.00 0.0037736 803.18 871.34 2.6547 2.4427 3.3848 360.59 0.017056 31.419 0.070062 265.00 0.0037736 803.18 871.34 2.6547 2.4427 3.3848 360.59 0.017056 31.419 0.070062
224.38 2636.1 undefined 805.62 874.21 2.6596 265.00 0.0037736 805.62 874.21 2.6596 2.4460 3.3823 361.70 0.016876 31.447 0.070189 265.00 0.0037736 805.62 874.21 2.6596 2.4460 3.3823 361.70 0.016876 31.447 0.070189
225.38 2652.3 undefined 808.07 877.08 2.6645 265.00 0.0037736 808.07 877.08 2.6645 2.4493 3.3798 362.81 0.016699 31.474 0.070315 265.00 0.0037736 808.07 877.08 2.6645 2.4493 3.3798 362.81 0.016699 31.474 0.070315
226.38 2668.6 undefined 810.52 879.95 2.6694 265.00 0.0037736 810.52 879.95 2.6694 2.4527 3.3775 363.91 0.016524 31.501 0.070442 265.00 0.0037736 810.52 879.95 2.6694 2.4527 3.3775 363.91 0.016524 31.501 0.070442
227.38 2684.8 undefined 812.97 882.83 2.6743 265.00 0.0037736 812.97 882.83 2.6743 2.4560 3.3752 365.01 0.016352 31.528 0.070569 265.00 0.0037736 812.97 882.83 2.6743 2.4560 3.3752 365.01 0.016352 31.528 0.070569
228.38 2701.0 undefined 815.43 885.71 2.6792 265.00 0.0037736 815.43 885.71 2.6792 2.4593 3.3730 366.11 0.016181 31.555 0.070697 265.00 0.0037736 815.43 885.71 2.6792 2.4593 3.3730 366.11 0.016181 31.555 0.070697
229.38 2717.2 undefined 817.89 888.59 2.6841 265.00 0.0037736 817.89 888.59 2.6841 2.4626 3.3709 367.20 0.016013 31.583 0.070825 265.00 0.0037736 817.89 888.59 2.6841 2.4626 3.3709 367.20 0.016013 31.583 0.070825
230.38 2733.4 undefined 820.36 891.48 2.6890 265.00 0.0037736 820.36 891.48 2.6890 2.4660 3.3689 368.29 0.015847 31.610 0.070953 265.00 0.0037736 820.36 891.48 2.6890 2.4660 3.3689 368.29 0.015847 31.610 0.070953
231.38 2749.6 undefined 822.83 894.37 2.6939 265.00 0.0037736 822.83 894.37 2.6939 2.4693 3.3670 369.38 0.015682 31.637 0.071082 265.00 0.0037736 822.83 894.37 2.6939 2.4693 3.3670 369.38 0.015682 31.637 0.071082
232.38 2765.9 undefined 825.30 897.26 2.6988 265.00 0.0037736 825.30 897.26 2.6988 2.4726 3.3651 370.46 0.015520 31.664 0.071211 265.00 0.0037736 825.30 897.26 2.6988 2.4726 3.3651 370.46 0.015520 31.664 0.071211
233.38 2782.1 undefined 827.77 900.15 2.7037 265.00 0.0037736 827.77 900.15 2.7037 2.4759 3.3633 371.54 0.015360 31.691 0.071340 265.00 0.0037736 827.77 900.15 2.7037 2.4759 3.3633 371.54 0.015360 31.691 0.071340
234.38 2798.3 undefined 830.25 903.05 2.7086 265.00 0.0037736 830.25 903.05 2.7086 2.4793 3.3616 372.62 0.015202 31.718 0.071469 265.00 0.0037736 830.25 903.05 2.7086 2.4793 3.3616 372.62 0.015202 31.718 0.071469
235.38 2814.5 undefined 832.73 905.96 2.7135 265.00 0.0037736 832.73 905.96 2.7135 2.4826 3.3599 373.69 0.015045 31.745 0.071599 265.00 0.0037736 832.73 905.96 2.7135 2.4826 3.3599 373.69 0.015045 31.745 0.071599
236.38 2830.7 undefined 835.21 908.86 2.7184 265.00 0.0037736 835.21 908.86 2.7184 2.4859 3.3584 374.76 0.014891 31.772 0.071729 265.00 0.0037736 835.21 908.86 2.7184 2.4859 3.3584 374.76 0.014891 31.772 0.071729
237.38 2846.9 undefined 837.70 911.77 2.7232 265.00 0.0037736 837.70 911.77 2.7232 2.4893 3.3569 375.82 0.014738 31.799 0.071859 265.00 0.0037736 837.70 911.77 2.7232 2.4893 3.3569 375.82 0.014738 31.799 0.071859
238.38 2863.2 undefined 840.19 914.69 2.7281 265.00 0.0037736 840.19 914.69 2.7281 2.4926 3.3554 376.89 0.014588 31.826 0.071990 265.00 0.0037736 840.19 914.69 2.7281 2.4926 3.3554 376.89 0.014588 31.826 0.071990
239.38 2879.4 undefined 842.69 917.60 2.7330 265.00 0.0037736 842.69 917.60 2.7330 2.4959 3.3540 377.94 0.014439 31.853 0.072121 265.00 0.0037736 842.69 917.60 2.7330 2.4959 3.3540 377.94 0.014439 31.853 0.072121
240.38 2895.6 undefined 845.18 920.52 2.7379 265.00 0.0037736 845.18 920.52 2.7379 2.4993 3.3527 379.00 0.014292 31.879 0.072252 265.00 0.0037736 845.18 920.52 2.7379 2.4993 3.3527 379.00 0.014292 31.879 0.072252
241.38 2911.8 undefined 847.68 923.44 2.7427 265.00 0.0037736 847.68 923.44 2.7427 2.5026 3.3515 380.05 0.014146 31.906 0.072383 265.00 0.0037736 847.68 923.44 2.7427 2.5026 3.3515 380.05 0.014146 31.906 0.072383
242.38 2928.0 undefined 850.19 926.37 2.7476 265.00 0.0037736 850.19 926.37 2.7476 2.5059 3.3503 381.10 0.014002 31.933 0.072515 265.00 0.0037736 850.19 926.37 2.7476 2.5059 3.3503 381.10 0.014002 31.933 0.072515
243.38 2944.2 undefined 852.70 929.30 2.7524 265.00 0.0037736 852.70 929.30 2.7524 2.5093 3.3492 382.15 0.013860 31.960 0.072647 265.00 0.0037736 852.70 929.30 2.7524 2.5093 3.3492 382.15 0.013860 31.960 0.072647
244.38 2960.4 undefined 855.21 932.23 2.7573 265.00 0.0037736 855.21 932.23 2.7573 2.5126 3.3481 383.19 0.013720 31.987 0.072779 265.00 0.0037736 855.21 932.23 2.7573 2.5126 3.3481 383.19 0.013720 31.987 0.072779
245.38 2976.6 undefined 857.72 935.17 2.7622 265.00 0.0037736 857.72 935.17 2.7622 2.5159 3.3471 384.23 0.013581 32.013 0.072911 265.00 0.0037736 857.72 935.17 2.7622 2.5159 3.3471 384.23 0.013581 32.013 0.072911
246.38 2992.9 undefined 860.24 938.11 2.7670 265.00 0.0037736 860.24 938.11 2.7670 2.5193 3.3461 385.27 0.013444 32.040 0.073043 265.00 0.0037736 860.24 938.11 2.7670 2.5193 3.3461 385.27 0.013444 32.040 0.073043
247.38 3009.1 undefined 862.76 941.05 2.7719 265.00 0.0037736 862.76 941.05 2.7719 2.5226 3.3452 386.30 0.013309 32.067 0.073176 265.00 0.0037736 862.76 941.05 2.7719 2.5226 3.3452 386.30 0.013309 32.067 0.073176
248.38 3025.3 undefined 865.28 944.00 2.7767 265.00 0.0037736 865.28 944.00 2.7767 2.5259 3.3444 387.33 0.013175 32.093 0.073309 265.00 0.0037736 865.28 944.00 2.7767 2.5259 3.3444 387.33 0.013175 32.093 0.073309
249.38 3041.5 undefined 867.81 946.95 2.7815 265.00 0.0037736 867.81 946.95 2.7815 2.5293 3.3436 388.36 0.013042 32.120 0.073442 265.00 0.0037736 867.81 946.95 2.7815 2.5293 3.3436 388.36 0.013042 32.120 0.073442
250.38 3057.7 undefined 870.34 949.90 2.7864 265.00 0.0037736 870.34 949.90 2.7864 2.5326 3.3428 389.38 0.012912 32.146 0.073575 265.00 0.0037736 870.34 949.90 2.7864 2.5326 3.3428 389.38 0.012912 32.146 0.073575
251.38 3073.9 undefined 872.88 952.85 2.7912 265.00 0.0037736 872.88 952.85 2.7912 2.5359 3.3421 390.41 0.012782 32.173 0.073709 265.00 0.0037736 872.88 952.85 2.7912 2.5359 3.3421 390.41 0.012782 32.173 0.073709
252.38 3090.1 undefined 875.42 955.81 2.7961 265.00 0.0037736 875.42 955.81 2.7961 2.5393 3.3415 391.42 0.012654 32.199 0.073843 265.00 0.0037736 875.42 955.81 2.7961 2.5393 3.3415 391.42 0.012654 32.199 0.073843
253.38 3106.3 undefined 877.96 958.78 2.8009 265.00 0.0037736 877.96 958.78 2.8009 2.5426 3.3409 392.44 0.012528 32.226 0.073976 265.00 0.0037736 877.96 958.78 2.8009 2.5426 3.3409 392.44 0.012528 32.226 0.073976
254.38 3122.5 undefined 880.50 961.74 2.8057 265.00 0.0037736 880.50 961.74 2.8057 2.5460 3.3404 393.45 0.012403 32.252 0.074110 265.00 0.0037736 880.50 961.74 2.8057 2.5460 3.3404 393.45 0.012403 32.252 0.074110
255.38 3138.7 undefined 883.05 964.71 2.8105 265.00 0.0037736 883.05 964.71 2.8105 2.5493 3.3399 394.46 0.012279 32.279 0.074244 265.00 0.0037736 883.05 964.71 2.8105 2.5493 3.3399 394.46 0.012279 32.279 0.074244
256.38 3154.9 undefined 885.60 967.68 2.8154 265.00 0.0037736 885.60 967.68 2.8154 2.5526 3.3394 395.47 0.012157 32.305 0.074378 265.00 0.0037736 885.60 967.68 2.8154 2.5526 3.3394 395.47 0.012157 32.305 0.074378
257.38 3171.1 undefined 888.15 970.66 2.8202 265.00 0.0037736 888.15 970.66 2.8202 2.5559 3.3390 396.47 0.012036 32.332 0.074513 265.00 0.0037736 888.15 970.66 2.8202 2.5559 3.3390 396.47 0.012036 32.332 0.074513
258.38 3187.3 undefined 890.71 973.64 2.8250 265.00 0.0037736 890.71 973.64 2.8250 2.5593 3.3387 397.47 0.011916 32.358 0.074647 265.00 0.0037736 890.71 973.64 2.8250 2.5593 3.3387 397.47 0.011916 32.358 0.074647
259.38 3203.5 undefined 893.27 976.62 2.8298 265.00 0.0037736 893.27 976.62 2.8298 2.5626 3.3383 398.47 0.011798 32.384 0.074781 265.00 0.0037736 893.27 976.62 2.8298 2.5626 3.3383 398.47 0.011798 32.384 0.074781
260.38 3219.7 undefined 895.84 979.61 2.8346 265.00 0.0037736 895.84 979.61 2.8346 2.5659 3.3381 399.47 0.011681 32.410 0.074915 265.00 0.0037736 895.84 979.61 2.8346 2.5659 3.3381 399.47 0.011681 32.410 0.074915
261.38 3235.9 undefined 898.40 982.59 2.8394 265.00 0.0037736 898.40 982.59 2.8394 2.5693 3.3378 400.46 0.011565 32.437 0.075050 265.00 0.0037736 898.40 982.59 2.8394 2.5693 3.3378 400.46 0.011565 32.437 0.075050
262.38 3252.1 undefined 900.97 985.59 2.8442 265.00 0.0037736 900.97 985.59 2.8442 2.5726 3.3376 401.45 0.011451 32.463 0.075184 265.00 0.0037736 900.97 985.59 2.8442 2.5726 3.3376 401.45 0.011451 32.463 0.075184
263.38 3268.3 undefined 903.55 988.58 2.8490 265.00 0.0037736 903.55 988.58 2.8490 2.5759 3.3375 402.44 0.011338 32.489 0.075318 265.00 0.0037736 903.55 988.58 2.8490 2.5759 3.3375 402.44 0.011338 32.489 0.075318
264.38 3284.5 undefined 906.13 991.58 2.8538 265.00 0.0037736 906.13 991.58 2.8538 2.5793 3.3374 403.42 0.011226 32.515 0.075452 265.00 0.0037736 906.13 991.58 2.8538 2.5793 3.3374 403.42 0.011226 32.515 0.075452
265.38 3300.6 undefined 908.71 994.58 2.8586 265.00 0.0037736 908.71 994.58 2.8586 2.5826 3.3373 404.41 0.011115 32.541 0.075586 265.00 0.0037736 908.71 994.58 2.8586 2.5826 3.3373 404.41 0.011115 32.541 0.075586
266.38 3316.8 undefined 911.29 997.59 2.8634 265.00 0.0037736 911.29 997.59 2.8634 2.5859 3.3373 405.39 0.011005 32.568 0.075720 265.00 0.0037736 911.29 997.59 2.8634 2.5859 3.3373 405.39 0.011005 32.568 0.075720
267.38 3333.0 undefined 913.88 1000.6 2.8682 265.00 0.0037736 913.88 1000.6 2.8682 2.5892 3.3373 406.36 0.010897 32.594 0.075854 265.00 0.0037736 913.88 1000.6 2.8682 2.5892 3.3373 406.36 0.010897 32.594 0.075854
268.38 3349.2 undefined 916.47 1003.6 2.8730 265.00 0.0037736 916.47 1003.6 2.8730 2.5926 3.3373 407.34 0.010790 32.620 0.075987 265.00 0.0037736 916.47 1003.6 2.8730 2.5926 3.3373 407.34 0.010790 32.620 0.075987
269.38 3365.4 undefined 919.06 1006.6 2.8778 265.00 0.0037736 919.06 1006.6 2.8778 2.5959 3.3374 408.31 0.010684 32.646 0.076120 265.00 0.0037736 919.06 1006.6 2.8778 2.5959 3.3374 408.31 0.010684 32.646 0.076120
270.38 3381.6 undefined 921.66 1009.6 2.8826 265.00 0.0037736 921.66 1009.6 2.8826 2.5992 3.3375 409.28 0.010579 32.672 0.076252 265.00 0.0037736 921.66 1009.6 2.8826 2.5992 3.3375 409.28 0.010579 32.672 0.076252
271.38 3397.7 undefined 924.26 1012.7 2.8874 265.00 0.0037736 924.26 1012.7 2.8874 2.6025 3.3377 410.24 0.010475 32.698 0.076384 265.00 0.0037736 924.26 1012.7 2.8874 2.6025 3.3377 410.24 0.010475 32.698 0.076384
272.38 3413.9 undefined 926.87 1015.7 2.8921 265.00 0.0037736 926.87 1015.7 2.8921 2.6058 3.3378 411.21 0.010372 32.724 0.076515 265.00 0.0037736 926.87 1015.7 2.8921 2.6058 3.3378 411.21 0.010372 32.724 0.076515
273.38 3430.1 undefined 929.47 1018.7 2.8969 265.00 0.0037736 929.47 1018.7 2.8969 2.6092 3.3380 412.17 0.010270 32.750 0.076645 265.00 0.0037736 929.47 1018.7 2.8969 2.6092 3.3380 412.17 0.010270 32.750 0.076645
274.38 3446.3 undefined 932.09 1021.7 2.9017 265.00 0.0037736 932.09 1021.7 2.9017 2.6125 3.3383 413.13 0.010170 32.776 0.076774 265.00 0.0037736 932.09 1021.7 2.9017 2.6125 3.3383 413.13 0.010170 32.776 0.076774
275.38 3462.4 undefined 934.70 1024.8 2.9064 265.00 0.0037736 934.70 1024.8 2.9064 2.6158 3.3386 414.08 0.010070 32.801 0.076901 265.00 0.0037736 934.70 1024.8 2.9064 2.6158 3.3386 414.08 0.010070 32.801 0.076901
276.38 3478.6 undefined 937.32 1027.8 2.9112 265.00 0.0037736 937.32 1027.8 2.9112 2.6191 3.3389 415.04 0.0099717 32.827 0.077027 265.00 0.0037736 937.32 1027.8 2.9112 2.6191 3.3389 415.04 0.0099717 32.827 0.077027
277.38 3494.8 undefined 939.94 1030.9 2.9160 265.00 0.0037736 939.94 1030.9 2.9160 2.6224 3.3392 415.99 0.0098742 32.853 0.077149 265.00 0.0037736 939.94 1030.9 2.9160 2.6224 3.3392 415.99 0.0098742 32.853 0.077149
278.38 3510.9 undefined 942.56 1033.9 2.9207 265.00 0.0037736 942.56 1033.9 2.9207 2.6257 3.3396 416.94 0.0097777 32.879 0.077268 265.00 0.0037736 942.56 1033.9 2.9207 2.6257 3.3396 416.94 0.0097777 32.879 0.077268
279.38 3527.1 undefined 945.19 1037.0 2.9255 265.00 0.0037736 945.19 1037.0 2.9255 2.6290 3.3400 417.88 0.0096822 32.905 0.077380 265.00 0.0037736 945.19 1037.0 2.9255 2.6290 3.3400 417.88 0.0096822 32.905 0.077380
280.38 3543.3 undefined 947.82 1040.0 2.9303 265.00 0.0037736 947.82 1040.0 2.9303 2.6323 3.3404 418.83 0.0095877 32.930 0.077481 265.00 0.0037736 947.82 1040.0 2.9303 2.6323 3.3404 418.83 0.0095877 32.930 0.077481
281.38 3559.4 undefined 950.45 1043.1 2.9350 265.00 0.0037736 950.45 1043.1 2.9350 2.6356 3.3409 419.77 0.0094941 32.956 0.077545 265.00 0.0037736 950.45 1043.1 2.9350 2.6356 3.3409 419.77 0.0094941 32.956 0.077545
282.38 3575.6 undefined 953.09 1046.1 2.9398 265.00 0.0037736 953.09 1046.1 2.9398 2.6389 3.3414 420.71 0.0094015 32.982 0.077638 265.00 0.0037736 953.09 1046.1 2.9398 2.6389 3.3414 420.71 0.0094015 32.982 0.077638
283.38 3591.7 undefined 955.73 1049.2 2.9445 265.00 0.0037736 955.73 1049.2 2.9445 2.6422 3.3419 421.64 0.0093099 33.007 0.077796 265.00 0.0037736 955.73 1049.2 2.9445 2.6422 3.3419 421.64 0.0093099 33.007 0.077796
284.38 3607.9 undefined 958.38 1052.2 2.9493 265.00 0.0037736 958.38 1052.2 2.9493 2.6456 3.3424 422.58 0.0092191 33.033 0.077955 265.00 0.0037736 958.38 1052.2 2.9493 2.6456 3.3424 422.58 0.0092191 33.033 0.077955
285.38 3624.1 undefined 961.02 1055.3 2.9540 265.00 0.0037736 961.02 1055.3 2.9540 2.6488 3.3430 423.51 0.0091293 33.059 0.078114 265.00 0.0037736 961.02 1055.3 2.9540 2.6488 3.3430 423.51 0.0091293 33.059 0.078114
286.38 3640.2 undefined 963.67 1058.4 2.9587 265.00 0.0037736 963.67 1058.4 2.9587 2.6521 3.3436 424.44 0.0090404 33.084 0.078274 265.00 0.0037736 963.67 1058.4 2.9587 2.6521 3.3436 424.44 0.0090404 33.084 0.078274
287.38 3656.4 undefined 966.33 1061.5 2.9635 265.00 0.0037736 966.33 1061.5 2.9635 2.6554 3.3442 425.37 0.0089523 33.110 0.078434 265.00 0.0037736 966.33 1061.5 2.9635 2.6554 3.3442 425.37 0.0089523 33.110 0.078434
288.38 3672.5 undefined 968.98 1064.5 2.9682 265.00 0.0037736 968.98 1064.5 2.9682 2.6587 3.3449 426.29 0.0088652 33.135 0.078594 265.00 0.0037736 968.98 1064.5 2.9682 2.6587 3.3449 426.29 0.0088652 33.135 0.078594
289.38 3688.7 undefined 971.64 1067.6 2.9730 265.00 0.0037736 971.64 1067.6 2.9730 2.6620 3.3455 427.22 0.0087789 33.161 0.078754 265.00 0.0037736 971.64 1067.6 2.9730 2.6620 3.3455 427.22 0.0087789 33.161 0.078754
290.38 3704.8 undefined 974.31 1070.7 2.9777 265.00 0.0037736 974.31 1070.7 2.9777 2.6653 3.3462 428.14 0.0086935 33.186 0.078914 265.00 0.0037736 974.31 1070.7 2.9777 2.6653 3.3462 428.14 0.0086935 33.186 0.078914
291.38 3720.9 undefined 976.97 1073.8 2.9824 265.00 0.0037736 976.97 1073.8 2.9824 2.6686 3.3470 429.06 0.0086089 33.212 0.079075 265.00 0.0037736 976.97 1073.8 2.9824 2.6686 3.3470 429.06 0.0086089 33.212 0.079075
292.38 3737.1 undefined 979.65 1076.9 2.9871 265.00 0.0037736 979.65 1076.9 2.9871 2.6719 3.3477 429.97 0.0085251 33.237 0.079237 265.00 0.0037736 979.65 1076.9 2.9871 2.6719 3.3477 429.97 0.0085251 33.237 0.079237
293.38 3753.2 undefined 982.32 1080.0 2.9919 265.00 0.0037736 982.32 1080.0 2.9919 2.6752 3.3485 430.89 0.0084422 33.263 0.079398 265.00 0.0037736 982.32 1080.0 2.9919 2.6752 3.3485 430.89 0.0084422 33.263 0.079398
294.38 3769.4 undefined 985.00 1083.1 2.9966 265.00 0.0037736 985.00 1083.1 2.9966 2.6785 3.3493 431.80 0.0083601 33.288 0.079560 265.00 0.0037736 985.00 1083.1 2.9966 2.6785 3.3493 431.80 0.0083601 33.288 0.079560
295.38 3785.5 undefined 987.68 1086.2 3.0013 265.00 0.0037736 987.68 1086.2 3.0013 2.6817 3.3501 432.71 0.0082788 33.313 0.079722 265.00 0.0037736 987.68 1086.2 3.0013 2.6817 3.3501 432.71 0.0082788 33.313 0.079722
296.38 3801.6 undefined 990.36 1089.3 3.0060 265.00 0.0037736 990.36 1089.3 3.0060 2.6850 3.3509 433.61 0.0081983 33.339 0.079884 265.00 0.0037736 990.36 1089.3 3.0060 2.6850 3.3509 433.61 0.0081983 33.339 0.079884
297.38 3817.8 undefined 993.05 1092.4 3.0107 265.00 0.0037736 993.05 1092.4 3.0107 2.6883 3.3518 434.52 0.0081185 33.364 0.080047 265.00 0.0037736 993.05 1092.4 3.0107 2.6883 3.3518 434.52 0.0081185 33.364 0.080047
298.38 3833.9 undefined 995.74 1095.5 3.0154 265.00 0.0037736 995.74 1095.5 3.0154 2.6916 3.3527 435.42 0.0080396 33.389 0.080210 265.00 0.0037736 995.74 1095.5 3.0154 2.6916 3.3527 435.42 0.0080396 33.389 0.080210
299.38 3850.0 undefined 998.43 1098.6 3.0202 265.00 0.0037736 998.43 1098.6 3.0202 2.6948 3.3536 436.32 0.0079613 33.414 0.080373 265.00 0.0037736 998.43 1098.6 3.0202 2.6948 3.3536 436.32 0.0079613 33.414 0.080373
300.38 3866.1 undefined 1001.1 1101.7 3.0249 265.00 0.0037736 1001.1 1101.7 3.0249 2.6981 3.3545 437.22 0.0078839 33.440 0.080536 265.00 0.0037736 1001.1 1101.7 3.0249 2.6981 3.3545 437.22 0.0078839 33.440 0.080536