Temperature (C) Pressure (psia) Quality (l+v) Internal Energy (l+v, kJ/kg) Enthalpy (l+v, kJ/kg) Entropy (l+v, J/g*K) Density (l, kg/m3) Volume (l, m3/kg) Internal Energy (l, kJ/kg) Enthalpy (l, kJ/kg) Entropy (l, J/g*K) Cv (l, J/g*K) Cp (l, J/g*K) Sound Spd. (l, m/s) Joule-Thomson (l, F/psia) Viscosity (l, uPa*s) Therm. Cond. (l, W/m*K) Density (v, kg/m3) Volume (v, m3/kg) Internal Energy (v, kJ/kg) Enthalpy (v, kJ/kg) Entropy (v, J/g*K) Cv (v, J/g*K) Cp (v, J/g*K) Sound Spd. (v, m/s) Joule-Thomson (v, F/psia) Viscosity (v, uPa*s) Therm. Cond. (v, W/m*K)
-187.62 2.4953e-08 2.2236e-11 -196.64 -196.64 -1.3959 733.13 0.0013640 -196.64 -196.64 -1.3959 1.3553 1.9158 2136.4 -0.0077592 10960. 0.20792 1.0669e-08 9.3732e+07 350.13 366.26 5.1858 0.69067 0.87923 143.28 6.1051 2.3259 0.0017061
-186.62 3.7339e-08 3.2859e-11 -194.73 -194.73 -1.3736 732.08 0.0013660 -194.73 -194.73 -1.3736 1.3539 1.9166 2129.6 -0.0077546 10073. 0.20765 1.5780e-08 6.3371e+07 350.82 367.14 5.1200 0.69462 0.88317 144.03 5.9178 2.3534 0.0017533
-185.62 5.5322e-08 4.8082e-11 -192.81 -192.81 -1.3516 731.04 0.0013679 -192.81 -192.81 -1.3516 1.3525 1.9174 2122.9 -0.0077498 9276.1 0.20737 2.3112e-08 4.3267e+07 351.52 368.02 5.0561 0.69857 0.88713 144.77 5.7383 2.3808 0.0018007
-184.62 8.1182e-08 6.9696e-11 -190.89 -190.89 -1.3298 730.00 0.0013699 -190.89 -190.89 -1.3298 1.3513 1.9182 2116.1 -0.0077448 8557.8 0.20708 3.3533e-08 2.9821e+07 352.22 368.91 4.9939 0.70253 0.89108 145.51 5.5662 2.4083 0.0018485
-183.62 1.1803e-07 1.0011e-10 -188.97 -188.97 -1.3083 728.96 0.0013718 -188.97 -188.97 -1.3083 1.3501 1.9191 2109.3 -0.0077395 7909.8 0.20678 4.8211e-08 2.0742e+07 352.92 369.81 4.9333 0.70648 0.89504 146.24 5.4011 2.4357 0.0018965
-182.62 1.7009e-07 1.4253e-10 -187.05 -187.05 -1.2869 727.92 0.0013738 -187.05 -187.05 -1.2869 1.3490 1.9201 2102.5 -0.0077340 7324.3 0.20647 6.8704e-08 1.4555e+07 353.63 370.70 4.8744 0.71043 0.89899 146.97 5.2426 2.4632 0.0019448
-181.62 2.4299e-07 2.0120e-10 -185.13 -185.13 -1.2658 726.88 0.0013757 -185.13 -185.13 -1.2658 1.3480 1.9210 2095.7 -0.0077283 6794.5 0.20616 9.7079e-08 1.0301e+07 354.35 371.60 4.8170 0.71438 0.90294 147.69 5.0904 2.4906 0.0019934
-180.62 3.4425e-07 2.8170e-10 -183.21 -183.21 -1.2450 725.85 0.0013777 -183.21 -183.21 -1.2450 1.3470 1.9220 2088.9 -0.0077225 6314.4 0.20584 1.3605e-07 7.3504e+06 355.06 372.51 4.7612 0.71833 0.90688 148.41 4.9442 2.5181 0.0020423
-179.62 4.8378e-07 3.9128e-10 -181.29 -181.29 -1.2243 724.81 0.0013797 -181.29 -181.29 -1.2243 1.3461 1.9231 2082.0 -0.0077164 5878.8 0.20551 1.8915e-07 5.2868e+06 355.78 373.42 4.7068 0.72227 0.91082 149.13 4.8038 2.5456 0.0020915
-178.62 6.7459e-07 5.3931e-10 -179.37 -179.37 -1.2038 723.78 0.0013816 -179.37 -179.37 -1.2038 1.3453 1.9241 2075.2 -0.0077102 5482.9 0.20517 2.6096e-07 3.8320e+06 356.51 374.33 4.6538 0.72620 0.91475 149.84 4.6688 2.5731 0.0021410
-177.62 9.3358e-07 7.3785e-10 -177.44 -177.44 -1.1836 722.75 0.0013836 -177.44 -177.44 -1.1836 1.3445 1.9252 2068.4 -0.0077039 5122.6 0.20483 3.5737e-07 2.7982e+06 357.23 375.25 4.6022 0.73012 0.91867 150.54 4.5390 2.6005 0.0021907
-176.62 1.2826e-06 1.0022e-09 -175.52 -175.52 -1.1635 721.72 0.0013856 -175.52 -175.52 -1.1635 1.3437 1.9263 2061.5 -0.0076973 4794.1 0.20447 4.8588e-07 2.0581e+06 357.97 376.17 4.5519 0.73403 0.92258 151.25 4.4142 2.6280 0.0022408
-175.62 1.7496e-06 1.3519e-09 -173.59 -173.59 -1.1437 720.69 0.0013876 -173.59 -173.59 -1.1437 1.3430 1.9274 2054.7 -0.0076907 4494.3 0.20411 6.5601e-07 1.5244e+06 358.70 377.09 4.5029 0.73792 0.92648 151.95 4.2941 2.6555 0.0022912
-174.62 2.3705e-06 1.8112e-09 -171.66 -171.66 -1.1240 719.66 0.0013895 -171.66 -171.66 -1.1240 1.3423 1.9286 2047.9 -0.0076838 4220.2 0.20375 8.7976e-07 1.1367e+06 359.44 378.02 4.4551 0.74181 0.93036 152.64 4.1784 2.6830 0.0023418
-173.62 3.1903e-06 2.4108e-09 -169.73 -169.73 -1.1045 718.64 0.0013915 -169.73 -169.73 -1.1045 1.3417 1.9298 2041.0 -0.0076769 3969.3 0.20338 1.1721e-06 8.5314e+05 360.19 378.95 4.4085 0.74568 0.93423 153.33 4.0671 2.7105 0.0023928
-172.62 4.2661e-06 3.1886e-09 -167.80 -167.80 -1.0852 717.61 0.0013935 -167.80 -167.80 -1.0852 1.3411 1.9310 2034.2 -0.0076698 3739.3 0.20300 1.5518e-06 6.4441e+05 360.93 379.89 4.3631 0.74953 0.93809 154.02 3.9599 2.7379 0.0024440
-171.62 5.6692e-06 4.1915e-09 -165.87 -165.87 -1.0661 716.58 0.0013955 -165.87 -165.87 -1.0661 1.3405 1.9322 2027.3 -0.0076625 3528.0 0.20261 2.0419e-06 4.8974e+05 361.69 380.83 4.3188 0.75337 0.94193 154.71 3.8566 2.7654 0.0024955
-170.62 7.4884e-06 5.4772e-09 -163.94 -163.94 -1.0472 715.56 0.0013975 -163.94 -163.94 -1.0472 1.3400 1.9334 2020.5 -0.0076552 3333.8 0.20222 2.6708e-06 3.7442e+05 362.44 381.77 4.2755 0.75720 0.94575 155.39 3.7570 2.7929 0.0025473
-169.62 9.8334e-06 7.1160e-09 -162.00 -162.00 -1.0284 714.54 0.0013995 -162.00 -162.00 -1.0284 1.3395 1.9347 2013.6 -0.0076477 3154.9 0.20182 3.4733e-06 2.8791e+05 363.20 382.72 4.2334 0.76100 0.94956 156.07 3.6609 2.8204 0.0025994
-168.62 1.2839e-05 9.1934e-09 -160.07 -160.07 -1.0098 713.52 0.0014015 -160.07 -160.07 -1.0098 1.3390 1.9359 2006.8 -0.0076401 2989.9 0.20141 4.4917e-06 2.2263e+05 363.96 383.67 4.1922 0.76479 0.95335 156.74 3.5683 2.8479 0.0026518
-167.62 1.6672e-05 1.1813e-08 -158.13 -158.13 -0.99134 712.49 0.0014035 -158.13 -158.13 -0.99134 1.3386 1.9372 2000.0 -0.0076323 2837.5 0.20100 5.7771e-06 1.7310e+05 364.73 384.63 4.1521 0.76856 0.95712 157.41 3.4790 2.8754 0.0027045
-166.62 2.1533e-05 1.5099e-08 -156.19 -156.19 -0.97306 711.47 0.0014055 -156.19 -156.19 -0.97306 1.3382 1.9385 1993.1 -0.0076245 2696.5 0.20058 7.3914e-06 1.3529e+05 365.50 385.59 4.1129 0.77232 0.96087 158.08 3.3927 2.9029 0.0027575
-165.62 2.7666e-05 1.9200e-08 -154.25 -154.25 -0.95494 710.45 0.0014075 -154.25 -154.25 -0.95494 1.3378 1.9398 1986.3 -0.0076165 2566.0 0.20016 9.4084e-06 1.0629e+05 366.27 386.55 4.0746 0.77605 0.96460 158.75 3.3095 2.9304 0.0028108
-164.62 3.5367e-05 2.4294e-08 -152.31 -152.31 -0.93698 709.44 0.0014096 -152.31 -152.31 -0.93698 1.3375 1.9411 1979.4 -0.0076084 2444.9 0.19973 1.1916e-05 83918. 367.05 387.52 4.0372 0.77976 0.96832 159.41 3.2291 2.9579 0.0028643
-163.62 4.4989e-05 3.0591e-08 -150.37 -150.37 -0.91917 708.42 0.0014116 -150.37 -150.37 -0.91917 1.3371 1.9424 1972.6 -0.0076002 2332.3 0.19930 1.5020e-05 66577. 367.83 388.49 4.0008 0.78346 0.97201 160.07 3.1514 2.9854 0.0029182
-162.62 5.6956e-05 3.8340e-08 -148.43 -148.43 -0.90151 707.40 0.0014136 -148.43 -148.43 -0.90151 1.3368 1.9437 1965.8 -0.0075919 2227.7 0.19886 1.8844e-05 53068. 368.62 389.46 3.9651 0.78713 0.97569 160.72 3.0764 3.0129 0.0029723
-161.62 7.1773e-05 4.7833e-08 -146.48 -146.48 -0.88400 706.38 0.0014157 -146.48 -146.48 -0.88400 1.3365 1.9451 1959.0 -0.0075834 2130.2 0.19841 2.3533e-05 42494. 369.41 390.44 3.9304 0.79079 0.97935 161.38 3.0038 3.0404 0.0030268
-160.62 9.0036e-05 5.9411e-08 -144.54 -144.54 -0.86663 705.37 0.0014177 -144.54 -144.54 -0.86663 1.3363 1.9465 1952.1 -0.0075748 2039.2 0.19796 2.9258e-05 34178. 370.20 391.42 3.8964 0.79443 0.98298 162.03 2.9337 3.0679 0.0030815
-159.62 0.00011245 7.3475e-08 -142.59 -142.59 -0.84940 704.35 0.0014197 -142.59 -142.59 -0.84940 1.3360 1.9478 1945.3 -0.0075661 1954.2 0.19751 3.6221e-05 27609. 371.00 392.40 3.8632 0.79805 0.98660 162.68 2.8658 3.0955 0.0031365
-158.62 0.00013985 9.0487e-08 -140.64 -140.64 -0.83231 703.34 0.0014218 -140.64 -140.64 -0.83231 1.3358 1.9492 1938.5 -0.0075573 1874.8 0.19705 4.4652e-05 22395. 371.80 393.39 3.8307 0.80164 0.99020 163.32 2.8002 3.1230 0.0031918
-157.62 0.00017320 1.1098e-07 -138.69 -138.69 -0.81536 702.32 0.0014238 -138.69 -138.69 -0.81536 1.3356 1.9506 1931.7 -0.0075484 1800.3 0.19658 5.4822e-05 18241. 372.60 394.38 3.7990 0.80522 0.99378 163.96 2.7367 3.1505 0.0032474
-156.62 0.00021364 1.3558e-07 -136.74 -136.74 -0.79854 701.31 0.0014259 -136.74 -136.74 -0.79854 1.3354 1.9520 1924.9 -0.0075393 1730.5 0.19611 6.7040e-05 14916. 373.41 395.38 3.7680 0.80878 0.99734 164.60 2.6752 3.1780 0.0033033
-155.62 0.00026248 1.6499e-07 -134.79 -134.79 -0.78185 700.30 0.0014280 -134.79 -134.79 -0.78185 1.3352 1.9534 1918.1 -0.0075302 1664.9 0.19564 8.1666e-05 12245. 374.22 396.38 3.7377 0.81232 1.0009 165.24 2.6157 3.2055 0.0033595
-154.62 0.00032125 2.0003e-07 -132.83 -132.83 -0.76530 699.29 0.0014300 -132.83 -132.83 -0.76530 1.3350 1.9548 1911.3 -0.0075209 1603.3 0.19516 9.9109e-05 10090. 375.03 397.38 3.7081 0.81585 1.0044 165.87 2.5580 3.2330 0.0034160
-153.62 0.00039171 2.4161e-07 -130.88 -130.88 -0.74887 698.27 0.0014321 -130.88 -130.88 -0.74887 1.3349 1.9563 1904.5 -0.0075114 1545.3 0.19468 0.00011984 8344.6 375.85 398.39 3.6792 0.81935 1.0079 166.50 2.5022 3.2606 0.0034727
-152.62 0.00047590 2.9081e-07 -128.92 -128.92 -0.73256 697.26 0.0014342 -128.92 -128.92 -0.73256 1.3348 1.9577 1897.8 -0.0075019 1490.6 0.19419 0.00014439 6925.9 376.67 399.40 3.6509 0.82284 1.0114 167.13 2.4481 3.2881 0.0035298
-151.62 0.00057613 3.4880e-07 -126.96 -126.96 -0.71638 696.25 0.0014363 -126.96 -126.96 -0.71638 1.3346 1.9592 1891.0 -0.0074922 1438.9 0.19370 0.00017336 5768.4 377.49 400.41 3.6232 0.82631 1.0149 167.76 2.3957 3.3156 0.0035872
-150.62 0.00069507 4.1694e-07 -125.00 -125.00 -0.70032 695.24 0.0014384 -125.00 -125.00 -0.70032 1.3345 1.9606 1884.2 -0.0074824 1390.2 0.19320 0.00020744 4820.7 378.32 401.42 3.5962 0.82976 1.0183 168.38 2.3448 3.3431 0.0036448
-149.62 0.00083574 4.9674e-07 -123.04 -123.04 -0.68437 694.23 0.0014404 -123.04 -123.04 -0.68438 1.3345 1.9621 1877.4 -0.0074724 1344.0 0.19270 0.00024740 4042.0 379.15 402.44 3.5697 0.83319 1.0218 169.00 2.2956 3.3706 0.0037027
-148.62 0.0010016 5.8992e-07 -121.08 -121.08 -0.66855 693.22 0.0014425 -121.08 -121.08 -0.66855 1.3344 1.9636 1870.7 -0.0074623 1300.3 0.19220 0.00029412 3400.0 379.99 403.47 3.5438 0.83661 1.0252 169.62 2.2478 3.3982 0.0037610
-147.62 0.0011965 6.9838e-07 -119.11 -119.11 -0.65283 692.21 0.0014447 -119.11 -119.11 -0.65284 1.3343 1.9651 1863.9 -0.0074521 1258.9 0.19169 0.00034856 2869.0 380.83 404.49 3.5185 0.84001 1.0286 170.24 2.2014 3.4257 0.0038195
-146.62 0.0014249 8.2425e-07 -117.15 -117.15 -0.63723 691.20 0.0014468 -117.15 -117.15 -0.63724 1.3343 1.9666 1857.2 -0.0074417 1219.6 0.19117 0.00041181 2428.3 381.67 405.52 3.4938 0.84340 1.0320 170.85 2.1565 3.4532 0.0038783
-145.62 0.0016917 9.6990e-07 -115.18 -115.18 -0.62175 690.19 0.0014489 -115.18 -115.18 -0.62175 1.3343 1.9682 1850.4 -0.0074312 1182.3 0.19066 0.00048510 2061.4 382.51 406.56 3.4695 0.84677 1.0353 171.46 2.1128 3.4807 0.0039374
-144.62 0.0020026 1.1380e-06 -113.21 -113.21 -0.60637 689.18 0.0014510 -113.21 -113.21 -0.60637 1.3343 1.9697 1843.7 -0.0074206 1146.8 0.19014 0.00056976 1755.1 383.36 407.59 3.4458 0.85012 1.0387 172.07 2.0705 3.5082 0.0039967
-143.62 0.0023637 1.3314e-06 -111.24 -111.24 -0.59109 688.17 0.0014531 -111.24 -111.24 -0.59110 1.3343 1.9713 1836.9 -0.0074098 1113.0 0.18962 0.00066731 1498.6 384.21 408.63 3.4226 0.85346 1.0420 172.68 2.0294 3.5358 0.0040564
-142.62 0.0027820 1.5533e-06 -109.27 -109.27 -0.57593 687.16 0.0014553 -109.27 -109.27 -0.57593 1.3343 1.9728 1830.2 -0.0073988 1080.8 0.18909 0.00077939 1283.1 385.07 409.68 3.3999 0.85679 1.0454 173.28 1.9896 3.5633 0.0041164
-141.62 0.0032653 1.8074e-06 -107.30 -107.30 -0.56086 686.15 0.0014574 -107.30 -107.30 -0.56087 1.3343 1.9744 1823.5 -0.0073878 1050.1 0.18856 0.00090784 1101.5 385.93 410.72 3.3777 0.86011 1.0487 173.88 1.9508 3.5908 0.0041766
-140.62 0.0038222 2.0974e-06 -105.32 -105.32 -0.54590 685.14 0.0014596 -105.32 -105.32 -0.54591 1.3344 1.9760 1816.7 -0.0073765 1020.7 0.18803 0.0010547 948.16 386.79 411.77 3.3560 0.86341 1.0520 174.48 1.9133 3.6183 0.0042372
-139.62 0.0044623 2.4278e-06 -103.34 -103.34 -0.53104 684.13 0.0014617 -103.34 -103.34 -0.53105 1.3344 1.9776 1810.0 -0.0073651 992.74 0.18749 0.0012221 818.26 387.65 412.83 3.3347 0.86670 1.0553 175.08 1.8768 3.6459 0.0042980
-138.62 0.0051963 2.8031e-06 -101.36 -101.36 -0.51628 683.12 0.0014639 -101.37 -101.37 -0.51629 1.3345 1.9792 1803.3 -0.0073536 965.97 0.18695 0.0014125 707.94 388.52 413.88 3.3139 0.86998 1.0586 175.67 1.8413 3.6734 0.0043592
-137.62 0.0060358 3.2284e-06 -99.385 -99.384 -0.50161 682.11 0.0014660 -99.386 -99.386 -0.50162 1.3346 1.9808 1796.6 -0.0073419 940.35 0.18641 0.0016287 614.00 389.39 414.94 3.2935 0.87325 1.0619 176.26 1.8069 3.7009 0.0044206
-136.62 0.0069938 3.7093e-06 -97.403 -97.402 -0.48704 681.10 0.0014682 -97.404 -97.404 -0.48705 1.3347 1.9825 1789.9 -0.0073301 915.81 0.18586 0.0018733 533.80 390.26 416.00 3.2735 0.87650 1.0651 176.85 1.7734 3.7284 0.0044823
-135.62 0.0080843 4.2519e-06 -95.419 -95.419 -0.47256 680.09 0.0014704 -95.421 -95.421 -0.47258 1.3348 1.9841 1783.2 -0.0073180 892.30 0.18531 0.0021497 465.17 391.14 417.07 3.2540 0.87975 1.0684 177.44 1.7409 3.7559 0.0045443
-134.62 0.0093230 4.8627e-06 -93.434 -93.434 -0.45818 679.08 0.0014726 -93.436 -93.436 -0.45820 1.3350 1.9858 1776.5 -0.0073059 869.75 0.18476 0.0024613 406.30 392.02 418.14 3.2348 0.88299 1.0716 178.02 1.7093 3.7834 0.0046066
-133.62 0.010727 5.5488e-06 -91.447 -91.447 -0.44389 678.07 0.0014748 -91.450 -91.449 -0.44391 1.3351 1.9875 1769.8 -0.0072935 848.11 0.18421 0.0028116 355.67 392.91 419.21 3.2161 0.88622 1.0749 178.61 1.6786 3.8109 0.0046691
-132.62 0.012315 6.3177e-06 -89.458 -89.458 -0.42969 677.06 0.0014770 -89.461 -89.461 -0.42971 1.3353 1.9892 1763.1 -0.0072810 827.32 0.18365 0.0032049 312.03 393.79 420.29 3.1977 0.88944 1.0781 179.19 1.6488 3.8385 0.0047320
-131.62 0.014106 7.1779e-06 -87.468 -87.467 -0.41557 676.04 0.0014792 -87.471 -87.471 -0.41560 1.3354 1.9909 1756.4 -0.0072684 807.34 0.18309 0.0036453 274.33 394.68 421.36 3.1798 0.89266 1.0813 179.76 1.6197 3.8660 0.0047951
-130.62 0.016124 8.1380e-06 -85.475 -85.475 -0.40154 675.03 0.0014814 -85.479 -85.479 -0.40157 1.3356 1.9926 1749.7 -0.0072555 788.12 0.18253 0.0041375 241.69 395.58 422.44 3.1622 0.89586 1.0846 180.34 1.5915 3.8935 0.0048586
-129.62 0.018392 9.2077e-06 -83.481 -83.481 -0.38760 674.02 0.0014836 -83.486 -83.486 -0.38763 1.3358 1.9944 1743.0 -0.0072425 769.63 0.18196 0.0046867 213.37 396.47 423.53 3.1450 0.89906 1.0878 180.91 1.5641 3.9210 0.0049223
-128.62 0.020935 1.0397e-05 -81.486 -81.485 -0.37374 673.01 0.0014859 -81.491 -81.490 -0.37378 1.3360 1.9961 1736.3 -0.0072294 751.83 0.18140 0.0052981 188.75 397.37 424.62 3.1281 0.90226 1.0910 181.48 1.5374 3.9485 0.0049863
-127.62 0.023783 1.1717e-05 -79.488 -79.487 -0.35997 672.00 0.0014881 -79.494 -79.493 -0.36001 1.3363 1.9979 1729.6 -0.0072160 734.67 0.18083 0.0059776 167.29 398.27 425.71 3.1116 0.90545 1.0942 182.05 1.5114 3.9760 0.0050506
-126.62 0.026966 1.3180e-05 -77.489 -77.488 -0.34628 670.98 0.0014904 -77.495 -77.495 -0.34632 1.3365 1.9997 1722.9 -0.0072025 718.14 0.18025 0.0067313 148.56 399.18 426.80 3.0954 0.90863 1.0974 182.62 1.4861 4.0035 0.0051152
-125.62 0.030515 1.4797e-05 -75.487 -75.487 -0.33267 669.97 0.0014926 -75.494 -75.494 -0.33272 1.3368 2.0015 1716.2 -0.0071888 702.18 0.17968 0.0075660 132.17 400.09 427.89 3.0795 0.91181 1.1006 183.18 1.4615 4.0310 0.0051800
-124.62 0.034467 1.6582e-05 -73.484 -73.483 -0.31913 668.95 0.0014949 -73.492 -73.492 -0.31919 1.3371 2.0033 1709.5 -0.0071749 686.79 0.17910 0.0084885 117.81 401.00 428.99 3.0640 0.91499 1.1038 183.74 1.4375 4.0584 0.0052452
-123.62 0.038859 1.8549e-05 -71.479 -71.478 -0.30568 667.94 0.0014971 -71.488 -71.487 -0.30574 1.3374 2.0051 1702.8 -0.0071609 671.93 0.17852 0.0095065 105.19 401.91 430.10 3.0488 0.91816 1.1070 184.30 1.4141 4.0859 0.0053106
-122.62 0.043731 2.0713e-05 -69.472 -69.471 -0.29230 666.92 0.0014994 -69.482 -69.481 -0.29237 1.3377 2.0070 1696.2 -0.0071466 657.57 0.17794 0.010628 94.092 402.83 431.20 3.0339 0.92134 1.1102 184.86 1.3913 4.1134 0.0053764
-121.62 0.049128 2.3089e-05 -67.463 -67.462 -0.27900 665.91 0.0015017 -67.474 -67.473 -0.27907 1.3380 2.0089 1689.5 -0.0071322 643.70 0.17736 0.011861 84.309 403.75 432.31 3.0193 0.92451 1.1134 185.41 1.3691 4.1409 0.0054424
-120.62 0.055096 2.5695e-05 -65.452 -65.451 -0.26577 664.89 0.0015040 -65.464 -65.463 -0.26585 1.3384 2.0107 1682.8 -0.0071176 630.28 0.17678 0.013215 75.669 404.67 433.42 3.0050 0.92767 1.1166 185.96 1.3475 4.1683 0.0055087
-119.62 0.061684 2.8548e-05 -63.439 -63.437 -0.25261 663.87 0.0015063 -63.452 -63.452 -0.25271 1.3387 2.0126 1676.1 -0.0071028 617.30 0.17619 0.014700 68.027 405.60 434.53 2.9909 0.93084 1.1198 186.51 1.3264 4.1958 0.0055752
-118.62 0.068946 3.1666e-05 -61.424 -61.422 -0.23953 662.86 0.0015086 -61.439 -61.438 -0.23963 1.3391 2.0146 1669.4 -0.0070878 604.74 0.17560 0.016325 61.255 406.53 435.64 2.9772 0.93401 1.1231 187.06 1.3058 4.2233 0.0056421
-117.62 0.076937 3.5069e-05 -59.407 -59.405 -0.22652 661.84 0.0015109 -59.423 -59.422 -0.22663 1.3395 2.0165 1662.8 -0.0070726 592.58 0.17501 0.018101 55.245 407.46 436.76 2.9638 0.93718 1.1263 187.60 1.2857 4.2507 0.0057092
-116.62 0.085718 3.8778e-05 -57.388 -57.386 -0.21358 660.82 0.0015133 -57.406 -57.405 -0.21370 1.3400 2.0184 1656.1 -0.0070573 580.80 0.17442 0.020040 49.901 408.39 437.88 2.9506 0.94035 1.1295 188.14 1.2660 4.2782 0.0057767
-115.62 0.095353 4.2814e-05 -55.366 -55.364 -0.20071 659.80 0.0015156 -55.386 -55.385 -0.20084 1.3404 2.0204 1649.4 -0.0070417 569.38 0.17383 0.022152 45.142 409.33 439.01 2.9377 0.94352 1.1327 188.68 1.2468 4.3056 0.0058444
-114.62 0.10591 4.7200e-05 -53.343 -53.341 -0.18790 658.78 0.0015180 -53.365 -53.364 -0.18805 1.3409 2.0224 1642.7 -0.0070260 558.32 0.17323 0.024451 40.898 410.27 440.13 2.9250 0.94669 1.1360 189.22 1.2281 4.3330 0.0059123
-113.62 0.11746 5.1959e-05 -51.318 -51.315 -0.17517 657.76 0.0015203 -51.342 -51.340 -0.17533 1.3413 2.0244 1636.0 -0.0070100 547.59 0.17264 0.026949 37.107 411.21 441.26 2.9126 0.94987 1.1392 189.75 1.2097 4.3604 0.0059806
-112.62 0.13008 5.7117e-05 -49.290 -49.287 -0.16249 656.73 0.0015227 -49.316 -49.315 -0.16267 1.3418 2.0264 1629.3 -0.0069938 537.18 0.17204 0.029661 33.715 412.16 442.39 2.9005 0.95305 1.1424 190.28 1.1918 4.3879 0.0060491
-111.62 0.14384 6.2699e-05 -47.260 -47.256 -0.14989 655.71 0.0015251 -47.289 -47.287 -0.15008 1.3424 2.0285 1622.7 -0.0069774 527.08 0.17144 0.032600 30.675 413.10 443.53 2.8885 0.95623 1.1457 190.81 1.1742 4.4153 0.0061180
-110.62 0.15884 6.8732e-05 -45.228 -45.224 -0.13735 654.69 0.0015274 -45.259 -45.258 -0.13755 1.3429 2.0305 1616.0 -0.0069609 517.28 0.17084 0.035781 27.948 414.06 444.66 2.8769 0.95942 1.1490 191.34 1.1570 4.4427 0.0061871
-109.62 0.17516 7.5245e-05 -43.193 -43.189 -0.12487 653.66 0.0015298 -43.228 -43.226 -0.12509 1.3435 2.0326 1609.3 -0.0069441 507.76 0.17024 0.039220 25.497 415.01 445.80 2.8654 0.96261 1.1522 191.86 1.1402 4.4701 0.0062564
-108.62 0.19290 8.2266e-05 -41.156 -41.152 -0.11245 652.64 0.0015322 -41.194 -41.192 -0.11269 1.3441 2.0347 1602.6 -0.0069271 498.51 0.16964 0.042933 23.292 415.96 446.94 2.8542 0.96581 1.1555 192.38 1.1236 4.4974 0.0063261
-107.62 0.21215 8.9826e-05 -39.117 -39.112 -0.10009 651.61 0.0015347 -39.158 -39.156 -0.10036 1.3447 2.0369 1595.9 -0.0069098 489.52 0.16903 0.046937 21.305 416.92 448.09 2.8433 0.96901 1.1588 192.90 1.1075 4.5248 0.0063960
-106.62 0.23301 9.7957e-05 -37.076 -37.070 -0.087796 650.58 0.0015371 -37.120 -37.118 -0.088082 1.3453 2.0390 1589.2 -0.0068924 480.79 0.16843 0.051250 19.512 417.88 449.23 2.8325 0.97222 1.1621 193.41 1.0916 4.5522 0.0064662
-105.62 0.25561 0.00010669 -35.032 -35.026 -0.075559 649.55 0.0015395 -35.080 -35.078 -0.075868 1.3460 2.0412 1582.6 -0.0068747 472.30 0.16782 0.055891 17.892 418.85 450.38 2.8220 0.97544 1.1655 193.93 1.0760 4.5795 0.0065367
-104.62 0.28004 0.00011606 -32.986 -32.979 -0.063381 648.52 0.0015420 -33.038 -33.035 -0.063714 1.3467 2.0434 1575.9 -0.0068569 464.04 0.16721 0.060878 16.426 419.81 451.53 2.8116 0.97867 1.1688 194.44 1.0608 4.6069 0.0066074
-103.62 0.30643 0.00012611 -30.937 -30.930 -0.051259 647.49 0.0015444 -30.994 -30.991 -0.051619 1.3474 2.0456 1569.2 -0.0068387 456.00 0.16660 0.066231 15.099 420.78 452.68 2.8015 0.98191 1.1722 194.94 1.0458 4.6342 0.0066785
-102.62 0.33490 0.00013686 -28.886 -28.878 -0.039194 646.46 0.0015469 -28.947 -28.944 -0.039582 1.3481 2.0478 1562.5 -0.0068204 448.18 0.16600 0.071971 13.894 421.75 453.84 2.7916 0.98516 1.1755 195.44 1.0310 4.6615 0.0067498
-101.62 0.36558 0.00014836 -26.832 -26.823 -0.027185 645.43 0.0015494 -26.898 -26.894 -0.027602 1.3489 2.0501 1555.8 -0.0068018 440.57 0.16539 0.078120 12.801 422.73 454.99 2.7818 0.98841 1.1789 195.95 1.0166 4.6888 0.0068213
-100.62 0.39862 0.00016065 -24.775 -24.766 -0.015230 644.39 0.0015519 -24.847 -24.843 -0.015678 1.3497 2.0524 1549.1 -0.0067830 433.16 0.16478 0.084699 11.807 423.70 456.15 2.7723 0.99168 1.1823 196.44 1.0024 4.7161 0.0068932
-99.625 0.43414 0.00017376 -22.716 -22.706 -0.0033295 643.36 0.0015544 -22.794 -22.789 -0.0038103 1.3505 2.0547 1542.4 -0.0067639 425.95 0.16416 0.091731 10.901 424.68 457.31 2.7630 0.99496 1.1858 196.94 0.98838 4.7434 0.0069653
-98.625 0.47230 0.00018773 -20.654 -20.643 0.0085182 642.32 0.0015569 -20.738 -20.733 0.0080027 1.3514 2.0570 1535.7 -0.0067447 418.92 0.16355 0.099240 10.077 425.66 458.48 2.7538 0.99825 1.1892 197.43 0.97464 4.7707 0.0070377
-97.625 0.51325 0.00020262 -18.590 -18.578 0.020314 641.28 0.0015594 -18.680 -18.674 0.019762 1.3522 2.0594 1529.0 -0.0067251 412.07 0.16294 0.10725 9.3239 426.65 459.64 2.7448 1.0016 1.1927 197.92 0.96112 4.7979 0.0071103
-96.625 0.55714 0.00021846 -16.522 -16.509 0.032058 640.24 0.0015619 -16.620 -16.614 0.031467 1.3531 2.0618 1522.3 -0.0067053 405.39 0.16233 0.11579 8.6365 427.63 460.81 2.7360 1.0049 1.1962 198.40 0.94783 4.8251 0.0071832
-95.625 0.60416 0.00023529 -14.452 -14.438 0.043752 639.20 0.0015645 -14.557 -14.550 0.043120 1.3540 2.0642 1515.7 -0.0066853 398.88 0.16171 0.12488 8.0078 428.62 461.98 2.7274 1.0082 1.1997 198.88 0.93475 4.8524 0.0072564
-94.625 0.65446 0.00025317 -12.379 -12.364 0.055396 638.16 0.0015670 -12.491 -12.484 0.054721 1.3550 2.0667 1509.0 -0.0066650 392.53 0.16110 0.13455 7.4323 429.61 463.15 2.7189 1.0116 1.2032 199.36 0.92188 4.8796 0.0073299
-93.625 0.70822 0.00027214 -10.304 -10.287 0.066991 637.12 0.0015696 -10.424 -10.416 0.066271 1.3560 2.0691 1502.3 -0.0066444 386.34 0.16048 0.14482 6.9050 430.60 464.32 2.7107 1.0149 1.2068 199.83 0.90921 4.9068 0.0074036
-92.625 0.76564 0.00029225 -8.2249 -8.2067 0.078538 636.07 0.0015722 -8.3535 -8.3452 0.077771 1.3570 2.0716 1495.6 -0.0066236 380.31 0.15987 0.15573 6.4212 431.60 465.49 2.7025 1.0183 1.2104 200.30 0.89673 4.9340 0.0074776
-91.625 0.82689 0.00031354 -6.1432 -6.1236 0.090037 635.02 0.0015747 -6.2808 -6.2719 0.089220 1.3580 2.0742 1488.9 -0.0066025 374.41 0.15925 0.16731 5.9769 432.59 466.67 2.6946 1.0217 1.2140 200.77 0.88445 4.9611 0.0075518
-90.625 0.89218 0.00033608 -4.0585 -4.0373 0.10149 633.98 0.0015773 -4.2056 -4.1959 0.10062 1.3591 2.0767 1482.2 -0.0065811 368.66 0.15864 0.17958 5.5685 433.59 467.84 2.6868 1.0251 1.2177 201.24 0.87236 4.9883 0.0076263
-89.625 0.96172 0.00035990 -1.9707 -1.9478 0.11290 632.93 0.0015800 -2.1279 -2.1174 0.11197 1.3602 2.0793 1475.5 -0.0065595 363.05 0.15802 0.19258 5.1928 434.59 469.02 2.6791 1.0285 1.2213 201.70 0.86045 5.0154 0.0077011
-88.625 1.0357 0.00038507 0.12024 0.14486 0.12426 631.88 0.0015826 -0.047516 -0.036215 0.12328 1.3613 2.0819 1468.8 -0.0065375 357.56 0.15740 0.20633 4.8466 435.59 470.20 2.6717 1.0320 1.2250 202.15 0.84873 5.0425 0.0077761
-87.625 1.1144 0.00041164 2.2143 2.2408 0.13558 630.83 0.0015852 2.0355 2.0476 0.13454 1.3625 2.0846 1462.1 -0.0065153 352.21 0.15679 0.22087 4.5276 436.60 471.39 2.6643 1.0354 1.2288 202.61 0.83718 5.0696 0.0078514
-86.625 1.1979 0.00043965 4.3116 4.3401 0.14685 629.77 0.0015879 4.1211 4.1342 0.14575 1.3637 2.0873 1455.4 -0.0064928 346.98 0.15617 0.23623 4.2331 437.61 472.57 2.6571 1.0389 1.2325 203.06 0.82580 5.0967 0.0079270
-85.625 1.2866 0.00046918 6.4122 6.4428 0.15808 628.72 0.0015905 6.2094 6.2235 0.15691 1.3649 2.0900 1448.8 -0.0064701 341.87 0.15555 0.25245 3.9612 438.61 473.75 2.6501 1.0424 1.2363 203.50 0.81460 5.1237 0.0080028
-84.625 1.3806 0.00050027 8.5161 8.5490 0.16927 627.66 0.0015932 8.3004 8.3155 0.16803 1.3661 2.0927 1442.1 -0.0064470 336.87 0.15494 0.26956 3.7097 439.63 474.94 2.6432 1.0460 1.2402 203.95 0.80356 5.1508 0.0080789
-83.625 1.4803 0.00053298 10.623 10.659 0.18042 626.60 0.0015959 10.394 10.410 0.17911 1.3674 2.0955 1435.4 -0.0064236 331.99 0.15432 0.28760 3.4771 440.64 476.13 2.6364 1.0495 1.2440 204.38 0.79269 5.1778 0.0081553
-82.625 1.5858 0.00056738 12.734 12.772 0.19153 625.54 0.0015986 12.491 12.508 0.19014 1.3687 2.0983 1428.7 -0.0063999 327.22 0.15370 0.30659 3.2616 441.65 477.31 2.6298 1.0531 1.2479 204.82 0.78199 5.2048 0.0082319
-81.625 1.6975 0.00060352 14.848 14.889 0.20260 624.48 0.0016013 14.590 14.609 0.20113 1.3700 2.1012 1422.0 -0.0063759 322.55 0.15309 0.32659 3.0619 442.67 478.50 2.6233 1.0567 1.2519 205.25 0.77144 5.2318 0.0083088
-80.625 1.8155 0.00064146 16.966 17.009 0.21362 623.42 0.0016041 16.692 16.712 0.21208 1.3714 2.1041 1415.4 -0.0063516 317.99 0.15247 0.34763 2.8766 443.69 479.70 2.6169 1.0603 1.2558 205.67 0.76106 5.2587 0.0083860
-79.625 1.9402 0.00068127 19.087 19.133 0.22461 622.36 0.0016068 18.797 18.819 0.22299 1.3728 2.1070 1408.7 -0.0063270 313.52 0.15186 0.36974 2.7046 444.71 480.89 2.6106 1.0639 1.2598 206.10 0.75083 5.2857 0.0084634
-78.625 2.0718 0.00072301 21.212 21.261 0.23557 621.29 0.0016096 20.905 20.928 0.23385 1.3742 2.1099 1402.0 -0.0063021 309.15 0.15124 0.39296 2.5448 445.73 482.08 2.6045 1.0676 1.2639 206.51 0.74076 5.3126 0.0085411
-77.625 2.2107 0.00076674 23.341 23.393 0.24648 620.22 0.0016123 23.016 23.040 0.24468 1.3757 2.1129 1395.3 -0.0062768 304.88 0.15062 0.41735 2.3961 446.75 483.27 2.5985 1.0712 1.2680 206.93 0.73084 5.3395 0.0086190
-76.625 2.3571 0.00081253 25.473 25.529 0.25736 619.15 0.0016151 25.130 25.156 0.25546 1.3772 2.1159 1388.7 -0.0062512 300.69 0.15001 0.44292 2.2577 447.78 484.47 2.5926 1.0749 1.2721 207.34 0.72107 5.3664 0.0086972
-75.625 2.5113 0.00086045 27.609 27.669 0.26820 618.08 0.0016179 27.247 27.275 0.26620 1.3787 2.1190 1382.0 -0.0062253 296.59 0.14939 0.46974 2.1288 448.81 485.67 2.5869 1.0787 1.2762 207.74 0.71146 5.3933 0.0087757
-74.625 2.6736 0.00091055 29.749 29.813 0.27901 617.01 0.0016207 29.366 29.396 0.27691 1.3802 2.1221 1375.4 -0.0061990 292.58 0.14878 0.49783 2.0087 449.83 486.86 2.5812 1.0824 1.2804 208.14 0.70200 5.4201 0.0088544
-73.625 2.8444 0.00096292 31.893 31.961 0.28978 615.93 0.0016236 31.489 31.521 0.28758 1.3818 2.1252 1368.7 -0.0061724 288.65 0.14816 0.52725 1.8966 450.86 488.06 2.5757 1.0862 1.2847 208.54 0.69268 5.4469 0.0089334
-72.625 3.0240 0.0010176 34.041 34.113 0.30052 614.85 0.0016264 33.615 33.649 0.29821 1.3834 2.1284 1362.0 -0.0061454 284.81 0.14755 0.55804 1.7920 451.90 489.26 2.5703 1.0900 1.2889 208.93 0.68351 5.4737 0.0090126
-71.625 3.2127 0.0010747 36.193 36.269 0.31122 613.78 0.0016293 35.745 35.781 0.30880 1.3851 2.1316 1355.4 -0.0061181 281.03 0.14694 0.59024 1.6942 452.93 490.46 2.5650 1.0938 1.2932 209.32 0.67448 5.5005 0.0090922
-70.625 3.4108 0.0011342 38.349 38.430 0.32189 612.69 0.0016321 37.877 37.915 0.31935 1.3867 2.1349 1348.7 -0.0060904 277.34 0.14632 0.62390 1.6028 453.96 491.66 2.5598 1.0976 1.2976 209.70 0.66560 5.5273 0.0091720
-69.625 3.6187 0.0011963 40.509 40.595 0.33253 611.61 0.0016350 40.013 40.053 0.32987 1.3884 2.1382 1342.1 -0.0060624 273.72 0.14571 0.65906 1.5173 455.00 492.86 2.5547 1.1015 1.3020 210.08 0.65687 5.5540 0.0092520
-68.625 3.8367 0.0012610 42.673 42.765 0.34314 610.53 0.0016379 42.152 42.195 0.34036 1.3902 2.1415 1335.5 -0.0060339 270.17 0.14510 0.69577 1.4372 456.04 494.06 2.5497 1.1054 1.3064 210.45 0.64827 5.5807 0.0093324
-67.625 4.0652 0.0013284 44.842 44.939 0.35372 609.44 0.0016409 44.294 44.340 0.35080 1.3919 2.1449 1328.8 -0.0060051 266.69 0.14449 0.73408 1.3622 457.08 495.26 2.5448 1.1093 1.3109 210.82 0.63981 5.6074 0.0094130
-66.625 4.3046 0.0013985 47.015 47.117 0.36427 608.35 0.0016438 46.439 46.488 0.36122 1.3937 2.1483 1322.2 -0.0059760 263.28 0.14388 0.77404 1.2919 458.12 496.46 2.5400 1.1133 1.3154 211.18 0.63150 5.6341 0.0094939
-65.625 4.5551 0.0014715 49.192 49.301 0.37478 607.26 0.0016467 48.588 48.640 0.37160 1.3955 2.1518 1315.6 -0.0059464 259.93 0.14327 0.81570 1.2259 459.16 497.67 2.5353 1.1172 1.3200 211.54 0.62332 5.6608 0.0095750
-64.625 4.8173 0.0015473 51.374 51.489 0.38527 606.16 0.0016497 50.740 50.795 0.38195 1.3974 2.1553 1308.9 -0.0059164 256.65 0.14266 0.85910 1.1640 460.21 498.87 2.5307 1.1212 1.3246 211.89 0.61527 5.6874 0.0096564
-63.625 5.0915 0.0016262 53.560 53.681 0.39573 605.07 0.0016527 52.896 52.954 0.39226 1.3993 2.1588 1302.3 -0.0058861 253.42 0.14205 0.90429 1.1058 461.25 500.07 2.5262 1.1252 1.3293 212.24 0.60736 5.7140 0.0097382
-62.625 5.3781 0.0017080 55.751 55.879 0.40616 603.97 0.0016557 55.055 55.117 0.40254 1.4012 2.1624 1295.7 -0.0058553 250.26 0.14144 0.95134 1.0511 462.30 501.28 2.5218 1.1293 1.3340 212.58 0.59958 5.7406 0.0098201
-61.625 5.6774 0.0017930 57.946 58.081 0.41656 602.87 0.0016587 57.218 57.283 0.41279 1.4031 2.1660 1289.1 -0.0058241 247.16 0.14084 1.0003 0.99972 463.35 502.48 2.5175 1.1333 1.3387 212.92 0.59194 5.7672 0.0099024
-60.625 5.9899 0.0018812 60.146 60.289 0.42694 601.77 0.0016618 59.385 59.453 0.42301 1.4051 2.1697 1282.5 -0.0057925 244.12 0.14023 1.0512 0.95131 464.40 503.68 2.5133 1.1374 1.3435 213.26 0.58442 5.7938 0.0099850
-59.625 6.3160 0.0019727 62.351 62.501 0.43729 600.66 0.0016648 61.554 61.627 0.43320 1.4071 2.1734 1275.9 -0.0057605 241.13 0.13962 1.1041 0.90573 465.45 504.89 2.5091 1.1415 1.3483 213.58 0.57704 5.8203 0.010068
-58.625 6.6561 0.0020675 64.561 64.719 0.44762 599.55 0.0016679 63.728 63.805 0.44335 1.4091 2.1772 1269.3 -0.0057280 238.19 0.13902 1.1591 0.86277 466.50 506.09 2.5051 1.1457 1.3532 213.90 0.56978 5.8468 0.010151
-57.625 7.0107 0.0021658 66.775 66.942 0.45791 598.44 0.0016710 65.905 65.986 0.45348 1.4111 2.1810 1262.7 -0.0056951 235.31 0.13842 1.2161 0.82228 467.55 507.30 2.5011 1.1498 1.3581 214.22 0.56265 5.8733 0.010234
-56.625 7.3801 0.0022676 68.995 69.170 0.46819 597.33 0.0016741 68.086 68.172 0.46358 1.4132 2.1848 1256.1 -0.0056617 232.48 0.13781 1.2754 0.78408 468.60 508.50 2.4972 1.1540 1.3631 214.53 0.55564 5.8998 0.010318
-55.625 7.7648 0.0023730 71.219 71.404 0.47844 596.22 0.0016772 70.271 70.361 0.47364 1.4153 2.1887 1249.5 -0.0056279 229.69 0.13721 1.3369 0.74802 469.66 509.71 2.4934 1.1582 1.3681 214.84 0.54875 5.9263 0.010402
-54.625 8.1652 0.0024820 73.448 73.642 0.48866 595.10 0.0016804 72.460 72.554 0.48368 1.4174 2.1927 1242.9 -0.0055937 226.96 0.13661 1.4006 0.71396 470.72 510.91 2.4897 1.1624 1.3731 215.14 0.54199 5.9527 0.010486
-53.625 8.5819 0.0025948 75.683 75.887 0.49886 593.98 0.0016836 74.652 74.752 0.49369 1.4196 2.1967 1236.3 -0.0055589 224.27 0.13601 1.4667 0.68178 471.77 512.11 2.4860 1.1667 1.3782 215.43 0.53535 5.9792 0.010571
-52.625 9.0151 0.0027114 77.922 78.137 0.50904 592.86 0.0016867 76.849 76.954 0.50368 1.4218 2.2007 1229.8 -0.0055237 221.63 0.13541 1.5353 0.65136 472.83 513.32 2.4824 1.1710 1.3834 215.72 0.52882 6.0056 0.010656
-51.625 9.4655 0.0028319 80.167 80.392 0.51920 591.73 0.0016900 79.049 79.159 0.51363 1.4240 2.2048 1223.2 -0.0054880 219.04 0.13482 1.6062 0.62258 473.89 514.52 2.4789 1.1752 1.3886 216.00 0.52241 6.0320 0.010741
-50.625 9.9335 0.0029565 82.417 82.653 0.52933 590.60 0.0016932 81.253 81.369 0.52356 1.4262 2.2089 1216.6 -0.0054519 216.48 0.13422 1.6797 0.59534 474.95 515.73 2.4755 1.1796 1.3938 216.28 0.51612 6.0584 0.010827
-49.625 10.419 0.0030851 84.673 84.920 0.53945 589.47 0.0016964 83.462 83.584 0.53347 1.4285 2.2131 1210.1 -0.0054152 213.98 0.13363 1.7558 0.56954 476.01 516.93 2.4722 1.1839 1.3991 216.55 0.50994 6.0848 0.010913
-48.625 10.924 0.0032178 86.934 87.193 0.54954 588.34 0.0016997 85.674 85.802 0.54334 1.4308 2.2173 1203.5 -0.0053780 211.51 0.13303 1.8345 0.54510 477.07 518.13 2.4689 1.1883 1.4044 216.82 0.50387 6.1112 0.010999
-47.625 11.448 0.0033548 89.200 89.472 0.55961 587.20 0.0017030 87.891 88.025 0.55319 1.4331 2.2216 1196.9 -0.0053403 209.08 0.13244 1.9159 0.52194 478.14 519.33 2.4657 1.1927 1.4098 217.08 0.49792 6.1375 0.011085
-46.625 11.991 0.0034961 91.472 91.757 0.56966 586.06 0.0017063 90.111 90.252 0.56302 1.4354 2.2259 1190.4 -0.0053020 206.69 0.13185 2.0001 0.49997 479.20 520.53 2.4625 1.1971 1.4153 217.33 0.49207 6.1639 0.011172
-45.625 12.554 0.0036418 93.749 94.047 0.57969 584.92 0.0017096 92.336 92.484 0.57282 1.4378 2.2303 1183.8 -0.0052633 204.34 0.13126 2.0872 0.47912 480.27 521.74 2.4594 1.2015 1.4207 217.58 0.48633 6.1902 0.011259
-44.625 13.137 0.0037920 96.032 96.344 0.58970 583.77 0.0017130 94.565 94.720 0.58260 1.4402 2.2347 1177.3 -0.0052240 202.03 0.13067 2.1771 0.45933 481.33 522.94 2.4564 1.2060 1.4263 217.82 0.48069 6.2165 0.011347
-43.625 13.741 0.0039468 98.321 98.647 0.59970 582.62 0.0017164 96.799 96.961 0.59235 1.4426 2.2392 1170.7 -0.0051841 199.75 0.13008 2.2700 0.44053 482.40 524.14 2.4535 1.2104 1.4319 218.05 0.47516 6.2429 0.011435
-42.625 14.367 0.0041062 100.61 100.96 0.60967 581.47 0.0017198 99.036 99.207 0.60208 1.4450 2.2437 1164.2 -0.0051437 197.51 0.12949 2.3659 0.42267 483.46 525.33 2.4506 1.2149 1.4375 218.28 0.46973 6.2692 0.011523
-41.625 15.015 0.0042703 102.92 103.27 0.61963 580.32 0.0017232 101.28 101.46 0.61179 1.4475 2.2483 1157.7 -0.0051027 195.30 0.12891 2.4649 0.40569 484.53 526.53 2.4478 1.2195 1.4432 218.50 0.46440 6.2955 0.011612
-40.625 15.686 0.0044393 105.22 105.59 0.62957 579.16 0.0017266 103.52 103.71 0.62147 1.4500 2.2529 1151.1 -0.0050611 193.13 0.12832 2.5671 0.38954 485.60 527.73 2.4450 1.2240 1.4489 218.72 0.45917 6.3218 0.011701
-39.625 16.380 0.0046132 107.53 107.92 0.63949 578.00 0.0017301 105.78 105.97 0.63113 1.4525 2.2576 1144.6 -0.0050189 190.99 0.12774 2.6725 0.37418 486.67 528.93 2.4423 1.2286 1.4547 218.93 0.45403 6.3481 0.011790
-38.625 17.097 0.0047921 109.85 110.26 0.64939 576.83 0.0017336 108.03 108.24 0.64077 1.4550 2.2623 1138.0 -0.0049761 188.88 0.12716 2.7813 0.35955 487.74 530.12 2.4397 1.2332 1.4606 219.13 0.44900 6.3744 0.011880
-37.625 17.838 0.0049760 112.17 112.60 0.65928 575.66 0.0017371 110.29 110.51 0.65039 1.4576 2.2671 1131.5 -0.0049327 186.81 0.12658 2.8934 0.34562 488.81 531.32 2.4371 1.2378 1.4665 219.33 0.44405 6.4007 0.011970
-36.625 18.604 0.0051651 114.51 114.95 0.66915 574.49 0.0017407 112.56 112.78 0.65999 1.4602 2.2719 1125.0 -0.0048887 184.76 0.12600 3.0089 0.33235 489.88 532.51 2.4346 1.2424 1.4724 219.52 0.43920 6.4270 0.012060
-35.625 19.395 0.0053595 116.84 117.30 0.67901 573.32 0.0017442 114.83 115.06 0.66956 1.4628 2.2768 1118.5 -0.0048440 182.75 0.12542 3.1280 0.31969 490.95 533.70 2.4321 1.2471 1.4784 219.70 0.43444 6.4533 0.012151
-34.625 20.212 0.0055591 119.18 119.66 0.68885 572.14 0.0017478 117.10 117.34 0.67912 1.4654 2.2818 1111.9 -0.0047987 180.76 0.12485 3.2506 0.30763 492.02 534.89 2.4297 1.2517 1.4845 219.88 0.42977 6.4797 0.012243
-33.625 21.056 0.0057643 121.53 122.03 0.69868 570.96 0.0017514 119.38 119.63 0.68865 1.4681 2.2868 1105.4 -0.0047527 178.80 0.12427 3.3770 0.29612 493.09 536.08 2.4273 1.2564 1.4906 220.05 0.42519 6.5060 0.012334
-32.625 21.926 0.0059749 123.89 124.41 0.70849 569.77 0.0017551 121.66 121.93 0.69817 1.4708 2.2918 1098.9 -0.0047061 176.87 0.12370 3.5071 0.28514 494.17 537.27 2.4250 1.2611 1.4968 220.21 0.42070 6.5323 0.012426
-31.625 22.823 0.0061911 126.25 126.79 0.71828 568.58 0.0017588 123.95 124.23 0.70767 1.4735 2.2970 1092.3 -0.0046587 174.97 0.12313 3.6410 0.27465 495.24 538.46 2.4227 1.2659 1.5031 220.36 0.41629 6.5587 0.012519
-30.625 23.749 0.0064130 128.62 129.18 0.72807 567.39 0.0017625 126.24 126.53 0.71714 1.4762 2.3021 1085.8 -0.0046107 173.09 0.12256 3.7787 0.26464 496.31 539.64 2.4205 1.2706 1.5094 220.51 0.41196 6.5850 0.012612
-29.625 24.703 0.0066406 130.99 131.58 0.73784 566.19 0.0017662 128.54 128.84 0.72660 1.4790 2.3074 1079.3 -0.0045619 171.24 0.12200 3.9205 0.25507 497.38 540.83 2.4184 1.2754 1.5157 220.65 0.40772 6.6114 0.012706
-28.625 25.687 0.0068741 133.37 133.98 0.74759 564.99 0.0017699 130.84 131.16 0.73604 1.4818 2.3126 1072.8 -0.0045124 169.42 0.12143 4.0663 0.24592 498.46 542.01 2.4162 1.2802 1.5222 220.79 0.40356 6.6378 0.012800
-27.625 26.700 0.0071136 135.76 136.39 0.75734 563.78 0.0017737 133.15 133.48 0.74547 1.4846 2.3180 1066.2 -0.0044621 167.62 0.12087 4.2163 0.23717 499.53 543.19 2.4142 1.2850 1.5286 220.91 0.39947 6.6642 0.012894
-26.625 27.743 0.0073590 138.15 138.81 0.76707 562.57 0.0017775 135.47 135.81 0.75487 1.4874 2.3234 1059.7 -0.0044111 165.84 0.12031 4.3705 0.22881 500.60 544.37 2.4122 1.2899 1.5352 221.03 0.39547 6.6906 0.012989
-25.625 28.817 0.0076107 140.55 141.24 0.77678 561.36 0.0017814 137.78 138.14 0.76426 1.4902 2.3289 1053.2 -0.0043593 164.09 0.11975 4.5290 0.22080 501.68 545.55 2.4102 1.2947 1.5418 221.14 0.39154 6.7171 0.013084
-24.625 29.923 0.0078685 142.96 143.67 0.78649 560.14 0.0017853 140.11 140.48 0.77363 1.4931 2.3344 1046.7 -0.0043067 162.36 0.11919 4.6918 0.21314 502.75 546.72 2.4083 1.2996 1.5485 221.25 0.38768 6.7436 0.013180
-23.625 31.061 0.0081326 145.37 146.11 0.79619 558.92 0.0017892 142.44 142.82 0.78298 1.4960 2.3400 1040.1 -0.0042533 160.65 0.11863 4.8592 0.20580 503.82 547.90 2.4064 1.3045 1.5552 221.35 0.38391 6.7701 0.013277
-22.625 32.232 0.0084031 147.80 148.56 0.80587 557.69 0.0017931 144.77 145.17 0.79232 1.4990 2.3457 1033.6 -0.0041990 158.97 0.11807 5.0311 0.19877 504.90 549.07 2.4045 1.3095 1.5621 221.44 0.38020 6.7967 0.013374
-21.625 33.435 0.0086801 150.22 151.02 0.81554 556.46 0.0017971 147.11 147.52 0.80164 1.5019 2.3514 1027.1 -0.0041439 157.30 0.11752 5.2076 0.19203 505.97 550.24 2.4027 1.3144 1.5690 221.52 0.37656 6.8232 0.013471
-20.625 34.673 0.0089636 152.66 153.48 0.82520 555.23 0.0018011 149.45 149.88 0.81095 1.5049 2.3572 1020.6 -0.0040879 155.66 0.11697 5.3889 0.18557 507.04 551.40 2.4010 1.3194 1.5759 221.59 0.37300 6.8499 0.013569
-19.625 35.946 0.0092538 155.10 155.96 0.83485 553.99 0.0018051 151.80 152.25 0.82024 1.5079 2.3630 1014.0 -0.0040311 154.04 0.11642 5.5750 0.17937 508.11 552.57 2.3992 1.3244 1.5829 221.66 0.36950 6.8765 0.013668
-18.625 37.253 0.0095508 157.55 158.44 0.84450 552.74 0.0018092 154.16 154.62 0.82952 1.5109 2.3689 1007.5 -0.0039733 152.44 0.11587 5.7660 0.17343 509.19 553.73 2.3976 1.3294 1.5901 221.72 0.36608 6.9032 0.013767
-17.625 38.596 0.0098545 160.01 160.92 0.85413 551.49 0.0018133 156.52 157.00 0.83878 1.5140 2.3749 1001.0 -0.0039145 150.86 0.11532 5.9621 0.16773 510.26 554.89 2.3959 1.3345 1.5972 221.77 0.36272 6.9300 0.013867
-16.625 39.976 0.010165 162.47 163.42 0.86375 550.24 0.0018174 158.89 159.39 0.84803 1.5171 2.3810 994.44 -0.0038549 149.29 0.11478 6.1632 0.16225 511.33 556.05 2.3943 1.3395 1.6045 221.81 0.35942 6.9568 0.013968
-15.625 41.392 0.010483 164.94 165.92 0.87336 548.98 0.0018216 161.26 161.78 0.85726 1.5202 2.3871 987.91 -0.0037942 147.75 0.11423 6.3696 0.15700 512.40 557.20 2.3927 1.3446 1.6119 221.85 0.35619 6.9836 0.014069
-14.625 42.846 0.010808 167.42 168.44 0.88296 547.71 0.0018258 163.64 164.18 0.86649 1.5233 2.3933 981.37 -0.0037325 146.22 0.11369 6.5812 0.15195 513.47 558.36 2.3912 1.3497 1.6193 221.87 0.35302 7.0105 0.014170
-13.625 44.338 0.011140 169.90 170.96 0.89256 546.44 0.0018300 166.02 166.58 0.87569 1.5264 2.3996 974.83 -0.0036698 144.72 0.11315 6.7983 0.14710 514.54 559.51 2.3897 1.3549 1.6268 221.89 0.34992 7.0375 0.014273
-12.625 45.870 0.011479 172.40 173.49 0.90215 545.17 0.0018343 168.41 168.99 0.88489 1.5296 2.4059 968.29 -0.0036061 143.23 0.11261 7.0208 0.14243 515.61 560.65 2.3883 1.3600 1.6344 221.90 0.34688 7.0646 0.014376
-11.625 47.440 0.011826 174.90 176.02 0.91172 543.89 0.0018386 170.81 171.41 0.89407 1.5328 2.4124 961.75 -0.0035413 141.76 0.11208 7.2490 0.13795 516.68 561.80 2.3868 1.3652 1.6421 221.91 0.34389 7.0917 0.014479
-10.625 49.051 0.012180 177.40 178.57 0.92129 542.60 0.0018430 173.21 173.83 0.90324 1.5360 2.4189 955.20 -0.0034753 140.30 0.11154 7.4829 0.13364 517.75 562.94 2.3854 1.3704 1.6498 221.90 0.34097 7.1188 0.014584
-9.6250 50.703 0.012542 179.92 181.12 0.93086 541.31 0.0018474 175.61 176.26 0.91240 1.5393 2.4255 948.65 -0.0034082 138.86 0.11101 7.7226 0.12949 518.81 564.08 2.3841 1.3757 1.6577 221.88 0.33810 7.1461 0.014689
-8.6250 52.396 0.012912 182.44 183.69 0.94041 540.02 0.0018518 178.03 178.70 0.92154 1.5426 2.4321 942.10 -0.0033400 137.44 0.11048 7.9683 0.12550 519.88 565.21 2.3827 1.3809 1.6657 221.86 0.33529 7.1734 0.014795
-7.6250 54.131 0.013289 184.97 186.26 0.94996 538.72 0.0018563 180.45 181.14 0.93068 1.5459 2.4389 935.55 -0.0032705 136.03 0.10995 8.2200 0.12165 520.94 566.35 2.3814 1.3862 1.6737 221.83 0.33254 7.2008 0.014902
-6.6250 55.909 0.013674 187.51 188.84 0.95950 537.41 0.0018608 182.87 183.59 0.93980 1.5492 2.4457 928.99 -0.0031998 134.64 0.10942 8.4779 0.11795 522.01 567.48 2.3801 1.3915 1.6819 221.79 0.32984 7.2284 0.015009
-5.6250 57.730 0.014067 190.06 191.43 0.96903 536.10 0.0018653 185.30 186.05 0.94892 1.5525 2.4526 922.43 -0.0031279 133.27 0.10889 8.7420 0.11439 523.07 568.60 2.3789 1.3969 1.6902 221.74 0.32720 7.2560 0.015117
-4.6250 59.595 0.014469 192.61 194.03 0.97856 534.78 0.0018699 187.74 188.51 0.95802 1.5559 2.4596 915.87 -0.0030546 131.91 0.10837 9.0126 0.11096 524.13 569.72 2.3777 1.4022 1.6985 221.68 0.32461 7.2837 0.015226
-3.6250 61.505 0.014878 195.17 196.63 0.98808 533.45 0.0018746 190.19 190.98 0.96711 1.5593 2.4667 909.30 -0.0029800 130.56 0.10785 9.2896 0.10765 525.19 570.84 2.3765 1.4076 1.7070 221.62 0.32207 7.3115 0.015336
-2.6250 63.461 0.015296 197.74 199.25 0.99760 532.12 0.0018793 192.64 193.46 0.97620 1.5627 2.4739 902.73 -0.0029041 129.23 0.10733 9.5733 0.10446 526.25 571.96 2.3753 1.4131 1.7156 221.54 0.31958 7.3394 0.015447
-1.6250 65.462 0.015722 200.32 201.87 1.0071 530.78 0.0018840 195.10 195.95 0.98527 1.5662 2.4811 896.16 -0.0028267 127.91 0.10681 9.8638 0.10138 527.31 573.07 2.3742 1.4185 1.7243 221.45 0.31715 7.3674 0.015559
-0.62500 67.510 0.016156 202.90 204.51 1.0166 529.44 0.0018888 197.56 198.44 0.99434 1.5696 2.4885 889.58 -0.0027478 126.61 0.10629 10.161 0.098414 528.37 574.18 2.3731 1.4240 1.7331 221.36 0.31476 7.3956 0.015671
0.37500 69.606 0.016599 205.50 207.15 1.0261 528.09 0.0018936 200.03 200.94 1.0034 1.5731 2.4960 883.00 -0.0026675 125.32 0.10578 10.466 0.095552 529.42 575.28 2.3720 1.4295 1.7421 221.26 0.31242 7.4239 0.015785
1.3750 71.749 0.017051 208.10 209.80 1.0356 526.73 0.0018985 202.51 203.45 1.0124 1.5767 2.5035 876.42 -0.0025856 124.04 0.10527 10.777 0.092790 530.48 576.38 2.3709 1.4350 1.7512 221.14 0.31013 7.4523 0.015899
2.3750 73.941 0.017511 210.71 212.47 1.0451 525.37 0.0019034 204.99 205.96 1.0215 1.5802 2.5112 869.83 -0.0025022 122.78 0.10476 11.096 0.090123 531.53 577.47 2.3699 1.4406 1.7604 221.02 0.30789 7.4808 0.016015
3.3750 76.183 0.017980 213.33 215.14 1.0546 523.99 0.0019084 207.48 208.48 1.0305 1.5838 2.5190 863.24 -0.0024171 121.53 0.10425 11.422 0.087549 532.58 578.56 2.3688 1.4462 1.7697 220.89 0.30569 7.5095 0.016131
4.3750 78.475 0.018459 215.95 217.82 1.0641 522.62 0.0019134 209.98 211.01 1.0395 1.5874 2.5268 856.64 -0.0023303 120.29 0.10374 11.756 0.085062 533.63 579.65 2.3678 1.4518 1.7792 220.75 0.30354 7.5384 0.016249
5.3750 80.817 0.018946 218.59 220.51 1.0735 521.23 0.0019185 212.48 213.55 1.0486 1.5910 2.5348 850.04 -0.0022417 119.06 0.10324 12.098 0.082660 534.67 580.73 2.3669 1.4575 1.7888 220.60 0.30144 7.5674 0.016368
6.3750 83.211 0.019443 221.23 223.21 1.0830 519.84 0.0019237 215.00 216.10 1.0576 1.5946 2.5429 843.43 -0.0021514 117.85 0.10273 12.447 0.080340 535.72 581.81 2.3659 1.4632 1.7986 220.44 0.29938 7.5966 0.016487
7.3750 85.657 0.019948 223.88 225.92 1.0925 518.44 0.0019289 217.51 218.65 1.0666 1.5983 2.5511 836.82 -0.0020593 116.65 0.10223 12.805 0.078096 536.76 582.88 2.3650 1.4689 1.8085 220.27 0.29736 7.6259 0.016608
8.3750 88.156 0.020463 226.54 228.64 1.1019 517.03 0.0019341 220.04 221.22 1.0756 1.6020 2.5595 830.20 -0.0019652 115.46 0.10173 13.170 0.075928 537.80 583.95 2.3640 1.4746 1.8186 220.08 0.29538 7.6555 0.016730
9.3750 90.708 0.020988 229.21 231.37 1.1114 515.62 0.0019394 222.57 223.79 1.0846 1.6057 2.5679 823.58 -0.0018691 114.28 0.10124 13.545 0.073830 538.84 585.01 2.3631 1.4804 1.8288 219.89 0.29345 7.6852 0.016853
10.375 93.315 0.021522 231.89 234.11 1.1209 514.19 0.0019448 225.11 226.37 1.0936 1.6095 2.5765 816.96 -0.0017710 113.11 0.10074 13.927 0.071802 539.87 586.07 2.3622 1.4863 1.8392 219.69 0.29156 7.7151 0.016978
11.375 95.977 0.022066 234.57 236.86 1.1303 512.76 0.0019502 227.66 228.95 1.1025 1.6132 2.5852 810.32 -0.0016708 111.95 0.10025 14.319 0.069840 540.90 587.12 2.3614 1.4921 1.8498 219.48 0.28971 7.7452 0.017103
12.375 98.694 0.022620 237.27 239.62 1.1398 511.32 0.0019557 230.22 231.55 1.1115 1.6170 2.5940 803.68 -0.0015685 110.80 0.099756 14.719 0.067941 541.93 588.17 2.3605 1.4980 1.8605 219.26 0.28790 7.7756 0.017230
13.375 101.47 0.023183 239.97 242.38 1.1492 509.87 0.0019613 232.78 234.15 1.1205 1.6208 2.6030 797.04 -0.0014639 109.67 0.099267 15.128 0.066103 542.96 589.21 2.3597 1.5040 1.8715 219.03 0.28612 7.8061 0.017359
14.375 104.30 0.023757 242.68 245.16 1.1587 508.42 0.0019669 235.35 236.77 1.1295 1.6247 2.6121 790.39 -0.0013569 108.54 0.098779 15.547 0.064323 543.99 590.24 2.3588 1.5099 1.8826 218.79 0.28439 7.8369 0.017488
15.375 107.19 0.024341 245.41 247.95 1.1681 506.95 0.0019726 237.93 239.39 1.1384 1.6286 2.6214 783.73 -0.0012476 107.43 0.098294 15.974 0.062600 545.01 591.27 2.3580 1.5159 1.8940 218.53 0.28270 7.8680 0.017619
16.375 110.13 0.024935 248.14 250.75 1.1776 505.48 0.0019783 240.52 242.02 1.1474 1.6324 2.6308 777.07 -0.0011357 106.32 0.097810 16.412 0.060931 546.03 592.29 2.3572 1.5220 1.9055 218.27 0.28104 7.8993 0.017752
17.375 113.14 0.025539 250.87 253.56 1.1870 504.00 0.0019841 243.11 244.66 1.1564 1.6364 2.6403 770.40 -0.0010213 105.22 0.097328 16.859 0.059314 547.04 593.31 2.3564 1.5281 1.9172 217.99 0.27942 7.9308 0.017886
18.375 116.21 0.026154 253.62 256.39 1.1965 502.50 0.0019900 245.72 247.31 1.1653 1.6403 2.6501 763.72 -0.00090422 104.14 0.096848 17.317 0.057747 548.05 594.32 2.3557 1.5342 1.9292 217.71 0.27783 7.9626 0.018021
19.375 119.33 0.026779 256.38 259.22 1.2059 501.00 0.0019960 248.33 249.97 1.1743 1.6443 2.6599 757.04 -0.00078435 103.06 0.096371 17.785 0.056228 549.06 595.33 2.3549 1.5404 1.9414 217.41 0.27628 7.9947 0.018159
20.375 122.52 0.027415 259.15 262.06 1.2153 499.49 0.0020020 250.95 252.64 1.1832 1.6483 2.6700 750.35 -0.00066161 101.99 0.095895 18.263 0.054756 550.07 596.32 2.3541 1.5466 1.9538 217.10 0.27477 8.0272 0.018297
21.375 125.77 0.028061 261.92 264.91 1.2248 497.97 0.0020082 253.57 255.32 1.1922 1.6523 2.6802 743.64 -0.00053589 100.93 0.095420 18.752 0.053328 551.07 597.31 2.3534 1.5528 1.9665 216.78 0.27329 8.0599 0.018438
22.375 129.08 0.028719 264.71 267.78 1.2342 496.43 0.0020144 256.21 258.00 1.2012 1.6563 2.6906 736.94 -0.00040708 99.877 0.094948 19.252 0.051943 552.07 598.30 2.3526 1.5591 1.9795 216.45 0.27184 8.0929 0.018580
23.375 132.46 0.029388 267.50 270.65 1.2437 494.89 0.0020206 258.86 260.70 1.2101 1.6604 2.7012 730.22 -0.00027505 98.834 0.094478 19.763 0.050600 553.06 599.27 2.3519 1.5655 1.9927 216.11 0.27043 8.1263 0.018724
24.375 135.90 0.030067 270.30 273.54 1.2531 493.34 0.0020270 261.51 263.41 1.2191 1.6645 2.7120 723.49 -0.00013968 97.800 0.094009 20.285 0.049297 554.05 600.24 2.3512 1.5718 2.0061 215.75 0.26906 8.1600 0.018870
25.375 139.41 0.030758 273.12 276.43 1.2625 491.77 0.0020335 264.17 266.13 1.2280 1.6686 2.7230 716.76 -8.3775e-07 96.773 0.093543 20.820 0.048032 555.03 601.20 2.3504 1.5783 2.0199 215.39 0.26771 8.1941 0.019017
26.375 142.98 0.031461 275.94 279.34 1.2720 490.20 0.0020400 266.84 268.85 1.2370 1.6728 2.7342 710.01 0.00014161 95.755 0.093078 21.366 0.046804 556.01 602.15 2.3497 1.5847 2.0340 215.01 0.26640 8.2286 0.019167
27.375 146.62 0.032174 278.77 282.26 1.2814 488.61 0.0020466 269.52 271.59 1.2459 1.6770 2.7456 703.26 0.00028782 94.745 0.092615 21.924 0.045612 556.99 603.10 2.3490 1.5913 2.0484 214.62 0.26512 8.2634 0.019319
28.375 150.33 0.032899 281.61 285.19 1.2909 487.01 0.0020533 272.21 274.34 1.2549 1.6812 2.7573 696.49 0.00043793 93.742 0.092154 22.495 0.044454 557.96 604.03 2.3483 1.5978 2.0631 214.21 0.26387 8.2987 0.019472
29.375 154.10 0.033636 284.47 288.13 1.3003 485.40 0.0020601 274.91 277.10 1.2638 1.6854 2.7691 689.72 0.00059212 92.747 0.091695 23.079 0.043329 558.92 604.96 2.3476 1.6044 2.0781 213.80 0.26265 8.3344 0.019628
30.375 157.94 0.034385 287.33 291.08 1.3097 483.78 0.0020671 277.62 279.87 1.2728 1.6897 2.7813 682.93 0.00075055 91.760 0.091238 23.676 0.042237 559.88 605.88 2.3469 1.6111 2.0935 213.37 0.26147 8.3705 0.019786
31.375 161.86 0.035145 290.20 294.05 1.3192 482.15 0.0020741 280.34 282.66 1.2818 1.6939 2.7936 676.13 0.00091340 90.779 0.090782 24.287 0.041175 560.84 606.79 2.3462 1.6178 2.1092 212.93 0.26031 8.4071 0.019947
32.375 165.84 0.035918 293.08 297.02 1.3286 480.50 0.0020812 283.07 285.45 1.2908 1.6983 2.8063 669.32 0.0010809 89.806 0.090328 24.911 0.040143 561.79 607.69 2.3455 1.6246 2.1254 212.48 0.25919 8.4442 0.020110
33.375 169.90 0.036702 295.97 300.01 1.3381 478.83 0.0020884 285.81 288.26 1.2997 1.7026 2.8192 662.50 0.0012532 88.840 0.089876 25.549 0.039140 562.73 608.58 2.3448 1.6314 2.1419 212.01 0.25809 8.4818 0.020275
34.375 174.02 0.037499 298.87 303.01 1.3475 477.16 0.0020957 288.56 291.07 1.3087 1.7070 2.8324 655.67 0.0014305 87.880 0.089426 26.202 0.038164 563.67 609.46 2.3440 1.6383 2.1589 211.53 0.25702 8.5199 0.020443
35.375 178.22 0.038308 301.79 306.02 1.3570 475.47 0.0021032 291.32 293.90 1.3177 1.7114 2.8459 648.82 0.0016131 86.927 0.088977 26.870 0.037216 564.60 610.33 2.3433 1.6452 2.1763 211.04 0.25599 8.5586 0.020613
36.375 182.50 0.039129 304.71 309.05 1.3664 473.77 0.0021107 294.09 296.74 1.3267 1.7158 2.8597 641.96 0.0018012 85.980 0.088531 27.553 0.036293 565.52 611.19 2.3426 1.6522 2.1942 210.53 0.25498 8.5978 0.020786
37.375 186.84 0.039963 307.64 312.08 1.3759 472.05 0.0021184 296.87 299.60 1.3357 1.7203 2.8739 635.08 0.0019950 85.040 0.088085 28.252 0.035395 566.44 612.04 2.3419 1.6592 2.2125 210.01 0.25400 8.6376 0.020962
38.375 191.27 0.040809 310.58 315.13 1.3854 470.31 0.0021262 299.66 302.46 1.3447 1.7248 2.8884 628.19 0.0021949 84.105 0.087642 28.967 0.034522 567.35 612.88 2.3411 1.6663 2.2314 209.47 0.25305 8.6780 0.021141
39.375 195.77 0.041668 313.54 318.19 1.3948 468.56 0.0021342 302.46 305.34 1.3537 1.7293 2.9033 621.29 0.0024011 83.177 0.087200 29.699 0.033671 568.26 613.70 2.3404 1.6734 2.2508 208.92 0.25213 8.7190 0.021323
40.375 200.34 0.042539 316.50 321.26 1.4043 466.80 0.0021423 305.27 308.23 1.3627 1.7339 2.9185 614.37 0.0026140 82.254 0.086760 30.447 0.032844 569.15 614.52 2.3396 1.6806 2.2708 208.36 0.25123 8.7608 0.021508
41.375 205.00 0.043424 319.47 324.35 1.4138 465.01 0.0021505 308.10 311.14 1.3718 1.7385 2.9342 607.43 0.0028338 81.338 0.086322 31.214 0.032037 570.04 615.32 2.3389 1.6879 2.2913 207.78 0.25037 8.8032 0.021696
42.375 209.73 0.044321 322.46 327.45 1.4232 463.21 0.0021588 310.94 314.06 1.3808 1.7432 2.9502 600.47 0.0030609 80.426 0.085885 31.998 0.031252 570.92 616.11 2.3381 1.6952 2.3125 207.19 0.24953 8.8463 0.021888
43.375 214.54 0.045231 325.46 330.56 1.4327 461.40 0.0021673 313.79 316.99 1.3899 1.7478 2.9667 593.50 0.0032957 79.520 0.085449 32.800 0.030488 571.79 616.88 2.3373 1.7027 2.3344 206.58 0.24871 8.8902 0.022084
44.375 219.43 0.046154 328.46 333.68 1.4422 459.56 0.0021760 316.65 319.94 1.3989 1.7525 2.9837 586.51 0.0035386 78.619 0.085015 33.622 0.029742 572.65 617.65 2.3365 1.7101 2.3569 205.96 0.24793 8.9349 0.022283
45.375 224.41 0.047089 331.48 336.82 1.4517 457.71 0.0021848 319.52 322.90 1.4080 1.7573 3.0012 579.50 0.0037900 77.723 0.084583 34.463 0.029016 573.50 618.40 2.3357 1.7177 2.3802 205.32 0.24717 8.9805 0.022485
46.375 229.46 0.048038 334.51 339.97 1.4612 455.83 0.0021938 322.41 325.88 1.4171 1.7621 3.0192 572.46 0.0040504 76.832 0.084152 35.325 0.028308 574.34 619.13 2.3349 1.7253 2.4042 204.67 0.24644 9.0269 0.022692
47.375 234.60 0.049000 337.55 343.13 1.4707 453.94 0.0022029 325.31 328.87 1.4262 1.7669 3.0377 565.41 0.0043202 75.946 0.083723 36.208 0.027618 575.17 619.85 2.3340 1.7329 2.4291 204.00 0.24573 9.0742 0.022903
48.375 239.83 0.049974 340.60 346.31 1.4802 452.03 0.0022123 328.22 331.88 1.4353 1.7718 3.0569 558.34 0.0046000 75.064 0.083295 37.112 0.026945 576.00 620.55 2.3332 1.7407 2.4548 203.31 0.24505 9.1224 0.023119
49.375 245.13 0.050962 343.67 349.49 1.4897 450.09 0.0022218 331.15 334.90 1.4445 1.7767 3.0766 551.24 0.0048904 74.186 0.082868 38.039 0.026289 576.81 621.24 2.3323 1.7485 2.4815 202.61 0.24440 9.1716 0.023339
50.375 250.53 0.051962 346.74 352.70 1.4992 448.13 0.0022315 334.09 337.94 1.4536 1.7817 3.0970 544.13 0.0051920 73.313 0.082442 38.989 0.025648 577.61 621.91 2.3314 1.7564 2.5092 201.89 0.24377 9.2219 0.023564
51.375 256.01 0.052975 349.83 355.92 1.5088 446.15 0.0022414 337.04 341.00 1.4628 1.7867 3.1181 536.98 0.0055054 72.443 0.082018 39.962 0.025024 578.39 622.56 2.3304 1.7644 2.5379 201.16 0.24317 9.2733 0.023794
52.375 261.57 0.054001 352.93 359.15 1.5183 444.15 0.0022515 340.01 344.07 1.4720 1.7918 3.1400 529.82 0.0058313 71.577 0.081595 40.961 0.024414 579.17 623.20 2.3295 1.7724 2.5677 200.41 0.24260 9.3258 0.024029
53.375 267.23 0.055039 356.04 362.39 1.5278 442.12 0.0022618 343.00 347.17 1.4812 1.7969 3.1627 522.62 0.0061705 70.715 0.081174 41.985 0.023818 579.93 623.81 2.3285 1.7805 2.5987 199.63 0.24205 9.3795 0.024270
54.375 272.97 0.056089 359.16 365.65 1.5374 440.06 0.0022724 346.00 350.28 1.4904 1.8021 3.1862 515.40 0.0065239 69.856 0.080753 43.036 0.023237 580.68 624.41 2.3274 1.7887 2.6310 198.85 0.24154 9.4344 0.024516
55.375 278.81 0.057152 362.30 368.93 1.5470 437.98 0.0022832 349.02 353.40 1.4997 1.8073 3.2106 508.15 0.0068923 69.001 0.080334 44.114 0.022669 581.41 624.99 2.3264 1.7969 2.6646 198.04 0.24105 9.4907 0.024769
56.375 284.74 0.058226 365.45 372.21 1.5565 435.87 0.0022943 352.05 356.55 1.5090 1.8126 3.2360 500.87 0.0072767 68.148 0.079915 45.221 0.022114 582.13 625.54 2.3253 1.8052 2.6998 197.22 0.24059 9.5484 0.025028
57.375 290.76 0.059312 368.61 375.52 1.5661 433.73 0.0023056 355.10 359.72 1.5183 1.8179 3.2624 493.56 0.0076782 67.299 0.079498 46.358 0.021571 582.83 626.07 2.3241 1.8136 2.7365 196.37 0.24016 9.6075 0.025294
58.375 296.87 0.060410 371.78 378.84 1.5757 431.56 0.0023172 358.17 362.91 1.5276 1.8233 3.2900 486.22 0.0080980 66.451 0.079082 47.525 0.021041 583.52 626.58 2.3230 1.8220 2.7749 195.51 0.23976 9.6682 0.025568
59.375 303.08 0.061517 374.97 382.17 1.5853 429.36 0.0023290 361.25 366.12 1.5370 1.8288 3.3188 478.84 0.0085373 65.606 0.078666 48.726 0.020523 584.18 627.07 2.3218 1.8305 2.8152 194.63 0.23939 9.7305 0.025849
60.375 309.38 0.062635 378.17 385.52 1.5949 427.13 0.0023412 364.36 369.35 1.5464 1.8343 3.3489 471.43 0.0089976 64.763 0.078251 49.960 0.020016 584.83 627.53 2.3205 1.8391 2.8576 193.73 0.23905 9.7945 0.026138
61.375 315.78 0.063763 381.38 388.89 1.6045 424.87 0.0023537 367.48 372.60 1.5558 1.8400 3.3805 463.99 0.0094803 63.922 0.077838 51.229 0.019520 585.46 627.96 2.3192 1.8479 2.9022 192.82 0.23873 9.8603 0.026436
62.375 322.28 0.064899 384.61 392.27 1.6141 422.56 0.0023665 370.62 375.88 1.5653 1.8457 3.4136 456.50 0.0099871 63.083 0.077425 52.535 0.019035 586.07 628.37 2.3178 1.8567 2.9492 191.88 0.23845 9.9281 0.026744
63.375 328.88 0.066043 387.85 395.67 1.6238 420.22 0.0023797 373.79 379.18 1.5748 1.8514 3.4483 448.97 0.010520 62.244 0.077012 53.879 0.018560 586.66 628.74 2.3164 1.8656 2.9989 190.92 0.23819 9.9979 0.027061
64.375 335.58 0.067194 391.10 399.08 1.6334 417.85 0.0023932 376.97 382.51 1.5844 1.8573 3.4850 441.40 0.011081 61.407 0.076600 55.265 0.018095 587.22 629.09 2.3149 1.8747 3.0517 189.95 0.23796 10.070 0.027389
65.375 342.38 0.068350 394.37 402.51 1.6431 415.42 0.0024072 380.18 385.86 1.5939 1.8633 3.5236 433.79 0.011672 60.570 0.076189 56.692 0.017639 587.76 629.40 2.3133 1.8839 3.1077 188.95 0.23775 10.144 0.027729
66.375 349.28 0.069510 397.65 405.96 1.6528 412.96 0.0024215 383.41 389.25 1.6036 1.8693 3.5645 426.12 0.012296 59.733 0.075779 58.165 0.017193 588.28 629.68 2.3117 1.8933 3.1674 187.93 0.23757 10.221 0.028080
67.375 356.28 0.070672 400.95 409.42 1.6625 410.45 0.0024363 386.67 392.65 1.6133 1.8755 3.6078 418.41 0.012956 58.897 0.075368 59.684 0.016755 588.76 629.92 2.3100 1.9030 3.2311 186.89 0.23740 10.300 0.028446
68.375 363.40 0.071835 404.27 412.91 1.6722 407.89 0.0024516 389.95 396.09 1.6230 1.8818 3.6537 410.64 0.013655 58.059 0.074959 61.253 0.016326 589.22 630.13 2.3082 1.9129 3.2994 185.83 0.23724 10.382 0.028825
69.375 370.61 0.072995 407.60 416.41 1.6820 405.28 0.0024674 393.26 399.57 1.6328 1.8882 3.7027 402.81 0.014396 57.221 0.074549 62.875 0.015905 589.65 630.29 2.3064 1.9231 3.3727 184.74 0.23710 10.467 0.029221
70.375 377.94 0.074150 410.94 419.93 1.6917 402.62 0.0024838 396.60 403.07 1.6426 1.8947 3.7550 394.92 0.015183 56.381 0.074141 64.552 0.015491 590.04 630.41 2.3044 1.9336 3.4518 183.63 0.23697 10.555 0.029633
71.375 385.37 0.075297 414.30 423.47 1.7015 399.89 0.0025007 399.96 406.61 1.6525 1.9014 3.8109 386.97 0.016021 55.540 0.073732 66.288 0.015086 590.40 630.49 2.3024 1.9444 3.5371 182.50 0.23684 10.647 0.030064
72.375 392.92 0.076430 417.68 427.02 1.7113 397.11 0.0025182 403.36 410.18 1.6625 1.9083 3.8711 378.95 0.016915 54.696 0.073324 68.087 0.014687 590.73 630.51 2.3002 1.9556 3.6297 181.34 0.23671 10.743 0.030515
73.375 400.57 0.077547 421.08 430.60 1.7211 394.26 0.0025364 406.79 413.80 1.6726 1.9153 3.9359 370.85 0.017871 53.848 0.072917 69.953 0.014295 591.01 630.49 2.2979 1.9673 3.7303 180.16 0.23658 10.842 0.030989
74.375 408.34 0.078639 424.49 434.20 1.7309 391.34 0.0025553 410.26 417.45 1.6827 1.9226 4.0060 362.67 0.018894 52.997 0.072510 71.890 0.013910 591.25 630.41 2.2955 1.9793 3.8401 178.95 0.23643 10.946 0.031488
75.375 416.23 0.079701 427.92 437.82 1.7408 388.34 0.0025751 413.76 421.15 1.6930 1.9301 4.0822 354.41 0.019993 52.142 0.072104 73.904 0.013531 591.44 630.27 2.2930 1.9919 3.9604 177.71 0.23627 11.054 0.032014
76.375 424.23 0.080724 431.38 441.46 1.7507 385.26 0.0025957 417.31 424.90 1.7033 1.9378 4.1654 346.06 0.021177 51.281 0.071699 76.001 0.013158 591.59 630.07 2.2903 2.0050 4.0927 176.44 0.23609 11.168 0.032570
77.375 432.35 0.081698 434.85 445.13 1.7606 382.09 0.0026172 420.89 428.70 1.7137 1.9459 4.2565 337.60 0.022455 50.414 0.071295 78.187 0.012790 591.68 629.80 2.2874 2.0186 4.2389 175.15 0.23588 11.287 0.033161
78.375 440.59 0.082610 438.34 448.81 1.7705 378.83 0.0026397 424.53 432.54 1.7243 1.9543 4.3570 329.05 0.023838 49.539 0.070893 80.469 0.012427 591.71 629.46 2.2844 2.0328 4.4012 173.82 0.23563 11.412 0.033789
79.375 448.95 0.083444 441.85 452.52 1.7805 375.46 0.0026634 428.21 436.45 1.7349 1.9631 4.4684 320.38 0.025341 48.657 0.070494 82.856 0.012069 591.68 629.04 2.2812 2.0475 4.5824 172.46 0.23535 11.544 0.034461
80.375 457.44 0.084182 445.38 456.26 1.7905 371.97 0.0026884 431.94 440.42 1.7457 1.9723 4.5928 311.58 0.026980 47.764 0.070099 85.359 0.011715 591.58 628.53 2.2778 2.0630 4.7859 171.07 0.23501 11.684 0.035181
81.375 466.05 0.084797 448.94 460.02 1.8006 368.36 0.0027147 435.74 444.46 1.7567 1.9820 4.7327 302.66 0.028773 46.860 0.069708 87.988 0.011365 591.40 627.92 2.2742 2.0791 5.0161 169.64 0.23461 11.832 0.035957
82.375 474.79 0.085261 452.52 463.81 1.8107 364.61 0.0027427 439.60 448.58 1.7678 1.9924 4.8914 293.60 0.030744 45.942 0.069323 90.757 0.011018 591.14 627.21 2.2703 2.0959 5.2786 168.17 0.23413 11.989 0.036797
83.375 483.66 0.085532 456.13 467.63 1.8208 360.70 0.0027724 443.53 452.78 1.7791 2.0034 5.0731 284.38 0.032920 45.010 0.068948 93.681 0.010674 590.79 626.38 2.2661 2.1136 5.5807 166.67 0.23357 12.157 0.037711
84.375 492.67 0.085560 459.76 471.47 1.8310 356.61 0.0028041 447.54 457.07 1.7907 2.0153 5.2834 275.00 0.035335 44.059 0.068586 96.781 0.010333 590.33 625.42 2.2616 2.1321 5.9321 165.13 0.23290 12.338 0.038713
85.375 501.81 0.085274 463.42 475.35 1.8412 352.33 0.0028382 451.65 461.47 1.8025 2.0281 5.5302 265.44 0.038030 43.088 0.068241 100.08 0.0099920 589.74 624.31 2.2567 2.1517 6.3459 163.54 0.23209 12.532 0.039819
86.375 511.09 0.084582 467.12 479.27 1.8515 347.82 0.0028751 455.85 465.98 1.8145 2.0420 5.8240 255.69 0.041058 42.092 0.067923 103.61 0.0096520 589.03 623.04 2.2514 2.1723 6.8405 161.91 0.23112 12.743 0.041051
87.375 520.51 0.083354 470.84 483.22 1.8618 343.04 0.0029151 460.18 470.64 1.8269 2.0574 6.1803 245.72 0.044485 41.066 0.067640 107.40 0.0093114 588.15 621.56 2.2456 2.1943 7.4422 160.23 0.22995 12.973 0.042436
88.375 530.07 0.081405 474.61 487.21 1.8722 337.95 0.0029590 464.64 475.45 1.8397 2.0745 6.6221 235.52 0.048397 40.005 0.067412 111.50 0.0089689 587.08 619.86 2.2392 2.2178 8.1900 158.49 0.22854 13.226 0.044014
89.375 539.79 0.078461 478.41 491.24 1.8828 332.48 0.0030077 469.27 480.46 1.8530 2.0936 7.1851 225.04 0.052906 38.901 0.067265 115.97 0.0086228 585.79 617.88 2.2321 2.2433 9.1445 156.69 0.22681 13.508 0.045839
90.375 549.66 0.074098 482.26 495.33 1.8934 326.55 0.0030623 474.10 485.71 1.8669 2.1156 7.9284 214.26 0.058166 37.742 0.067243 120.91 0.0082708 584.22 615.56 2.2241 2.2711 10.405 154.82 0.22467 13.825 0.047992
91.375 559.68 0.067622 486.16 499.47 1.9041 320.03 0.0031247 479.19 491.25 1.8815 2.1412 8.9568 203.11 0.064389 36.514 0.067421 126.43 0.0079097 582.29 612.82 2.2150 2.3019 12.146 152.85 0.22200 14.189 0.050600
92.375 569.87 0.057799 490.12 503.67 1.9149 312.73 0.0031976 484.62 497.18 1.8972 2.1718 10.475 191.54 0.071885 35.195 0.067931 132.72 0.0075346 579.91 609.51 2.2045 2.3370 14.705 150.75 0.21862 14.618 0.053877
93.375 580.24 0.042193 494.17 507.96 1.9260 304.34 0.0032858 490.52 503.67 1.9143 2.2100 12.945 179.43 0.081133 33.755 0.069025 140.11 0.0071373 576.87 605.42 2.1919 2.3779 18.828 148.48 0.21421 15.146 0.058225
94.375 590.79 0.015069 498.31 512.36 1.9373 294.25 0.0033985 497.17 511.01 1.9336 2.2603 17.657 166.61 0.092934 32.154 0.071243 149.20 0.0067025 572.82 600.12 2.1761 2.4283 26.557 145.93 0.20825 15.847 0.064529
95.375 604.92 undefined 501.29 515.67 1.9454 290.00 0.0034483 501.29 515.67 1.9454 2.2667 17.861 165.57 0.094983 31.637 0.071041 290.00 0.0034483 501.29 515.67 1.9454 2.2667 17.861 165.57 0.094983 31.637 0.071041
96.375 621.17 undefined 503.54 518.31 1.9515 290.00 0.0034483 503.54 518.31 1.9515 2.2444 15.057 171.02 0.090822 31.893 0.069285 290.00 0.0034483 503.54 518.31 1.9515 2.2444 15.057 171.02 0.090822 31.893 0.069285
97.375 637.62 undefined 505.78 520.94 1.9575 290.00 0.0034483 505.78 520.94 1.9575 2.2255 13.189 175.99 0.087220 31.848 0.068105 290.00 0.0034483 505.78 520.94 1.9575 2.2255 13.189 175.99 0.087220 31.848 0.068105
98.375 654.24 undefined 508.00 523.55 1.9635 290.00 0.0034483 508.00 523.55 1.9635 2.2096 11.843 180.56 0.084042 31.690 0.067242 290.00 0.0034483 508.00 523.55 1.9635 2.2096 11.843 180.56 0.084042 31.690 0.067242
99.375 671.02 undefined 510.20 526.15 1.9694 290.00 0.0034483 510.20 526.15 1.9694 2.1962 10.820 184.79 0.081196 31.625 0.066537 290.00 0.0034483 510.20 526.15 1.9694 2.1962 10.820 184.79 0.081196 31.625 0.066537
100.38 687.93 undefined 512.39 528.74 1.9753 290.00 0.0034483 512.39 528.74 1.9753 2.1851 10.012 188.74 0.078613 31.606 0.065957 290.00 0.0034483 512.39 528.74 1.9753 2.1851 10.012 188.74 0.078613 31.606 0.065957
101.38 704.97 undefined 514.57 531.33 1.9811 290.00 0.0034483 514.57 531.33 1.9811 2.1758 9.3545 192.45 0.076245 31.611 0.065477 290.00 0.0034483 514.57 531.33 1.9811 2.1758 9.3545 192.45 0.076245 31.611 0.065477
102.38 722.11 undefined 516.74 533.91 1.9869 290.00 0.0034483 516.74 533.91 1.9869 2.1681 8.8081 195.96 0.074055 31.628 0.065077 290.00 0.0034483 516.74 533.91 1.9869 2.1681 8.8081 195.96 0.074055 31.628 0.065077
103.38 739.36 undefined 518.91 536.48 1.9927 290.00 0.0034483 518.91 536.48 1.9927 2.1618 8.3457 199.30 0.072014 31.651 0.064742 290.00 0.0034483 518.91 536.48 1.9927 2.1618 8.3457 199.30 0.072014 31.651 0.064742
104.38 756.69 undefined 521.06 539.05 1.9984 290.00 0.0034483 521.06 539.05 1.9984 2.1565 7.9486 202.49 0.070102 31.678 0.064460 290.00 0.0034483 521.06 539.05 1.9984 2.1565 7.9486 202.49 0.070102 31.678 0.064460
105.38 774.11 undefined 523.22 541.62 2.0041 290.00 0.0034483 523.22 541.62 2.0041 2.1522 7.6036 205.55 0.068302 31.706 0.064222 290.00 0.0034483 523.22 541.62 2.0041 2.1522 7.6036 205.55 0.068302 31.706 0.064222
106.38 791.60 undefined 525.37 544.19 2.0098 290.00 0.0034483 525.37 544.19 2.0098 2.1487 7.3007 208.51 0.066600 31.735 0.064022 290.00 0.0034483 525.37 544.19 2.0098 2.1487 7.3007 208.51 0.066600 31.735 0.064022
107.38 809.16 undefined 527.52 546.75 2.0154 290.00 0.0034483 527.52 546.75 2.0154 2.1458 7.0327 211.38 0.064985 31.764 0.063852 290.00 0.0034483 527.52 546.75 2.0154 2.1458 7.0327 211.38 0.064985 31.764 0.063852
108.38 826.80 undefined 529.66 549.32 2.0210 290.00 0.0034483 529.66 549.32 2.0210 2.1435 6.7936 214.16 0.063450 31.794 0.063709 290.00 0.0034483 529.66 549.32 2.0210 2.1435 6.7936 214.16 0.063450 31.794 0.063709
109.38 844.49 undefined 531.80 551.88 2.0266 290.00 0.0034483 531.80 551.88 2.0266 2.1416 6.5790 216.87 0.061987 31.823 0.063589 290.00 0.0034483 531.80 551.88 2.0266 2.1416 6.5790 216.87 0.061987 31.823 0.063589
110.38 862.25 undefined 533.94 554.44 2.0322 290.00 0.0034483 533.94 554.44 2.0322 2.1402 6.3852 219.51 0.060589 31.853 0.063488 290.00 0.0034483 533.94 554.44 2.0322 2.1402 6.3852 219.51 0.060589 31.853 0.063488
111.38 880.06 undefined 536.08 557.01 2.0378 290.00 0.0034483 536.08 557.01 2.0378 2.1391 6.2093 222.09 0.059252 31.883 0.063405 290.00 0.0034483 536.08 557.01 2.0378 2.1391 6.2093 222.09 0.059252 31.883 0.063405
112.38 897.92 undefined 538.22 559.57 2.0434 290.00 0.0034483 538.22 559.57 2.0434 2.1383 6.0489 224.62 0.057970 31.912 0.063337 290.00 0.0034483 538.22 559.57 2.0434 2.1383 6.0489 224.62 0.057970 31.912 0.063337
113.38 915.84 undefined 540.36 562.13 2.0489 290.00 0.0034483 540.36 562.13 2.0489 2.1378 5.9021 227.10 0.056739 31.942 0.063282 290.00 0.0034483 540.36 562.13 2.0489 2.1378 5.9021 227.10 0.056739 31.942 0.063282
114.38 933.80 undefined 542.50 564.70 2.0544 290.00 0.0034483 542.50 564.70 2.0544 2.1376 5.7671 229.53 0.055557 31.971 0.063240 290.00 0.0034483 542.50 564.70 2.0544 2.1376 5.7671 229.53 0.055557 31.971 0.063240
115.38 951.81 undefined 544.64 567.27 2.0599 290.00 0.0034483 544.64 567.27 2.0599 2.1376 5.6426 231.92 0.054419 32.001 0.063207 290.00 0.0034483 544.64 567.27 2.0599 2.1376 5.6426 231.92 0.054419 32.001 0.063207
116.38 969.87 undefined 546.77 569.83 2.0654 290.00 0.0034483 546.77 569.83 2.0654 2.1377 5.5274 234.27 0.053323 32.030 0.063185 290.00 0.0034483 546.77 569.83 2.0654 2.1377 5.5274 234.27 0.053323 32.030 0.063185
117.38 987.97 undefined 548.91 572.40 2.0709 290.00 0.0034483 548.91 572.40 2.0709 2.1381 5.4206 236.57 0.052266 32.060 0.063171 290.00 0.0034483 548.91 572.40 2.0709 2.1381 5.4206 236.57 0.052266 32.060 0.063171
118.38 1006.1 undefined 551.05 574.97 2.0764 290.00 0.0034483 551.05 574.97 2.0764 2.1386 5.3211 238.85 0.051246 32.089 0.063165 290.00 0.0034483 551.05 574.97 2.0764 2.1386 5.3211 238.85 0.051246 32.089 0.063165
119.38 1024.3 undefined 553.19 577.54 2.0818 290.00 0.0034483 553.19 577.54 2.0818 2.1393 5.2284 241.08 0.050260 32.119 0.063166 290.00 0.0034483 553.19 577.54 2.0818 2.1393 5.2284 241.08 0.050260 32.119 0.063166
120.38 1042.5 undefined 555.33 580.11 2.0873 290.00 0.0034483 555.33 580.11 2.0873 2.1402 5.1417 243.29 0.049307 32.148 0.063173 290.00 0.0034483 555.33 580.11 2.0873 2.1402 5.1417 243.29 0.049307 32.148 0.063173
121.38 1060.7 undefined 557.47 582.69 2.0927 290.00 0.0034483 557.47 582.69 2.0927 2.1412 5.0604 245.46 0.048385 32.178 0.063186 290.00 0.0034483 557.47 582.69 2.0927 2.1412 5.0604 245.46 0.048385 32.178 0.063186
122.38 1079.0 undefined 559.61 585.26 2.0981 290.00 0.0034483 559.61 585.26 2.0981 2.1423 4.9842 247.60 0.047492 32.207 0.063205 290.00 0.0034483 559.61 585.26 2.0981 2.1423 4.9842 247.60 0.047492 32.207 0.063205
123.38 1097.3 undefined 561.75 587.84 2.1035 290.00 0.0034483 561.75 587.84 2.1035 2.1435 4.9125 249.72 0.046626 32.236 0.063229 290.00 0.0034483 561.75 587.84 2.1035 2.1435 4.9125 249.72 0.046626 32.236 0.063229
124.38 1115.7 undefined 563.90 590.42 2.1089 290.00 0.0034483 563.90 590.42 2.1089 2.1449 4.8449 251.81 0.045787 32.265 0.063257 290.00 0.0034483 563.90 590.42 2.1089 2.1449 4.8449 251.81 0.045787 32.265 0.063257
125.38 1134.1 undefined 566.04 593.01 2.1143 290.00 0.0034483 566.04 593.01 2.1143 2.1463 4.7812 253.87 0.044972 32.295 0.063290 290.00 0.0034483 566.04 593.01 2.1143 2.1463 4.7812 253.87 0.044972 32.295 0.063290
126.38 1152.5 undefined 568.19 595.59 2.1197 290.00 0.0034483 568.19 595.59 2.1197 2.1479 4.7209 255.91 0.044181 32.324 0.063327 290.00 0.0034483 568.19 595.59 2.1197 2.1479 4.7209 255.91 0.044181 32.324 0.063327
127.38 1170.9 undefined 570.34 598.18 2.1251 290.00 0.0034483 570.34 598.18 2.1251 2.1495 4.6640 257.92 0.043413 32.353 0.063367 290.00 0.0034483 570.34 598.18 2.1251 2.1495 4.6640 257.92 0.043413 32.353 0.063367
128.38 1189.4 undefined 572.49 600.77 2.1304 290.00 0.0034483 572.49 600.77 2.1304 2.1513 4.6100 259.91 0.042666 32.382 0.063411 290.00 0.0034483 572.49 600.77 2.1304 2.1513 4.6100 259.91 0.042666 32.382 0.063411
129.38 1207.9 undefined 574.64 603.36 2.1358 290.00 0.0034483 574.64 603.36 2.1358 2.1531 4.5587 261.88 0.041940 32.411 0.063458 290.00 0.0034483 574.64 603.36 2.1358 2.1531 4.5587 261.88 0.041940 32.411 0.063458
130.38 1226.4 undefined 576.80 605.95 2.1411 290.00 0.0034483 576.80 605.95 2.1411 2.1550 4.5101 263.83 0.041233 32.441 0.063508 290.00 0.0034483 576.80 605.95 2.1411 2.1550 4.5101 263.83 0.041233 32.441 0.063508
131.38 1245.0 undefined 578.95 608.55 2.1465 290.00 0.0034483 578.95 608.55 2.1465 2.1570 4.4638 265.75 0.040545 32.470 0.063561 290.00 0.0034483 578.95 608.55 2.1465 2.1570 4.4638 265.75 0.040545 32.470 0.063561
132.38 1263.5 undefined 581.11 611.15 2.1518 290.00 0.0034483 581.11 611.15 2.1518 2.1591 4.4198 267.66 0.039875 32.499 0.063616 290.00 0.0034483 581.11 611.15 2.1518 2.1591 4.4198 267.66 0.039875 32.499 0.063616
133.38 1282.1 undefined 583.27 613.75 2.1571 290.00 0.0034483 583.27 613.75 2.1571 2.1612 4.3779 269.55 0.039222 32.528 0.063674 290.00 0.0034483 583.27 613.75 2.1571 2.1612 4.3779 269.55 0.039222 32.528 0.063674
134.38 1300.7 undefined 585.43 616.36 2.1624 290.00 0.0034483 585.43 616.36 2.1624 2.1634 4.3379 271.42 0.038585 32.557 0.063735 290.00 0.0034483 585.43 616.36 2.1624 2.1634 4.3379 271.42 0.038585 32.557 0.063735
135.38 1319.4 undefined 587.60 618.96 2.1677 290.00 0.0034483 587.60 618.96 2.1677 2.1656 4.2997 273.27 0.037965 32.586 0.063797 290.00 0.0034483 587.60 618.96 2.1677 2.1656 4.2997 273.27 0.037965 32.586 0.063797
136.38 1338.0 undefined 589.76 621.57 2.1730 290.00 0.0034483 589.76 621.57 2.1730 2.1680 4.2632 275.11 0.037360 32.615 0.063862 290.00 0.0034483 589.76 621.57 2.1730 2.1680 4.2632 275.11 0.037360 32.615 0.063862
137.38 1356.7 undefined 591.93 624.19 2.1783 290.00 0.0034483 591.93 624.19 2.1783 2.1703 4.2284 276.93 0.036769 32.644 0.063929 290.00 0.0034483 591.93 624.19 2.1783 2.1703 4.2284 276.93 0.036769 32.644 0.063929
138.38 1375.4 undefined 594.10 626.80 2.1836 290.00 0.0034483 594.10 626.80 2.1836 2.1727 4.1950 278.73 0.036193 32.672 0.063998 290.00 0.0034483 594.10 626.80 2.1836 2.1727 4.1950 278.73 0.036193 32.672 0.063998
139.38 1394.1 undefined 596.28 629.42 2.1889 290.00 0.0034483 596.28 629.42 2.1889 2.1752 4.1631 280.52 0.035630 32.701 0.064068 290.00 0.0034483 596.28 629.42 2.1889 2.1752 4.1631 280.52 0.035630 32.701 0.064068
140.38 1412.8 undefined 598.45 632.04 2.1942 290.00 0.0034483 598.45 632.04 2.1942 2.1777 4.1325 282.29 0.035080 32.730 0.064141 290.00 0.0034483 598.45 632.04 2.1942 2.1777 4.1325 282.29 0.035080 32.730 0.064141
141.38 1431.6 undefined 600.63 634.67 2.1994 290.00 0.0034483 600.63 634.67 2.1994 2.1803 4.1032 284.05 0.034543 32.759 0.064215 290.00 0.0034483 600.63 634.67 2.1994 2.1803 4.1032 284.05 0.034543 32.759 0.064215
142.38 1450.3 undefined 602.82 637.30 2.2047 290.00 0.0034483 602.82 637.30 2.2047 2.1828 4.0751 285.79 0.034018 32.788 0.064290 290.00 0.0034483 602.82 637.30 2.2047 2.1828 4.0751 285.79 0.034018 32.788 0.064290
143.38 1469.1 undefined 605.00 639.93 2.2099 290.00 0.0034483 605.00 639.93 2.2099 2.1855 4.0481 287.52 0.033504 32.816 0.064368 290.00 0.0034483 605.00 639.93 2.2099 2.1855 4.0481 287.52 0.033504 32.816 0.064368
144.38 1487.9 undefined 607.19 642.56 2.2152 290.00 0.0034483 607.19 642.56 2.2152 2.1881 4.0222 289.24 0.033003 32.845 0.064446 290.00 0.0034483 607.19 642.56 2.2152 2.1881 4.0222 289.24 0.033003 32.845 0.064446
145.38 1506.7 undefined 609.38 645.20 2.2204 290.00 0.0034483 609.38 645.20 2.2204 2.1909 3.9973 290.95 0.032512 32.874 0.064526 290.00 0.0034483 609.38 645.20 2.2204 2.1909 3.9973 290.95 0.032512 32.874 0.064526
146.38 1525.6 undefined 611.57 647.84 2.2256 290.00 0.0034483 611.57 647.84 2.2256 2.1936 3.9733 292.64 0.032031 32.903 0.064607 290.00 0.0034483 611.57 647.84 2.2256 2.1936 3.9733 292.64 0.032031 32.903 0.064607
147.38 1544.4 undefined 613.76 650.48 2.2309 290.00 0.0034483 613.76 650.48 2.2309 2.1964 3.9503 294.32 0.031561 32.931 0.064690 290.00 0.0034483 613.76 650.48 2.2309 2.1964 3.9503 294.32 0.031561 32.931 0.064690
148.38 1563.3 undefined 615.96 653.13 2.2361 290.00 0.0034483 615.96 653.13 2.2361 2.1992 3.9281 295.98 0.031101 32.960 0.064774 290.00 0.0034483 615.96 653.13 2.2361 2.1992 3.9281 295.98 0.031101 32.960 0.064774
149.38 1582.1 undefined 618.16 655.78 2.2413 290.00 0.0034483 618.16 655.78 2.2413 2.2020 3.9068 297.64 0.030651 32.988 0.064859 290.00 0.0034483 618.16 655.78 2.2413 2.2020 3.9068 297.64 0.030651 32.988 0.064859
150.38 1601.0 undefined 620.36 658.43 2.2465 290.00 0.0034483 620.36 658.43 2.2465 2.2048 3.8862 299.29 0.030210 33.017 0.064945 290.00 0.0034483 620.36 658.43 2.2465 2.2048 3.8862 299.29 0.030210 33.017 0.064945
151.38 1619.9 undefined 622.57 661.08 2.2517 290.00 0.0034483 622.57 661.08 2.2517 2.2077 3.8664 300.92 0.029778 33.045 0.065032 290.00 0.0034483 622.57 661.08 2.2517 2.2077 3.8664 300.92 0.029778 33.045 0.065032
152.38 1638.8 undefined 624.78 663.74 2.2569 290.00 0.0034483 624.78 663.74 2.2569 2.2106 3.8473 302.54 0.029355 33.074 0.065121 290.00 0.0034483 624.78 663.74 2.2569 2.2106 3.8473 302.54 0.029355 33.074 0.065121
153.38 1657.8 undefined 626.99 666.41 2.2621 290.00 0.0034483 626.99 666.41 2.2621 2.2135 3.8289 304.15 0.028940 33.102 0.065210 290.00 0.0034483 626.99 666.41 2.2621 2.2135 3.8289 304.15 0.028940 33.102 0.065210
154.38 1676.7 undefined 629.21 669.07 2.2673 290.00 0.0034483 629.21 669.07 2.2673 2.2165 3.8112 305.76 0.028534 33.131 0.065301 290.00 0.0034483 629.21 669.07 2.2673 2.2165 3.8112 305.76 0.028534 33.131 0.065301
155.38 1695.6 undefined 631.43 671.74 2.2725 290.00 0.0034483 631.43 671.74 2.2725 2.2195 3.7941 307.35 0.028135 33.159 0.065392 290.00 0.0034483 631.43 671.74 2.2725 2.2195 3.7941 307.35 0.028135 33.159 0.065392
156.38 1714.6 undefined 633.65 674.41 2.2777 290.00 0.0034483 633.65 674.41 2.2777 2.2225 3.7775 308.93 0.027745 33.188 0.065484 290.00 0.0034483 633.65 674.41 2.2777 2.2225 3.7775 308.93 0.027745 33.188 0.065484
157.38 1733.6 undefined 635.87 677.09 2.2828 290.00 0.0034483 635.87 677.09 2.2828 2.2255 3.7616 310.50 0.027361 33.216 0.065577 290.00 0.0034483 635.87 677.09 2.2828 2.2255 3.7616 310.50 0.027361 33.216 0.065577
158.38 1752.5 undefined 638.10 679.76 2.2880 290.00 0.0034483 638.10 679.76 2.2880 2.2285 3.7461 312.07 0.026986 33.244 0.065672 290.00 0.0034483 638.10 679.76 2.2880 2.2285 3.7461 312.07 0.026986 33.244 0.065672
159.38 1771.5 undefined 640.33 682.45 2.2932 290.00 0.0034483 640.33 682.45 2.2932 2.2315 3.7313 313.62 0.026617 33.273 0.065767 290.00 0.0034483 640.33 682.45 2.2932 2.2315 3.7313 313.62 0.026617 33.273 0.065767
160.38 1790.5 undefined 642.56 685.13 2.2983 290.00 0.0034483 642.56 685.13 2.2983 2.2346 3.7169 315.16 0.026256 33.301 0.065862 290.00 0.0034483 642.56 685.13 2.2983 2.2346 3.7169 315.16 0.026256 33.301 0.065862
161.38 1809.5 undefined 644.80 687.82 2.3035 290.00 0.0034483 644.80 687.82 2.3035 2.2377 3.7029 316.70 0.025901 33.329 0.065959 290.00 0.0034483 644.80 687.82 2.3035 2.2377 3.7029 316.70 0.025901 33.329 0.065959
162.38 1828.6 undefined 647.04 690.51 2.3086 290.00 0.0034483 647.04 690.51 2.3086 2.2408 3.6895 318.23 0.025552 33.358 0.066056 290.00 0.0034483 647.04 690.51 2.3086 2.2408 3.6895 318.23 0.025552 33.358 0.066056
163.38 1847.6 undefined 649.28 693.20 2.3138 290.00 0.0034483 649.28 693.20 2.3138 2.2439 3.6765 319.75 0.025210 33.386 0.066155 290.00 0.0034483 649.28 693.20 2.3138 2.2439 3.6765 319.75 0.025210 33.386 0.066155
164.38 1866.6 undefined 651.52 695.90 2.3189 290.00 0.0034483 651.52 695.90 2.3189 2.2470 3.6639 321.26 0.024875 33.414 0.066254 290.00 0.0034483 651.52 695.90 2.3189 2.2470 3.6639 321.26 0.024875 33.414 0.066254
165.38 1885.7 undefined 653.77 698.60 2.3240 290.00 0.0034483 653.77 698.60 2.3240 2.2501 3.6517 322.76 0.024545 33.442 0.066353 290.00 0.0034483 653.77 698.60 2.3240 2.2501 3.6517 322.76 0.024545 33.442 0.066353
166.38 1904.7 undefined 656.02 701.31 2.3292 290.00 0.0034483 656.02 701.31 2.3292 2.2532 3.6399 324.25 0.024221 33.470 0.066454 290.00 0.0034483 656.02 701.31 2.3292 2.2532 3.6399 324.25 0.024221 33.470 0.066454
167.38 1923.8 undefined 658.28 704.02 2.3343 290.00 0.0034483 658.28 704.02 2.3343 2.2564 3.6285 325.74 0.023903 33.498 0.066555 290.00 0.0034483 658.28 704.02 2.3343 2.2564 3.6285 325.74 0.023903 33.498 0.066555
168.38 1942.9 undefined 660.54 706.73 2.3394 290.00 0.0034483 660.54 706.73 2.3394 2.2596 3.6175 327.22 0.023591 33.526 0.066657 290.00 0.0034483 660.54 706.73 2.3394 2.2596 3.6175 327.22 0.023591 33.526 0.066657
169.38 1962.0 undefined 662.80 709.44 2.3445 290.00 0.0034483 662.80 709.44 2.3445 2.2627 3.6068 328.69 0.023284 33.554 0.066759 290.00 0.0034483 662.80 709.44 2.3445 2.2627 3.6068 328.69 0.023284 33.554 0.066759
170.38 1981.0 undefined 665.06 712.16 2.3496 290.00 0.0034483 665.06 712.16 2.3496 2.2659 3.5965 330.15 0.022982 33.582 0.066862 290.00 0.0034483 665.06 712.16 2.3496 2.2659 3.5965 330.15 0.022982 33.582 0.066862
171.38 2000.1 undefined 667.33 714.88 2.3547 290.00 0.0034483 667.33 714.88 2.3547 2.2691 3.5864 331.60 0.022686 33.610 0.066966 290.00 0.0034483 667.33 714.88 2.3547 2.2691 3.5864 331.60 0.022686 33.610 0.066966
172.38 2019.2 undefined 669.60 717.61 2.3598 290.00 0.0034483 669.60 717.61 2.3598 2.2723 3.5767 333.05 0.022395 33.638 0.067070 290.00 0.0034483 669.60 717.61 2.3598 2.2723 3.5767 333.05 0.022395 33.638 0.067070
173.38 2038.3 undefined 671.87 720.34 2.3649 290.00 0.0034483 671.87 720.34 2.3649 2.2755 3.5673 334.49 0.022108 33.666 0.067175 290.00 0.0034483 671.87 720.34 2.3649 2.2755 3.5673 334.49 0.022108 33.666 0.067175
174.38 2057.5 undefined 674.15 723.07 2.3700 290.00 0.0034483 674.15 723.07 2.3700 2.2788 3.5582 335.92 0.021827 33.694 0.067281 290.00 0.0034483 674.15 723.07 2.3700 2.2788 3.5582 335.92 0.021827 33.694 0.067281
175.38 2076.6 undefined 676.43 725.80 2.3751 290.00 0.0034483 676.43 725.80 2.3751 2.2820 3.5494 337.35 0.021550 33.722 0.067387 290.00 0.0034483 676.43 725.80 2.3751 2.2820 3.5494 337.35 0.021550 33.722 0.067387
176.38 2095.7 undefined 678.72 728.54 2.3802 290.00 0.0034483 678.72 728.54 2.3802 2.2852 3.5408 338.77 0.021277 33.750 0.067494 290.00 0.0034483 678.72 728.54 2.3802 2.2852 3.5408 338.77 0.021277 33.750 0.067494
177.38 2114.8 undefined 681.00 731.28 2.3853 290.00 0.0034483 681.00 731.28 2.3853 2.2885 3.5326 340.18 0.021010 33.778 0.067601 290.00 0.0034483 681.00 731.28 2.3853 2.2885 3.5326 340.18 0.021010 33.778 0.067601
178.38 2134.0 undefined 683.29 734.03 2.3904 290.00 0.0034483 683.29 734.03 2.3904 2.2917 3.5245 341.59 0.020746 33.806 0.067709 290.00 0.0034483 683.29 734.03 2.3904 2.2917 3.5245 341.59 0.020746 33.806 0.067709
179.38 2153.1 undefined 685.59 736.78 2.3954 290.00 0.0034483 685.59 736.78 2.3954 2.2950 3.5167 342.99 0.020487 33.833 0.067818 290.00 0.0034483 685.59 736.78 2.3954 2.2950 3.5167 342.99 0.020487 33.833 0.067818
180.38 2172.3 undefined 687.88 739.53 2.4005 290.00 0.0034483 687.88 739.53 2.4005 2.2983 3.5092 344.38 0.020232 33.861 0.067927 290.00 0.0034483 687.88 739.53 2.4005 2.2983 3.5092 344.38 0.020232 33.861 0.067927
181.38 2191.4 undefined 690.18 742.28 2.4056 290.00 0.0034483 690.18 742.28 2.4056 2.3015 3.5019 345.77 0.019981 33.889 0.068036 290.00 0.0034483 690.18 742.28 2.4056 2.3015 3.5019 345.77 0.019981 33.889 0.068036
182.38 2210.6 undefined 692.49 745.04 2.4106 290.00 0.0034483 692.49 745.04 2.4106 2.3048 3.4948 347.15 0.019734 33.917 0.068146 290.00 0.0034483 692.49 745.04 2.4106 2.3048 3.4948 347.15 0.019734 33.917 0.068146
183.38 2229.8 undefined 694.79 747.80 2.4157 290.00 0.0034483 694.79 747.80 2.4157 2.3081 3.4879 348.52 0.019491 33.944 0.068257 290.00 0.0034483 694.79 747.80 2.4157 2.3081 3.4879 348.52 0.019491 33.944 0.068257
184.38 2248.9 undefined 697.10 750.57 2.4207 290.00 0.0034483 697.10 750.57 2.4207 2.3114 3.4812 349.89 0.019252 33.972 0.068368 290.00 0.0034483 697.10 750.57 2.4207 2.3114 3.4812 349.89 0.019252 33.972 0.068368
185.38 2268.1 undefined 699.41 753.34 2.4258 290.00 0.0034483 699.41 753.34 2.4258 2.3147 3.4748 351.25 0.019016 34.000 0.068480 290.00 0.0034483 699.41 753.34 2.4258 2.3147 3.4748 351.25 0.019016 34.000 0.068480
186.38 2287.3 undefined 701.73 756.11 2.4308 290.00 0.0034483 701.73 756.11 2.4308 2.3180 3.4685 352.61 0.018785 34.027 0.068592 290.00 0.0034483 701.73 756.11 2.4308 2.3180 3.4685 352.61 0.018785 34.027 0.068592
187.38 2306.5 undefined 704.05 758.89 2.4359 290.00 0.0034483 704.05 758.89 2.4359 2.3213 3.4624 353.96 0.018556 34.055 0.068704 290.00 0.0034483 704.05 758.89 2.4359 2.3213 3.4624 353.96 0.018556 34.055 0.068704
188.38 2325.7 undefined 706.37 761.67 2.4409 290.00 0.0034483 706.37 761.67 2.4409 2.3246 3.4565 355.30 0.018332 34.082 0.068817 290.00 0.0034483 706.37 761.67 2.4409 2.3246 3.4565 355.30 0.018332 34.082 0.068817
189.38 2344.9 undefined 708.70 764.45 2.4460 290.00 0.0034483 708.70 764.45 2.4460 2.3279 3.4508 356.64 0.018110 34.110 0.068931 290.00 0.0034483 708.70 764.45 2.4460 2.3279 3.4508 356.64 0.018110 34.110 0.068931
190.38 2364.1 undefined 711.03 767.24 2.4510 290.00 0.0034483 711.03 767.24 2.4510 2.3312 3.4453 357.97 0.017892 34.137 0.069045 290.00 0.0034483 711.03 767.24 2.4510 2.3312 3.4453 357.97 0.017892 34.137 0.069045
191.38 2383.3 undefined 713.36 770.02 2.4560 290.00 0.0034483 713.36 770.02 2.4560 2.3346 3.4400 359.30 0.017677 34.165 0.069159 290.00 0.0034483 713.36 770.02 2.4560 2.3346 3.4400 359.30 0.017677 34.165 0.069159
192.38 2402.5 undefined 715.70 772.82 2.4610 290.00 0.0034483 715.70 772.82 2.4610 2.3379 3.4348 360.62 0.017466 34.192 0.069274 290.00 0.0034483 715.70 772.82 2.4610 2.3379 3.4348 360.62 0.017466 34.192 0.069274
193.38 2421.7 undefined 718.04 775.61 2.4661 290.00 0.0034483 718.04 775.61 2.4661 2.3412 3.4297 361.93 0.017257 34.219 0.069389 290.00 0.0034483 718.04 775.61 2.4661 2.3412 3.4297 361.93 0.017257 34.219 0.069389
194.38 2440.9 undefined 720.38 778.41 2.4711 290.00 0.0034483 720.38 778.41 2.4711 2.3445 3.4248 363.24 0.017052 34.247 0.069505 290.00 0.0034483 720.38 778.41 2.4711 2.3445 3.4248 363.24 0.017052 34.247 0.069505
195.38 2460.1 undefined 722.73 781.22 2.4761 290.00 0.0034483 722.73 781.22 2.4761 2.3479 3.4201 364.55 0.016850 34.274 0.069622 290.00 0.0034483 722.73 781.22 2.4761 2.3479 3.4201 364.55 0.016850 34.274 0.069622
196.38 2479.3 undefined 725.08 784.02 2.4811 290.00 0.0034483 725.08 784.02 2.4811 2.3512 3.4155 365.85 0.016650 34.302 0.069738 290.00 0.0034483 725.08 784.02 2.4811 2.3512 3.4155 365.85 0.016650 34.302 0.069738
197.38 2498.6 undefined 727.43 786.83 2.4861 290.00 0.0034483 727.43 786.83 2.4861 2.3546 3.4111 367.14 0.016454 34.329 0.069855 290.00 0.0034483 727.43 786.83 2.4861 2.3546 3.4111 367.14 0.016454 34.329 0.069855
198.38 2517.8 undefined 729.79 789.65 2.4911 290.00 0.0034483 729.79 789.65 2.4911 2.3579 3.4068 368.43 0.016260 34.356 0.069973 290.00 0.0034483 729.79 789.65 2.4911 2.3579 3.4068 368.43 0.016260 34.356 0.069973
199.38 2537.0 undefined 732.15 792.46 2.4961 290.00 0.0034483 732.15 792.46 2.4961 2.3613 3.4026 369.71 0.016069 34.383 0.070091 290.00 0.0034483 732.15 792.46 2.4961 2.3613 3.4026 369.71 0.016069 34.383 0.070091
200.38 2556.3 undefined 734.51 795.28 2.5011 290.00 0.0034483 734.51 795.28 2.5011 2.3646 3.3986 370.99 0.015881 34.411 0.070209 290.00 0.0034483 734.51 795.28 2.5011 2.3646 3.3986 370.99 0.015881 34.411 0.070209
201.38 2575.5 undefined 736.87 798.11 2.5061 290.00 0.0034483 736.87 798.11 2.5061 2.3680 3.3947 372.27 0.015695 34.438 0.070328 290.00 0.0034483 736.87 798.11 2.5061 2.3680 3.3947 372.27 0.015695 34.438 0.070328
202.38 2594.7 undefined 739.24 800.93 2.5111 290.00 0.0034483 739.24 800.93 2.5111 2.3713 3.3909 373.53 0.015512 34.465 0.070447 290.00 0.0034483 739.24 800.93 2.5111 2.3713 3.3909 373.53 0.015512 34.465 0.070447
203.38 2614.0 undefined 741.62 803.76 2.5161 290.00 0.0034483 741.62 803.76 2.5161 2.3747 3.3873 374.80 0.015331 34.492 0.070566 290.00 0.0034483 741.62 803.76 2.5161 2.3747 3.3873 374.80 0.015331 34.492 0.070566
204.38 2633.2 undefined 743.99 806.60 2.5210 290.00 0.0034483 743.99 806.60 2.5210 2.3781 3.3837 376.06 0.015154 34.519 0.070686 290.00 0.0034483 743.99 806.60 2.5210 2.3781 3.3837 376.06 0.015154 34.519 0.070686
205.38 2652.5 undefined 746.37 809.44 2.5260 290.00 0.0034483 746.37 809.44 2.5260 2.3814 3.3803 377.31 0.014978 34.546 0.070807 290.00 0.0034483 746.37 809.44 2.5260 2.3814 3.3803 377.31 0.014978 34.546 0.070807
206.38 2671.7 undefined 748.76 812.28 2.5310 290.00 0.0034483 748.76 812.28 2.5310 2.3848 3.3770 378.56 0.014805 34.573 0.070927 290.00 0.0034483 748.76 812.28 2.5310 2.3848 3.3770 378.56 0.014805 34.573 0.070927
207.38 2691.0 undefined 751.14 815.12 2.5360 290.00 0.0034483 751.14 815.12 2.5360 2.3882 3.3738 379.80 0.014634 34.600 0.071049 290.00 0.0034483 751.14 815.12 2.5360 2.3882 3.3738 379.80 0.014634 34.600 0.071049
208.38 2710.2 undefined 753.53 817.97 2.5409 290.00 0.0034483 753.53 817.97 2.5409 2.3915 3.3707 381.04 0.014466 34.627 0.071170 290.00 0.0034483 753.53 817.97 2.5409 2.3915 3.3707 381.04 0.014466 34.627 0.071170
209.38 2729.5 undefined 755.93 820.82 2.5459 290.00 0.0034483 755.93 820.82 2.5459 2.3949 3.3677 382.28 0.014300 34.654 0.071292 290.00 0.0034483 755.93 820.82 2.5459 2.3949 3.3677 382.28 0.014300 34.654 0.071292
210.38 2748.7 undefined 758.32 823.67 2.5509 290.00 0.0034483 758.32 823.67 2.5509 2.3983 3.3649 383.51 0.014136 34.681 0.071414 290.00 0.0034483 758.32 823.67 2.5509 2.3983 3.3649 383.51 0.014136 34.681 0.071414
211.38 2768.0 undefined 760.72 826.53 2.5558 290.00 0.0034483 760.72 826.53 2.5558 2.4017 3.3621 384.73 0.013974 34.708 0.071537 290.00 0.0034483 760.72 826.53 2.5558 2.4017 3.3621 384.73 0.013974 34.708 0.071537
212.38 2787.2 undefined 763.13 829.39 2.5608 290.00 0.0034483 763.13 829.39 2.5608 2.4051 3.3594 385.96 0.013814 34.735 0.071660 290.00 0.0034483 763.13 829.39 2.5608 2.4051 3.3594 385.96 0.013814 34.735 0.071660
213.38 2806.5 undefined 765.53 832.26 2.5657 290.00 0.0034483 765.53 832.26 2.5657 2.4084 3.3568 387.17 0.013657 34.762 0.071783 290.00 0.0034483 765.53 832.26 2.5657 2.4084 3.3568 387.17 0.013657 34.762 0.071783
214.38 2825.7 undefined 767.94 835.12 2.5707 290.00 0.0034483 767.94 835.12 2.5707 2.4118 3.3543 388.39 0.013502 34.789 0.071906 290.00 0.0034483 767.94 835.12 2.5707 2.4118 3.3543 388.39 0.013502 34.789 0.071906
215.38 2845.0 undefined 770.36 838.00 2.5756 290.00 0.0034483 770.36 838.00 2.5756 2.4152 3.3519 389.59 0.013348 34.816 0.072030 290.00 0.0034483 770.36 838.00 2.5756 2.4152 3.3519 389.59 0.013348 34.816 0.072030
216.38 2864.3 undefined 772.77 840.87 2.5806 290.00 0.0034483 772.77 840.87 2.5806 2.4186 3.3496 390.80 0.013197 34.843 0.072155 290.00 0.0034483 772.77 840.87 2.5806 2.4186 3.3496 390.80 0.013197 34.843 0.072155
217.38 2883.5 undefined 775.19 843.75 2.5855 290.00 0.0034483 775.19 843.75 2.5855 2.4220 3.3473 392.00 0.013048 34.869 0.072279 290.00 0.0034483 775.19 843.75 2.5855 2.4220 3.3473 392.00 0.013048 34.869 0.072279
218.38 2902.8 undefined 777.62 846.63 2.5904 290.00 0.0034483 777.62 846.63 2.5904 2.4254 3.3452 393.19 0.012900 34.896 0.072404 290.00 0.0034483 777.62 846.63 2.5904 2.4254 3.3452 393.19 0.012900 34.896 0.072404
219.38 2922.0 undefined 780.04 849.52 2.5954 290.00 0.0034483 780.04 849.52 2.5954 2.4287 3.3431 394.38 0.012754 34.923 0.072530 290.00 0.0034483 780.04 849.52 2.5954 2.4287 3.3431 394.38 0.012754 34.923 0.072530
220.38 2941.3 undefined 782.47 852.40 2.6003 290.00 0.0034483 782.47 852.40 2.6003 2.4321 3.3411 395.57 0.012611 34.950 0.072655 290.00 0.0034483 782.47 852.40 2.6003 2.4321 3.3411 395.57 0.012611 34.950 0.072655
221.38 2960.6 undefined 784.91 855.30 2.6052 290.00 0.0034483 784.91 855.30 2.6052 2.4355 3.3392 396.75 0.012469 34.976 0.072781 290.00 0.0034483 784.91 855.30 2.6052 2.4355 3.3392 396.75 0.012469 34.976 0.072781
222.38 2979.8 undefined 787.35 858.19 2.6102 290.00 0.0034483 787.35 858.19 2.6102 2.4389 3.3374 397.93 0.012329 35.003 0.072908 290.00 0.0034483 787.35 858.19 2.6102 2.4389 3.3374 397.93 0.012329 35.003 0.072908
223.38 2999.1 undefined 789.79 861.09 2.6151 290.00 0.0034483 789.79 861.09 2.6151 2.4423 3.3356 399.11 0.012190 35.029 0.073034 290.00 0.0034483 789.79 861.09 2.6151 2.4423 3.3356 399.11 0.012190 35.029 0.073034
224.38 3018.4 undefined 792.23 863.99 2.6200 290.00 0.0034483 792.23 863.99 2.6200 2.4457 3.3339 400.28 0.012054 35.056 0.073161 290.00 0.0034483 792.23 863.99 2.6200 2.4457 3.3339 400.28 0.012054 35.056 0.073161
225.38 3037.6 undefined 794.68 866.90 2.6249 290.00 0.0034483 794.68 866.90 2.6249 2.4491 3.3323 401.44 0.011919 35.083 0.073289 290.00 0.0034483 794.68 866.90 2.6249 2.4491 3.3323 401.44 0.011919 35.083 0.073289
226.38 3056.9 undefined 797.13 869.81 2.6298 290.00 0.0034483 797.13 869.81 2.6298 2.4525 3.3308 402.61 0.011786 35.109 0.073416 290.00 0.0034483 797.13 869.81 2.6298 2.4525 3.3308 402.61 0.011786 35.109 0.073416
227.38 3076.2 undefined 799.58 872.72 2.6347 290.00 0.0034483 799.58 872.72 2.6347 2.4559 3.3293 403.77 0.011654 35.136 0.073544 290.00 0.0034483 799.58 872.72 2.6347 2.4559 3.3293 403.77 0.011654 35.136 0.073544
228.38 3095.5 undefined 802.04 875.63 2.6396 290.00 0.0034483 802.04 875.63 2.6396 2.4593 3.3279 404.92 0.011524 35.162 0.073672 290.00 0.0034483 802.04 875.63 2.6396 2.4593 3.3279 404.92 0.011524 35.162 0.073672
229.38 3114.7 undefined 804.50 878.55 2.6445 290.00 0.0034483 804.50 878.55 2.6445 2.4627 3.3266 406.07 0.011396 35.189 0.073801 290.00 0.0034483 804.50 878.55 2.6445 2.4627 3.3266 406.07 0.011396 35.189 0.073801
230.38 3134.0 undefined 806.97 881.48 2.6494 290.00 0.0034483 806.97 881.48 2.6494 2.4661 3.3253 407.22 0.011269 35.215 0.073929 290.00 0.0034483 806.97 881.48 2.6494 2.4661 3.3253 407.22 0.011269 35.215 0.073929
231.38 3153.3 undefined 809.43 884.40 2.6543 290.00 0.0034483 809.43 884.40 2.6543 2.4695 3.3241 408.36 0.011144 35.241 0.074058 290.00 0.0034483 809.43 884.40 2.6543 2.4695 3.3241 408.36 0.011144 35.241 0.074058
232.38 3172.5 undefined 811.90 887.33 2.6592 290.00 0.0034483 811.90 887.33 2.6592 2.4728 3.3229 409.50 0.011020 35.268 0.074188 290.00 0.0034483 811.90 887.33 2.6592 2.4728 3.3229 409.50 0.011020 35.268 0.074188
233.38 3191.8 undefined 814.38 890.26 2.6641 290.00 0.0034483 814.38 890.26 2.6641 2.4762 3.3218 410.64 0.010898 35.294 0.074317 290.00 0.0034483 814.38 890.26 2.6641 2.4762 3.3218 410.64 0.010898 35.294 0.074317
234.38 3211.1 undefined 816.86 893.20 2.6690 290.00 0.0034483 816.86 893.20 2.6690 2.4796 3.3208 411.77 0.010777 35.321 0.074447 290.00 0.0034483 816.86 893.20 2.6690 2.4796 3.3208 411.77 0.010777 35.321 0.074447
235.38 3230.3 undefined 819.34 896.14 2.6739 290.00 0.0034483 819.34 896.14 2.6739 2.4830 3.3198 412.90 0.010658 35.347 0.074578 290.00 0.0034483 819.34 896.14 2.6739 2.4830 3.3198 412.90 0.010658 35.347 0.074578
236.38 3249.6 undefined 821.82 899.08 2.6788 290.00 0.0034483 821.82 899.08 2.6788 2.4864 3.3189 414.03 0.010540 35.373 0.074708 290.00 0.0034483 821.82 899.08 2.6788 2.4864 3.3189 414.03 0.010540 35.373 0.074708
237.38 3268.9 undefined 824.31 902.03 2.6836 290.00 0.0034483 824.31 902.03 2.6836 2.4898 3.3180 415.15 0.010423 35.399 0.074839 290.00 0.0034483 824.31 902.03 2.6836 2.4898 3.3180 415.15 0.010423 35.399 0.074839
238.38 3288.1 undefined 826.80 904.98 2.6885 290.00 0.0034483 826.80 904.98 2.6885 2.4932 3.3172 416.27 0.010308 35.426 0.074970 290.00 0.0034483 826.80 904.98 2.6885 2.4932 3.3172 416.27 0.010308 35.426 0.074970
239.38 3307.4 undefined 829.30 907.93 2.6934 290.00 0.0034483 829.30 907.93 2.6934 2.4966 3.3165 417.38 0.010194 35.452 0.075101 290.00 0.0034483 829.30 907.93 2.6934 2.4966 3.3165 417.38 0.010194 35.452 0.075101
240.38 3326.7 undefined 831.80 910.89 2.6983 290.00 0.0034483 831.80 910.89 2.6983 2.5000 3.3157 418.49 0.010082 35.478 0.075232 290.00 0.0034483 831.80 910.89 2.6983 2.5000 3.3157 418.49 0.010082 35.478 0.075232
241.38 3345.9 undefined 834.30 913.85 2.7031 290.00 0.0034483 834.30 913.85 2.7031 2.5034 3.3151 419.60 0.0099703 35.504 0.075364 290.00 0.0034483 834.30 913.85 2.7031 2.5034 3.3151 419.60 0.0099703 35.504 0.075364
242.38 3365.2 undefined 836.80 916.81 2.7080 290.00 0.0034483 836.80 916.81 2.7080 2.5068 3.3145 420.71 0.0098604 35.530 0.075496 290.00 0.0034483 836.80 916.81 2.7080 2.5068 3.3145 420.71 0.0098604 35.530 0.075496
243.38 3384.4 undefined 839.31 919.78 2.7129 290.00 0.0034483 839.31 919.78 2.7129 2.5102 3.3139 421.81 0.0097518 35.556 0.075628 290.00 0.0034483 839.31 919.78 2.7129 2.5102 3.3139 421.81 0.0097518 35.556 0.075628
244.38 3403.7 undefined 841.82 922.75 2.7177 290.00 0.0034483 841.82 922.75 2.7177 2.5136 3.3134 422.90 0.0096444 35.583 0.075760 290.00 0.0034483 841.82 922.75 2.7177 2.5136 3.3134 422.90 0.0096444 35.583 0.075760
245.38 3423.0 undefined 844.34 925.72 2.7226 290.00 0.0034483 844.34 925.72 2.7226 2.5170 3.3130 424.00 0.0095382 35.609 0.075893 290.00 0.0034483 844.34 925.72 2.7226 2.5170 3.3130 424.00 0.0095382 35.609 0.075893
246.38 3442.2 undefined 846.86 928.70 2.7274 290.00 0.0034483 846.86 928.70 2.7274 2.5203 3.3125 425.09 0.0094333 35.635 0.076026 290.00 0.0034483 846.86 928.70 2.7274 2.5203 3.3125 425.09 0.0094333 35.635 0.076026
247.38 3461.5 undefined 849.38 931.68 2.7323 290.00 0.0034483 849.38 931.68 2.7323 2.5237 3.3122 426.18 0.0093295 35.661 0.076159 290.00 0.0034483 849.38 931.68 2.7323 2.5237 3.3122 426.18 0.0093295 35.661 0.076159
248.38 3480.7 undefined 851.90 934.66 2.7371 290.00 0.0034483 851.90 934.66 2.7371 2.5271 3.3118 427.26 0.0092269 35.687 0.076292 290.00 0.0034483 851.90 934.66 2.7371 2.5271 3.3118 427.26 0.0092269 35.687 0.076292
249.38 3500.0 undefined 854.43 937.65 2.7420 290.00 0.0034483 854.43 937.65 2.7420 2.5305 3.3116 428.34 0.0091255 35.713 0.076425 290.00 0.0034483 854.43 937.65 2.7420 2.5305 3.3116 428.34 0.0091255 35.713 0.076425
250.38 3519.2 undefined 856.97 940.64 2.7468 290.00 0.0034483 856.97 940.64 2.7468 2.5339 3.3113 429.42 0.0090252 35.738 0.076559 290.00 0.0034483 856.97 940.64 2.7468 2.5339 3.3113 429.42 0.0090252 35.738 0.076559
251.38 3538.5 undefined 859.50 943.63 2.7516 290.00 0.0034483 859.50 943.63 2.7516 2.5373 3.3111 430.50 0.0089260 35.764 0.076693 290.00 0.0034483 859.50 943.63 2.7516 2.5373 3.3111 430.50 0.0089260 35.764 0.076693
252.38 3557.8 undefined 862.04 946.63 2.7565 290.00 0.0034483 862.04 946.63 2.7565 2.5407 3.3110 431.57 0.0088279 35.790 0.076827 290.00 0.0034483 862.04 946.63 2.7565 2.5407 3.3110 431.57 0.0088279 35.790 0.076827
253.38 3577.0 undefined 864.58 949.63 2.7613 290.00 0.0034483 864.58 949.63 2.7613 2.5440 3.3109 432.64 0.0087309 35.816 0.076961 290.00 0.0034483 864.58 949.63 2.7613 2.5440 3.3109 432.64 0.0087309 35.816 0.076961
254.38 3596.3 undefined 867.13 952.63 2.7661 290.00 0.0034483 867.13 952.63 2.7661 2.5474 3.3108 433.70 0.0086350 35.842 0.077095 290.00 0.0034483 867.13 952.63 2.7661 2.5474 3.3108 433.70 0.0086350 35.842 0.077095
255.38 3615.5 undefined 869.68 955.64 2.7710 290.00 0.0034483 869.68 955.64 2.7710 2.5508 3.3107 434.76 0.0085402 35.868 0.077229 290.00 0.0034483 869.68 955.64 2.7710 2.5508 3.3107 434.76 0.0085402 35.868 0.077229
256.38 3634.7 undefined 872.23 958.65 2.7758 290.00 0.0034483 872.23 958.65 2.7758 2.5542 3.3107 435.82 0.0084464 35.893 0.077364 290.00 0.0034483 872.23 958.65 2.7758 2.5542 3.3107 435.82 0.0084464 35.893 0.077364
257.38 3654.0 undefined 874.79 961.66 2.7806 290.00 0.0034483 874.79 961.66 2.7806 2.5576 3.3108 436.88 0.0083536 35.919 0.077498 290.00 0.0034483 874.79 961.66 2.7806 2.5576 3.3108 436.88 0.0083536 35.919 0.077498
258.38 3673.2 undefined 877.34 964.68 2.7854 290.00 0.0034483 877.34 964.68 2.7854 2.5609 3.3109 437.93 0.0082618 35.945 0.077633 290.00 0.0034483 877.34 964.68 2.7854 2.5609 3.3109 437.93 0.0082618 35.945 0.077633
259.38 3692.5 undefined 879.91 967.70 2.7903 290.00 0.0034483 879.91 967.70 2.7903 2.5643 3.3110 438.98 0.0081710 35.971 0.077767 290.00 0.0034483 879.91 967.70 2.7903 2.5643 3.3110 438.98 0.0081710 35.971 0.077767
260.38 3711.7 undefined 882.47 970.72 2.7951 290.00 0.0034483 882.47 970.72 2.7951 2.5677 3.3111 440.03 0.0080812 35.996 0.077902 290.00 0.0034483 882.47 970.72 2.7951 2.5677 3.3111 440.03 0.0080812 35.996 0.077902
261.38 3731.0 undefined 885.04 973.75 2.7999 290.00 0.0034483 885.04 973.75 2.7999 2.5711 3.3113 441.08 0.0079924 36.022 0.078037 290.00 0.0034483 885.04 973.75 2.7999 2.5711 3.3113 441.08 0.0079924 36.022 0.078037
262.38 3750.2 undefined 887.62 976.78 2.8047 290.00 0.0034483 887.62 976.78 2.8047 2.5744 3.3115 442.12 0.0079045 36.048 0.078171 290.00 0.0034483 887.62 976.78 2.8047 2.5744 3.3115 442.12 0.0079045 36.048 0.078171
263.38 3769.4 undefined 890.19 979.81 2.8095 290.00 0.0034483 890.19 979.81 2.8095 2.5778 3.3117 443.16 0.0078175 36.073 0.078306 290.00 0.0034483 890.19 979.81 2.8095 2.5778 3.3117 443.16 0.0078175 36.073 0.078306
264.38 3788.7 undefined 892.77 982.85 2.8143 290.00 0.0034483 892.77 982.85 2.8143 2.5812 3.3120 444.19 0.0077315 36.099 0.078441 290.00 0.0034483 892.77 982.85 2.8143 2.5812 3.3120 444.19 0.0077315 36.099 0.078441
265.38 3807.9 undefined 895.35 985.89 2.8191 290.00 0.0034483 895.35 985.89 2.8191 2.5846 3.3123 445.22 0.0076464 36.124 0.078575 290.00 0.0034483 895.35 985.89 2.8191 2.5846 3.3123 445.22 0.0076464 36.124 0.078575
266.38 3827.1 undefined 897.94 988.93 2.8239 290.00 0.0034483 897.94 988.93 2.8239 2.5879 3.3127 446.25 0.0075622 36.150 0.078709 290.00 0.0034483 897.94 988.93 2.8239 2.5879 3.3127 446.25 0.0075622 36.150 0.078709
267.38 3846.3 undefined 900.53 991.98 2.8287 290.00 0.0034483 900.53 991.98 2.8287 2.5913 3.3131 447.28 0.0074789 36.175 0.078844 290.00 0.0034483 900.53 991.98 2.8287 2.5913 3.3131 447.28 0.0074789 36.175 0.078844
268.38 3865.6 undefined 903.12 995.03 2.8335 290.00 0.0034483 903.12 995.03 2.8335 2.5947 3.3135 448.31 0.0073965 36.201 0.078977 290.00 0.0034483 903.12 995.03 2.8335 2.5947 3.3135 448.31 0.0073965 36.201 0.078977
269.38 3884.8 undefined 905.72 998.08 2.8383 290.00 0.0034483 905.72 998.08 2.8383 2.5980 3.3139 449.33 0.0073149 36.226 0.079111 290.00 0.0034483 905.72 998.08 2.8383 2.5980 3.3139 449.33 0.0073149 36.226 0.079111
270.38 3904.0 undefined 908.32 1001.1 2.8431 290.00 0.0034483 908.32 1001.1 2.8431 2.6014 3.3144 450.35 0.0072342 36.252 0.079244 290.00 0.0034483 908.32 1001.1 2.8431 2.6014 3.3144 450.35 0.0072342 36.252 0.079244
271.38 3923.2 undefined 910.92 1004.2 2.8478 290.00 0.0034483 910.92 1004.2 2.8478 2.6047 3.3148 451.36 0.0071543 36.277 0.079377 290.00 0.0034483 910.92 1004.2 2.8478 2.6047 3.3148 451.36 0.0071543 36.277 0.079377
272.38 3942.4 undefined 913.53 1007.3 2.8526 290.00 0.0034483 913.53 1007.3 2.8526 2.6081 3.3154 452.38 0.0070752 36.302 0.079509 290.00 0.0034483 913.53 1007.3 2.8526 2.6081 3.3154 452.38 0.0070752 36.302 0.079509
273.38 3961.7 undefined 916.14 1010.3 2.8574 290.00 0.0034483 916.14 1010.3 2.8574 2.6114 3.3159 453.39 0.0069970 36.328 0.079640 290.00 0.0034483 916.14 1010.3 2.8574 2.6114 3.3159 453.39 0.0069970 36.328 0.079640
274.38 3980.9 undefined 918.75 1013.4 2.8622 290.00 0.0034483 918.75 1013.4 2.8622 2.6148 3.3165 454.40 0.0069196 36.353 0.079770 290.00 0.0034483 918.75 1013.4 2.8622 2.6148 3.3165 454.40 0.0069196 36.353 0.079770
275.38 4000.1 undefined 921.37 1016.5 2.8670 290.00 0.0034483 921.37 1016.5 2.8670 2.6182 3.3171 455.40 0.0068429 36.378 0.079898 290.00 0.0034483 921.37 1016.5 2.8670 2.6182 3.3171 455.40 0.0068429 36.378 0.079898
276.38 4019.3 undefined 923.99 1019.5 2.8717 290.00 0.0034483 923.99 1019.5 2.8717 2.6215 3.3177 456.40 0.0067671 36.404 0.080025 290.00 0.0034483 923.99 1019.5 2.8717 2.6215 3.3177 456.40 0.0067671 36.404 0.080025
277.38 4038.5 undefined 926.61 1022.6 2.8765 290.00 0.0034483 926.61 1022.6 2.8765 2.6248 3.3184 457.40 0.0066920 36.429 0.080150 290.00 0.0034483 926.61 1022.6 2.8765 2.6248 3.3184 457.40 0.0066920 36.429 0.080150
278.38 4057.7 undefined 929.24 1025.7 2.8813 290.00 0.0034483 929.24 1025.7 2.8813 2.6282 3.3191 458.40 0.0066177 36.454 0.080271 290.00 0.0034483 929.24 1025.7 2.8813 2.6282 3.3191 458.40 0.0066177 36.454 0.080271
279.38 4076.9 undefined 931.87 1028.8 2.8860 290.00 0.0034483 931.87 1028.8 2.8860 2.6315 3.3198 459.40 0.0065441 36.479 0.080386 290.00 0.0034483 931.87 1028.8 2.8860 2.6315 3.3198 459.40 0.0065441 36.479 0.080386
280.38 4096.1 undefined 934.50 1031.9 2.8908 290.00 0.0034483 934.50 1031.9 2.8908 2.6349 3.3205 460.39 0.0064713 36.504 0.080491 290.00 0.0034483 934.50 1031.9 2.8908 2.6349 3.3205 460.39 0.0064713 36.504 0.080491
281.38 4115.3 undefined 937.14 1035.0 2.8955 290.00 0.0034483 937.14 1035.0 2.8955 2.6382 3.3212 461.38 0.0063992 36.530 0.080563 290.00 0.0034483 937.14 1035.0 2.8955 2.6382 3.3212 461.38 0.0063992 36.530 0.080563
282.38 4134.5 undefined 939.78 1038.1 2.9003 290.00 0.0034483 939.78 1038.1 2.9003 2.6416 3.3220 462.37 0.0063279 36.555 0.080661 290.00 0.0034483 939.78 1038.1 2.9003 2.6416 3.3220 462.37 0.0063279 36.555 0.080661
283.38 4153.7 undefined 942.42 1041.2 2.9051 290.00 0.0034483 942.42 1041.2 2.9051 2.6449 3.3228 463.35 0.0062572 36.580 0.080818 290.00 0.0034483 942.42 1041.2 2.9051 2.6449 3.3228 463.35 0.0062572 36.580 0.080818
284.38 4172.9 undefined 945.07 1044.3 2.9098 290.00 0.0034483 945.07 1044.3 2.9098 2.6482 3.3236 464.33 0.0061873 36.605 0.080975 290.00 0.0034483 945.07 1044.3 2.9098 2.6482 3.3236 464.33 0.0061873 36.605 0.080975
285.38 4192.1 undefined 947.72 1047.4 2.9146 290.00 0.0034483 947.72 1047.4 2.9146 2.6516 3.3245 465.31 0.0061180 36.630 0.081132 290.00 0.0034483 947.72 1047.4 2.9146 2.6516 3.3245 465.31 0.0061180 36.630 0.081132
286.38 4211.2 undefined 950.37 1050.5 2.9193 290.00 0.0034483 950.37 1050.5 2.9193 2.6549 3.3254 466.29 0.0060495 36.655 0.081290 290.00 0.0034483 950.37 1050.5 2.9193 2.6549 3.3254 466.29 0.0060495 36.655 0.081290
287.38 4230.4 undefined 953.03 1053.6 2.9240 290.00 0.0034483 953.03 1053.6 2.9240 2.6582 3.3262 467.27 0.0059816 36.680 0.081448 290.00 0.0034483 953.03 1053.6 2.9240 2.6582 3.3262 467.27 0.0059816 36.680 0.081448
288.38 4249.6 undefined 955.69 1056.7 2.9288 290.00 0.0034483 955.69 1056.7 2.9288 2.6615 3.3272 468.24 0.0059144 36.705 0.081607 290.00 0.0034483 955.69 1056.7 2.9288 2.6615 3.3272 468.24 0.0059144 36.705 0.081607
289.38 4268.8 undefined 958.35 1059.8 2.9335 290.00 0.0034483 958.35 1059.8 2.9335 2.6649 3.3281 469.21 0.0058478 36.730 0.081765 290.00 0.0034483 958.35 1059.8 2.9335 2.6649 3.3281 469.21 0.0058478 36.730 0.081765
290.38 4288.0 undefined 961.02 1063.0 2.9383 290.00 0.0034483 961.02 1063.0 2.9383 2.6682 3.3290 470.18 0.0057819 36.755 0.081924 290.00 0.0034483 961.02 1063.0 2.9383 2.6682 3.3290 470.18 0.0057819 36.755 0.081924
291.38 4307.1 undefined 963.69 1066.1 2.9430 290.00 0.0034483 963.69 1066.1 2.9430 2.6715 3.3300 471.14 0.0057167 36.780 0.082083 290.00 0.0034483 963.69 1066.1 2.9430 2.6715 3.3300 471.14 0.0057167 36.780 0.082083
292.38 4326.3 undefined 966.36 1069.2 2.9477 290.00 0.0034483 966.36 1069.2 2.9477 2.6748 3.3310 472.10 0.0056521 36.804 0.082243 290.00 0.0034483 966.36 1069.2 2.9477 2.6748 3.3310 472.10 0.0056521 36.804 0.082243
293.38 4345.5 undefined 969.04 1072.3 2.9525 290.00 0.0034483 969.04 1072.3 2.9525 2.6781 3.3320 473.07 0.0055881 36.829 0.082403 290.00 0.0034483 969.04 1072.3 2.9525 2.6781 3.3320 473.07 0.0055881 36.829 0.082403
294.38 4364.6 undefined 971.71 1075.5 2.9572 290.00 0.0034483 971.71 1075.5 2.9572 2.6814 3.3330 474.02 0.0055247 36.854 0.082563 290.00 0.0034483 971.71 1075.5 2.9572 2.6814 3.3330 474.02 0.0055247 36.854 0.082563
295.38 4383.8 undefined 974.40 1078.6 2.9619 290.00 0.0034483 974.40 1078.6 2.9619 2.6847 3.3341 474.98 0.0054619 36.879 0.082723 290.00 0.0034483 974.40 1078.6 2.9619 2.6847 3.3341 474.98 0.0054619 36.879 0.082723
296.38 4402.9 undefined 977.08 1081.8 2.9666 290.00 0.0034483 977.08 1081.8 2.9666 2.6880 3.3352 475.93 0.0053998 36.904 0.082884 290.00 0.0034483 977.08 1081.8 2.9666 2.6880 3.3352 475.93 0.0053998 36.904 0.082884
297.38 4422.1 undefined 979.77 1084.9 2.9713 290.00 0.0034483 979.77 1084.9 2.9713 2.6914 3.3362 476.88 0.0053382 36.928 0.083045 290.00 0.0034483 979.77 1084.9 2.9713 2.6914 3.3362 476.88 0.0053382 36.928 0.083045
298.38 4441.3 undefined 982.47 1088.1 2.9761 290.00 0.0034483 982.47 1088.1 2.9761 2.6947 3.3374 477.83 0.0052773 36.953 0.083206 290.00 0.0034483 982.47 1088.1 2.9761 2.6947 3.3374 477.83 0.0052773 36.953 0.083206
299.38 4460.4 undefined 985.16 1091.2 2.9808 290.00 0.0034483 985.16 1091.2 2.9808 2.6980 3.3385 478.78 0.0052169 36.978 0.083367 290.00 0.0034483 985.16 1091.2 2.9808 2.6980 3.3385 478.78 0.0052169 36.978 0.083367
300.38 4479.6 undefined 987.86 1094.4 2.9855 290.00 0.0034483 987.86 1094.4 2.9855 2.7012 3.3396 479.73 0.0051571 37.002 0.083529 290.00 0.0034483 987.86 1094.4 2.9855 2.7012 3.3396 479.73 0.0051571 37.002 0.083529