Temperature (C) Pressure (psia) Quality (l+v) Internal Energy (l+v, kJ/kg) Enthalpy (l+v, kJ/kg) Entropy (l+v, J/g*K) Density (l, kg/m3) Volume (l, m3/kg) Internal Energy (l, kJ/kg) Enthalpy (l, kJ/kg) Entropy (l, J/g*K) Cv (l, J/g*K) Cp (l, J/g*K) Sound Spd. (l, m/s) Joule-Thomson (l, F/psia) Viscosity (l, uPa*s) Therm. Cond. (l, W/m*K) Density (v, kg/m3) Volume (v, m3/kg) Internal Energy (v, kJ/kg) Enthalpy (v, kJ/kg) Entropy (v, J/g*K) Cv (v, J/g*K) Cp (v, J/g*K) Sound Spd. (v, m/s) Joule-Thomson (v, F/psia) Viscosity (v, uPa*s) Therm. Cond. (v, W/m*K)
-187.62 2.4953e-08 2.0427e-11 -196.64 -196.64 -1.3959 733.13 0.0013640 -196.64 -196.64 -1.3959 1.3553 1.9158 2136.4 -0.0077592 10960. 0.20792 1.0669e-08 9.3732e+07 350.13 366.26 5.1858 0.69067 0.87923 143.28 6.1051 2.3259 0.0017061
-186.62 3.7339e-08 3.0183e-11 -194.73 -194.73 -1.3736 732.08 0.0013660 -194.73 -194.73 -1.3736 1.3539 1.9166 2129.6 -0.0077546 10073. 0.20765 1.5780e-08 6.3371e+07 350.82 367.14 5.1200 0.69462 0.88317 144.03 5.9178 2.3534 0.0017533
-185.62 5.5322e-08 4.4163e-11 -192.81 -192.81 -1.3516 731.04 0.0013679 -192.81 -192.81 -1.3516 1.3525 1.9174 2122.9 -0.0077498 9276.1 0.20737 2.3112e-08 4.3267e+07 351.52 368.02 5.0561 0.69857 0.88713 144.77 5.7383 2.3808 0.0018007
-184.62 8.1182e-08 6.4009e-11 -190.89 -190.89 -1.3298 730.00 0.0013699 -190.89 -190.89 -1.3298 1.3513 1.9182 2116.1 -0.0077448 8557.8 0.20708 3.3533e-08 2.9821e+07 352.22 368.91 4.9939 0.70253 0.89108 145.51 5.5662 2.4083 0.0018485
-183.62 1.1803e-07 9.1931e-11 -188.97 -188.97 -1.3083 728.96 0.0013718 -188.97 -188.97 -1.3083 1.3501 1.9191 2109.3 -0.0077395 7909.8 0.20678 4.8211e-08 2.0742e+07 352.92 369.81 4.9333 0.70648 0.89504 146.24 5.4011 2.4357 0.0018965
-182.62 1.7009e-07 1.3088e-10 -187.05 -187.05 -1.2869 727.92 0.0013738 -187.05 -187.05 -1.2869 1.3490 1.9201 2102.5 -0.0077340 7324.3 0.20647 6.8704e-08 1.4555e+07 353.63 370.70 4.8744 0.71043 0.89899 146.97 5.2426 2.4632 0.0019448
-181.62 2.4299e-07 1.8474e-10 -185.13 -185.13 -1.2658 726.88 0.0013757 -185.13 -185.13 -1.2658 1.3480 1.9210 2095.7 -0.0077283 6794.5 0.20616 9.7079e-08 1.0301e+07 354.35 371.60 4.8170 0.71438 0.90294 147.69 5.0904 2.4906 0.0019934
-180.62 3.4425e-07 2.5863e-10 -183.21 -183.21 -1.2450 725.85 0.0013777 -183.21 -183.21 -1.2450 1.3470 1.9220 2088.9 -0.0077225 6314.4 0.20584 1.3605e-07 7.3504e+06 355.06 372.51 4.7612 0.71833 0.90688 148.41 4.9442 2.5181 0.0020423
-179.62 4.8378e-07 3.5920e-10 -181.29 -181.29 -1.2243 724.81 0.0013797 -181.29 -181.29 -1.2243 1.3461 1.9231 2082.0 -0.0077164 5878.8 0.20551 1.8915e-07 5.2868e+06 355.78 373.42 4.7068 0.72227 0.91082 149.13 4.8038 2.5456 0.0020915
-178.62 6.7459e-07 4.9506e-10 -179.37 -179.37 -1.2038 723.78 0.0013816 -179.37 -179.37 -1.2038 1.3453 1.9241 2075.2 -0.0077102 5482.9 0.20517 2.6096e-07 3.8320e+06 356.51 374.33 4.6538 0.72620 0.91475 149.84 4.6688 2.5731 0.0021410
-177.62 9.3358e-07 6.7724e-10 -177.44 -177.44 -1.1836 722.75 0.0013836 -177.44 -177.44 -1.1836 1.3445 1.9252 2068.4 -0.0077039 5122.6 0.20483 3.5737e-07 2.7982e+06 357.23 375.25 4.6022 0.73012 0.91867 150.54 4.5390 2.6005 0.0021907
-176.62 1.2826e-06 9.1982e-10 -175.52 -175.52 -1.1635 721.72 0.0013856 -175.52 -175.52 -1.1635 1.3437 1.9263 2061.5 -0.0076973 4794.1 0.20447 4.8588e-07 2.0581e+06 357.97 376.17 4.5519 0.73403 0.92258 151.25 4.4142 2.6280 0.0022408
-175.62 1.7496e-06 1.2406e-09 -173.59 -173.59 -1.1437 720.69 0.0013876 -173.59 -173.59 -1.1437 1.3430 1.9274 2054.7 -0.0076907 4494.3 0.20411 6.5601e-07 1.5244e+06 358.70 377.09 4.5029 0.73792 0.92648 151.95 4.2941 2.6555 0.0022912
-174.62 2.3705e-06 1.6620e-09 -171.66 -171.66 -1.1240 719.66 0.0013895 -171.66 -171.66 -1.1240 1.3423 1.9286 2047.9 -0.0076838 4220.2 0.20375 8.7976e-07 1.1367e+06 359.44 378.02 4.4551 0.74181 0.93036 152.64 4.1784 2.6830 0.0023418
-173.62 3.1903e-06 2.2120e-09 -169.73 -169.73 -1.1045 718.64 0.0013915 -169.73 -169.73 -1.1045 1.3417 1.9298 2041.0 -0.0076769 3969.3 0.20338 1.1721e-06 8.5314e+05 360.19 378.95 4.4085 0.74568 0.93423 153.33 4.0671 2.7105 0.0023928
-172.62 4.2661e-06 2.9254e-09 -167.80 -167.80 -1.0852 717.61 0.0013935 -167.80 -167.80 -1.0852 1.3411 1.9310 2034.2 -0.0076698 3739.3 0.20300 1.5518e-06 6.4441e+05 360.93 379.89 4.3631 0.74953 0.93809 154.02 3.9599 2.7379 0.0024440
-171.62 5.6692e-06 3.8453e-09 -165.87 -165.87 -1.0661 716.58 0.0013955 -165.87 -165.87 -1.0661 1.3405 1.9322 2027.3 -0.0076625 3528.0 0.20261 2.0419e-06 4.8974e+05 361.69 380.83 4.3188 0.75337 0.94193 154.71 3.8566 2.7654 0.0024955
-170.62 7.4884e-06 5.0243e-09 -163.94 -163.94 -1.0472 715.56 0.0013975 -163.94 -163.94 -1.0472 1.3400 1.9334 2020.5 -0.0076552 3333.8 0.20222 2.6708e-06 3.7442e+05 362.44 381.77 4.2755 0.75720 0.94575 155.39 3.7570 2.7929 0.0025473
-169.62 9.8334e-06 6.5269e-09 -162.00 -162.00 -1.0284 714.54 0.0013995 -162.00 -162.00 -1.0284 1.3395 1.9347 2013.6 -0.0076477 3154.9 0.20182 3.4733e-06 2.8791e+05 363.20 382.72 4.2334 0.76100 0.94956 156.07 3.6609 2.8204 0.0025994
-168.62 1.2839e-05 8.4316e-09 -160.07 -160.07 -1.0098 713.52 0.0014015 -160.07 -160.07 -1.0098 1.3390 1.9359 2006.8 -0.0076401 2989.9 0.20141 4.4917e-06 2.2263e+05 363.96 383.67 4.1922 0.76479 0.95335 156.74 3.5683 2.8479 0.0026518
-167.62 1.6672e-05 1.0833e-08 -158.13 -158.13 -0.99134 712.49 0.0014035 -158.13 -158.13 -0.99134 1.3386 1.9372 2000.0 -0.0076323 2837.5 0.20100 5.7771e-06 1.7310e+05 364.73 384.63 4.1521 0.76856 0.95712 157.41 3.4790 2.8754 0.0027045
-166.62 2.1533e-05 1.3845e-08 -156.19 -156.19 -0.97306 711.47 0.0014055 -156.19 -156.19 -0.97306 1.3382 1.9385 1993.1 -0.0076245 2696.5 0.20058 7.3914e-06 1.3529e+05 365.50 385.59 4.1129 0.77232 0.96087 158.08 3.3927 2.9029 0.0027575
-165.62 2.7666e-05 1.7604e-08 -154.25 -154.25 -0.95494 710.45 0.0014075 -154.25 -154.25 -0.95494 1.3378 1.9398 1986.3 -0.0076165 2566.0 0.20016 9.4084e-06 1.0629e+05 366.27 386.55 4.0746 0.77605 0.96460 158.75 3.3095 2.9304 0.0028108
-164.62 3.5367e-05 2.2273e-08 -152.31 -152.31 -0.93698 709.44 0.0014096 -152.31 -152.31 -0.93698 1.3375 1.9411 1979.4 -0.0076084 2444.9 0.19973 1.1916e-05 83918. 367.05 387.52 4.0372 0.77976 0.96832 159.41 3.2291 2.9579 0.0028643
-163.62 4.4989e-05 2.8044e-08 -150.37 -150.37 -0.91917 708.42 0.0014116 -150.37 -150.37 -0.91917 1.3371 1.9424 1972.6 -0.0076002 2332.3 0.19930 1.5020e-05 66577. 367.83 388.49 4.0008 0.78346 0.97201 160.07 3.1514 2.9854 0.0029182
-162.62 5.6956e-05 3.5144e-08 -148.43 -148.43 -0.90151 707.40 0.0014136 -148.43 -148.43 -0.90151 1.3368 1.9437 1965.8 -0.0075919 2227.7 0.19886 1.8844e-05 53068. 368.62 389.46 3.9651 0.78713 0.97569 160.72 3.0764 3.0129 0.0029723
-161.62 7.1773e-05 4.3842e-08 -146.48 -146.48 -0.88400 706.38 0.0014157 -146.48 -146.48 -0.88400 1.3365 1.9451 1959.0 -0.0075834 2130.2 0.19841 2.3533e-05 42494. 369.41 390.44 3.9304 0.79079 0.97935 161.38 3.0038 3.0404 0.0030268
-160.62 9.0036e-05 5.4450e-08 -144.54 -144.54 -0.86663 705.37 0.0014177 -144.54 -144.54 -0.86663 1.3363 1.9465 1952.1 -0.0075748 2039.2 0.19796 2.9258e-05 34178. 370.20 391.42 3.8964 0.79443 0.98298 162.03 2.9337 3.0679 0.0030815
-159.62 0.00011245 6.7332e-08 -142.59 -142.59 -0.84940 704.35 0.0014197 -142.59 -142.59 -0.84940 1.3360 1.9478 1945.3 -0.0075661 1954.2 0.19751 3.6221e-05 27609. 371.00 392.40 3.8632 0.79805 0.98660 162.68 2.8658 3.0955 0.0031365
-158.62 0.00013985 8.2914e-08 -140.64 -140.64 -0.83231 703.34 0.0014218 -140.64 -140.64 -0.83231 1.3358 1.9492 1938.5 -0.0075573 1874.8 0.19705 4.4652e-05 22395. 371.80 393.39 3.8307 0.80164 0.99020 163.32 2.8002 3.1230 0.0031918
-157.62 0.00017320 1.0169e-07 -138.69 -138.69 -0.81536 702.32 0.0014238 -138.69 -138.69 -0.81536 1.3356 1.9506 1931.7 -0.0075484 1800.3 0.19658 5.4822e-05 18241. 372.60 394.38 3.7990 0.80522 0.99378 163.96 2.7367 3.1505 0.0032474
-156.62 0.00021364 1.2421e-07 -136.74 -136.74 -0.79854 701.31 0.0014259 -136.74 -136.74 -0.79854 1.3354 1.9520 1924.9 -0.0075393 1730.5 0.19611 6.7040e-05 14916. 373.41 395.38 3.7680 0.80878 0.99734 164.60 2.6752 3.1780 0.0033033
-155.62 0.00026248 1.5114e-07 -134.79 -134.79 -0.78185 700.30 0.0014280 -134.79 -134.79 -0.78185 1.3352 1.9534 1918.1 -0.0075302 1664.9 0.19564 8.1666e-05 12245. 374.22 396.38 3.7377 0.81232 1.0009 165.24 2.6157 3.2055 0.0033595
-154.62 0.00032125 1.8322e-07 -132.83 -132.83 -0.76530 699.29 0.0014300 -132.83 -132.83 -0.76530 1.3350 1.9548 1911.3 -0.0075209 1603.3 0.19516 9.9109e-05 10090. 375.03 397.38 3.7081 0.81585 1.0044 165.87 2.5580 3.2330 0.0034160
-153.62 0.00039171 2.2129e-07 -130.88 -130.88 -0.74887 698.27 0.0014321 -130.88 -130.88 -0.74887 1.3349 1.9563 1904.5 -0.0075114 1545.3 0.19468 0.00011984 8344.6 375.85 398.39 3.6792 0.81935 1.0079 166.50 2.5022 3.2606 0.0034727
-152.62 0.00047590 2.6632e-07 -128.92 -128.92 -0.73256 697.26 0.0014342 -128.92 -128.92 -0.73256 1.3348 1.9577 1897.8 -0.0075019 1490.6 0.19419 0.00014439 6925.9 376.67 399.40 3.6509 0.82284 1.0114 167.13 2.4481 3.2881 0.0035298
-151.62 0.00057613 3.1940e-07 -126.96 -126.96 -0.71638 696.25 0.0014363 -126.96 -126.96 -0.71638 1.3346 1.9592 1891.0 -0.0074922 1438.9 0.19370 0.00017336 5768.4 377.49 400.41 3.6232 0.82631 1.0149 167.76 2.3957 3.3156 0.0035872
-150.62 0.00069507 3.8176e-07 -125.00 -125.00 -0.70032 695.24 0.0014384 -125.00 -125.00 -0.70032 1.3345 1.9606 1884.2 -0.0074824 1390.2 0.19320 0.00020744 4820.7 378.32 401.42 3.5962 0.82976 1.0183 168.38 2.3448 3.3431 0.0036448
-149.62 0.00083574 4.5479e-07 -123.04 -123.04 -0.68437 694.23 0.0014404 -123.04 -123.04 -0.68438 1.3345 1.9621 1877.4 -0.0074724 1344.0 0.19270 0.00024740 4042.0 379.15 402.44 3.5697 0.83319 1.0218 169.00 2.2956 3.3706 0.0037027
-148.62 0.0010016 5.4004e-07 -121.08 -121.08 -0.66855 693.22 0.0014425 -121.08 -121.08 -0.66855 1.3344 1.9636 1870.7 -0.0074623 1300.3 0.19220 0.00029412 3400.0 379.99 403.47 3.5438 0.83661 1.0252 169.62 2.2478 3.3982 0.0037610
-147.62 0.0011965 6.3927e-07 -119.11 -119.11 -0.65283 692.21 0.0014447 -119.11 -119.11 -0.65284 1.3343 1.9651 1863.9 -0.0074521 1258.9 0.19169 0.00034856 2869.0 380.83 404.49 3.5185 0.84001 1.0286 170.24 2.2014 3.4257 0.0038195
-146.62 0.0014249 7.5441e-07 -117.15 -117.15 -0.63724 691.20 0.0014468 -117.15 -117.15 -0.63724 1.3343 1.9666 1857.2 -0.0074417 1219.6 0.19117 0.00041181 2428.3 381.67 405.52 3.4938 0.84340 1.0320 170.85 2.1565 3.4532 0.0038783
-145.62 0.0016917 8.8763e-07 -115.18 -115.18 -0.62175 690.19 0.0014489 -115.18 -115.18 -0.62175 1.3343 1.9682 1850.4 -0.0074312 1182.3 0.19066 0.00048510 2061.4 382.51 406.56 3.4695 0.84677 1.0353 171.46 2.1128 3.4807 0.0039374
-144.62 0.0020026 1.0413e-06 -113.21 -113.21 -0.60637 689.18 0.0014510 -113.21 -113.21 -0.60637 1.3343 1.9697 1843.7 -0.0074206 1146.8 0.19014 0.00056976 1755.1 383.36 407.59 3.4458 0.85012 1.0387 172.07 2.0705 3.5082 0.0039967
-143.62 0.0023637 1.2182e-06 -111.24 -111.24 -0.59109 688.17 0.0014531 -111.24 -111.24 -0.59110 1.3343 1.9713 1836.9 -0.0074098 1113.0 0.18962 0.00066731 1498.6 384.21 408.63 3.4226 0.85346 1.0420 172.68 2.0294 3.5358 0.0040564
-142.62 0.0027820 1.4212e-06 -109.27 -109.27 -0.57593 687.16 0.0014553 -109.27 -109.27 -0.57593 1.3343 1.9728 1830.2 -0.0073988 1080.8 0.18909 0.00077939 1283.1 385.07 409.68 3.3999 0.85679 1.0454 173.28 1.9896 3.5633 0.0041164
-141.62 0.0032653 1.6534e-06 -107.30 -107.30 -0.56086 686.15 0.0014574 -107.30 -107.30 -0.56087 1.3343 1.9744 1823.5 -0.0073878 1050.1 0.18856 0.00090784 1101.5 385.93 410.72 3.3777 0.86011 1.0487 173.88 1.9508 3.5908 0.0041766
-140.62 0.0038222 1.9186e-06 -105.32 -105.32 -0.54590 685.14 0.0014596 -105.32 -105.32 -0.54591 1.3344 1.9760 1816.7 -0.0073765 1020.7 0.18803 0.0010547 948.16 386.79 411.77 3.3560 0.86341 1.0520 174.48 1.9133 3.6183 0.0042372
-139.62 0.0044623 2.2205e-06 -103.34 -103.34 -0.53104 684.13 0.0014617 -103.34 -103.34 -0.53105 1.3344 1.9776 1810.0 -0.0073651 992.74 0.18749 0.0012221 818.26 387.65 412.83 3.3347 0.86670 1.0553 175.08 1.8768 3.6459 0.0042980
-138.62 0.0051963 2.5635e-06 -101.36 -101.36 -0.51628 683.12 0.0014639 -101.37 -101.37 -0.51629 1.3345 1.9792 1803.3 -0.0073536 965.97 0.18695 0.0014125 707.94 388.52 413.88 3.3139 0.86998 1.0586 175.67 1.8413 3.6734 0.0043592
-137.62 0.0060358 2.9522e-06 -99.385 -99.385 -0.50161 682.11 0.0014660 -99.386 -99.386 -0.50162 1.3346 1.9808 1796.6 -0.0073419 940.35 0.18641 0.0016287 614.00 389.39 414.94 3.2935 0.87325 1.0619 176.26 1.8069 3.7009 0.0044206
-136.62 0.0069938 3.3916e-06 -97.403 -97.403 -0.48704 681.10 0.0014682 -97.404 -97.404 -0.48705 1.3347 1.9825 1789.9 -0.0073301 915.81 0.18586 0.0018733 533.80 390.26 416.00 3.2735 0.87650 1.0651 176.85 1.7734 3.7284 0.0044823
-135.62 0.0080843 3.8874e-06 -95.419 -95.419 -0.47256 680.09 0.0014704 -95.421 -95.421 -0.47258 1.3348 1.9841 1783.2 -0.0073180 892.30 0.18531 0.0021497 465.17 391.14 417.07 3.2540 0.87975 1.0684 177.44 1.7409 3.7559 0.0045443
-134.62 0.0093230 4.4453e-06 -93.434 -93.434 -0.45818 679.08 0.0014726 -93.436 -93.436 -0.45820 1.3350 1.9858 1776.5 -0.0073059 869.75 0.18476 0.0024613 406.30 392.02 418.14 3.2348 0.88299 1.0716 178.02 1.7093 3.7834 0.0046066
-133.62 0.010727 5.0719e-06 -91.447 -91.447 -0.44389 678.07 0.0014748 -91.450 -91.449 -0.44391 1.3351 1.9875 1769.8 -0.0072935 848.11 0.18421 0.0028116 355.67 392.91 419.21 3.2161 0.88622 1.0749 178.61 1.6786 3.8109 0.0046691
-132.62 0.012315 5.7742e-06 -89.458 -89.458 -0.42969 677.06 0.0014770 -89.461 -89.461 -0.42971 1.3353 1.9892 1763.1 -0.0072810 827.32 0.18365 0.0032049 312.03 393.79 420.29 3.1977 0.88944 1.0781 179.19 1.6488 3.8385 0.0047320
-131.62 0.014106 6.5597e-06 -87.468 -87.468 -0.41557 676.04 0.0014792 -87.471 -87.471 -0.41560 1.3354 1.9909 1756.4 -0.0072684 807.34 0.18309 0.0036453 274.33 394.68 421.36 3.1798 0.89266 1.0813 179.76 1.6197 3.8660 0.0047951
-130.62 0.016124 7.4363e-06 -85.476 -85.475 -0.40155 675.03 0.0014814 -85.479 -85.479 -0.40157 1.3356 1.9926 1749.7 -0.0072555 788.12 0.18253 0.0041375 241.69 395.58 422.44 3.1622 0.89586 1.0846 180.34 1.5915 3.8935 0.0048586
-129.62 0.018392 8.4129e-06 -83.482 -83.481 -0.38760 674.02 0.0014836 -83.486 -83.486 -0.38763 1.3358 1.9944 1743.0 -0.0072425 769.63 0.18196 0.0046867 213.37 396.47 423.53 3.1450 0.89906 1.0878 180.91 1.5641 3.9210 0.0049223
-128.62 0.020935 9.4986e-06 -81.486 -81.486 -0.37375 673.01 0.0014859 -81.491 -81.490 -0.37378 1.3360 1.9961 1736.3 -0.0072294 751.83 0.18140 0.0052981 188.75 397.37 424.62 3.1281 0.90226 1.0910 181.48 1.5374 3.9485 0.0049863
-127.62 0.023783 1.0703e-05 -79.489 -79.488 -0.35997 672.00 0.0014881 -79.494 -79.493 -0.36001 1.3363 1.9979 1729.6 -0.0072160 734.67 0.18083 0.0059776 167.29 398.27 425.71 3.1116 0.90545 1.0942 182.05 1.5114 3.9760 0.0050506
-126.62 0.026966 1.2038e-05 -77.489 -77.489 -0.34628 670.98 0.0014904 -77.495 -77.495 -0.34632 1.3365 1.9997 1722.9 -0.0072025 718.14 0.18025 0.0067313 148.56 399.18 426.80 3.0954 0.90863 1.0974 182.62 1.4861 4.0035 0.0051152
-125.62 0.030515 1.3514e-05 -75.488 -75.487 -0.33267 669.97 0.0014926 -75.494 -75.494 -0.33272 1.3368 2.0015 1716.2 -0.0071888 702.18 0.17968 0.0075660 132.17 400.09 427.89 3.0795 0.91181 1.1006 183.18 1.4615 4.0310 0.0051800
-124.62 0.034467 1.5142e-05 -73.485 -73.484 -0.31914 668.95 0.0014949 -73.492 -73.492 -0.31919 1.3371 2.0033 1709.5 -0.0071749 686.79 0.17910 0.0084885 117.81 401.00 428.99 3.0640 0.91499 1.1038 183.74 1.4375 4.0584 0.0052452
-123.62 0.038859 1.6936e-05 -71.480 -71.479 -0.30568 667.94 0.0014971 -71.488 -71.487 -0.30574 1.3374 2.0051 1702.8 -0.0071609 671.93 0.17852 0.0095065 105.19 401.91 430.10 3.0488 0.91816 1.1070 184.30 1.4141 4.0859 0.0053106
-122.62 0.043731 1.8910e-05 -69.473 -69.472 -0.29231 666.92 0.0014994 -69.482 -69.481 -0.29237 1.3377 2.0070 1696.2 -0.0071466 657.57 0.17794 0.010628 94.092 402.83 431.20 3.0339 0.92134 1.1102 184.86 1.3913 4.1134 0.0053764
-121.62 0.049128 2.1077e-05 -67.464 -67.463 -0.27900 665.91 0.0015017 -67.474 -67.473 -0.27907 1.3380 2.0089 1689.5 -0.0071322 643.70 0.17736 0.011861 84.309 403.75 432.31 3.0193 0.92451 1.1134 185.41 1.3691 4.1409 0.0054424
-120.62 0.055096 2.3454e-05 -65.453 -65.452 -0.26578 664.89 0.0015040 -65.464 -65.463 -0.26585 1.3384 2.0107 1682.8 -0.0071176 630.28 0.17678 0.013215 75.669 404.67 433.42 3.0050 0.92767 1.1166 185.96 1.3475 4.1683 0.0055087
-119.62 0.061684 2.6055e-05 -63.440 -63.439 -0.25262 663.87 0.0015063 -63.452 -63.452 -0.25271 1.3387 2.0126 1676.1 -0.0071028 617.30 0.17619 0.014700 68.027 405.60 434.53 2.9909 0.93084 1.1198 186.51 1.3264 4.1958 0.0055752
-118.62 0.068946 2.8897e-05 -61.425 -61.424 -0.23954 662.86 0.0015086 -61.439 -61.438 -0.23963 1.3391 2.0146 1669.4 -0.0070878 604.74 0.17560 0.016325 61.255 406.53 435.64 2.9772 0.93401 1.1231 187.06 1.3058 4.2233 0.0056421
-117.62 0.076937 3.1999e-05 -59.408 -59.406 -0.22653 661.84 0.0015109 -59.423 -59.422 -0.22663 1.3395 2.0165 1662.8 -0.0070726 592.58 0.17501 0.018101 55.245 407.46 436.76 2.9638 0.93718 1.1263 187.60 1.2857 4.2507 0.0057092
-116.62 0.085718 3.5379e-05 -57.389 -57.387 -0.21359 660.82 0.0015133 -57.406 -57.405 -0.21370 1.3400 2.0184 1656.1 -0.0070573 580.80 0.17442 0.020040 49.901 408.39 437.88 2.9506 0.94035 1.1295 188.14 1.2660 4.2782 0.0057767
-115.62 0.095353 3.9057e-05 -55.368 -55.366 -0.20072 659.80 0.0015156 -55.386 -55.385 -0.20084 1.3404 2.0204 1649.4 -0.0070417 569.38 0.17383 0.022152 45.142 409.33 439.01 2.9377 0.94352 1.1327 188.68 1.2468 4.3056 0.0058444
-114.62 0.10591 4.3053e-05 -53.345 -53.343 -0.18792 658.78 0.0015180 -53.365 -53.364 -0.18805 1.3409 2.0224 1642.7 -0.0070260 558.32 0.17323 0.024451 40.898 410.27 440.13 2.9250 0.94669 1.1360 189.22 1.2281 4.3330 0.0059123
-113.62 0.11746 4.7389e-05 -51.320 -51.317 -0.17518 657.76 0.0015203 -51.342 -51.340 -0.17533 1.3413 2.0244 1636.0 -0.0070100 547.59 0.17264 0.026949 37.107 411.21 441.26 2.9126 0.94987 1.1392 189.75 1.2097 4.3604 0.0059806
-112.62 0.13008 5.2087e-05 -49.292 -49.289 -0.16251 656.73 0.0015227 -49.316 -49.315 -0.16267 1.3418 2.0264 1629.3 -0.0069938 537.18 0.17204 0.029661 33.715 412.16 442.39 2.9005 0.95305 1.1424 190.28 1.1918 4.3879 0.0060491
-111.62 0.14384 5.7170e-05 -47.262 -47.259 -0.14990 655.71 0.0015251 -47.289 -47.287 -0.15008 1.3424 2.0285 1622.7 -0.0069774 527.08 0.17144 0.032600 30.675 413.10 443.53 2.8885 0.95623 1.1457 190.81 1.1742 4.4153 0.0061180
-110.62 0.15884 6.2664e-05 -45.230 -45.227 -0.13736 654.69 0.0015274 -45.259 -45.258 -0.13755 1.3429 2.0305 1616.0 -0.0069609 517.28 0.17084 0.035781 27.948 414.06 444.66 2.8769 0.95942 1.1490 191.34 1.1570 4.4427 0.0061871
-109.62 0.17516 6.8593e-05 -43.196 -43.192 -0.12489 653.66 0.0015298 -43.228 -43.226 -0.12509 1.3435 2.0326 1609.3 -0.0069441 507.76 0.17024 0.039220 25.497 415.01 445.80 2.8654 0.96261 1.1522 191.86 1.1402 4.4701 0.0062564
-108.62 0.19290 7.4984e-05 -41.160 -41.155 -0.11247 652.64 0.0015322 -41.194 -41.192 -0.11269 1.3441 2.0347 1602.6 -0.0069271 498.51 0.16964 0.042933 23.292 415.96 446.94 2.8542 0.96581 1.1555 192.38 1.1236 4.4974 0.0063261
-107.62 0.21215 8.1865e-05 -39.121 -39.116 -0.10012 651.61 0.0015347 -39.158 -39.156 -0.10036 1.3447 2.0369 1595.9 -0.0069098 489.52 0.16903 0.046937 21.305 416.92 448.09 2.8433 0.96901 1.1588 192.90 1.1075 4.5248 0.0063960
-106.62 0.23301 8.9265e-05 -37.080 -37.075 -0.087822 650.58 0.0015371 -37.120 -37.118 -0.088082 1.3453 2.0390 1589.2 -0.0068924 480.79 0.16843 0.051250 19.512 417.88 449.23 2.8325 0.97222 1.1621 193.41 1.0916 4.5522 0.0064662
-105.62 0.25561 9.7212e-05 -35.036 -35.031 -0.075587 649.55 0.0015395 -35.080 -35.078 -0.075868 1.3460 2.0412 1582.6 -0.0068747 472.30 0.16782 0.055891 17.892 418.85 450.38 2.8220 0.97544 1.1655 193.93 1.0760 4.5795 0.0065367
-104.62 0.28004 0.00010574 -32.990 -32.984 -0.063410 648.52 0.0015420 -33.038 -33.035 -0.063714 1.3467 2.0434 1575.9 -0.0068569 464.04 0.16721 0.060878 16.426 419.81 451.53 2.8116 0.97867 1.1688 194.44 1.0608 4.6069 0.0066074
-103.62 0.30643 0.00011487 -30.942 -30.935 -0.051291 647.49 0.0015444 -30.994 -30.991 -0.051619 1.3474 2.0456 1569.2 -0.0068387 456.00 0.16660 0.066231 15.099 420.78 452.68 2.8015 0.98191 1.1722 194.94 1.0458 4.6342 0.0066785
-102.62 0.33490 0.00012465 -28.891 -28.883 -0.039229 646.46 0.0015469 -28.947 -28.944 -0.039582 1.3481 2.0478 1562.5 -0.0068204 448.18 0.16600 0.071971 13.894 421.75 453.84 2.7916 0.98516 1.1755 195.44 1.0310 4.6615 0.0067498
-101.62 0.36558 0.00013511 -26.838 -26.829 -0.027222 645.43 0.0015494 -26.898 -26.894 -0.027602 1.3489 2.0501 1555.8 -0.0068018 440.57 0.16539 0.078120 12.801 422.73 454.99 2.7818 0.98841 1.1789 195.95 1.0166 4.6888 0.0068213
-100.62 0.39862 0.00014628 -24.782 -24.773 -0.015270 644.39 0.0015519 -24.847 -24.843 -0.015678 1.3497 2.0524 1549.1 -0.0067830 433.16 0.16478 0.084699 11.807 423.70 456.15 2.7723 0.99168 1.1823 196.44 1.0024 4.7161 0.0068932
-99.625 0.43414 0.00015820 -22.723 -22.713 -0.0033726 643.36 0.0015544 -22.794 -22.789 -0.0038103 1.3505 2.0547 1542.4 -0.0067639 425.95 0.16416 0.091731 10.901 424.68 457.31 2.7630 0.99496 1.1858 196.94 0.98838 4.7434 0.0069653
-98.625 0.47230 0.00017090 -20.662 -20.651 0.0084720 642.32 0.0015569 -20.738 -20.733 0.0080027 1.3514 2.0570 1535.7 -0.0067447 418.92 0.16355 0.099240 10.077 425.66 458.48 2.7538 0.99825 1.1892 197.43 0.97464 4.7707 0.0070377
-97.625 0.51325 0.00018443 -18.598 -18.586 0.020264 641.28 0.0015594 -18.680 -18.674 0.019762 1.3522 2.0594 1529.0 -0.0067251 412.07 0.16294 0.10725 9.3239 426.65 459.64 2.7448 1.0016 1.1927 197.92 0.96112 4.7979 0.0071103
-96.625 0.55714 0.00019882 -16.531 -16.519 0.032005 640.24 0.0015619 -16.620 -16.614 0.031467 1.3531 2.0618 1522.3 -0.0067053 405.39 0.16233 0.11579 8.6365 427.63 460.81 2.7360 1.0049 1.1962 198.40 0.94783 4.8251 0.0071832
-95.625 0.60416 0.00021411 -14.462 -14.448 0.043695 639.20 0.0015645 -14.557 -14.550 0.043120 1.3540 2.0642 1515.7 -0.0066853 398.88 0.16171 0.12488 8.0078 428.62 461.98 2.7274 1.0082 1.1997 198.88 0.93475 4.8524 0.0072564
-94.625 0.65446 0.00023035 -12.390 -12.375 0.055335 638.16 0.0015670 -12.491 -12.484 0.054721 1.3550 2.0667 1509.0 -0.0066650 392.53 0.16110 0.13455 7.4323 429.61 463.15 2.7189 1.0116 1.2032 199.36 0.92188 4.8796 0.0073299
-93.625 0.70822 0.00024758 -10.315 -10.299 0.066926 637.12 0.0015696 -10.424 -10.416 0.066271 1.3560 2.0691 1502.3 -0.0066444 386.34 0.16048 0.14482 6.9050 430.60 464.32 2.7107 1.0149 1.2068 199.83 0.90921 4.9068 0.0074036
-92.625 0.76564 0.00026583 -8.2366 -8.2193 0.078468 636.07 0.0015722 -8.3535 -8.3452 0.077771 1.3570 2.0716 1495.6 -0.0066236 380.31 0.15987 0.15573 6.4212 431.60 465.49 2.7025 1.0183 1.2104 200.30 0.89673 4.9340 0.0074776
-91.625 0.82689 0.00028516 -6.1557 -6.1370 0.089963 635.02 0.0015747 -6.2808 -6.2719 0.089220 1.3580 2.0742 1488.9 -0.0066025 374.41 0.15925 0.16731 5.9769 432.59 466.67 2.6946 1.0217 1.2140 200.77 0.88445 4.9611 0.0075518
-90.625 0.89218 0.00030562 -4.0718 -4.0517 0.10141 633.98 0.0015773 -4.2056 -4.1959 0.10062 1.3591 2.0767 1482.2 -0.0065811 368.66 0.15864 0.17958 5.5685 433.59 467.84 2.6868 1.0251 1.2177 201.24 0.87236 4.9883 0.0076263
-89.625 0.96172 0.00032723 -1.9850 -1.9632 0.11281 632.93 0.0015800 -2.1279 -2.1174 0.11197 1.3602 2.0793 1475.5 -0.0065595 363.05 0.15802 0.19258 5.1928 434.59 469.02 2.6791 1.0285 1.2213 201.70 0.86045 5.0154 0.0077011
-88.625 1.0357 0.00035007 0.10499 0.12840 0.12417 631.88 0.0015826 -0.047516 -0.036215 0.12328 1.3613 2.0819 1468.8 -0.0065375 357.56 0.15740 0.20633 4.8466 435.59 470.20 2.6717 1.0320 1.2250 202.15 0.84873 5.0425 0.0077761
-87.625 1.1144 0.00037417 2.1981 2.2232 0.13548 630.83 0.0015852 2.0355 2.0476 0.13454 1.3625 2.0846 1462.1 -0.0065153 352.21 0.15679 0.22087 4.5276 436.60 471.39 2.6643 1.0354 1.2288 202.61 0.83718 5.0696 0.0078514
-86.625 1.1979 0.00039957 4.2943 4.3214 0.14675 629.77 0.0015879 4.1211 4.1342 0.14575 1.3637 2.0873 1455.4 -0.0064928 346.98 0.15617 0.23623 4.2331 437.61 472.57 2.6571 1.0389 1.2325 203.06 0.82580 5.0967 0.0079270
-85.625 1.2866 0.00042635 6.3937 6.4228 0.15798 628.72 0.0015905 6.2094 6.2235 0.15691 1.3649 2.0900 1448.8 -0.0064701 341.87 0.15555 0.25245 3.9612 438.61 473.75 2.6501 1.0424 1.2363 203.50 0.81460 5.1237 0.0080028
-84.625 1.3806 0.00045453 8.4964 8.5276 0.16916 627.66 0.0015932 8.3004 8.3155 0.16803 1.3661 2.0927 1442.1 -0.0064470 336.87 0.15494 0.26956 3.7097 439.63 474.94 2.6432 1.0460 1.2402 203.95 0.80356 5.1508 0.0080789
-83.625 1.4803 0.00048419 10.602 10.636 0.18030 626.60 0.0015959 10.394 10.410 0.17911 1.3674 2.0955 1435.4 -0.0064236 331.99 0.15432 0.28760 3.4771 440.64 476.13 2.6364 1.0495 1.2440 204.38 0.79269 5.1778 0.0081553
-82.625 1.5858 0.00051536 12.712 12.748 0.19140 625.54 0.0015986 12.491 12.508 0.19014 1.3687 2.0983 1428.7 -0.0063999 327.22 0.15370 0.30659 3.2616 441.65 477.31 2.6298 1.0531 1.2479 204.82 0.78199 5.2048 0.0082319
-81.625 1.6975 0.00054810 14.825 14.863 0.20246 624.48 0.0016013 14.590 14.609 0.20113 1.3700 2.1012 1422.0 -0.0063759 322.55 0.15309 0.32659 3.0619 442.67 478.50 2.6233 1.0567 1.2519 205.25 0.77144 5.2318 0.0083088
-80.625 1.8155 0.00058247 16.941 16.982 0.21348 623.42 0.0016041 16.692 16.712 0.21208 1.3714 2.1041 1415.4 -0.0063516 317.99 0.15247 0.34763 2.8766 443.69 479.70 2.6169 1.0603 1.2558 205.67 0.76106 5.2587 0.0083860
-79.625 1.9402 0.00061853 19.061 19.104 0.22446 622.36 0.0016068 18.797 18.819 0.22299 1.3728 2.1070 1408.7 -0.0063270 313.52 0.15186 0.36974 2.7046 444.71 480.89 2.6106 1.0639 1.2598 206.10 0.75083 5.2857 0.0084634
-78.625 2.0718 0.00065632 21.184 21.231 0.23541 621.29 0.0016096 20.905 20.928 0.23385 1.3742 2.1099 1402.0 -0.0063021 309.15 0.15124 0.39296 2.5448 445.73 482.08 2.6045 1.0676 1.2639 206.51 0.74076 5.3126 0.0085411
-77.625 2.2107 0.00069592 23.311 23.361 0.24631 620.22 0.0016123 23.016 23.040 0.24468 1.3757 2.1129 1395.3 -0.0062768 304.88 0.15062 0.41735 2.3961 446.75 483.27 2.5985 1.0712 1.2680 206.93 0.73084 5.3395 0.0086190
-76.625 2.3571 0.00073736 25.441 25.495 0.25718 619.15 0.0016151 25.130 25.156 0.25546 1.3772 2.1159 1388.7 -0.0062512 300.69 0.15001 0.44292 2.2577 447.78 484.47 2.5926 1.0749 1.2721 207.34 0.72107 5.3664 0.0086972
-75.625 2.5113 0.00078072 27.576 27.632 0.26802 618.08 0.0016179 27.247 27.275 0.26620 1.3787 2.1190 1382.0 -0.0062253 296.59 0.14939 0.46974 2.1288 448.81 485.67 2.5869 1.0787 1.2762 207.74 0.71146 5.3933 0.0087757
-74.625 2.6736 0.00082606 29.714 29.774 0.27881 617.01 0.0016207 29.366 29.396 0.27691 1.3802 2.1221 1375.4 -0.0061990 292.58 0.14878 0.49783 2.0087 449.83 486.86 2.5812 1.0824 1.2804 208.14 0.70200 5.4201 0.0088544
-73.625 2.8444 0.00087342 31.856 31.920 0.28957 615.93 0.0016236 31.489 31.521 0.28758 1.3818 2.1252 1368.7 -0.0061724 288.65 0.14816 0.52725 1.8966 450.86 488.06 2.5757 1.0862 1.2847 208.54 0.69268 5.4469 0.0089334
-72.625 3.0240 0.00092288 34.001 34.070 0.30030 614.85 0.0016264 33.615 33.649 0.29821 1.3834 2.1284 1362.0 -0.0061454 284.81 0.14755 0.55804 1.7920 451.90 489.26 2.5703 1.0900 1.2889 208.93 0.68351 5.4737 0.0090126
-71.625 3.2127 0.00097450 36.151 36.224 0.31100 613.78 0.0016293 35.745 35.781 0.30880 1.3851 2.1316 1355.4 -0.0061181 281.03 0.14694 0.59024 1.6942 452.93 490.46 2.5650 1.0938 1.2932 209.32 0.67448 5.5005 0.0090922
-70.625 3.4108 0.0010283 38.305 38.382 0.32166 612.69 0.0016321 37.877 37.915 0.31935 1.3867 2.1349 1348.7 -0.0060904 277.34 0.14632 0.62390 1.6028 453.96 491.66 2.5598 1.0976 1.2976 209.70 0.66560 5.5273 0.0091720
-69.625 3.6187 0.0010844 40.463 40.544 0.33228 611.61 0.0016350 40.013 40.053 0.32987 1.3884 2.1382 1342.1 -0.0060624 273.72 0.14571 0.65906 1.5173 455.00 492.86 2.5547 1.1015 1.3020 210.08 0.65687 5.5540 0.0092520
-68.625 3.8367 0.0011429 42.625 42.711 0.34288 610.53 0.0016379 42.152 42.195 0.34036 1.3902 2.1415 1335.5 -0.0060339 270.17 0.14510 0.69577 1.4372 456.04 494.06 2.5497 1.1054 1.3064 210.45 0.64827 5.5807 0.0093324
-67.625 4.0652 0.0012038 44.791 44.882 0.35345 609.44 0.0016409 44.294 44.340 0.35080 1.3919 2.1449 1328.8 -0.0060051 266.69 0.14449 0.73408 1.3622 457.08 495.26 2.5448 1.1093 1.3109 210.82 0.63981 5.6074 0.0094130
-66.625 4.3046 0.0012671 46.961 47.058 0.36398 608.35 0.0016438 46.439 46.488 0.36122 1.3937 2.1483 1322.2 -0.0059760 263.28 0.14388 0.77404 1.2919 458.12 496.46 2.5400 1.1133 1.3154 211.18 0.63150 5.6341 0.0094939
-65.625 4.5551 0.0013330 49.135 49.238 0.37448 607.26 0.0016467 48.588 48.640 0.37160 1.3955 2.1518 1315.6 -0.0059464 259.93 0.14327 0.81570 1.2259 459.16 497.67 2.5353 1.1172 1.3200 211.54 0.62332 5.6608 0.0095750
-64.625 4.8173 0.0014014 51.314 51.423 0.38496 606.16 0.0016497 50.740 50.795 0.38195 1.3974 2.1553 1308.9 -0.0059164 256.65 0.14266 0.85910 1.1640 460.21 498.87 2.5307 1.1212 1.3246 211.89 0.61527 5.6874 0.0096564
-63.625 5.0915 0.0014726 53.497 53.613 0.39540 605.07 0.0016527 52.896 52.954 0.39226 1.3993 2.1588 1302.3 -0.0058861 253.42 0.14205 0.90429 1.1058 461.25 500.07 2.5262 1.1252 1.3293 212.24 0.60736 5.7140 0.0097382
-62.625 5.3781 0.0015464 55.685 55.807 0.40582 603.97 0.0016557 55.055 55.117 0.40254 1.4012 2.1624 1295.7 -0.0058553 250.26 0.14144 0.95134 1.0511 462.30 501.28 2.5218 1.1293 1.3340 212.58 0.59958 5.7406 0.0098201
-61.625 5.6774 0.0016231 57.877 58.006 0.41621 602.87 0.0016587 57.218 57.283 0.41279 1.4031 2.1660 1289.1 -0.0058241 247.16 0.14084 1.0003 0.99972 463.35 502.48 2.5175 1.1333 1.3387 212.92 0.59194 5.7672 0.0099024
-60.625 5.9899 0.0017026 60.074 60.210 0.42657 601.77 0.0016618 59.385 59.453 0.42301 1.4051 2.1697 1282.5 -0.0057925 244.12 0.14023 1.0512 0.95131 464.40 503.68 2.5133 1.1374 1.3435 213.26 0.58442 5.7938 0.0099850
-59.625 6.3160 0.0017851 62.275 62.418 0.43690 600.66 0.0016648 61.554 61.627 0.43320 1.4071 2.1734 1275.9 -0.0057605 241.13 0.13962 1.1041 0.90573 465.45 504.89 2.5091 1.1415 1.3483 213.58 0.57704 5.8203 0.010068
-58.625 6.6561 0.0018706 64.482 64.632 0.44721 599.55 0.0016679 63.728 63.805 0.44335 1.4091 2.1772 1269.3 -0.0057280 238.19 0.13902 1.1591 0.86277 466.50 506.09 2.5051 1.1457 1.3532 213.90 0.56978 5.8468 0.010151
-57.625 7.0107 0.0019591 66.692 66.851 0.45749 598.44 0.0016710 65.905 65.986 0.45348 1.4111 2.1810 1262.7 -0.0056951 235.31 0.13842 1.2161 0.82228 467.55 507.30 2.5011 1.1498 1.3581 214.22 0.56265 5.8733 0.010234
-56.625 7.3801 0.0020508 68.908 69.075 0.46775 597.33 0.0016741 68.086 68.172 0.46358 1.4132 2.1848 1256.1 -0.0056617 232.48 0.13781 1.2754 0.78408 468.60 508.50 2.4972 1.1540 1.3631 214.53 0.55564 5.8998 0.010318
-55.625 7.7648 0.0021457 71.128 71.304 0.47798 596.22 0.0016772 70.271 70.361 0.47364 1.4153 2.1887 1249.5 -0.0056279 229.69 0.13721 1.3369 0.74802 469.66 509.71 2.4934 1.1582 1.3681 214.84 0.54875 5.9263 0.010402
-54.625 8.1652 0.0022439 73.354 73.538 0.48818 595.10 0.0016804 72.460 72.554 0.48368 1.4174 2.1927 1242.9 -0.0055937 226.96 0.13661 1.4006 0.71396 470.72 510.91 2.4897 1.1624 1.3731 215.14 0.54199 5.9527 0.010486
-53.625 8.5819 0.0023454 75.584 75.778 0.49837 593.98 0.0016836 74.652 74.752 0.49369 1.4196 2.1967 1236.3 -0.0055589 224.27 0.13601 1.4667 0.68178 471.77 512.11 2.4860 1.1667 1.3782 215.43 0.53535 5.9792 0.010571
-52.625 9.0151 0.0024504 77.819 78.023 0.50853 592.86 0.0016867 76.849 76.954 0.50368 1.4218 2.2007 1229.8 -0.0055237 221.63 0.13541 1.5353 0.65136 472.83 513.32 2.4824 1.1710 1.3834 215.72 0.52882 6.0056 0.010656
-51.625 9.4655 0.0025588 80.059 80.273 0.51866 591.73 0.0016900 79.049 79.159 0.51363 1.4240 2.2048 1223.2 -0.0054880 219.04 0.13482 1.6062 0.62258 473.89 514.52 2.4789 1.1752 1.3886 216.00 0.52241 6.0320 0.010741
-50.625 9.9335 0.0026708 82.305 82.529 0.52878 590.60 0.0016932 81.253 81.369 0.52356 1.4262 2.2089 1216.6 -0.0054519 216.48 0.13422 1.6797 0.59534 474.95 515.73 2.4755 1.1796 1.3938 216.28 0.51612 6.0584 0.010827
-49.625 10.419 0.0027864 84.556 84.791 0.53887 589.47 0.0016964 83.462 83.584 0.53347 1.4285 2.2131 1210.1 -0.0054152 213.98 0.13363 1.7558 0.56954 476.01 516.93 2.4722 1.1839 1.3991 216.55 0.50994 6.0848 0.010913
-48.625 10.924 0.0029057 86.811 87.058 0.54894 588.34 0.0016997 85.674 85.802 0.54334 1.4308 2.2173 1203.5 -0.0053780 211.51 0.13303 1.8345 0.54510 477.07 518.13 2.4689 1.1883 1.4044 216.82 0.50387 6.1112 0.010999
-47.625 11.448 0.0030288 89.073 89.331 0.55899 587.20 0.0017030 87.891 88.025 0.55319 1.4331 2.2216 1196.9 -0.0053403 209.08 0.13244 1.9159 0.52194 478.14 519.33 2.4657 1.1927 1.4098 217.08 0.49792 6.1375 0.011085
-46.625 11.991 0.0031557 91.339 91.610 0.56901 586.06 0.0017063 90.111 90.252 0.56302 1.4354 2.2259 1190.4 -0.0053020 206.69 0.13185 2.0001 0.49997 479.20 520.53 2.4625 1.1971 1.4153 217.33 0.49207 6.1639 0.011172
-45.625 12.554 0.0032866 93.611 93.895 0.57902 584.92 0.0017096 92.336 92.484 0.57282 1.4378 2.2303 1183.8 -0.0052633 204.34 0.13126 2.0872 0.47912 480.27 521.74 2.4594 1.2015 1.4207 217.58 0.48633 6.1902 0.011259
-44.625 13.137 0.0034214 95.889 96.186 0.58901 583.77 0.0017130 94.565 94.720 0.58260 1.4402 2.2347 1177.3 -0.0052240 202.03 0.13067 2.1771 0.45933 481.33 522.94 2.4564 1.2060 1.4263 217.82 0.48069 6.2165 0.011347
-43.625 13.741 0.0035603 98.172 98.482 0.59898 582.62 0.0017164 96.799 96.961 0.59235 1.4426 2.2392 1170.7 -0.0051841 199.75 0.13008 2.2700 0.44053 482.40 524.14 2.4535 1.2104 1.4319 218.05 0.47516 6.2429 0.011435
-42.625 14.367 0.0037033 100.46 100.78 0.60893 581.47 0.0017198 99.036 99.207 0.60208 1.4450 2.2437 1164.2 -0.0051437 197.51 0.12949 2.3659 0.42267 483.46 525.33 2.4506 1.2149 1.4375 218.28 0.46973 6.2692 0.011523
-41.625 15.015 0.0038505 102.75 103.09 0.61886 580.32 0.0017232 101.28 101.46 0.61179 1.4475 2.2483 1157.7 -0.0051027 195.30 0.12891 2.4649 0.40569 484.53 526.53 2.4478 1.2195 1.4432 218.50 0.46440 6.2955 0.011612
-40.625 15.686 0.0040020 105.05 105.41 0.62877 579.16 0.0017266 103.52 103.71 0.62147 1.4500 2.2529 1151.1 -0.0050611 193.13 0.12832 2.5671 0.38954 485.60 527.73 2.4450 1.2240 1.4489 218.72 0.45917 6.3218 0.011701
-39.625 16.380 0.0041579 107.36 107.73 0.63866 578.00 0.0017301 105.78 105.97 0.63113 1.4525 2.2576 1144.6 -0.0050189 190.99 0.12774 2.6725 0.37418 486.67 528.93 2.4423 1.2286 1.4547 218.93 0.45403 6.3481 0.011790
-38.625 17.097 0.0043181 109.67 110.06 0.64854 576.83 0.0017336 108.03 108.24 0.64077 1.4550 2.2623 1138.0 -0.0049761 188.88 0.12716 2.7813 0.35955 487.74 530.12 2.4397 1.2332 1.4606 219.13 0.44900 6.3744 0.011880
-37.625 17.838 0.0044828 111.99 112.39 0.65840 575.66 0.0017371 110.29 110.51 0.65039 1.4576 2.2671 1131.5 -0.0049327 186.81 0.12658 2.8934 0.34562 488.81 531.32 2.4371 1.2378 1.4665 219.33 0.44405 6.4007 0.011970
-36.625 18.604 0.0046522 114.31 114.73 0.66824 574.49 0.0017407 112.56 112.78 0.65999 1.4602 2.2719 1125.0 -0.0048887 184.76 0.12600 3.0089 0.33235 489.88 532.51 2.4346 1.2424 1.4724 219.52 0.43920 6.4270 0.012060
-35.625 19.395 0.0048261 116.64 117.08 0.67807 573.32 0.0017442 114.83 115.06 0.66956 1.4628 2.2768 1118.5 -0.0048440 182.75 0.12542 3.1280 0.31969 490.95 533.70 2.4321 1.2471 1.4784 219.70 0.43444 6.4533 0.012151
-34.625 20.212 0.0050047 118.98 119.43 0.68788 572.14 0.0017478 117.10 117.34 0.67912 1.4654 2.2818 1111.9 -0.0047987 180.76 0.12485 3.2506 0.30763 492.02 534.89 2.4297 1.2517 1.4845 219.88 0.42977 6.4797 0.012243
-33.625 21.056 0.0051882 121.32 121.79 0.69767 570.96 0.0017514 119.38 119.63 0.68865 1.4681 2.2868 1105.4 -0.0047527 178.80 0.12427 3.3770 0.29612 493.09 536.08 2.4273 1.2564 1.4906 220.05 0.42519 6.5060 0.012334
-32.625 21.926 0.0053764 123.66 124.16 0.70745 569.77 0.0017551 121.66 121.93 0.69817 1.4708 2.2918 1098.9 -0.0047061 176.87 0.12370 3.5071 0.28514 494.17 537.27 2.4250 1.2611 1.4968 220.21 0.42070 6.5323 0.012426
-31.625 22.823 0.0055696 126.02 126.53 0.71722 568.58 0.0017588 123.95 124.23 0.70767 1.4735 2.2970 1092.3 -0.0046587 174.97 0.12313 3.6410 0.27465 495.24 538.46 2.4227 1.2659 1.5031 220.36 0.41629 6.5587 0.012519
-30.625 23.749 0.0057678 128.38 128.91 0.72697 567.39 0.0017625 126.24 126.53 0.71714 1.4762 2.3021 1085.8 -0.0046107 173.09 0.12256 3.7787 0.26464 496.31 539.64 2.4205 1.2706 1.5094 220.51 0.41196 6.5850 0.012612
-29.625 24.703 0.0059711 130.74 131.30 0.73670 566.19 0.0017662 128.54 128.84 0.72660 1.4790 2.3074 1079.3 -0.0045619 171.24 0.12200 3.9205 0.25507 497.38 540.83 2.4184 1.2754 1.5157 220.65 0.40772 6.6114 0.012706
-28.625 25.687 0.0061795 133.12 133.70 0.74643 564.99 0.0017699 130.84 131.16 0.73604 1.4818 2.3126 1072.8 -0.0045124 169.42 0.12143 4.0663 0.24592 498.46 542.01 2.4162 1.2802 1.5222 220.79 0.40356 6.6378 0.012800
-27.625 26.700 0.0063931 135.49 136.10 0.75613 563.78 0.0017737 133.15 133.48 0.74547 1.4846 2.3180 1066.2 -0.0044621 167.62 0.12087 4.2163 0.23717 499.53 543.19 2.4142 1.2850 1.5286 220.91 0.39947 6.6642 0.012894
-26.625 27.743 0.0066121 137.88 138.51 0.76583 562.57 0.0017775 135.47 135.81 0.75487 1.4874 2.3234 1059.7 -0.0044111 165.84 0.12031 4.3705 0.22881 500.60 544.37 2.4122 1.2899 1.5352 221.03 0.39547 6.6906 0.012989
-25.625 28.817 0.0068363 140.27 140.92 0.77551 561.36 0.0017814 137.78 138.14 0.76426 1.4902 2.3289 1053.2 -0.0043593 164.09 0.11975 4.5290 0.22080 501.68 545.55 2.4102 1.2947 1.5418 221.14 0.39154 6.7171 0.013084
-24.625 29.923 0.0070661 142.67 143.35 0.78518 560.14 0.0017853 140.11 140.48 0.77363 1.4931 2.3344 1046.7 -0.0043067 162.36 0.11919 4.6918 0.21314 502.75 546.72 2.4083 1.2996 1.5485 221.25 0.38768 6.7436 0.013180
-23.625 31.061 0.0073013 145.07 145.78 0.79484 558.92 0.0017892 142.44 142.82 0.78298 1.4960 2.3400 1040.1 -0.0042533 160.65 0.11863 4.8592 0.20580 503.82 547.90 2.4064 1.3045 1.5552 221.35 0.38391 6.7701 0.013277
-22.625 32.232 0.0075421 147.49 148.21 0.80448 557.69 0.0017931 144.77 145.17 0.79232 1.4990 2.3457 1033.6 -0.0041990 158.97 0.11807 5.0311 0.19877 504.90 549.07 2.4045 1.3095 1.5621 221.44 0.38020 6.7967 0.013374
-21.625 33.435 0.0077886 149.90 150.66 0.81411 556.46 0.0017971 147.11 147.52 0.80164 1.5019 2.3514 1027.1 -0.0041439 157.30 0.11752 5.2076 0.19203 505.97 550.24 2.4027 1.3144 1.5690 221.52 0.37656 6.8232 0.013471
-20.625 34.673 0.0080408 152.33 153.11 0.82374 555.23 0.0018011 149.45 149.88 0.81095 1.5049 2.3572 1020.6 -0.0040879 155.66 0.11697 5.3889 0.18557 507.04 551.40 2.4010 1.3194 1.5759 221.59 0.37300 6.8499 0.013569
-19.625 35.946 0.0082987 154.76 155.57 0.83335 553.99 0.0018051 151.80 152.25 0.82024 1.5079 2.3630 1014.0 -0.0040311 154.04 0.11642 5.5750 0.17937 508.11 552.57 2.3992 1.3244 1.5829 221.66 0.36950 6.8765 0.013668
-18.625 37.253 0.0085626 157.20 158.04 0.84295 552.74 0.0018092 154.16 154.62 0.82952 1.5109 2.3689 1007.5 -0.0039733 152.44 0.11587 5.7660 0.17343 509.19 553.73 2.3976 1.3294 1.5901 221.72 0.36608 6.9032 0.013767
-17.625 38.596 0.0088324 159.64 160.52 0.85254 551.49 0.0018133 156.52 157.00 0.83878 1.5140 2.3749 1001.0 -0.0039145 150.86 0.11532 5.9621 0.16773 510.26 554.89 2.3959 1.3345 1.5972 221.77 0.36272 6.9300 0.013867
-16.625 39.976 0.0091082 162.10 163.00 0.86211 550.24 0.0018174 158.89 159.39 0.84803 1.5171 2.3810 994.44 -0.0038549 149.29 0.11478 6.1632 0.16225 511.33 556.05 2.3943 1.3395 1.6045 221.81 0.35942 6.9568 0.013968
-15.625 41.392 0.0093902 164.56 165.49 0.87168 548.98 0.0018216 161.26 161.78 0.85726 1.5202 2.3871 987.91 -0.0037942 147.75 0.11423 6.3696 0.15700 512.40 557.20 2.3927 1.3446 1.6119 221.85 0.35619 6.9836 0.014069
-14.625 42.846 0.0096782 167.02 167.99 0.88124 547.71 0.0018258 163.64 164.18 0.86649 1.5233 2.3933 981.37 -0.0037325 146.22 0.11369 6.5812 0.15195 513.47 558.36 2.3912 1.3497 1.6193 221.87 0.35302 7.0105 0.014170
-13.625 44.338 0.0099726 169.50 170.50 0.89079 546.44 0.0018300 166.02 166.58 0.87569 1.5264 2.3996 974.83 -0.0036698 144.72 0.11315 6.7983 0.14710 514.54 559.51 2.3897 1.3549 1.6268 221.89 0.34992 7.0375 0.014273
-12.625 45.870 0.010273 171.98 173.01 0.90033 545.17 0.0018343 168.41 168.99 0.88489 1.5296 2.4059 968.29 -0.0036061 143.23 0.11261 7.0208 0.14243 515.61 560.65 2.3883 1.3600 1.6344 221.90 0.34688 7.0646 0.014376
-11.625 47.440 0.010580 174.47 175.54 0.90986 543.89 0.0018386 170.81 171.41 0.89407 1.5328 2.4124 961.75 -0.0035413 141.76 0.11208 7.2490 0.13795 516.68 561.80 2.3868 1.3652 1.6421 221.91 0.34389 7.0917 0.014479
-10.625 49.051 0.010894 176.96 178.07 0.91939 542.60 0.0018430 173.21 173.83 0.90324 1.5360 2.4189 955.20 -0.0034753 140.30 0.11154 7.4829 0.13364 517.75 562.94 2.3854 1.3704 1.6498 221.90 0.34097 7.1188 0.014584
-9.6250 50.703 0.011214 179.46 180.61 0.92890 541.31 0.0018474 175.61 176.26 0.91240 1.5393 2.4255 948.65 -0.0034082 138.86 0.11101 7.7226 0.12949 518.81 564.08 2.3841 1.3757 1.6577 221.88 0.33810 7.1461 0.014689
-8.6250 52.396 0.011540 181.97 183.16 0.93841 540.02 0.0018518 178.03 178.70 0.92154 1.5426 2.4321 942.10 -0.0033400 137.44 0.11048 7.9683 0.12550 519.88 565.21 2.3827 1.3809 1.6657 221.86 0.33529 7.1734 0.014795
-7.6250 54.131 0.011873 184.49 185.71 0.94791 538.72 0.0018563 180.45 181.14 0.93068 1.5459 2.4389 935.55 -0.0032705 136.03 0.10995 8.2200 0.12165 520.94 566.35 2.3814 1.3862 1.6737 221.83 0.33254 7.2008 0.014902
-6.6250 55.909 0.012214 187.01 188.28 0.95740 537.41 0.0018608 182.87 183.59 0.93980 1.5492 2.4457 928.99 -0.0031998 134.64 0.10942 8.4779 0.11795 522.01 567.48 2.3801 1.3915 1.6819 221.79 0.32984 7.2284 0.015009
-5.6250 57.730 0.012560 189.55 190.85 0.96688 536.10 0.0018653 185.30 186.05 0.94892 1.5525 2.4526 922.43 -0.0031279 133.27 0.10889 8.7420 0.11439 523.07 568.60 2.3789 1.3969 1.6902 221.74 0.32720 7.2560 0.015117
-4.6250 59.595 0.012914 192.09 193.43 0.97635 534.78 0.0018699 187.74 188.51 0.95802 1.5559 2.4596 915.87 -0.0030546 131.91 0.10837 9.0126 0.11096 524.13 569.72 2.3777 1.4022 1.6985 221.68 0.32461 7.2837 0.015226
-3.6250 61.505 0.013275 194.63 196.02 0.98582 533.45 0.0018746 190.19 190.98 0.96711 1.5593 2.4667 909.30 -0.0029800 130.56 0.10785 9.2896 0.10765 525.19 570.84 2.3765 1.4076 1.7070 221.62 0.32207 7.3115 0.015336
-2.6250 63.461 0.013642 197.19 198.62 0.99529 532.12 0.0018793 192.64 193.46 0.97620 1.5627 2.4739 902.73 -0.0029041 129.23 0.10733 9.5733 0.10446 526.25 571.96 2.3753 1.4131 1.7156 221.54 0.31958 7.3394 0.015447
-1.6250 65.462 0.014017 199.75 201.23 1.0047 530.78 0.0018840 195.10 195.95 0.98527 1.5662 2.4811 896.16 -0.0028267 127.91 0.10681 9.8638 0.10138 527.31 573.07 2.3742 1.4185 1.7243 221.45 0.31715 7.3674 0.015559
-0.62500 67.510 0.014399 202.32 203.85 1.0142 529.44 0.0018888 197.56 198.44 0.99434 1.5696 2.4885 889.58 -0.0027478 126.61 0.10629 10.161 0.098414 528.37 574.18 2.3731 1.4240 1.7331 221.36 0.31476 7.3956 0.015671
0.37500 69.606 0.014788 204.90 206.47 1.0236 528.09 0.0018936 200.03 200.94 1.0034 1.5731 2.4960 883.00 -0.0026675 125.32 0.10578 10.466 0.095552 529.42 575.28 2.3720 1.4295 1.7421 221.26 0.31242 7.4239 0.015785
1.3750 71.749 0.015185 207.49 209.11 1.0331 526.73 0.0018985 202.51 203.45 1.0124 1.5767 2.5035 876.42 -0.0025856 124.04 0.10527 10.777 0.092790 530.48 576.38 2.3709 1.4350 1.7512 221.14 0.31013 7.4523 0.015899
2.3750 73.941 0.015589 210.08 211.75 1.0425 525.37 0.0019034 204.99 205.96 1.0215 1.5802 2.5112 869.83 -0.0025022 122.78 0.10476 11.096 0.090123 531.53 577.47 2.3699 1.4406 1.7604 221.02 0.30789 7.4808 0.016015
3.3750 76.183 0.016000 212.68 214.41 1.0519 523.99 0.0019084 207.48 208.48 1.0305 1.5838 2.5190 863.24 -0.0024171 121.53 0.10425 11.422 0.087549 532.58 578.56 2.3688 1.4462 1.7697 220.89 0.30569 7.5095 0.016131
4.3750 78.475 0.016419 215.29 217.07 1.0614 522.62 0.0019134 209.98 211.01 1.0395 1.5874 2.5268 856.64 -0.0023303 120.29 0.10374 11.756 0.085062 533.63 579.65 2.3678 1.4518 1.7792 220.75 0.30354 7.5384 0.016249
5.3750 80.817 0.016846 217.91 219.74 1.0708 521.23 0.0019185 212.48 213.55 1.0486 1.5910 2.5348 850.04 -0.0022417 119.06 0.10324 12.098 0.082660 534.67 580.73 2.3669 1.4575 1.7888 220.60 0.30144 7.5674 0.016368
6.3750 83.211 0.017280 220.54 222.42 1.0802 519.84 0.0019237 215.00 216.10 1.0576 1.5946 2.5429 843.43 -0.0021514 117.85 0.10273 12.447 0.080340 535.72 581.81 2.3659 1.4632 1.7986 220.44 0.29938 7.5966 0.016487
7.3750 85.657 0.017722 223.17 225.11 1.0896 518.44 0.0019289 217.51 218.65 1.0666 1.5983 2.5511 836.82 -0.0020593 116.65 0.10223 12.805 0.078096 536.76 582.88 2.3650 1.4689 1.8085 220.27 0.29736 7.6259 0.016608
8.3750 88.156 0.018171 225.81 227.81 1.0990 517.03 0.0019341 220.04 221.22 1.0756 1.6020 2.5595 830.20 -0.0019652 115.46 0.10173 13.170 0.075928 537.80 583.95 2.3640 1.4746 1.8186 220.08 0.29538 7.6555 0.016730
9.3750 90.708 0.018629 228.47 230.52 1.1084 515.62 0.0019394 222.57 223.79 1.0846 1.6057 2.5679 823.58 -0.0018691 114.28 0.10124 13.545 0.073830 538.84 585.01 2.3631 1.4804 1.8288 219.89 0.29345 7.6852 0.016853
10.375 93.315 0.019095 231.12 233.23 1.1178 514.19 0.0019448 225.11 226.37 1.0936 1.6095 2.5765 816.96 -0.0017710 113.11 0.10074 13.927 0.071802 539.87 586.07 2.3622 1.4863 1.8392 219.69 0.29156 7.7151 0.016978
11.375 95.977 0.019568 233.79 235.96 1.1272 512.76 0.0019502 227.66 228.95 1.1025 1.6132 2.5852 810.32 -0.0016708 111.95 0.10025 14.319 0.069840 540.90 587.12 2.3614 1.4921 1.8498 219.48 0.28971 7.7452 0.017103
12.375 98.694 0.020050 236.47 238.70 1.1366 511.32 0.0019557 230.22 231.55 1.1115 1.6170 2.5940 803.68 -0.0015685 110.80 0.099756 14.719 0.067941 541.93 588.17 2.3605 1.4980 1.8605 219.26 0.28790 7.7756 0.017230
13.375 101.47 0.020539 239.15 241.45 1.1460 509.87 0.0019613 232.78 234.15 1.1205 1.6208 2.6030 797.04 -0.0014639 109.67 0.099267 15.128 0.066103 542.96 589.21 2.3597 1.5040 1.8715 219.03 0.28612 7.8061 0.017359
14.375 104.30 0.021037 241.85 244.20 1.1553 508.42 0.0019669 235.35 236.77 1.1295 1.6247 2.6121 790.39 -0.0013569 108.54 0.098779 15.547 0.064323 543.99 590.24 2.3588 1.5099 1.8826 218.79 0.28439 7.8369 0.017488
15.375 107.19 0.021543 244.55 246.97 1.1647 506.95 0.0019726 237.93 239.39 1.1384 1.6286 2.6214 783.73 -0.0012476 107.43 0.098294 15.974 0.062600 545.01 591.27 2.3580 1.5159 1.8940 218.53 0.28270 7.8680 0.017619
16.375 110.13 0.022058 247.26 249.75 1.1741 505.48 0.0019783 240.52 242.02 1.1474 1.6324 2.6308 777.07 -0.0011357 106.32 0.097810 16.412 0.060931 546.03 592.29 2.3572 1.5220 1.9055 218.27 0.28104 7.8993 0.017752
17.375 113.14 0.022581 249.98 252.53 1.1835 504.00 0.0019841 243.11 244.66 1.1564 1.6364 2.6403 770.40 -0.0010213 105.22 0.097328 16.859 0.059314 547.04 593.31 2.3564 1.5281 1.9172 217.99 0.27942 7.9308 0.017886
18.375 116.21 0.023112 252.70 255.33 1.1928 502.50 0.0019900 245.72 247.31 1.1653 1.6403 2.6501 763.72 -0.00090422 104.14 0.096848 17.317 0.057747 548.05 594.32 2.3557 1.5342 1.9292 217.71 0.27783 7.9626 0.018021
19.375 119.33 0.023652 255.44 258.14 1.2022 501.00 0.0019960 248.33 249.97 1.1743 1.6443 2.6599 757.04 -0.00078435 103.06 0.096371 17.785 0.056228 549.06 595.33 2.3549 1.5404 1.9414 217.41 0.27628 7.9947 0.018159
20.375 122.52 0.024200 258.18 260.95 1.2116 499.49 0.0020020 250.95 252.64 1.1832 1.6483 2.6700 750.35 -0.00066161 101.99 0.095895 18.263 0.054756 550.07 596.32 2.3541 1.5466 1.9538 217.10 0.27477 8.0272 0.018297
21.375 125.77 0.024757 260.94 263.78 1.2209 497.97 0.0020082 253.57 255.32 1.1922 1.6523 2.6802 743.64 -0.00053589 100.93 0.095420 18.752 0.053328 551.07 597.31 2.3534 1.5528 1.9665 216.78 0.27329 8.0599 0.018438
22.375 129.08 0.025322 263.70 266.62 1.2303 496.43 0.0020144 256.21 258.00 1.2012 1.6563 2.6906 736.94 -0.00040708 99.877 0.094948 19.252 0.051943 552.07 598.30 2.3526 1.5591 1.9795 216.45 0.27184 8.0929 0.018580
23.375 132.46 0.025897 266.47 269.47 1.2397 494.89 0.0020206 258.86 260.70 1.2101 1.6604 2.7012 730.22 -0.00027505 98.834 0.094478 19.763 0.050600 553.06 599.27 2.3519 1.5655 1.9927 216.11 0.27043 8.1263 0.018724
24.375 135.90 0.026480 269.26 272.33 1.2490 493.34 0.0020270 261.51 263.41 1.2191 1.6645 2.7120 723.49 -0.00013968 97.800 0.094009 20.285 0.049297 554.05 600.24 2.3512 1.5718 2.0061 215.75 0.26906 8.1600 0.018870
25.375 139.41 0.027071 272.05 275.20 1.2584 491.77 0.0020335 264.17 266.13 1.2280 1.6686 2.7230 716.76 -8.3775e-07 96.773 0.093543 20.820 0.048032 555.03 601.20 2.3504 1.5783 2.0199 215.39 0.26771 8.1941 0.019017
26.375 142.98 0.027672 274.85 278.08 1.2678 490.20 0.0020400 266.84 268.85 1.2370 1.6728 2.7342 710.01 0.00014161 95.755 0.093078 21.366 0.046804 556.01 602.15 2.3497 1.5847 2.0340 215.01 0.26640 8.2286 0.019167
27.375 146.62 0.028281 277.65 280.97 1.2771 488.61 0.0020466 269.52 271.59 1.2459 1.6770 2.7456 703.26 0.00028782 94.745 0.092615 21.924 0.045612 556.99 603.10 2.3490 1.5913 2.0484 214.62 0.26512 8.2634 0.019319
28.375 150.33 0.028900 280.47 283.87 1.2865 487.01 0.0020533 272.21 274.34 1.2549 1.6812 2.7573 696.49 0.00043793 93.742 0.092154 22.495 0.044454 557.96 604.03 2.3483 1.5978 2.0631 214.21 0.26387 8.2987 0.019472
29.375 154.10 0.029527 283.30 286.78 1.2958 485.40 0.0020601 274.91 277.10 1.2638 1.6854 2.7691 689.72 0.00059212 92.747 0.091695 23.079 0.043329 558.92 604.96 2.3476 1.6044 2.0781 213.80 0.26265 8.3344 0.019628
30.375 157.94 0.030163 286.14 289.71 1.3052 483.78 0.0020671 277.62 279.87 1.2728 1.6897 2.7813 682.93 0.00075055 91.760 0.091238 23.676 0.042237 559.88 605.88 2.3469 1.6111 2.0935 213.37 0.26147 8.3705 0.019786
31.375 161.86 0.030808 288.98 292.64 1.3146 482.15 0.0020741 280.34 282.66 1.2818 1.6939 2.7936 676.13 0.00091340 90.779 0.090782 24.287 0.041175 560.84 606.79 2.3462 1.6178 2.1092 212.93 0.26031 8.4071 0.019947
32.375 165.84 0.031462 291.84 295.59 1.3239 480.50 0.0020812 283.07 285.45 1.2908 1.6983 2.8063 669.32 0.0010809 89.806 0.090328 24.911 0.040143 561.79 607.69 2.3455 1.6246 2.1254 212.48 0.25919 8.4442 0.020110
33.375 169.90 0.032125 294.71 298.55 1.3333 478.83 0.0020884 285.81 288.26 1.2997 1.7026 2.8192 662.50 0.0012532 88.840 0.089876 25.549 0.039140 562.73 608.58 2.3448 1.6314 2.1419 212.01 0.25809 8.4818 0.020275
34.375 174.02 0.032797 297.58 301.51 1.3427 477.16 0.0020957 288.56 291.07 1.3087 1.7070 2.8324 655.67 0.0014305 87.880 0.089426 26.202 0.038164 563.67 609.46 2.3440 1.6383 2.1589 211.53 0.25702 8.5199 0.020443
35.375 178.22 0.033478 300.47 304.49 1.3520 475.47 0.0021032 291.32 293.90 1.3177 1.7114 2.8459 648.82 0.0016131 86.927 0.088977 26.870 0.037216 564.60 610.33 2.3433 1.6452 2.1763 211.04 0.25599 8.5586 0.020613
36.375 182.50 0.034168 303.36 307.49 1.3614 473.77 0.0021107 294.09 296.74 1.3267 1.7158 2.8597 641.96 0.0018012 85.980 0.088531 27.553 0.036293 565.52 611.19 2.3426 1.6522 2.1942 210.53 0.25498 8.5978 0.020786
37.375 186.84 0.034867 306.27 310.49 1.3708 472.05 0.0021184 296.87 299.60 1.3357 1.7203 2.8739 635.08 0.0019950 85.040 0.088085 28.252 0.035395 566.44 612.04 2.3419 1.6592 2.2125 210.01 0.25400 8.6376 0.020962
38.375 191.27 0.035574 309.18 313.51 1.3801 470.31 0.0021262 299.66 302.46 1.3447 1.7248 2.8884 628.19 0.0021949 84.105 0.087642 28.967 0.034522 567.35 612.88 2.3411 1.6663 2.2314 209.47 0.25305 8.6780 0.021141
39.375 195.77 0.036291 312.11 316.53 1.3895 468.56 0.0021342 302.46 305.34 1.3537 1.7293 2.9033 621.29 0.0024011 83.177 0.087200 29.699 0.033671 568.26 613.70 2.3404 1.6734 2.2508 208.92 0.25213 8.7190 0.021323
40.375 200.34 0.037016 315.04 319.57 1.3989 466.80 0.0021423 305.27 308.23 1.3627 1.7339 2.9185 614.37 0.0026140 82.254 0.086760 30.447 0.032844 569.15 614.52 2.3396 1.6806 2.2708 208.36 0.25123 8.7608 0.021508
41.375 205.00 0.037749 317.99 322.62 1.4083 465.01 0.0021505 308.10 311.14 1.3718 1.7385 2.9342 607.43 0.0028338 81.338 0.086322 31.214 0.032037 570.04 615.32 2.3389 1.6879 2.2913 207.78 0.25037 8.8032 0.021696
42.375 209.73 0.038492 320.94 325.69 1.4177 463.21 0.0021588 310.94 314.06 1.3808 1.7432 2.9502 600.47 0.0030609 80.426 0.085885 31.998 0.031252 570.92 616.11 2.3381 1.6952 2.3125 207.19 0.24953 8.8463 0.021888
43.375 214.54 0.039243 323.91 328.76 1.4271 461.40 0.0021673 313.79 316.99 1.3899 1.7478 2.9667 593.50 0.0032957 79.520 0.085449 32.800 0.030488 571.79 616.88 2.3373 1.7027 2.3344 206.58 0.24871 8.8902 0.022084
44.375 219.43 0.040002 326.89 331.85 1.4364 459.56 0.0021760 316.65 319.94 1.3989 1.7525 2.9837 586.51 0.0035386 78.619 0.085015 33.622 0.029742 572.65 617.65 2.3365 1.7101 2.3569 205.96 0.24793 8.9349 0.022283
45.375 224.41 0.040769 329.88 334.95 1.4458 457.71 0.0021848 319.52 322.90 1.4080 1.7573 3.0012 579.50 0.0037900 77.723 0.084583 34.463 0.029016 573.50 618.40 2.3357 1.7177 2.3802 205.32 0.24717 8.9805 0.022485
46.375 229.46 0.041544 332.87 338.06 1.4552 455.83 0.0021938 322.41 325.88 1.4171 1.7621 3.0192 572.46 0.0040504 76.832 0.084152 35.325 0.028308 574.34 619.13 2.3349 1.7253 2.4042 204.67 0.24644 9.0269 0.022692
47.375 234.60 0.042327 335.88 341.19 1.4646 453.94 0.0022029 325.31 328.87 1.4262 1.7669 3.0377 565.41 0.0043202 75.946 0.083723 36.208 0.027618 575.17 619.85 2.3340 1.7329 2.4291 204.00 0.24573 9.0742 0.022903
48.375 239.83 0.043117 338.90 344.33 1.4740 452.03 0.0022123 328.22 331.88 1.4353 1.7718 3.0569 558.34 0.0046000 75.064 0.083295 37.112 0.026945 576.00 620.55 2.3332 1.7407 2.4548 203.31 0.24505 9.1224 0.023119
49.375 245.13 0.043915 341.94 347.48 1.4835 450.09 0.0022218 331.15 334.90 1.4445 1.7767 3.0766 551.24 0.0048904 74.186 0.082868 38.039 0.026289 576.81 621.24 2.3323 1.7485 2.4815 202.61 0.24440 9.1716 0.023339
50.375 250.53 0.044720 344.98 350.64 1.4929 448.13 0.0022315 334.09 337.94 1.4536 1.7817 3.0970 544.13 0.0051920 73.313 0.082442 38.989 0.025648 577.61 621.91 2.3314 1.7564 2.5092 201.89 0.24377 9.2219 0.023564
51.375 256.01 0.045531 348.03 353.82 1.5023 446.15 0.0022414 337.04 341.00 1.4628 1.7867 3.1181 536.98 0.0055054 72.443 0.082018 39.962 0.025024 578.39 622.56 2.3304 1.7644 2.5379 201.16 0.24317 9.2733 0.023794
52.375 261.57 0.046348 351.10 357.01 1.5117 444.15 0.0022515 340.01 344.07 1.4720 1.7918 3.1400 529.82 0.0058313 71.577 0.081595 40.961 0.024414 579.17 623.20 2.3295 1.7724 2.5677 200.41 0.24260 9.3258 0.024029
53.375 267.23 0.047172 354.17 360.22 1.5212 442.12 0.0022618 343.00 347.17 1.4812 1.7969 3.1627 522.62 0.0061705 70.715 0.081174 41.985 0.023818 579.93 623.81 2.3285 1.7805 2.5987 199.63 0.24205 9.3795 0.024270
54.375 272.97 0.048000 357.26 363.43 1.5306 440.06 0.0022724 346.00 350.28 1.4904 1.8021 3.1862 515.40 0.0065239 69.856 0.080753 43.036 0.023237 580.68 624.41 2.3274 1.7887 2.6310 198.85 0.24154 9.4344 0.024516
55.375 278.81 0.048833 360.36 366.67 1.5401 437.98 0.0022832 349.02 353.40 1.4997 1.8073 3.2106 508.15 0.0068923 69.001 0.080334 44.114 0.022669 581.41 624.99 2.3264 1.7969 2.6646 198.04 0.24105 9.4907 0.024769
56.375 284.74 0.049670 363.48 369.91 1.5495 435.87 0.0022943 352.05 356.55 1.5090 1.8126 3.2360 500.87 0.0072767 68.148 0.079915 45.221 0.022114 582.13 625.54 2.3253 1.8052 2.6998 197.22 0.24059 9.5484 0.025028
57.375 290.76 0.050510 366.60 373.17 1.5590 433.73 0.0023056 355.10 359.72 1.5183 1.8179 3.2624 493.56 0.0076782 67.299 0.079498 46.358 0.021571 582.83 626.07 2.3241 1.8136 2.7365 196.37 0.24016 9.6075 0.025294
58.375 296.87 0.051353 369.74 376.45 1.5685 431.56 0.0023172 358.17 362.91 1.5276 1.8233 3.2900 486.22 0.0080980 66.451 0.079082 47.525 0.021041 583.52 626.58 2.3230 1.8220 2.7749 195.51 0.23976 9.6682 0.025568
59.375 303.08 0.052196 372.89 379.74 1.5780 429.36 0.0023290 361.25 366.12 1.5370 1.8288 3.3188 478.84 0.0085373 65.606 0.078666 48.726 0.020523 584.18 627.07 2.3218 1.8305 2.8152 194.63 0.23939 9.7305 0.025849
60.375 309.38 0.053041 376.05 383.04 1.5875 427.13 0.0023412 364.36 369.35 1.5464 1.8343 3.3489 471.43 0.0089976 64.763 0.078251 49.960 0.020016 584.83 627.53 2.3205 1.8391 2.8576 193.73 0.23905 9.7945 0.026138
61.375 315.78 0.053884 379.23 386.36 1.5970 424.87 0.0023537 367.48 372.60 1.5558 1.8400 3.3805 463.99 0.0094803 63.922 0.077838 51.229 0.019520 585.46 627.96 2.3192 1.8479 2.9022 192.82 0.23873 9.8603 0.026436
62.375 322.28 0.054725 382.41 389.70 1.6065 422.56 0.0023665 370.62 375.88 1.5653 1.8457 3.4136 456.50 0.0099871 63.083 0.077425 52.535 0.019035 586.07 628.37 2.3178 1.8567 2.9492 191.88 0.23845 9.9281 0.026744
63.375 328.88 0.055562 385.61 393.05 1.6160 420.22 0.0023797 373.79 379.18 1.5748 1.8514 3.4483 448.97 0.010520 62.244 0.077012 53.879 0.018560 586.66 628.74 2.3164 1.8656 2.9989 190.92 0.23819 9.9979 0.027061
64.375 335.58 0.056393 388.83 396.42 1.6255 417.85 0.0023932 376.97 382.51 1.5844 1.8573 3.4850 441.40 0.011081 61.407 0.076600 55.265 0.018095 587.22 629.09 2.3149 1.8747 3.0517 189.95 0.23796 10.070 0.027389
65.375 342.38 0.057216 392.06 399.80 1.6351 415.42 0.0024072 380.18 385.86 1.5939 1.8633 3.5236 433.79 0.011672 60.570 0.076189 56.692 0.017639 587.76 629.40 2.3133 1.8839 3.1077 188.95 0.23775 10.144 0.027729
66.375 349.28 0.058029 395.30 403.20 1.6447 412.96 0.0024215 383.41 389.25 1.6036 1.8693 3.5645 426.12 0.012296 59.733 0.075779 58.165 0.017193 588.28 629.68 2.3117 1.8933 3.1674 187.93 0.23757 10.221 0.028080
67.375 356.28 0.058829 398.56 406.61 1.6542 410.45 0.0024363 386.67 392.65 1.6133 1.8755 3.6078 418.41 0.012956 58.897 0.075368 59.684 0.016755 588.76 629.92 2.3100 1.9030 3.2311 186.89 0.23740 10.300 0.028446
68.375 363.40 0.059612 401.83 410.05 1.6638 407.89 0.0024516 389.95 396.09 1.6230 1.8818 3.6537 410.64 0.013655 58.059 0.074959 61.253 0.016326 589.22 630.13 2.3082 1.9129 3.2994 185.83 0.23724 10.382 0.028825
69.375 370.61 0.060375 405.12 413.50 1.6734 405.28 0.0024674 393.26 399.57 1.6328 1.8882 3.7027 402.81 0.014396 57.221 0.074549 62.875 0.015905 589.65 630.29 2.3064 1.9231 3.3727 184.74 0.23710 10.467 0.029221
70.375 377.94 0.061113 408.42 416.96 1.6831 402.62 0.0024838 396.60 403.07 1.6426 1.8947 3.7550 394.92 0.015183 56.381 0.074141 64.552 0.015491 590.04 630.41 2.3044 1.9336 3.4518 183.63 0.23697 10.555 0.029633
71.375 385.37 0.061821 411.74 420.45 1.6927 399.89 0.0025007 399.96 406.61 1.6525 1.9014 3.8109 386.97 0.016021 55.540 0.073732 66.288 0.015086 590.40 630.49 2.3024 1.9444 3.5371 182.50 0.23684 10.647 0.030064
72.375 392.92 0.062494 415.07 423.95 1.7024 397.11 0.0025182 403.36 410.18 1.6625 1.9083 3.8711 378.95 0.016915 54.696 0.073324 68.087 0.014687 590.73 630.51 2.3002 1.9556 3.6297 181.34 0.23671 10.743 0.030515
73.375 400.57 0.063125 418.42 427.48 1.7121 394.26 0.0025364 406.79 413.80 1.6726 1.9153 3.9359 370.85 0.017871 53.848 0.072917 69.953 0.014295 591.01 630.49 2.2979 1.9673 3.7303 180.16 0.23658 10.842 0.030989
74.375 408.34 0.063704 421.79 431.02 1.7218 391.34 0.0025553 410.26 417.45 1.6827 1.9226 4.0060 362.67 0.018894 52.997 0.072510 71.890 0.013910 591.25 630.41 2.2955 1.9793 3.8401 178.95 0.23643 10.946 0.031488
75.375 416.23 0.064222 425.17 434.58 1.7315 388.34 0.0025751 413.76 421.15 1.6930 1.9301 4.0822 354.41 0.019993 52.142 0.072104 73.904 0.013531 591.44 630.27 2.2930 1.9919 3.9604 177.71 0.23627 11.054 0.032014
76.375 424.23 0.064668 428.58 438.17 1.7412 385.26 0.0025957 417.31 424.90 1.7033 1.9378 4.1654 346.06 0.021177 51.281 0.071699 76.001 0.013158 591.59 630.07 2.2903 2.0050 4.0927 176.44 0.23609 11.168 0.032570
77.375 432.35 0.065028 432.00 441.77 1.7510 382.09 0.0026172 420.89 428.70 1.7137 1.9459 4.2565 337.60 0.022455 50.414 0.071295 78.187 0.012790 591.68 629.80 2.2874 2.0186 4.2389 175.15 0.23588 11.287 0.033161
78.375 440.59 0.065283 435.44 445.40 1.7608 378.83 0.0026397 424.53 432.54 1.7243 1.9543 4.3570 329.05 0.023838 49.539 0.070893 80.469 0.012427 591.71 629.46 2.2844 2.0328 4.4012 173.82 0.23563 11.412 0.033789
79.375 448.95 0.065414 438.90 449.05 1.7707 375.46 0.0026634 428.21 436.45 1.7349 1.9631 4.4684 320.38 0.025341 48.657 0.070494 82.856 0.012069 591.68 629.04 2.2812 2.0475 4.5824 172.46 0.23535 11.544 0.034461
80.375 457.44 0.065395 442.38 452.72 1.7805 371.97 0.0026884 431.94 440.42 1.7457 1.9723 4.5928 311.58 0.026980 47.764 0.070099 85.359 0.011715 591.58 628.53 2.2778 2.0630 4.7859 171.07 0.23501 11.684 0.035181
81.375 466.05 0.065193 445.89 456.42 1.7904 368.36 0.0027147 435.74 444.46 1.7567 1.9820 4.7327 302.66 0.028773 46.860 0.069708 87.988 0.011365 591.40 627.92 2.2742 2.0791 5.0161 169.64 0.23461 11.832 0.035957
82.375 474.79 0.064769 449.42 460.15 1.8004 364.61 0.0027427 439.60 448.58 1.7678 1.9924 4.8914 293.60 0.030744 45.942 0.069323 90.757 0.011018 591.14 627.21 2.2703 2.0959 5.2786 168.17 0.23413 11.989 0.036797
83.375 483.66 0.064071 452.97 463.90 1.8103 360.70 0.0027724 443.53 452.78 1.7791 2.0034 5.0731 284.38 0.032920 45.010 0.068948 93.681 0.010674 590.79 626.38 2.2661 2.1136 5.5807 166.67 0.23357 12.157 0.037711
84.375 492.67 0.063033 456.54 467.68 1.8204 356.61 0.0028041 447.54 457.07 1.7907 2.0153 5.2834 275.00 0.035335 44.059 0.068586 96.781 0.010333 590.33 625.42 2.2616 2.1321 5.9321 165.13 0.23290 12.338 0.038713
85.375 501.81 0.061568 460.15 471.49 1.8304 352.33 0.0028382 451.65 461.47 1.8025 2.0281 5.5302 265.44 0.038030 43.088 0.068241 100.08 0.0099920 589.74 624.31 2.2567 2.1517 6.3459 163.54 0.23209 12.532 0.039819
86.375 511.09 0.059558 463.78 475.34 1.8405 347.82 0.0028751 455.85 465.98 1.8145 2.0420 5.8240 255.69 0.041058 42.092 0.067923 103.61 0.0096520 589.03 623.04 2.2514 2.1723 6.8405 161.91 0.23112 12.743 0.041051
87.375 520.51 0.056841 467.45 479.22 1.8507 343.04 0.0029151 460.18 470.64 1.8269 2.0574 6.1803 245.72 0.044485 41.066 0.067640 107.40 0.0093114 588.15 621.56 2.2456 2.1943 7.4422 160.23 0.22995 12.973 0.042436
88.375 530.07 0.053187 471.15 483.13 1.8610 337.95 0.0029590 464.64 475.45 1.8397 2.0745 6.6221 235.52 0.048397 40.005 0.067412 111.50 0.0089689 587.08 619.86 2.2392 2.2178 8.1900 158.49 0.22854 13.226 0.044014
89.375 539.79 0.048259 474.89 487.09 1.8713 332.48 0.0030077 469.27 480.46 1.8530 2.0936 7.1851 225.04 0.052906 38.901 0.067265 115.97 0.0086228 585.79 617.88 2.2321 2.2433 9.1445 156.69 0.22681 13.508 0.045839
90.375 549.66 0.041539 478.67 491.10 1.8817 326.55 0.0030623 474.10 485.71 1.8669 2.1156 7.9284 214.26 0.058166 37.742 0.067243 120.91 0.0082708 584.22 615.56 2.2241 2.2711 10.405 154.82 0.22467 13.825 0.047992
91.375 559.68 0.032180 482.51 495.16 1.8923 320.03 0.0031247 479.19 491.25 1.8815 2.1412 8.9568 203.11 0.064389 36.514 0.067421 126.43 0.0079097 582.29 612.82 2.2150 2.3019 12.146 152.85 0.22200 14.189 0.050600
92.375 569.87 0.018697 486.40 499.28 1.9029 312.73 0.0031976 484.62 497.18 1.8972 2.1718 10.475 191.54 0.071885 35.195 0.067931 132.72 0.0075346 579.91 609.51 2.2045 2.3370 14.705 150.75 0.21862 14.618 0.053877
93.375 580.77 undefined 490.23 503.36 1.9134 305.00 0.0032787 490.23 503.36 1.9134 2.2056 12.590 180.76 0.080110 33.868 0.068834 305.00 0.0032787 490.23 503.36 1.9134 2.2056 12.590 180.76 0.080110 33.868 0.068834
94.375 598.70 undefined 492.43 505.96 1.9194 305.00 0.0032787 492.43 505.96 1.9194 2.1899 11.180 186.31 0.076591 33.921 0.067861 305.00 0.0032787 492.43 505.96 1.9194 2.1899 11.180 186.31 0.076591 33.921 0.067861
95.375 616.85 undefined 494.61 508.56 1.9253 305.00 0.0032787 494.61 508.56 1.9253 2.1764 10.157 191.42 0.073530 33.997 0.067125 305.00 0.0032787 494.61 508.56 1.9253 2.1764 10.157 191.42 0.073530 33.997 0.067125
96.375 635.18 undefined 496.78 511.14 1.9312 305.00 0.0032787 496.78 511.14 1.9312 2.1648 9.3759 196.15 0.070824 34.118 0.066544 305.00 0.0032787 496.78 511.14 1.9312 2.1648 9.3759 196.15 0.070824 34.118 0.066544
97.375 653.68 undefined 498.94 513.72 1.9370 305.00 0.0032787 498.94 513.72 1.9370 2.1550 8.7549 200.55 0.068397 34.116 0.066109 305.00 0.0032787 498.94 513.72 1.9370 2.1550 8.7549 200.55 0.068397 34.116 0.066109
98.375 672.33 undefined 501.09 516.29 1.9428 305.00 0.0032787 501.09 516.29 1.9428 2.1468 8.2468 204.68 0.066194 34.069 0.065769 305.00 0.0032787 501.09 516.29 1.9428 2.1468 8.2468 204.68 0.066194 34.069 0.065769
99.375 691.11 undefined 503.24 518.86 1.9486 305.00 0.0032787 503.24 518.86 1.9486 2.1399 7.8216 208.56 0.064176 34.060 0.065487 305.00 0.0032787 503.24 518.86 1.9486 2.1399 7.8216 208.56 0.064176 34.060 0.065487
100.38 710.02 undefined 505.37 521.43 1.9543 305.00 0.0032787 505.37 521.43 1.9543 2.1342 7.4593 212.25 0.062310 34.069 0.065252 305.00 0.0032787 505.37 521.43 1.9543 2.1342 7.4593 212.25 0.062310 34.069 0.065252
101.38 729.03 undefined 507.51 523.99 1.9600 305.00 0.0032787 507.51 523.99 1.9600 2.1295 7.1463 215.76 0.060573 34.088 0.065057 305.00 0.0032787 507.51 523.99 1.9600 2.1295 7.1463 215.76 0.060573 34.088 0.065057
102.38 748.15 undefined 509.63 526.55 1.9657 305.00 0.0032787 509.63 526.55 1.9657 2.1257 6.8727 219.12 0.058947 34.112 0.064896 305.00 0.0032787 509.63 526.55 1.9657 2.1257 6.8727 219.12 0.058947 34.112 0.064896
103.38 767.36 undefined 511.76 529.11 1.9713 305.00 0.0032787 511.76 529.11 1.9713 2.1226 6.6311 222.35 0.057417 34.139 0.064763 305.00 0.0032787 511.76 529.11 1.9713 2.1226 6.6311 222.35 0.057417 34.139 0.064763
104.38 786.66 undefined 513.88 531.66 1.9770 305.00 0.0032787 513.88 531.66 1.9770 2.1201 6.4160 225.47 0.055972 34.166 0.064653 305.00 0.0032787 513.88 531.66 1.9770 2.1201 6.4160 225.47 0.055972 34.166 0.064653
105.38 806.04 undefined 516.00 534.22 1.9826 305.00 0.0032787 516.00 534.22 1.9826 2.1182 6.2231 228.49 0.054603 34.195 0.064564 305.00 0.0032787 516.00 534.22 1.9826 2.1182 6.2231 228.49 0.054603 34.195 0.064564
106.38 825.50 undefined 518.12 536.78 1.9882 305.00 0.0032787 518.12 536.78 1.9882 2.1167 6.0491 231.42 0.053301 34.223 0.064492 305.00 0.0032787 518.12 536.78 1.9882 2.1167 6.0491 231.42 0.053301 34.223 0.064492
107.38 845.03 undefined 520.23 539.33 1.9937 305.00 0.0032787 520.23 539.33 1.9937 2.1157 5.8913 234.27 0.052062 34.252 0.064435 305.00 0.0032787 520.23 539.33 1.9937 2.1157 5.8913 234.27 0.052062 34.252 0.064435
108.38 864.62 undefined 522.35 541.89 1.9993 305.00 0.0032787 522.35 541.89 1.9993 2.1150 5.7474 237.06 0.050878 34.281 0.064391 305.00 0.0032787 522.35 541.89 1.9993 2.1150 5.7474 237.06 0.050878 34.281 0.064391
109.38 884.28 undefined 524.46 544.45 2.0048 305.00 0.0032787 524.46 544.45 2.0048 2.1146 5.6157 239.77 0.049746 34.310 0.064359 305.00 0.0032787 524.46 544.45 2.0048 2.1146 5.6157 239.77 0.049746 34.310 0.064359
110.38 904.00 undefined 526.58 547.01 2.0103 305.00 0.0032787 526.58 547.01 2.0103 2.1144 5.4947 242.43 0.048661 34.339 0.064337 305.00 0.0032787 526.58 547.01 2.0103 2.1144 5.4947 242.43 0.048661 34.339 0.064337
111.38 923.78 undefined 528.69 549.57 2.0158 305.00 0.0032787 528.69 549.57 2.0158 2.1145 5.3830 245.04 0.047620 34.368 0.064324 305.00 0.0032787 528.69 549.57 2.0158 2.1145 5.3830 245.04 0.047620 34.368 0.064324
112.38 943.62 undefined 530.81 552.14 2.0213 305.00 0.0032787 530.81 552.14 2.0213 2.1148 5.2797 247.59 0.046620 34.397 0.064320 305.00 0.0032787 530.81 552.14 2.0213 2.1148 5.2797 247.59 0.046620 34.397 0.064320
113.38 963.50 undefined 532.92 554.70 2.0268 305.00 0.0032787 532.92 554.70 2.0268 2.1154 5.1838 250.10 0.045658 34.425 0.064323 305.00 0.0032787 532.92 554.70 2.0268 2.1154 5.1838 250.10 0.045658 34.425 0.064323
114.38 983.44 undefined 535.04 557.27 2.0323 305.00 0.0032787 535.04 557.27 2.0323 2.1160 5.0946 252.56 0.044731 34.454 0.064332 305.00 0.0032787 535.04 557.27 2.0323 2.1160 5.0946 252.56 0.044731 34.454 0.064332
115.38 1003.4 undefined 537.15 559.84 2.0377 305.00 0.0032787 537.15 559.84 2.0377 2.1169 5.0113 254.98 0.043837 34.483 0.064348 305.00 0.0032787 537.15 559.84 2.0377 2.1169 5.0113 254.98 0.043837 34.483 0.064348
116.38 1023.5 undefined 539.27 562.41 2.0432 305.00 0.0032787 539.27 562.41 2.0432 2.1179 4.9334 257.37 0.042975 34.512 0.064369 305.00 0.0032787 539.27 562.41 2.0432 2.1179 4.9334 257.37 0.042975 34.512 0.064369
117.38 1043.5 undefined 541.39 564.98 2.0486 305.00 0.0032787 541.39 564.98 2.0486 2.1190 4.8605 259.71 0.042142 34.541 0.064395 305.00 0.0032787 541.39 564.98 2.0486 2.1190 4.8605 259.71 0.042142 34.541 0.064395
118.38 1063.7 undefined 543.51 567.55 2.0540 305.00 0.0032787 543.51 567.55 2.0540 2.1203 4.7919 262.02 0.041337 34.569 0.064426 305.00 0.0032787 543.51 567.55 2.0540 2.1203 4.7919 262.02 0.041337 34.569 0.064426
119.38 1083.8 undefined 545.63 570.13 2.0594 305.00 0.0032787 545.63 570.13 2.0594 2.1216 4.7275 264.30 0.040558 34.598 0.064461 305.00 0.0032787 545.63 570.13 2.0594 2.1216 4.7275 264.30 0.040558 34.598 0.064461
120.38 1104.0 undefined 547.75 572.71 2.0648 305.00 0.0032787 547.75 572.71 2.0648 2.1231 4.6667 266.54 0.039803 34.627 0.064500 305.00 0.0032787 547.75 572.71 2.0648 2.1231 4.6667 266.54 0.039803 34.627 0.064500
121.38 1124.3 undefined 549.88 575.29 2.0702 305.00 0.0032787 549.88 575.29 2.0702 2.1247 4.6094 268.76 0.039072 34.655 0.064542 305.00 0.0032787 549.88 575.29 2.0702 2.1247 4.6094 268.76 0.039072 34.655 0.064542
122.38 1144.5 undefined 552.00 577.87 2.0756 305.00 0.0032787 552.00 577.87 2.0756 2.1264 4.5552 270.94 0.038362 34.684 0.064588 305.00 0.0032787 552.00 577.87 2.0756 2.1264 4.5552 270.94 0.038362 34.684 0.064588
123.38 1164.8 undefined 554.13 580.46 2.0810 305.00 0.0032787 554.13 580.46 2.0810 2.1282 4.5039 273.10 0.037674 34.713 0.064637 305.00 0.0032787 554.13 580.46 2.0810 2.1282 4.5039 273.10 0.037674 34.713 0.064637
124.38 1185.2 undefined 556.26 583.05 2.0863 305.00 0.0032787 556.26 583.05 2.0863 2.1301 4.4553 275.23 0.037006 34.741 0.064690 305.00 0.0032787 556.26 583.05 2.0863 2.1301 4.4553 275.23 0.037006 34.741 0.064690
125.38 1205.6 undefined 558.39 585.64 2.0917 305.00 0.0032787 558.39 585.64 2.0917 2.1320 4.4091 277.34 0.036357 34.770 0.064745 305.00 0.0032787 558.39 585.64 2.0917 2.1320 4.4091 277.34 0.036357 34.770 0.064745
126.38 1226.0 undefined 560.52 588.24 2.0970 305.00 0.0032787 560.52 588.24 2.0970 2.1341 4.3653 279.42 0.035726 34.798 0.064802 305.00 0.0032787 560.52 588.24 2.0970 2.1341 4.3653 279.42 0.035726 34.798 0.064802
127.38 1246.4 undefined 562.66 590.83 2.1024 305.00 0.0032787 562.66 590.83 2.1024 2.1362 4.3236 281.48 0.035112 34.827 0.064862 305.00 0.0032787 562.66 590.83 2.1024 2.1362 4.3236 281.48 0.035112 34.827 0.064862
128.38 1266.9 undefined 564.79 593.43 2.1077 305.00 0.0032787 564.79 593.43 2.1077 2.1384 4.2839 283.51 0.034515 34.855 0.064924 305.00 0.0032787 564.79 593.43 2.1077 2.1384 4.2839 283.51 0.034515 34.855 0.064924
129.38 1287.4 undefined 566.93 596.04 2.1130 305.00 0.0032787 566.93 596.04 2.1130 2.1406 4.2460 285.52 0.033933 34.884 0.064988 305.00 0.0032787 566.93 596.04 2.1130 2.1406 4.2460 285.52 0.033933 34.884 0.064988
130.38 1307.9 undefined 569.08 598.64 2.1183 305.00 0.0032787 569.08 598.64 2.1183 2.1429 4.2099 287.52 0.033367 34.912 0.065055 305.00 0.0032787 569.08 598.64 2.1183 2.1429 4.2099 287.52 0.033367 34.912 0.065055
131.38 1328.4 undefined 571.22 601.25 2.1237 305.00 0.0032787 571.22 601.25 2.1237 2.1453 4.1755 289.49 0.032815 34.941 0.065123 305.00 0.0032787 571.22 601.25 2.1237 2.1453 4.1755 289.49 0.032815 34.941 0.065123
132.38 1349.0 undefined 573.37 603.86 2.1290 305.00 0.0032787 573.37 603.86 2.1290 2.1477 4.1425 291.44 0.032278 34.969 0.065193 305.00 0.0032787 573.37 603.86 2.1290 2.1477 4.1425 291.44 0.032278 34.969 0.065193
133.38 1369.6 undefined 575.52 606.48 2.1342 305.00 0.0032787 575.52 606.48 2.1342 2.1502 4.1110 293.37 0.031753 34.997 0.065265 305.00 0.0032787 575.52 606.48 2.1342 2.1502 4.1110 293.37 0.031753 34.997 0.065265
134.38 1390.2 undefined 577.67 609.09 2.1395 305.00 0.0032787 577.67 609.09 2.1395 2.1527 4.0809 295.29 0.031241 35.026 0.065339 305.00 0.0032787 577.67 609.09 2.1395 2.1527 4.0809 295.29 0.031241 35.026 0.065339
135.38 1410.9 undefined 579.82 611.71 2.1448 305.00 0.0032787 579.82 611.71 2.1448 2.1553 4.0520 297.19 0.030742 35.054 0.065414 305.00 0.0032787 579.82 611.71 2.1448 2.1553 4.0520 297.19 0.030742 35.054 0.065414
136.38 1431.6 undefined 581.98 614.34 2.1501 305.00 0.0032787 581.98 614.34 2.1501 2.1579 4.0244 299.07 0.030255 35.082 0.065491 305.00 0.0032787 581.98 614.34 2.1501 2.1579 4.0244 299.07 0.030255 35.082 0.065491
137.38 1452.3 undefined 584.14 616.97 2.1554 305.00 0.0032787 584.14 616.97 2.1554 2.1605 3.9978 300.93 0.029779 35.111 0.065569 305.00 0.0032787 584.14 616.97 2.1554 2.1605 3.9978 300.93 0.029779 35.111 0.065569
138.38 1473.0 undefined 586.30 619.60 2.1606 305.00 0.0032787 586.30 619.60 2.1606 2.1632 3.9724 302.78 0.029314 35.139 0.065648 305.00 0.0032787 586.30 619.60 2.1606 2.1632 3.9724 302.78 0.029314 35.139 0.065648
139.38 1493.7 undefined 588.46 622.23 2.1659 305.00 0.0032787 588.46 622.23 2.1659 2.1660 3.9480 304.61 0.028859 35.167 0.065729 305.00 0.0032787 588.46 622.23 2.1659 2.1660 3.9480 304.61 0.028859 35.167 0.065729
140.38 1514.5 undefined 590.63 624.87 2.1711 305.00 0.0032787 590.63 624.87 2.1711 2.1687 3.9245 306.43 0.028415 35.195 0.065811 305.00 0.0032787 590.63 624.87 2.1711 2.1687 3.9245 306.43 0.028415 35.195 0.065811
141.38 1535.2 undefined 592.80 627.51 2.1764 305.00 0.0032787 592.80 627.51 2.1764 2.1716 3.9019 308.23 0.027981 35.223 0.065895 305.00 0.0032787 592.80 627.51 2.1764 2.1716 3.9019 308.23 0.027981 35.223 0.065895
142.38 1556.0 undefined 594.97 630.15 2.1816 305.00 0.0032787 594.97 630.15 2.1816 2.1744 3.8802 310.02 0.027556 35.251 0.065979 305.00 0.0032787 594.97 630.15 2.1816 2.1744 3.8802 310.02 0.027556 35.251 0.065979
143.38 1576.8 undefined 597.15 632.79 2.1868 305.00 0.0032787 597.15 632.79 2.1868 2.1773 3.8594 311.79 0.027141 35.280 0.066065 305.00 0.0032787 597.15 632.79 2.1868 2.1773 3.8594 311.79 0.027141 35.280 0.066065
144.38 1597.7 undefined 599.33 635.44 2.1920 305.00 0.0032787 599.33 635.44 2.1920 2.1801 3.8393 313.56 0.026735 35.308 0.066152 305.00 0.0032787 599.33 635.44 2.1920 2.1801 3.8393 313.56 0.026735 35.308 0.066152
145.38 1618.5 undefined 601.51 638.10 2.1973 305.00 0.0032787 601.51 638.10 2.1973 2.1831 3.8200 315.30 0.026337 35.336 0.066239 305.00 0.0032787 601.51 638.10 2.1973 2.1831 3.8200 315.30 0.026337 35.336 0.066239
146.38 1639.4 undefined 603.69 640.75 2.2025 305.00 0.0032787 603.69 640.75 2.2025 2.1860 3.8013 317.04 0.025947 35.364 0.066328 305.00 0.0032787 603.69 640.75 2.2025 2.1860 3.8013 317.04 0.025947 35.364 0.066328
147.38 1660.2 undefined 605.88 643.41 2.2077 305.00 0.0032787 605.88 643.41 2.2077 2.1890 3.7834 318.76 0.025566 35.392 0.066418 305.00 0.0032787 605.88 643.41 2.2077 2.1890 3.7834 318.76 0.025566 35.392 0.066418
148.38 1681.1 undefined 608.07 646.08 2.2129 305.00 0.0032787 608.07 646.08 2.2129 2.1920 3.7661 320.47 0.025193 35.420 0.066509 305.00 0.0032787 608.07 646.08 2.2129 2.1920 3.7661 320.47 0.025193 35.420 0.066509
149.38 1702.0 undefined 610.27 648.74 2.2181 305.00 0.0032787 610.27 648.74 2.2181 2.1950 3.7494 322.17 0.024827 35.448 0.066600 305.00 0.0032787 610.27 648.74 2.2181 2.1950 3.7494 322.17 0.024827 35.448 0.066600
150.38 1723.0 undefined 612.46 651.41 2.2233 305.00 0.0032787 612.46 651.41 2.2233 2.1980 3.7333 323.86 0.024468 35.476 0.066693 305.00 0.0032787 612.46 651.41 2.2233 2.1980 3.7333 323.86 0.024468 35.476 0.066693
151.38 1743.9 undefined 614.66 654.08 2.2285 305.00 0.0032787 614.66 654.08 2.2285 2.2011 3.7178 325.54 0.024117 35.504 0.066786 305.00 0.0032787 614.66 654.08 2.2285 2.2011 3.7178 325.54 0.024117 35.504 0.066786
152.38 1764.9 undefined 616.86 656.76 2.2336 305.00 0.0032787 616.86 656.76 2.2336 2.2042 3.7028 327.20 0.023772 35.531 0.066880 305.00 0.0032787 616.86 656.76 2.2336 2.2042 3.7028 327.20 0.023772 35.531 0.066880
153.38 1785.8 undefined 619.07 659.44 2.2388 305.00 0.0032787 619.07 659.44 2.2388 2.2073 3.6884 328.86 0.023435 35.559 0.066975 305.00 0.0032787 619.07 659.44 2.2388 2.2073 3.6884 328.86 0.023435 35.559 0.066975
154.38 1806.8 undefined 621.28 662.12 2.2440 305.00 0.0032787 621.28 662.12 2.2440 2.2104 3.6744 330.50 0.023104 35.587 0.067071 305.00 0.0032787 621.28 662.12 2.2440 2.2104 3.6744 330.50 0.023104 35.587 0.067071
155.38 1827.8 undefined 623.49 664.81 2.2492 305.00 0.0032787 623.49 664.81 2.2492 2.2135 3.6609 332.14 0.022779 35.615 0.067168 305.00 0.0032787 623.49 664.81 2.2492 2.2135 3.6609 332.14 0.022779 35.615 0.067168
156.38 1848.8 undefined 625.71 667.50 2.2543 305.00 0.0032787 625.71 667.50 2.2543 2.2166 3.6478 333.76 0.022460 35.643 0.067265 305.00 0.0032787 625.71 667.50 2.2543 2.2166 3.6478 333.76 0.022460 35.643 0.067265
157.38 1869.8 undefined 627.92 670.19 2.2595 305.00 0.0032787 627.92 670.19 2.2595 2.2198 3.6352 335.38 0.022148 35.671 0.067363 305.00 0.0032787 627.92 670.19 2.2595 2.2198 3.6352 335.38 0.022148 35.671 0.067363
158.38 1890.8 undefined 630.15 672.89 2.2646 305.00 0.0032787 630.15 672.89 2.2646 2.2230 3.6230 336.98 0.021841 35.698 0.067462 305.00 0.0032787 630.15 672.89 2.2646 2.2230 3.6230 336.98 0.021841 35.698 0.067462
159.38 1911.9 undefined 632.37 675.59 2.2698 305.00 0.0032787 632.37 675.59 2.2698 2.2262 3.6113 338.57 0.021540 35.726 0.067562 305.00 0.0032787 632.37 675.59 2.2698 2.2262 3.6113 338.57 0.021540 35.726 0.067562
160.38 1932.9 undefined 634.60 678.29 2.2749 305.00 0.0032787 634.60 678.29 2.2749 2.2294 3.5999 340.16 0.021244 35.754 0.067662 305.00 0.0032787 634.60 678.29 2.2749 2.2294 3.5999 340.16 0.021244 35.754 0.067662
161.38 1954.0 undefined 636.83 681.00 2.2801 305.00 0.0032787 636.83 681.00 2.2801 2.2326 3.5888 341.74 0.020954 35.781 0.067763 305.00 0.0032787 636.83 681.00 2.2801 2.2326 3.5888 341.74 0.020954 35.781 0.067763
162.38 1975.0 undefined 639.06 683.71 2.2852 305.00 0.0032787 639.06 683.71 2.2852 2.2358 3.5782 343.30 0.020669 35.809 0.067864 305.00 0.0032787 639.06 683.71 2.2852 2.2358 3.5782 343.30 0.020669 35.809 0.067864
163.38 1996.1 undefined 641.30 686.42 2.2903 305.00 0.0032787 641.30 686.42 2.2903 2.2390 3.5678 344.86 0.020390 35.837 0.067966 305.00 0.0032787 641.30 686.42 2.2903 2.2390 3.5678 344.86 0.020390 35.837 0.067966
164.38 2017.2 undefined 643.54 689.14 2.2955 305.00 0.0032787 643.54 689.14 2.2955 2.2423 3.5579 346.41 0.020115 35.864 0.068069 305.00 0.0032787 643.54 689.14 2.2955 2.2423 3.5579 346.41 0.020115 35.864 0.068069
165.38 2038.3 undefined 645.78 691.86 2.3006 305.00 0.0032787 645.78 691.86 2.3006 2.2455 3.5482 347.96 0.019845 35.892 0.068172 305.00 0.0032787 645.78 691.86 2.3006 2.2455 3.5482 347.96 0.019845 35.892 0.068172
166.38 2059.4 undefined 648.03 694.59 2.3057 305.00 0.0032787 648.03 694.59 2.3057 2.2488 3.5388 349.49 0.019580 35.919 0.068276 305.00 0.0032787 648.03 694.59 2.3057 2.2488 3.5388 349.49 0.019580 35.919 0.068276
167.38 2080.5 undefined 650.28 697.31 2.3108 305.00 0.0032787 650.28 697.31 2.3108 2.2520 3.5298 351.01 0.019319 35.947 0.068381 305.00 0.0032787 650.28 697.31 2.3108 2.2520 3.5298 351.01 0.019319 35.947 0.068381
168.38 2101.7 undefined 652.54 700.05 2.3159 305.00 0.0032787 652.54 700.05 2.3159 2.2553 3.5210 352.53 0.019063 35.974 0.068486 305.00 0.0032787 652.54 700.05 2.3159 2.2553 3.5210 352.53 0.019063 35.974 0.068486
169.38 2122.8 undefined 654.79 702.78 2.3210 305.00 0.0032787 654.79 702.78 2.3210 2.2586 3.5125 354.04 0.018811 36.002 0.068592 305.00 0.0032787 654.79 702.78 2.3210 2.2586 3.5125 354.04 0.018811 36.002 0.068592
170.38 2144.0 undefined 657.05 705.52 2.3261 305.00 0.0032787 657.05 705.52 2.3261 2.2619 3.5043 355.54 0.018563 36.029 0.068698 305.00 0.0032787 657.05 705.52 2.3261 2.2619 3.5043 355.54 0.018563 36.029 0.068698
171.38 2165.1 undefined 659.32 708.26 2.3312 305.00 0.0032787 659.32 708.26 2.3312 2.2652 3.4963 357.04 0.018320 36.057 0.068805 305.00 0.0032787 659.32 708.26 2.3312 2.2652 3.4963 357.04 0.018320 36.057 0.068805
172.38 2186.3 undefined 661.58 711.01 2.3363 305.00 0.0032787 661.58 711.01 2.3363 2.2685 3.4886 358.52 0.018080 36.084 0.068912 305.00 0.0032787 661.58 711.01 2.3363 2.2685 3.4886 358.52 0.018080 36.084 0.068912
173.38 2207.4 undefined 663.85 713.75 2.3414 305.00 0.0032787 663.85 713.75 2.3414 2.2718 3.4811 360.00 0.017845 36.111 0.069020 305.00 0.0032787 663.85 713.75 2.3414 2.2718 3.4811 360.00 0.017845 36.111 0.069020
174.38 2228.6 undefined 666.13 716.51 2.3465 305.00 0.0032787 666.13 716.51 2.3465 2.2752 3.4738 361.47 0.017614 36.139 0.069129 305.00 0.0032787 666.13 716.51 2.3465 2.2752 3.4738 361.47 0.017614 36.139 0.069129
175.38 2249.8 undefined 668.40 719.26 2.3516 305.00 0.0032787 668.40 719.26 2.3516 2.2785 3.4668 362.94 0.017386 36.166 0.069238 305.00 0.0032787 668.40 719.26 2.3516 2.2785 3.4668 362.94 0.017386 36.166 0.069238
176.38 2271.0 undefined 670.68 722.02 2.3567 305.00 0.0032787 670.68 722.02 2.3567 2.2818 3.4600 364.39 0.017162 36.193 0.069347 305.00 0.0032787 670.68 722.02 2.3567 2.2818 3.4600 364.39 0.017162 36.193 0.069347
177.38 2292.2 undefined 672.97 724.78 2.3617 305.00 0.0032787 672.97 724.78 2.3617 2.2852 3.4534 365.84 0.016941 36.221 0.069457 305.00 0.0032787 672.97 724.78 2.3617 2.2852 3.4534 365.84 0.016941 36.221 0.069457
178.38 2313.4 undefined 675.25 727.55 2.3668 305.00 0.0032787 675.25 727.55 2.3668 2.2885 3.4471 367.29 0.016724 36.248 0.069567 305.00 0.0032787 675.25 727.55 2.3668 2.2885 3.4471 367.29 0.016724 36.248 0.069567
179.38 2334.6 undefined 677.54 730.32 2.3719 305.00 0.0032787 677.54 730.32 2.3719 2.2919 3.4409 368.72 0.016511 36.275 0.069678 305.00 0.0032787 677.54 730.32 2.3719 2.2919 3.4409 368.72 0.016511 36.275 0.069678
180.38 2355.8 undefined 679.84 733.09 2.3769 305.00 0.0032787 679.84 733.09 2.3769 2.2952 3.4349 370.15 0.016301 36.302 0.069790 305.00 0.0032787 679.84 733.09 2.3769 2.2952 3.4349 370.15 0.016301 36.302 0.069790
181.38 2377.0 undefined 682.14 735.87 2.3820 305.00 0.0032787 682.14 735.87 2.3820 2.2986 3.4291 371.58 0.016094 36.330 0.069902 305.00 0.0032787 682.14 735.87 2.3820 2.2986 3.4291 371.58 0.016094 36.330 0.069902
182.38 2398.3 undefined 684.44 738.65 2.3871 305.00 0.0032787 684.44 738.65 2.3871 2.3019 3.4235 372.99 0.015890 36.357 0.070014 305.00 0.0032787 684.44 738.65 2.3871 2.3019 3.4235 372.99 0.015890 36.357 0.070014
183.38 2419.5 undefined 686.74 741.43 2.3921 305.00 0.0032787 686.74 741.43 2.3921 2.3053 3.4180 374.40 0.015690 36.384 0.070127 305.00 0.0032787 686.74 741.43 2.3921 2.3053 3.4180 374.40 0.015690 36.384 0.070127
184.38 2440.7 undefined 689.05 744.22 2.3972 305.00 0.0032787 689.05 744.22 2.3972 2.3087 3.4127 375.81 0.015492 36.411 0.070240 305.00 0.0032787 689.05 744.22 2.3972 2.3087 3.4127 375.81 0.015492 36.411 0.070240
185.38 2462.0 undefined 691.36 747.01 2.4022 305.00 0.0032787 691.36 747.01 2.4022 2.3121 3.4076 377.20 0.015298 36.438 0.070354 305.00 0.0032787 691.36 747.01 2.4022 2.3121 3.4076 377.20 0.015298 36.438 0.070354
186.38 2483.2 undefined 693.67 749.81 2.4072 305.00 0.0032787 693.67 749.81 2.4072 2.3155 3.4027 378.60 0.015106 36.465 0.070468 305.00 0.0032787 693.67 749.81 2.4072 2.3155 3.4027 378.60 0.015106 36.465 0.070468
187.38 2504.5 undefined 695.99 752.60 2.4123 305.00 0.0032787 695.99 752.60 2.4123 2.3188 3.3979 379.98 0.014918 36.492 0.070582 305.00 0.0032787 695.99 752.60 2.4123 2.3188 3.3979 379.98 0.014918 36.492 0.070582
188.38 2525.7 undefined 698.31 755.40 2.4173 305.00 0.0032787 698.31 755.40 2.4173 2.3222 3.3932 381.36 0.014732 36.519 0.070697 305.00 0.0032787 698.31 755.40 2.4173 2.3222 3.3932 381.36 0.014732 36.519 0.070697
189.38 2547.0 undefined 700.63 758.21 2.4223 305.00 0.0032787 700.63 758.21 2.4223 2.3256 3.3887 382.73 0.014549 36.546 0.070813 305.00 0.0032787 700.63 758.21 2.4223 2.3256 3.3887 382.73 0.014549 36.546 0.070813
190.38 2568.3 undefined 702.96 761.02 2.4274 305.00 0.0032787 702.96 761.02 2.4274 2.3290 3.3844 384.10 0.014368 36.573 0.070929 305.00 0.0032787 702.96 761.02 2.4274 2.3290 3.3844 384.10 0.014368 36.573 0.070929
191.38 2589.5 undefined 705.29 763.83 2.4324 305.00 0.0032787 705.29 763.83 2.4324 2.3324 3.3802 385.46 0.014191 36.600 0.071045 305.00 0.0032787 705.29 763.83 2.4324 2.3324 3.3802 385.46 0.014191 36.600 0.071045
192.38 2610.8 undefined 707.62 766.64 2.4374 305.00 0.0032787 707.62 766.64 2.4374 2.3358 3.3761 386.82 0.014016 36.627 0.071161 305.00 0.0032787 707.62 766.64 2.4374 2.3358 3.3761 386.82 0.014016 36.627 0.071161
193.38 2632.1 undefined 709.96 769.46 2.4424 305.00 0.0032787 709.96 769.46 2.4424 2.3392 3.3722 388.17 0.013843 36.654 0.071279 305.00 0.0032787 709.96 769.46 2.4424 2.3392 3.3722 388.17 0.013843 36.654 0.071279
194.38 2653.4 undefined 712.30 772.28 2.4474 305.00 0.0032787 712.30 772.28 2.4474 2.3426 3.3684 389.51 0.013673 36.681 0.071396 305.00 0.0032787 712.30 772.28 2.4474 2.3426 3.3684 389.51 0.013673 36.681 0.071396
195.38 2674.6 undefined 714.65 775.11 2.4524 305.00 0.0032787 714.65 775.11 2.4524 2.3460 3.3647 390.85 0.013505 36.707 0.071514 305.00 0.0032787 714.65 775.11 2.4524 2.3460 3.3647 390.85 0.013505 36.707 0.071514
196.38 2695.9 undefined 716.99 777.94 2.4575 305.00 0.0032787 716.99 777.94 2.4575 2.3495 3.3611 392.18 0.013340 36.734 0.071632 305.00 0.0032787 716.99 777.94 2.4575 2.3495 3.3611 392.18 0.013340 36.734 0.071632
197.38 2717.2 undefined 719.35 780.77 2.4625 305.00 0.0032787 719.35 780.77 2.4625 2.3529 3.3577 393.51 0.013177 36.761 0.071751 305.00 0.0032787 719.35 780.77 2.4625 2.3529 3.3577 393.51 0.013177 36.761 0.071751
198.38 2738.5 undefined 721.70 783.61 2.4675 305.00 0.0032787 721.70 783.61 2.4675 2.3563 3.3543 394.83 0.013016 36.788 0.071870 305.00 0.0032787 721.70 783.61 2.4675 2.3563 3.3543 394.83 0.013016 36.788 0.071870
199.38 2759.8 undefined 724.06 786.45 2.4724 305.00 0.0032787 724.06 786.45 2.4724 2.3597 3.3511 396.15 0.012858 36.814 0.071989 305.00 0.0032787 724.06 786.45 2.4724 2.3597 3.3511 396.15 0.012858 36.814 0.071989
200.38 2781.1 undefined 726.42 789.29 2.4774 305.00 0.0032787 726.42 789.29 2.4774 2.3631 3.3480 397.46 0.012702 36.841 0.072109 305.00 0.0032787 726.42 789.29 2.4774 2.3631 3.3480 397.46 0.012702 36.841 0.072109
201.38 2802.4 undefined 728.78 792.14 2.4824 305.00 0.0032787 728.78 792.14 2.4824 2.3665 3.3450 398.77 0.012548 36.868 0.072229 305.00 0.0032787 728.78 792.14 2.4824 2.3665 3.3450 398.77 0.012548 36.868 0.072229
202.38 2823.7 undefined 731.15 794.99 2.4874 305.00 0.0032787 731.15 794.99 2.4874 2.3700 3.3421 400.07 0.012396 36.895 0.072350 305.00 0.0032787 731.15 794.99 2.4874 2.3700 3.3421 400.07 0.012396 36.895 0.072350
203.38 2845.0 undefined 733.52 797.84 2.4924 305.00 0.0032787 733.52 797.84 2.4924 2.3734 3.3393 401.37 0.012246 36.921 0.072471 305.00 0.0032787 733.52 797.84 2.4924 2.3734 3.3393 401.37 0.012246 36.921 0.072471
204.38 2866.4 undefined 735.90 800.70 2.4974 305.00 0.0032787 735.90 800.70 2.4974 2.3768 3.3366 402.66 0.012098 36.948 0.072592 305.00 0.0032787 735.90 800.70 2.4974 2.3768 3.3366 402.66 0.012098 36.948 0.072592
205.38 2887.7 undefined 738.28 803.56 2.5024 305.00 0.0032787 738.28 803.56 2.5024 2.3802 3.3340 403.95 0.011952 36.974 0.072714 305.00 0.0032787 738.28 803.56 2.5024 2.3802 3.3340 403.95 0.011952 36.974 0.072714
206.38 2909.0 undefined 740.66 806.42 2.5073 305.00 0.0032787 740.66 806.42 2.5073 2.3837 3.3315 405.23 0.011808 37.001 0.072836 305.00 0.0032787 740.66 806.42 2.5073 2.3837 3.3315 405.23 0.011808 37.001 0.072836
207.38 2930.3 undefined 743.05 809.29 2.5123 305.00 0.0032787 743.05 809.29 2.5123 2.3871 3.3291 406.50 0.011667 37.027 0.072958 305.00 0.0032787 743.05 809.29 2.5123 2.3871 3.3291 406.50 0.011667 37.027 0.072958
208.38 2951.6 undefined 745.43 812.16 2.5173 305.00 0.0032787 745.43 812.16 2.5173 2.3905 3.3267 407.78 0.011527 37.054 0.073081 305.00 0.0032787 745.43 812.16 2.5173 2.3905 3.3267 407.78 0.011527 37.054 0.073081
209.38 2973.0 undefined 747.83 815.03 2.5222 305.00 0.0032787 747.83 815.03 2.5222 2.3940 3.3245 409.04 0.011388 37.080 0.073204 305.00 0.0032787 747.83 815.03 2.5222 2.3940 3.3245 409.04 0.011388 37.080 0.073204
210.38 2994.3 undefined 750.22 817.91 2.5272 305.00 0.0032787 750.22 817.91 2.5272 2.3974 3.3223 410.30 0.011252 37.107 0.073327 305.00 0.0032787 750.22 817.91 2.5272 2.3974 3.3223 410.30 0.011252 37.107 0.073327
211.38 3015.6 undefined 752.62 820.79 2.5321 305.00 0.0032787 752.62 820.79 2.5321 2.4008 3.3203 411.56 0.011117 37.133 0.073451 305.00 0.0032787 752.62 820.79 2.5321 2.4008 3.3203 411.56 0.011117 37.133 0.073451
212.38 3036.9 undefined 755.02 823.68 2.5371 305.00 0.0032787 755.02 823.68 2.5371 2.4043 3.3183 412.82 0.010985 37.160 0.073575 305.00 0.0032787 755.02 823.68 2.5371 2.4043 3.3183 412.82 0.010985 37.160 0.073575
213.38 3058.3 undefined 757.43 826.56 2.5420 305.00 0.0032787 757.43 826.56 2.5420 2.4077 3.3164 414.06 0.010853 37.186 0.073699 305.00 0.0032787 757.43 826.56 2.5420 2.4077 3.3164 414.06 0.010853 37.186 0.073699
214.38 3079.6 undefined 759.84 829.46 2.5470 305.00 0.0032787 759.84 829.46 2.5470 2.4111 3.3145 415.31 0.010724 37.213 0.073824 305.00 0.0032787 759.84 829.46 2.5470 2.4111 3.3145 415.31 0.010724 37.213 0.073824
215.38 3100.9 undefined 762.25 832.35 2.5519 305.00 0.0032787 762.25 832.35 2.5519 2.4146 3.3128 416.55 0.010596 37.239 0.073949 305.00 0.0032787 762.25 832.35 2.5519 2.4146 3.3128 416.55 0.010596 37.239 0.073949
216.38 3122.2 undefined 764.67 835.25 2.5569 305.00 0.0032787 764.67 835.25 2.5569 2.4180 3.3111 417.78 0.010470 37.265 0.074075 305.00 0.0032787 764.67 835.25 2.5569 2.4180 3.3111 417.78 0.010470 37.265 0.074075
217.38 3143.6 undefined 767.09 838.15 2.5618 305.00 0.0032787 767.09 838.15 2.5618 2.4215 3.3095 419.01 0.010346 37.292 0.074200 305.00 0.0032787 767.09 838.15 2.5618 2.4215 3.3095 419.01 0.010346 37.292 0.074200
218.38 3164.9 undefined 769.51 841.06 2.5667 305.00 0.0032787 769.51 841.06 2.5667 2.4249 3.3080 420.24 0.010223 37.318 0.074326 305.00 0.0032787 769.51 841.06 2.5667 2.4249 3.3080 420.24 0.010223 37.318 0.074326
219.38 3186.2 undefined 771.94 843.97 2.5717 305.00 0.0032787 771.94 843.97 2.5717 2.4283 3.3065 421.46 0.010101 37.344 0.074453 305.00 0.0032787 771.94 843.97 2.5717 2.4283 3.3065 421.46 0.010101 37.344 0.074453
220.38 3207.6 undefined 774.37 846.88 2.5766 305.00 0.0032787 774.37 846.88 2.5766 2.4318 3.3051 422.68 0.0099815 37.370 0.074579 305.00 0.0032787 774.37 846.88 2.5766 2.4318 3.3051 422.68 0.0099815 37.370 0.074579
221.38 3228.9 undefined 776.80 849.79 2.5815 305.00 0.0032787 776.80 849.79 2.5815 2.4352 3.3037 423.89 0.0098631 37.397 0.074706 305.00 0.0032787 776.80 849.79 2.5815 2.4352 3.3037 423.89 0.0098631 37.397 0.074706
222.38 3250.3 undefined 779.24 852.71 2.5865 305.00 0.0032787 779.24 852.71 2.5865 2.4387 3.3025 425.10 0.0097462 37.423 0.074834 305.00 0.0032787 779.24 852.71 2.5865 2.4387 3.3025 425.10 0.0097462 37.423 0.074834
223.38 3271.6 undefined 781.68 855.64 2.5914 305.00 0.0032787 781.68 855.64 2.5914 2.4421 3.3013 426.31 0.0096307 37.449 0.074961 305.00 0.0032787 781.68 855.64 2.5914 2.4421 3.3013 426.31 0.0096307 37.449 0.074961
224.38 3292.9 undefined 784.12 858.56 2.5963 305.00 0.0032787 784.12 858.56 2.5963 2.4455 3.3001 427.51 0.0095167 37.475 0.075089 305.00 0.0032787 784.12 858.56 2.5963 2.4455 3.3001 427.51 0.0095167 37.475 0.075089
225.38 3314.3 undefined 786.57 861.49 2.6012 305.00 0.0032787 786.57 861.49 2.6012 2.4490 3.2990 428.70 0.0094040 37.501 0.075217 305.00 0.0032787 786.57 861.49 2.6012 2.4490 3.2990 428.70 0.0094040 37.501 0.075217
226.38 3335.6 undefined 789.02 864.42 2.6061 305.00 0.0032787 789.02 864.42 2.6061 2.4524 3.2980 429.90 0.0092928 37.527 0.075346 305.00 0.0032787 789.02 864.42 2.6061 2.4524 3.2980 429.90 0.0092928 37.527 0.075346
227.38 3356.9 undefined 791.47 867.36 2.6110 305.00 0.0032787 791.47 867.36 2.6110 2.4559 3.2971 431.09 0.0091829 37.553 0.075475 305.00 0.0032787 791.47 867.36 2.6110 2.4559 3.2971 431.09 0.0091829 37.553 0.075475
228.38 3378.3 undefined 793.93 870.30 2.6159 305.00 0.0032787 793.93 870.30 2.6159 2.4593 3.2962 432.27 0.0090743 37.579 0.075604 305.00 0.0032787 793.93 870.30 2.6159 2.4593 3.2962 432.27 0.0090743 37.579 0.075604
229.38 3399.6 undefined 796.39 873.24 2.6208 305.00 0.0032787 796.39 873.24 2.6208 2.4627 3.2953 433.45 0.0089670 37.605 0.075733 305.00 0.0032787 796.39 873.24 2.6208 2.4627 3.2953 433.45 0.0089670 37.605 0.075733
230.38 3420.9 undefined 798.86 876.19 2.6257 305.00 0.0032787 798.86 876.19 2.6257 2.4662 3.2945 434.63 0.0088610 37.631 0.075863 305.00 0.0032787 798.86 876.19 2.6257 2.4662 3.2945 434.63 0.0088610 37.631 0.075863
231.38 3442.3 undefined 801.33 879.14 2.6306 305.00 0.0032787 801.33 879.14 2.6306 2.4696 3.2938 435.80 0.0087563 37.657 0.075993 305.00 0.0032787 801.33 879.14 2.6306 2.4696 3.2938 435.80 0.0087563 37.657 0.075993
232.38 3463.6 undefined 803.80 882.09 2.6355 305.00 0.0032787 803.80 882.09 2.6355 2.4730 3.2931 436.97 0.0086528 37.683 0.076123 305.00 0.0032787 803.80 882.09 2.6355 2.4730 3.2931 436.97 0.0086528 37.683 0.076123
233.38 3484.9 undefined 806.27 885.05 2.6404 305.00 0.0032787 806.27 885.05 2.6404 2.4765 3.2924 438.14 0.0085505 37.709 0.076253 305.00 0.0032787 806.27 885.05 2.6404 2.4765 3.2924 438.14 0.0085505 37.709 0.076253
234.38 3506.3 undefined 808.75 888.01 2.6453 305.00 0.0032787 808.75 888.01 2.6453 2.4799 3.2918 439.30 0.0084495 37.735 0.076384 305.00 0.0032787 808.75 888.01 2.6453 2.4799 3.2918 439.30 0.0084495 37.735 0.076384
235.38 3527.6 undefined 811.23 890.98 2.6502 305.00 0.0032787 811.23 890.98 2.6502 2.4834 3.2913 440.46 0.0083496 37.761 0.076515 305.00 0.0032787 811.23 890.98 2.6502 2.4834 3.2913 440.46 0.0083496 37.761 0.076515
236.38 3548.9 undefined 813.72 893.94 2.6551 305.00 0.0032787 813.72 893.94 2.6551 2.4868 3.2908 441.61 0.0082509 37.787 0.076646 305.00 0.0032787 813.72 893.94 2.6551 2.4868 3.2908 441.61 0.0082509 37.787 0.076646
237.38 3570.3 undefined 816.21 896.91 2.6599 305.00 0.0032787 816.21 896.91 2.6599 2.4902 3.2904 442.76 0.0081533 37.812 0.076778 305.00 0.0032787 816.21 896.91 2.6599 2.4902 3.2904 442.76 0.0081533 37.812 0.076778
238.38 3591.6 undefined 818.70 899.89 2.6648 305.00 0.0032787 818.70 899.89 2.6648 2.4937 3.2900 443.91 0.0080569 37.838 0.076910 305.00 0.0032787 818.70 899.89 2.6648 2.4937 3.2900 443.91 0.0080569 37.838 0.076910
239.38 3612.9 undefined 821.19 902.87 2.6697 305.00 0.0032787 821.19 902.87 2.6697 2.4971 3.2896 445.05 0.0079616 37.864 0.077042 305.00 0.0032787 821.19 902.87 2.6697 2.4971 3.2896 445.05 0.0079616 37.864 0.077042
240.38 3634.3 undefined 823.69 905.85 2.6746 305.00 0.0032787 823.69 905.85 2.6746 2.5005 3.2893 446.19 0.0078673 37.890 0.077174 305.00 0.0032787 823.69 905.85 2.6746 2.5005 3.2893 446.19 0.0078673 37.890 0.077174
241.38 3655.6 undefined 826.19 908.83 2.6794 305.00 0.0032787 826.19 908.83 2.6794 2.5039 3.2890 447.33 0.0077742 37.915 0.077306 305.00 0.0032787 826.19 908.83 2.6794 2.5039 3.2890 447.33 0.0077742 37.915 0.077306
242.38 3676.9 undefined 828.70 911.82 2.6843 305.00 0.0032787 828.70 911.82 2.6843 2.5074 3.2888 448.46 0.0076821 37.941 0.077439 305.00 0.0032787 828.70 911.82 2.6843 2.5074 3.2888 448.46 0.0076821 37.941 0.077439
243.38 3698.3 undefined 831.21 914.81 2.6892 305.00 0.0032787 831.21 914.81 2.6892 2.5108 3.2886 449.59 0.0075911 37.967 0.077572 305.00 0.0032787 831.21 914.81 2.6892 2.5108 3.2886 449.59 0.0075911 37.967 0.077572
244.38 3719.6 undefined 833.72 917.80 2.6940 305.00 0.0032787 833.72 917.80 2.6940 2.5142 3.2885 450.72 0.0075011 37.992 0.077705 305.00 0.0032787 833.72 917.80 2.6940 2.5142 3.2885 450.72 0.0075011 37.992 0.077705
245.38 3740.9 undefined 836.24 920.80 2.6989 305.00 0.0032787 836.24 920.80 2.6989 2.5177 3.2884 451.84 0.0074121 38.018 0.077839 305.00 0.0032787 836.24 920.80 2.6989 2.5177 3.2884 451.84 0.0074121 38.018 0.077839
246.38 3762.2 undefined 838.76 923.80 2.7037 305.00 0.0032787 838.76 923.80 2.7037 2.5211 3.2883 452.96 0.0073241 38.044 0.077972 305.00 0.0032787 838.76 923.80 2.7037 2.5211 3.2883 452.96 0.0073241 38.044 0.077972
247.38 3783.5 undefined 841.28 926.81 2.7086 305.00 0.0032787 841.28 926.81 2.7086 2.5245 3.2883 454.07 0.0072371 38.069 0.078106 305.00 0.0032787 841.28 926.81 2.7086 2.5245 3.2883 454.07 0.0072371 38.069 0.078106
248.38 3804.9 undefined 843.81 929.82 2.7134 305.00 0.0032787 843.81 929.82 2.7134 2.5279 3.2883 455.19 0.0071510 38.095 0.078240 305.00 0.0032787 843.81 929.82 2.7134 2.5279 3.2883 455.19 0.0071510 38.095 0.078240
249.38 3826.2 undefined 846.33 932.83 2.7183 305.00 0.0032787 846.33 932.83 2.7183 2.5314 3.2884 456.29 0.0070660 38.120 0.078374 305.00 0.0032787 846.33 932.83 2.7183 2.5314 3.2884 456.29 0.0070660 38.120 0.078374
250.38 3847.5 undefined 848.87 935.84 2.7231 305.00 0.0032787 848.87 935.84 2.7231 2.5348 3.2885 457.40 0.0069818 38.146 0.078508 305.00 0.0032787 848.87 935.84 2.7231 2.5348 3.2885 457.40 0.0069818 38.146 0.078508
251.38 3868.8 undefined 851.40 938.86 2.7280 305.00 0.0032787 851.40 938.86 2.7280 2.5382 3.2886 458.50 0.0068986 38.171 0.078643 305.00 0.0032787 851.40 938.86 2.7280 2.5382 3.2886 458.50 0.0068986 38.171 0.078643
252.38 3890.1 undefined 853.94 941.88 2.7328 305.00 0.0032787 853.94 941.88 2.7328 2.5416 3.2888 459.60 0.0068163 38.197 0.078778 305.00 0.0032787 853.94 941.88 2.7328 2.5416 3.2888 459.60 0.0068163 38.197 0.078778
253.38 3911.4 undefined 856.49 944.91 2.7376 305.00 0.0032787 856.49 944.91 2.7376 2.5450 3.2890 460.70 0.0067349 38.222 0.078913 305.00 0.0032787 856.49 944.91 2.7376 2.5450 3.2890 460.70 0.0067349 38.222 0.078913
254.38 3932.7 undefined 859.03 947.94 2.7425 305.00 0.0032787 859.03 947.94 2.7425 2.5484 3.2892 461.79 0.0066544 38.248 0.079048 305.00 0.0032787 859.03 947.94 2.7425 2.5484 3.2892 461.79 0.0066544 38.248 0.079048
255.38 3954.0 undefined 861.58 950.97 2.7473 305.00 0.0032787 861.58 950.97 2.7473 2.5519 3.2895 462.88 0.0065747 38.273 0.079183 305.00 0.0032787 861.58 950.97 2.7473 2.5519 3.2895 462.88 0.0065747 38.273 0.079183
256.38 3975.4 undefined 864.14 954.00 2.7521 305.00 0.0032787 864.14 954.00 2.7521 2.5553 3.2898 463.97 0.0064960 38.298 0.079318 305.00 0.0032787 864.14 954.00 2.7521 2.5553 3.2898 463.97 0.0064960 38.298 0.079318
257.38 3996.7 undefined 866.69 957.04 2.7569 305.00 0.0032787 866.69 957.04 2.7569 2.5587 3.2901 465.05 0.0064180 38.324 0.079453 305.00 0.0032787 866.69 957.04 2.7569 2.5587 3.2901 465.05 0.0064180 38.324 0.079453
258.38 4018.0 undefined 869.26 960.08 2.7618 305.00 0.0032787 869.26 960.08 2.7618 2.5621 3.2905 466.13 0.0063409 38.349 0.079589 305.00 0.0032787 869.26 960.08 2.7618 2.5621 3.2905 466.13 0.0063409 38.349 0.079589
259.38 4039.3 undefined 871.82 963.13 2.7666 305.00 0.0032787 871.82 963.13 2.7666 2.5655 3.2909 467.21 0.0062647 38.374 0.079724 305.00 0.0032787 871.82 963.13 2.7666 2.5655 3.2909 467.21 0.0062647 38.374 0.079724
260.38 4060.6 undefined 874.39 966.18 2.7714 305.00 0.0032787 874.39 966.18 2.7714 2.5689 3.2913 468.28 0.0061892 38.400 0.079860 305.00 0.0032787 874.39 966.18 2.7714 2.5689 3.2913 468.28 0.0061892 38.400 0.079860
261.38 4081.8 undefined 876.96 969.23 2.7762 305.00 0.0032787 876.96 969.23 2.7762 2.5723 3.2918 469.35 0.0061145 38.425 0.079995 305.00 0.0032787 876.96 969.23 2.7762 2.5723 3.2918 469.35 0.0061145 38.425 0.079995
262.38 4103.1 undefined 879.53 972.29 2.7810 305.00 0.0032787 879.53 972.29 2.7810 2.5757 3.2922 470.42 0.0060407 38.450 0.080131 305.00 0.0032787 879.53 972.29 2.7810 2.5757 3.2922 470.42 0.0060407 38.450 0.080131
263.38 4124.4 undefined 882.11 975.34 2.7858 305.00 0.0032787 882.11 975.34 2.7858 2.5791 3.2928 471.49 0.0059676 38.475 0.080267 305.00 0.0032787 882.11 975.34 2.7858 2.5791 3.2928 471.49 0.0059676 38.475 0.080267
264.38 4145.7 undefined 884.69 978.41 2.7906 305.00 0.0032787 884.69 978.41 2.7906 2.5825 3.2933 472.55 0.0058953 38.500 0.080402 305.00 0.0032787 884.69 978.41 2.7906 2.5825 3.2933 472.55 0.0058953 38.500 0.080402
265.38 4167.0 undefined 887.27 981.47 2.7954 305.00 0.0032787 887.27 981.47 2.7954 2.5859 3.2939 473.61 0.0058237 38.525 0.080538 305.00 0.0032787 887.27 981.47 2.7954 2.5859 3.2939 473.61 0.0058237 38.525 0.080538
266.38 4188.3 undefined 889.86 984.54 2.8002 305.00 0.0032787 889.86 984.54 2.8002 2.5893 3.2945 474.67 0.0057529 38.551 0.080673 305.00 0.0032787 889.86 984.54 2.8002 2.5893 3.2945 474.67 0.0057529 38.551 0.080673
267.38 4209.6 undefined 892.45 987.61 2.8050 305.00 0.0032787 892.45 987.61 2.8050 2.5927 3.2951 475.72 0.0056828 38.576 0.080808 305.00 0.0032787 892.45 987.61 2.8050 2.5927 3.2951 475.72 0.0056828 38.576 0.080808
268.38 4230.8 undefined 895.05 990.69 2.8098 305.00 0.0032787 895.05 990.69 2.8098 2.5961 3.2957 476.77 0.0056135 38.601 0.080943 305.00 0.0032787 895.05 990.69 2.8098 2.5961 3.2957 476.77 0.0056135 38.601 0.080943
269.38 4252.1 undefined 897.64 993.77 2.8146 305.00 0.0032787 897.64 993.77 2.8146 2.5995 3.2964 477.82 0.0055449 38.626 0.081078 305.00 0.0032787 897.64 993.77 2.8146 2.5995 3.2964 477.82 0.0055449 38.626 0.081078
270.38 4273.4 undefined 900.25 996.85 2.8194 305.00 0.0032787 900.25 996.85 2.8194 2.6028 3.2971 478.87 0.0054770 38.651 0.081212 305.00 0.0032787 900.25 996.85 2.8194 2.6028 3.2971 478.87 0.0054770 38.651 0.081212
271.38 4294.7 undefined 902.85 999.93 2.8242 305.00 0.0032787 902.85 999.93 2.8242 2.6062 3.2978 479.91 0.0054097 38.676 0.081346 305.00 0.0032787 902.85 999.93 2.8242 2.6062 3.2978 479.91 0.0054097 38.676 0.081346
272.38 4315.9 undefined 905.46 1003.0 2.8290 305.00 0.0032787 905.46 1003.0 2.8290 2.6096 3.2986 480.95 0.0053432 38.701 0.081479 305.00 0.0032787 905.46 1003.0 2.8290 2.6096 3.2986 480.95 0.0053432 38.701 0.081479
273.38 4337.2 undefined 908.07 1006.1 2.8338 305.00 0.0032787 908.07 1006.1 2.8338 2.6130 3.2994 481.98 0.0052773 38.726 0.081612 305.00 0.0032787 908.07 1006.1 2.8338 2.6130 3.2994 481.98 0.0052773 38.726 0.081612
274.38 4358.5 undefined 910.68 1009.2 2.8386 305.00 0.0032787 910.68 1009.2 2.8386 2.6164 3.3002 483.02 0.0052122 38.751 0.081743 305.00 0.0032787 910.68 1009.2 2.8386 2.6164 3.3002 483.02 0.0052122 38.751 0.081743
275.38 4379.7 undefined 913.30 1012.3 2.8433 305.00 0.0032787 913.30 1012.3 2.8433 2.6197 3.3010 484.05 0.0051476 38.776 0.081873 305.00 0.0032787 913.30 1012.3 2.8433 2.6197 3.3010 484.05 0.0051476 38.776 0.081873
276.38 4401.0 undefined 915.92 1015.4 2.8481 305.00 0.0032787 915.92 1015.4 2.8481 2.6231 3.3018 485.08 0.0050838 38.800 0.082002 305.00 0.0032787 915.92 1015.4 2.8481 2.6231 3.3018 485.08 0.0050838 38.800 0.082002
277.38 4422.2 undefined 918.55 1018.5 2.8529 305.00 0.0032787 918.55 1018.5 2.8529 2.6265 3.3027 486.10 0.0050206 38.825 0.082129 305.00 0.0032787 918.55 1018.5 2.8529 2.6265 3.3027 486.10 0.0050206 38.825 0.082129
278.38 4443.5 undefined 921.18 1021.6 2.8577 305.00 0.0032787 921.18 1021.6 2.8577 2.6299 3.3036 487.13 0.0049580 38.850 0.082252 305.00 0.0032787 921.18 1021.6 2.8577 2.6299 3.3036 487.13 0.0049580 38.850 0.082252
279.38 4464.7 undefined 923.81 1024.7 2.8624 305.00 0.0032787 923.81 1024.7 2.8624 2.6332 3.3045 488.15 0.0048960 38.875 0.082370 305.00 0.0032787 923.81 1024.7 2.8624 2.6332 3.3045 488.15 0.0048960 38.875 0.082370
280.38 4486.0 undefined 926.44 1027.9 2.8672 305.00 0.0032787 926.44 1027.9 2.8672 2.6366 3.3054 489.17 0.0048347 38.900 0.082479 305.00 0.0032787 926.44 1027.9 2.8672 2.6366 3.3054 489.17 0.0048347 38.900 0.082479
281.38 4507.2 undefined 929.08 1031.0 2.8719 305.00 0.0032787 929.08 1031.0 2.8719 2.6399 3.3064 490.18 0.0047740 38.924 0.082557 305.00 0.0032787 929.08 1031.0 2.8719 2.6399 3.3064 490.18 0.0047740 38.924 0.082557
282.38 4528.5 undefined 931.72 1034.1 2.8767 305.00 0.0032787 931.72 1034.1 2.8767 2.6433 3.3074 491.20 0.0047138 38.949 0.082659 305.00 0.0032787 931.72 1034.1 2.8767 2.6433 3.3074 491.20 0.0047138 38.949 0.082659
283.38 4549.7 undefined 934.37 1037.2 2.8815 305.00 0.0032787 934.37 1037.2 2.8815 2.6467 3.3084 492.21 0.0046543 38.974 0.082816 305.00 0.0032787 934.37 1037.2 2.8815 2.6467 3.3084 492.21 0.0046543 38.974 0.082816
284.38 4570.9 undefined 937.02 1040.3 2.8862 305.00 0.0032787 937.02 1040.3 2.8862 2.6500 3.3094 493.21 0.0045954 38.999 0.082972 305.00 0.0032787 937.02 1040.3 2.8862 2.6500 3.3094 493.21 0.0045954 38.999 0.082972
285.38 4592.2 undefined 939.67 1043.5 2.8910 305.00 0.0032787 939.67 1043.5 2.8910 2.6534 3.3104 494.22 0.0045370 39.023 0.083129 305.00 0.0032787 939.67 1043.5 2.8910 2.6534 3.3104 494.22 0.0045370 39.023 0.083129
286.38 4613.4 undefined 942.32 1046.6 2.8957 305.00 0.0032787 942.32 1046.6 2.8957 2.6567 3.3115 495.22 0.0044792 39.048 0.083286 305.00 0.0032787 942.32 1046.6 2.8957 2.6567 3.3115 495.22 0.0044792 39.048 0.083286
287.38 4634.6 undefined 944.98 1049.7 2.9005 305.00 0.0032787 944.98 1049.7 2.9005 2.6601 3.3125 496.22 0.0044220 39.072 0.083444 305.00 0.0032787 944.98 1049.7 2.9005 2.6601 3.3125 496.22 0.0044220 39.072 0.083444
288.38 4655.8 undefined 947.64 1052.9 2.9052 305.00 0.0032787 947.64 1052.9 2.9052 2.6634 3.3136 497.22 0.0043653 39.097 0.083602 305.00 0.0032787 947.64 1052.9 2.9052 2.6634 3.3136 497.22 0.0043653 39.097 0.083602
289.38 4677.1 undefined 950.31 1056.0 2.9100 305.00 0.0032787 950.31 1056.0 2.9100 2.6668 3.3147 498.22 0.0043092 39.122 0.083760 305.00 0.0032787 950.31 1056.0 2.9100 2.6668 3.3147 498.22 0.0043092 39.122 0.083760
290.38 4698.3 undefined 952.98 1059.2 2.9147 305.00 0.0032787 952.98 1059.2 2.9147 2.6701 3.3159 499.21 0.0042536 39.146 0.083918 305.00 0.0032787 952.98 1059.2 2.9147 2.6701 3.3159 499.21 0.0042536 39.146 0.083918
291.38 4719.5 undefined 955.65 1062.3 2.9194 305.00 0.0032787 955.65 1062.3 2.9194 2.6734 3.3170 500.20 0.0041986 39.171 0.084077 305.00 0.0032787 955.65 1062.3 2.9194 2.6734 3.3170 500.20 0.0041986 39.171 0.084077
292.38 4740.7 undefined 958.32 1065.5 2.9242 305.00 0.0032787 958.32 1065.5 2.9242 2.6768 3.3182 501.19 0.0041441 39.195 0.084236 305.00 0.0032787 958.32 1065.5 2.9242 2.6768 3.3182 501.19 0.0041441 39.195 0.084236
293.38 4761.9 undefined 961.00 1068.6 2.9289 305.00 0.0032787 961.00 1068.6 2.9289 2.6801 3.3194 502.17 0.0040901 39.220 0.084395 305.00 0.0032787 961.00 1068.6 2.9289 2.6801 3.3194 502.17 0.0040901 39.220 0.084395
294.38 4783.1 undefined 963.68 1071.8 2.9336 305.00 0.0032787 963.68 1071.8 2.9336 2.6834 3.3205 503.16 0.0040367 39.244 0.084555 305.00 0.0032787 963.68 1071.8 2.9336 2.6834 3.3205 503.16 0.0040367 39.244 0.084555
295.38 4804.3 undefined 966.37 1075.0 2.9384 305.00 0.0032787 966.37 1075.0 2.9384 2.6867 3.3218 504.14 0.0039837 39.269 0.084715 305.00 0.0032787 966.37 1075.0 2.9384 2.6867 3.3218 504.14 0.0039837 39.269 0.084715
296.38 4825.5 undefined 969.06 1078.1 2.9431 305.00 0.0032787 969.06 1078.1 2.9431 2.6901 3.3230 505.12 0.0039313 39.293 0.084875 305.00 0.0032787 969.06 1078.1 2.9431 2.6901 3.3230 505.12 0.0039313 39.293 0.084875
297.38 4846.7 undefined 971.75 1081.3 2.9478 305.00 0.0032787 971.75 1081.3 2.9478 2.6934 3.3242 506.09 0.0038794 39.317 0.085035 305.00 0.0032787 971.75 1081.3 2.9478 2.6934 3.3242 506.09 0.0038794 39.317 0.085035
298.38 4867.9 undefined 974.44 1084.5 2.9525 305.00 0.0032787 974.44 1084.5 2.9525 2.6967 3.3255 507.07 0.0038279 39.342 0.085196 305.00 0.0032787 974.44 1084.5 2.9525 2.6967 3.3255 507.07 0.0038279 39.342 0.085196
299.38 4889.1 undefined 977.14 1087.7 2.9572 305.00 0.0032787 977.14 1087.7 2.9572 2.7000 3.3268 508.04 0.0037769 39.366 0.085357 305.00 0.0032787 977.14 1087.7 2.9572 2.7000 3.3268 508.04 0.0037769 39.366 0.085357
300.38 4910.2 undefined 979.84 1090.8 2.9619 305.00 0.0032787 979.84 1090.8 2.9619 2.7033 3.3281 509.01 0.0037265 39.390 0.085518 305.00 0.0032787 979.84 1090.8 2.9619 2.7033 3.3281 509.01 0.0037265 39.390 0.085518