Temperature (C) Pressure (psia) Quality (l+v) Internal Energy (l+v, kJ/kg) Enthalpy (l+v, kJ/kg) Entropy (l+v, J/g*K) Density (l, kg/m3) Volume (l, m3/kg) Internal Energy (l, kJ/kg) Enthalpy (l, kJ/kg) Entropy (l, J/g*K) Cv (l, J/g*K) Cp (l, J/g*K) Sound Spd. (l, m/s) Joule-Thomson (l, F/psia) Viscosity (l, uPa*s) Therm. Cond. (l, W/m*K) Density (v, kg/m3) Volume (v, m3/kg) Internal Energy (v, kJ/kg) Enthalpy (v, kJ/kg) Entropy (v, J/g*K) Cv (v, J/g*K) Cp (v, J/g*K) Sound Spd. (v, m/s) Joule-Thomson (v, F/psia) Viscosity (v, uPa*s) Therm. Cond. (v, W/m*K)
-187.62 2.4953e-08 1.7777e-11 -196.64 -196.64 -1.3959 733.13 0.0013640 -196.64 -196.64 -1.3959 1.3553 1.9158 2136.4 -0.0077592 10960. 0.20792 1.0669e-08 9.3732e+07 350.13 366.26 5.1858 0.69067 0.87923 143.28 6.1051 2.3259 0.0017061
-186.62 3.7339e-08 2.6263e-11 -194.73 -194.73 -1.3736 732.08 0.0013660 -194.73 -194.73 -1.3736 1.3539 1.9166 2129.6 -0.0077546 10073. 0.20765 1.5780e-08 6.3371e+07 350.82 367.14 5.1200 0.69462 0.88317 144.03 5.9178 2.3534 0.0017533
-185.62 5.5322e-08 3.8422e-11 -192.81 -192.81 -1.3516 731.04 0.0013679 -192.81 -192.81 -1.3516 1.3525 1.9174 2122.9 -0.0077498 9276.1 0.20737 2.3112e-08 4.3267e+07 351.52 368.02 5.0561 0.69857 0.88713 144.77 5.7383 2.3808 0.0018007
-184.62 8.1182e-08 5.5680e-11 -190.89 -190.89 -1.3298 730.00 0.0013699 -190.89 -190.89 -1.3298 1.3513 1.9182 2116.1 -0.0077448 8557.8 0.20708 3.3533e-08 2.9821e+07 352.22 368.91 4.9939 0.70253 0.89108 145.51 5.5662 2.4083 0.0018485
-183.62 1.1803e-07 7.9957e-11 -188.97 -188.97 -1.3083 728.96 0.0013718 -188.97 -188.97 -1.3083 1.3501 1.9191 2109.3 -0.0077395 7909.8 0.20678 4.8211e-08 2.0742e+07 352.92 369.81 4.9333 0.70648 0.89504 146.24 5.4011 2.4357 0.0018965
-182.62 1.7009e-07 1.1381e-10 -187.05 -187.05 -1.2869 727.92 0.0013738 -187.05 -187.05 -1.2869 1.3490 1.9201 2102.5 -0.0077340 7324.3 0.20647 6.8704e-08 1.4555e+07 353.63 370.70 4.8744 0.71043 0.89899 146.97 5.2426 2.4632 0.0019448
-181.62 2.4299e-07 1.6062e-10 -185.13 -185.13 -1.2658 726.88 0.0013757 -185.13 -185.13 -1.2658 1.3480 1.9210 2095.7 -0.0077283 6794.5 0.20616 9.7079e-08 1.0301e+07 354.35 371.60 4.8170 0.71438 0.90294 147.69 5.0904 2.4906 0.0019934
-180.62 3.4425e-07 2.2483e-10 -183.21 -183.21 -1.2450 725.85 0.0013777 -183.21 -183.21 -1.2450 1.3470 1.9220 2088.9 -0.0077225 6314.4 0.20584 1.3605e-07 7.3504e+06 355.06 372.51 4.7612 0.71833 0.90688 148.41 4.9442 2.5181 0.0020423
-179.62 4.8378e-07 3.1222e-10 -181.29 -181.29 -1.2243 724.81 0.0013797 -181.29 -181.29 -1.2243 1.3461 1.9231 2082.0 -0.0077164 5878.8 0.20551 1.8915e-07 5.2868e+06 355.78 373.42 4.7068 0.72227 0.91082 149.13 4.8038 2.5456 0.0020915
-178.62 6.7459e-07 4.3024e-10 -179.37 -179.37 -1.2038 723.78 0.0013816 -179.37 -179.37 -1.2038 1.3453 1.9241 2075.2 -0.0077102 5482.9 0.20517 2.6096e-07 3.8320e+06 356.51 374.33 4.6538 0.72620 0.91475 149.84 4.6688 2.5731 0.0021410
-177.62 9.3358e-07 5.8848e-10 -177.44 -177.44 -1.1836 722.75 0.0013836 -177.44 -177.44 -1.1836 1.3445 1.9252 2068.4 -0.0077039 5122.6 0.20483 3.5737e-07 2.7982e+06 357.23 375.25 4.6022 0.73012 0.91867 150.54 4.5390 2.6005 0.0021907
-176.62 1.2826e-06 7.9914e-10 -175.52 -175.52 -1.1635 721.72 0.0013856 -175.52 -175.52 -1.1635 1.3437 1.9263 2061.5 -0.0076973 4794.1 0.20447 4.8588e-07 2.0581e+06 357.97 376.17 4.5519 0.73403 0.92258 151.25 4.4142 2.6280 0.0022408
-175.62 1.7496e-06 1.0777e-09 -173.59 -173.59 -1.1437 720.69 0.0013876 -173.59 -173.59 -1.1437 1.3430 1.9274 2054.7 -0.0076907 4494.3 0.20411 6.5601e-07 1.5244e+06 358.70 377.09 4.5029 0.73792 0.92648 151.95 4.2941 2.6555 0.0022912
-174.62 2.3705e-06 1.4435e-09 -171.66 -171.66 -1.1240 719.66 0.0013895 -171.66 -171.66 -1.1240 1.3423 1.9286 2047.9 -0.0076838 4220.2 0.20375 8.7976e-07 1.1367e+06 359.44 378.02 4.4551 0.74181 0.93036 152.64 4.1784 2.6830 0.0023418
-173.62 3.1903e-06 1.9209e-09 -169.73 -169.73 -1.1045 718.64 0.0013915 -169.73 -169.73 -1.1045 1.3417 1.9298 2041.0 -0.0076769 3969.3 0.20338 1.1721e-06 8.5314e+05 360.19 378.95 4.4085 0.74568 0.93423 153.33 4.0671 2.7105 0.0023928
-172.62 4.2661e-06 2.5400e-09 -167.80 -167.80 -1.0852 717.61 0.0013935 -167.80 -167.80 -1.0852 1.3411 1.9310 2034.2 -0.0076698 3739.3 0.20300 1.5518e-06 6.4441e+05 360.93 379.89 4.3631 0.74953 0.93809 154.02 3.9599 2.7379 0.0024440
-171.62 5.6692e-06 3.3381e-09 -165.87 -165.87 -1.0661 716.58 0.0013955 -165.87 -165.87 -1.0661 1.3405 1.9322 2027.3 -0.0076625 3528.0 0.20261 2.0419e-06 4.8974e+05 361.69 380.83 4.3188 0.75337 0.94193 154.71 3.8566 2.7654 0.0024955
-170.62 7.4884e-06 4.3609e-09 -163.94 -163.94 -1.0472 715.56 0.0013975 -163.94 -163.94 -1.0472 1.3400 1.9334 2020.5 -0.0076552 3333.8 0.20222 2.6708e-06 3.7442e+05 362.44 381.77 4.2755 0.75720 0.94575 155.39 3.7570 2.7929 0.0025473
-169.62 9.8334e-06 5.6642e-09 -162.00 -162.00 -1.0284 714.54 0.0013995 -162.00 -162.00 -1.0284 1.3395 1.9347 2013.6 -0.0076477 3154.9 0.20182 3.4733e-06 2.8791e+05 363.20 382.72 4.2334 0.76100 0.94956 156.07 3.6609 2.8204 0.0025994
-168.62 1.2839e-05 7.3160e-09 -160.07 -160.07 -1.0098 713.52 0.0014015 -160.07 -160.07 -1.0098 1.3390 1.9359 2006.8 -0.0076401 2989.9 0.20141 4.4917e-06 2.2263e+05 363.96 383.67 4.1922 0.76479 0.95335 156.74 3.5683 2.8479 0.0026518
-167.62 1.6672e-05 9.3982e-09 -158.13 -158.13 -0.99134 712.49 0.0014035 -158.13 -158.13 -0.99134 1.3386 1.9372 2000.0 -0.0076323 2837.5 0.20100 5.7771e-06 1.7310e+05 364.73 384.63 4.1521 0.76856 0.95712 157.41 3.4790 2.8754 0.0027045
-166.62 2.1533e-05 1.2009e-08 -156.19 -156.19 -0.97306 711.47 0.0014055 -156.19 -156.19 -0.97306 1.3382 1.9385 1993.1 -0.0076245 2696.5 0.20058 7.3914e-06 1.3529e+05 365.50 385.59 4.1129 0.77232 0.96087 158.08 3.3927 2.9029 0.0027575
-165.62 2.7666e-05 1.5268e-08 -154.25 -154.25 -0.95494 710.45 0.0014075 -154.25 -154.25 -0.95494 1.3378 1.9398 1986.3 -0.0076165 2566.0 0.20016 9.4084e-06 1.0629e+05 366.27 386.55 4.0746 0.77605 0.96460 158.75 3.3095 2.9304 0.0028108
-164.62 3.5367e-05 1.9313e-08 -152.31 -152.31 -0.93698 709.44 0.0014096 -152.31 -152.31 -0.93698 1.3375 1.9411 1979.4 -0.0076084 2444.9 0.19973 1.1916e-05 83918. 367.05 387.52 4.0372 0.77976 0.96832 159.41 3.2291 2.9579 0.0028643
-163.62 4.4989e-05 2.4313e-08 -150.37 -150.37 -0.91917 708.42 0.0014116 -150.37 -150.37 -0.91917 1.3371 1.9424 1972.6 -0.0076002 2332.3 0.19930 1.5020e-05 66577. 367.83 388.49 4.0008 0.78346 0.97201 160.07 3.1514 2.9854 0.0029182
-162.62 5.6956e-05 3.0464e-08 -148.43 -148.43 -0.90151 707.40 0.0014136 -148.43 -148.43 -0.90151 1.3368 1.9437 1965.8 -0.0075919 2227.7 0.19886 1.8844e-05 53068. 368.62 389.46 3.9651 0.78713 0.97569 160.72 3.0764 3.0129 0.0029723
-161.62 7.1773e-05 3.7997e-08 -146.48 -146.48 -0.88400 706.38 0.0014157 -146.48 -146.48 -0.88400 1.3365 1.9451 1959.0 -0.0075834 2130.2 0.19841 2.3533e-05 42494. 369.41 390.44 3.9304 0.79079 0.97935 161.38 3.0038 3.0404 0.0030268
-160.62 9.0036e-05 4.7182e-08 -144.54 -144.54 -0.86663 705.37 0.0014177 -144.54 -144.54 -0.86663 1.3363 1.9465 1952.1 -0.0075748 2039.2 0.19796 2.9258e-05 34178. 370.20 391.42 3.8964 0.79443 0.98298 162.03 2.9337 3.0679 0.0030815
-159.62 0.00011245 5.8336e-08 -142.59 -142.59 -0.84940 704.35 0.0014197 -142.59 -142.59 -0.84940 1.3360 1.9478 1945.3 -0.0075661 1954.2 0.19751 3.6221e-05 27609. 371.00 392.40 3.8632 0.79805 0.98660 162.68 2.8658 3.0955 0.0031365
-158.62 0.00013985 7.1823e-08 -140.64 -140.64 -0.83231 703.34 0.0014218 -140.64 -140.64 -0.83231 1.3358 1.9492 1938.5 -0.0075573 1874.8 0.19705 4.4652e-05 22395. 371.80 393.39 3.8307 0.80164 0.99020 163.32 2.8002 3.1230 0.0031918
-157.62 0.00017320 8.8069e-08 -138.69 -138.69 -0.81536 702.32 0.0014238 -138.69 -138.69 -0.81536 1.3356 1.9506 1931.7 -0.0075484 1800.3 0.19658 5.4822e-05 18241. 372.60 394.38 3.7990 0.80522 0.99378 163.96 2.7367 3.1505 0.0032474
-156.62 0.00021364 1.0756e-07 -136.74 -136.74 -0.79854 701.31 0.0014259 -136.74 -136.74 -0.79854 1.3354 1.9520 1924.9 -0.0075393 1730.5 0.19611 6.7040e-05 14916. 373.41 395.38 3.7680 0.80878 0.99734 164.60 2.6752 3.1780 0.0033033
-155.62 0.00026248 1.3086e-07 -134.79 -134.79 -0.78185 700.30 0.0014280 -134.79 -134.79 -0.78185 1.3352 1.9534 1918.1 -0.0075302 1664.9 0.19564 8.1666e-05 12245. 374.22 396.38 3.7377 0.81232 1.0009 165.24 2.6157 3.2055 0.0033595
-154.62 0.00032125 1.5860e-07 -132.83 -132.83 -0.76530 699.29 0.0014300 -132.83 -132.83 -0.76530 1.3350 1.9548 1911.3 -0.0075209 1603.3 0.19516 9.9109e-05 10090. 375.03 397.38 3.7081 0.81585 1.0044 165.87 2.5580 3.2330 0.0034160
-153.62 0.00039171 1.9152e-07 -130.88 -130.88 -0.74887 698.27 0.0014321 -130.88 -130.88 -0.74887 1.3349 1.9563 1904.5 -0.0075114 1545.3 0.19468 0.00011984 8344.6 375.85 398.39 3.6792 0.81935 1.0079 166.50 2.5022 3.2606 0.0034727
-152.62 0.00047590 2.3046e-07 -128.92 -128.92 -0.73256 697.26 0.0014342 -128.92 -128.92 -0.73256 1.3348 1.9577 1897.8 -0.0075019 1490.6 0.19419 0.00014439 6925.9 376.67 399.40 3.6509 0.82284 1.0114 167.13 2.4481 3.2881 0.0035298
-151.62 0.00057613 2.7634e-07 -126.96 -126.96 -0.71638 696.25 0.0014363 -126.96 -126.96 -0.71638 1.3346 1.9592 1891.0 -0.0074922 1438.9 0.19370 0.00017336 5768.4 377.49 400.41 3.6232 0.82631 1.0149 167.76 2.3957 3.3156 0.0035872
-150.62 0.00069507 3.3023e-07 -125.00 -125.00 -0.70032 695.24 0.0014384 -125.00 -125.00 -0.70032 1.3345 1.9606 1884.2 -0.0074824 1390.2 0.19320 0.00020744 4820.7 378.32 401.42 3.5962 0.82976 1.0183 168.38 2.3448 3.3431 0.0036448
-149.62 0.00083574 3.9333e-07 -123.04 -123.04 -0.68437 694.23 0.0014404 -123.04 -123.04 -0.68438 1.3345 1.9621 1877.4 -0.0074724 1344.0 0.19270 0.00024740 4042.0 379.15 402.44 3.5697 0.83319 1.0218 169.00 2.2956 3.3706 0.0037027
-148.62 0.0010016 4.6699e-07 -121.08 -121.08 -0.66855 693.22 0.0014425 -121.08 -121.08 -0.66855 1.3344 1.9636 1870.7 -0.0074623 1300.3 0.19220 0.00029412 3400.0 379.99 403.47 3.5438 0.83661 1.0252 169.62 2.2478 3.3982 0.0037610
-147.62 0.0011965 5.5269e-07 -119.11 -119.11 -0.65284 692.21 0.0014447 -119.11 -119.11 -0.65284 1.3343 1.9651 1863.9 -0.0074521 1258.9 0.19169 0.00034856 2869.0 380.83 404.49 3.5185 0.84001 1.0286 170.24 2.2014 3.4257 0.0038195
-146.62 0.0014249 6.5212e-07 -117.15 -117.15 -0.63724 691.20 0.0014468 -117.15 -117.15 -0.63724 1.3343 1.9666 1857.2 -0.0074417 1219.6 0.19117 0.00041181 2428.3 381.67 405.52 3.4938 0.84340 1.0320 170.85 2.1565 3.4532 0.0038783
-145.62 0.0016917 7.6714e-07 -115.18 -115.18 -0.62175 690.19 0.0014489 -115.18 -115.18 -0.62175 1.3343 1.9682 1850.4 -0.0074312 1182.3 0.19066 0.00048510 2061.4 382.51 406.56 3.4695 0.84677 1.0353 171.46 2.1128 3.4807 0.0039374
-144.62 0.0020026 8.9983e-07 -113.21 -113.21 -0.60637 689.18 0.0014510 -113.21 -113.21 -0.60637 1.3343 1.9697 1843.7 -0.0074206 1146.8 0.19014 0.00056976 1755.1 383.36 407.59 3.4458 0.85012 1.0387 172.07 2.0705 3.5082 0.0039967
-143.62 0.0023637 1.0525e-06 -111.24 -111.24 -0.59109 688.17 0.0014531 -111.24 -111.24 -0.59110 1.3343 1.9713 1836.9 -0.0074098 1113.0 0.18962 0.00066731 1498.6 384.21 408.63 3.4226 0.85346 1.0420 172.68 2.0294 3.5358 0.0040564
-142.62 0.0027820 1.2276e-06 -109.27 -109.27 -0.57593 687.16 0.0014553 -109.27 -109.27 -0.57593 1.3343 1.9728 1830.2 -0.0073988 1080.8 0.18909 0.00077939 1283.1 385.07 409.68 3.3999 0.85679 1.0454 173.28 1.9896 3.5633 0.0041164
-141.62 0.0032653 1.4279e-06 -107.30 -107.30 -0.56086 686.15 0.0014574 -107.30 -107.30 -0.56087 1.3343 1.9744 1823.5 -0.0073878 1050.1 0.18856 0.00090784 1101.5 385.93 410.72 3.3777 0.86011 1.0487 173.88 1.9508 3.5908 0.0041766
-140.62 0.0038222 1.6566e-06 -105.32 -105.32 -0.54590 685.14 0.0014596 -105.32 -105.32 -0.54591 1.3344 1.9760 1816.7 -0.0073765 1020.7 0.18803 0.0010547 948.16 386.79 411.77 3.3560 0.86341 1.0520 174.48 1.9133 3.6183 0.0042372
-139.62 0.0044623 1.9170e-06 -103.34 -103.34 -0.53104 684.13 0.0014617 -103.34 -103.34 -0.53105 1.3344 1.9776 1810.0 -0.0073651 992.74 0.18749 0.0012221 818.26 387.65 412.83 3.3347 0.86670 1.0553 175.08 1.8768 3.6459 0.0042980
-138.62 0.0051963 2.2127e-06 -101.37 -101.36 -0.51628 683.12 0.0014639 -101.37 -101.37 -0.51629 1.3345 1.9792 1803.3 -0.0073536 965.97 0.18695 0.0014125 707.94 388.52 413.88 3.3139 0.86998 1.0586 175.67 1.8413 3.6734 0.0043592
-137.62 0.0060358 2.5477e-06 -99.385 -99.385 -0.50161 682.11 0.0014660 -99.386 -99.386 -0.50162 1.3346 1.9808 1796.6 -0.0073419 940.35 0.18641 0.0016287 614.00 389.39 414.94 3.2935 0.87325 1.0619 176.26 1.8069 3.7009 0.0044206
-136.62 0.0069938 2.9263e-06 -97.403 -97.403 -0.48704 681.10 0.0014682 -97.404 -97.404 -0.48705 1.3347 1.9825 1789.9 -0.0073301 915.81 0.18586 0.0018733 533.80 390.26 416.00 3.2735 0.87650 1.0651 176.85 1.7734 3.7284 0.0044823
-135.62 0.0080843 3.3534e-06 -95.420 -95.419 -0.47257 680.09 0.0014704 -95.421 -95.421 -0.47258 1.3348 1.9841 1783.2 -0.0073180 892.30 0.18531 0.0021497 465.17 391.14 417.07 3.2540 0.87975 1.0684 177.44 1.7409 3.7559 0.0045443
-134.62 0.0093230 3.8340e-06 -93.434 -93.434 -0.45818 679.08 0.0014726 -93.436 -93.436 -0.45820 1.3350 1.9858 1776.5 -0.0073059 869.75 0.18476 0.0024613 406.30 392.02 418.14 3.2348 0.88299 1.0716 178.02 1.7093 3.7834 0.0046066
-133.62 0.010727 4.3736e-06 -91.447 -91.447 -0.44389 678.07 0.0014748 -91.450 -91.449 -0.44391 1.3351 1.9875 1769.8 -0.0072935 848.11 0.18421 0.0028116 355.67 392.91 419.21 3.2161 0.88622 1.0749 178.61 1.6786 3.8109 0.0046691
-132.62 0.012315 4.9782e-06 -89.459 -89.459 -0.42969 677.06 0.0014770 -89.461 -89.461 -0.42971 1.3353 1.9892 1763.1 -0.0072810 827.32 0.18365 0.0032049 312.03 393.79 420.29 3.1977 0.88944 1.0781 179.19 1.6488 3.8385 0.0047320
-131.62 0.014106 5.6542e-06 -87.468 -87.468 -0.41558 676.04 0.0014792 -87.471 -87.471 -0.41560 1.3354 1.9909 1756.4 -0.0072684 807.34 0.18309 0.0036453 274.33 394.68 421.36 3.1798 0.89266 1.0813 179.76 1.6197 3.8660 0.0047951
-130.62 0.016124 6.4086e-06 -85.476 -85.476 -0.40155 675.03 0.0014814 -85.479 -85.479 -0.40157 1.3356 1.9926 1749.7 -0.0072555 788.12 0.18253 0.0041375 241.69 395.58 422.44 3.1622 0.89586 1.0846 180.34 1.5915 3.8935 0.0048586
-129.62 0.018392 7.2488e-06 -83.482 -83.482 -0.38761 674.02 0.0014836 -83.486 -83.486 -0.38763 1.3358 1.9944 1743.0 -0.0072425 769.63 0.18196 0.0046867 213.37 396.47 423.53 3.1450 0.89906 1.0878 180.91 1.5641 3.9210 0.0049223
-128.62 0.020935 8.1827e-06 -81.487 -81.486 -0.37375 673.01 0.0014859 -81.491 -81.490 -0.37378 1.3360 1.9961 1736.3 -0.0072294 751.83 0.18140 0.0052981 188.75 397.37 424.62 3.1281 0.90226 1.0910 181.48 1.5374 3.9485 0.0049863
-127.62 0.023783 9.2187e-06 -79.489 -79.489 -0.35998 672.00 0.0014881 -79.494 -79.493 -0.36001 1.3363 1.9979 1729.6 -0.0072160 734.67 0.18083 0.0059776 167.29 398.27 425.71 3.1116 0.90545 1.0942 182.05 1.5114 3.9760 0.0050506
-126.62 0.026966 1.0366e-05 -77.490 -77.489 -0.34629 670.98 0.0014904 -77.495 -77.495 -0.34632 1.3365 1.9997 1722.9 -0.0072025 718.14 0.18025 0.0067313 148.56 399.18 426.80 3.0954 0.90863 1.0974 182.62 1.4861 4.0035 0.0051152
-125.62 0.030515 1.1634e-05 -75.489 -75.488 -0.33268 669.97 0.0014926 -75.494 -75.494 -0.33272 1.3368 2.0015 1716.2 -0.0071888 702.18 0.17968 0.0075660 132.17 400.09 427.89 3.0795 0.91181 1.1006 183.18 1.4615 4.0310 0.0051800
-124.62 0.034467 1.3034e-05 -73.486 -73.485 -0.31914 668.95 0.0014949 -73.492 -73.492 -0.31919 1.3371 2.0033 1709.5 -0.0071749 686.79 0.17910 0.0084885 117.81 401.00 428.99 3.0640 0.91499 1.1038 183.74 1.4375 4.0584 0.0052452
-123.62 0.038859 1.4575e-05 -71.481 -71.480 -0.30569 667.94 0.0014971 -71.488 -71.487 -0.30574 1.3374 2.0051 1702.8 -0.0071609 671.93 0.17852 0.0095065 105.19 401.91 430.10 3.0488 0.91816 1.1070 184.30 1.4141 4.0859 0.0053106
-122.62 0.043731 1.6270e-05 -69.474 -69.473 -0.29231 666.92 0.0014994 -69.482 -69.481 -0.29237 1.3377 2.0070 1696.2 -0.0071466 657.57 0.17794 0.010628 94.092 402.83 431.20 3.0339 0.92134 1.1102 184.86 1.3913 4.1134 0.0053764
-121.62 0.049128 1.8131e-05 -67.465 -67.464 -0.27901 665.91 0.0015017 -67.474 -67.473 -0.27907 1.3380 2.0089 1689.5 -0.0071322 643.70 0.17736 0.011861 84.309 403.75 432.31 3.0193 0.92451 1.1134 185.41 1.3691 4.1409 0.0054424
-120.62 0.055096 2.0171e-05 -65.454 -65.453 -0.26579 664.89 0.0015040 -65.464 -65.463 -0.26585 1.3384 2.0107 1682.8 -0.0071176 630.28 0.17678 0.013215 75.669 404.67 433.42 3.0050 0.92767 1.1166 185.96 1.3475 4.1683 0.0055087
-119.62 0.061684 2.2403e-05 -63.442 -63.440 -0.25263 663.87 0.0015063 -63.452 -63.452 -0.25271 1.3387 2.0126 1676.1 -0.0071028 617.30 0.17619 0.014700 68.027 405.60 434.53 2.9909 0.93084 1.1198 186.51 1.3264 4.1958 0.0055752
-118.62 0.068946 2.4842e-05 -61.427 -61.426 -0.23955 662.86 0.0015086 -61.439 -61.438 -0.23963 1.3391 2.0146 1669.4 -0.0070878 604.74 0.17560 0.016325 61.255 406.53 435.64 2.9772 0.93401 1.1231 187.06 1.3058 4.2233 0.0056421
-117.62 0.076937 2.7503e-05 -59.410 -59.409 -0.22654 661.84 0.0015109 -59.423 -59.422 -0.22663 1.3395 2.0165 1662.8 -0.0070726 592.58 0.17501 0.018101 55.245 407.46 436.76 2.9638 0.93718 1.1263 187.60 1.2857 4.2507 0.0057092
-116.62 0.085718 3.0402e-05 -57.392 -57.390 -0.21361 660.82 0.0015133 -57.406 -57.405 -0.21370 1.3400 2.0184 1656.1 -0.0070573 580.80 0.17442 0.020040 49.901 408.39 437.88 2.9506 0.94035 1.1295 188.14 1.2660 4.2782 0.0057767
-115.62 0.095353 3.3555e-05 -55.371 -55.369 -0.20074 659.80 0.0015156 -55.386 -55.385 -0.20084 1.3404 2.0204 1649.4 -0.0070417 569.38 0.17383 0.022152 45.142 409.33 439.01 2.9377 0.94352 1.1327 188.68 1.2468 4.3056 0.0058444
-114.62 0.10591 3.6980e-05 -53.348 -53.346 -0.18793 658.78 0.0015180 -53.365 -53.364 -0.18805 1.3409 2.0224 1642.7 -0.0070260 558.32 0.17323 0.024451 40.898 410.27 440.13 2.9250 0.94669 1.1360 189.22 1.2281 4.3330 0.0059123
-113.62 0.11746 4.0695e-05 -51.323 -51.320 -0.17520 657.76 0.0015203 -51.342 -51.340 -0.17533 1.3413 2.0244 1636.0 -0.0070100 547.59 0.17264 0.026949 37.107 411.21 441.26 2.9126 0.94987 1.1392 189.75 1.2097 4.3604 0.0059806
-112.62 0.13008 4.4719e-05 -49.296 -49.293 -0.16253 656.73 0.0015227 -49.316 -49.315 -0.16267 1.3418 2.0264 1629.3 -0.0069938 537.18 0.17204 0.029661 33.715 412.16 442.39 2.9005 0.95305 1.1424 190.28 1.1918 4.3879 0.0060491
-111.62 0.14384 4.9073e-05 -47.266 -47.263 -0.14993 655.71 0.0015251 -47.289 -47.287 -0.15008 1.3424 2.0285 1622.7 -0.0069774 527.08 0.17144 0.032600 30.675 413.10 443.53 2.8885 0.95623 1.1457 190.81 1.1742 4.4153 0.0061180
-110.62 0.15884 5.3776e-05 -45.235 -45.231 -0.13739 654.69 0.0015274 -45.259 -45.258 -0.13755 1.3429 2.0305 1616.0 -0.0069609 517.28 0.17084 0.035781 27.948 414.06 444.66 2.8769 0.95942 1.1490 191.34 1.1570 4.4427 0.0061871
-109.62 0.17516 5.8851e-05 -43.201 -43.197 -0.12492 653.66 0.0015298 -43.228 -43.226 -0.12509 1.3435 2.0326 1609.3 -0.0069441 507.76 0.17024 0.039220 25.497 415.01 445.80 2.8654 0.96261 1.1522 191.86 1.1402 4.4701 0.0062564
-108.62 0.19290 6.4320e-05 -41.165 -41.161 -0.11250 652.64 0.0015322 -41.194 -41.192 -0.11269 1.3441 2.0347 1602.6 -0.0069271 498.51 0.16964 0.042933 23.292 415.96 446.94 2.8542 0.96581 1.1555 192.38 1.1236 4.4974 0.0063261
-107.62 0.21215 7.0206e-05 -39.126 -39.122 -0.10015 651.61 0.0015347 -39.158 -39.156 -0.10036 1.3447 2.0369 1595.9 -0.0069098 489.52 0.16903 0.046937 21.305 416.92 448.09 2.8433 0.96901 1.1588 192.90 1.1075 4.5248 0.0063960
-106.62 0.23301 7.6534e-05 -37.086 -37.081 -0.087859 650.58 0.0015371 -37.120 -37.118 -0.088082 1.3453 2.0390 1589.2 -0.0068924 480.79 0.16843 0.051250 19.512 417.88 449.23 2.8325 0.97222 1.1621 193.41 1.0916 4.5522 0.0064662
-105.62 0.25561 8.3328e-05 -35.043 -35.037 -0.075627 649.55 0.0015395 -35.080 -35.078 -0.075868 1.3460 2.0412 1582.6 -0.0068747 472.30 0.16782 0.055891 17.892 418.85 450.38 2.8220 0.97544 1.1655 193.93 1.0760 4.5795 0.0065367
-104.62 0.28004 9.0615e-05 -32.997 -32.991 -0.063454 648.52 0.0015420 -33.038 -33.035 -0.063714 1.3467 2.0434 1575.9 -0.0068569 464.04 0.16721 0.060878 16.426 419.81 451.53 2.8116 0.97867 1.1688 194.44 1.0608 4.6069 0.0066074
-103.62 0.30643 9.8421e-05 -30.949 -30.943 -0.051338 647.49 0.0015444 -30.994 -30.991 -0.051619 1.3474 2.0456 1569.2 -0.0068387 456.00 0.16660 0.066231 15.099 420.78 452.68 2.8015 0.98191 1.1722 194.94 1.0458 4.6342 0.0066785
-102.62 0.33490 0.00010678 -28.899 -28.892 -0.039279 646.46 0.0015469 -28.947 -28.944 -0.039582 1.3481 2.0478 1562.5 -0.0068204 448.18 0.16600 0.071971 13.894 421.75 453.84 2.7916 0.98516 1.1755 195.44 1.0310 4.6615 0.0067498
-101.62 0.36558 0.00011570 -26.846 -26.839 -0.027277 645.43 0.0015494 -26.898 -26.894 -0.027602 1.3489 2.0501 1555.8 -0.0068018 440.57 0.16539 0.078120 12.801 422.73 454.99 2.7818 0.98841 1.1789 195.95 1.0166 4.6888 0.0068213
-100.62 0.39862 0.00012524 -24.791 -24.783 -0.015329 644.39 0.0015519 -24.847 -24.843 -0.015678 1.3497 2.0524 1549.1 -0.0067830 433.16 0.16478 0.084699 11.807 423.70 456.15 2.7723 0.99168 1.1823 196.44 1.0024 4.7161 0.0068932
-99.625 0.43414 0.00013541 -22.733 -22.724 -0.0034356 643.36 0.0015544 -22.794 -22.789 -0.0038103 1.3505 2.0547 1542.4 -0.0067639 425.95 0.16416 0.091731 10.901 424.68 457.31 2.7630 0.99496 1.1858 196.94 0.98838 4.7434 0.0069653
-98.625 0.47230 0.00014625 -20.673 -20.663 0.0084043 642.32 0.0015569 -20.738 -20.733 0.0080027 1.3514 2.0570 1535.7 -0.0067447 418.92 0.16355 0.099240 10.077 425.66 458.48 2.7538 0.99825 1.1892 197.43 0.97464 4.7707 0.0070377
-97.625 0.51325 0.00015778 -18.610 -18.599 0.020192 641.28 0.0015594 -18.680 -18.674 0.019762 1.3522 2.0594 1529.0 -0.0067251 412.07 0.16294 0.10725 9.3239 426.65 459.64 2.7448 1.0016 1.1927 197.92 0.96112 4.7979 0.0071103
-96.625 0.55714 0.00017005 -16.544 -16.532 0.031927 640.24 0.0015619 -16.620 -16.614 0.031467 1.3531 2.0618 1522.3 -0.0067053 405.39 0.16233 0.11579 8.6365 427.63 460.81 2.7360 1.0049 1.1962 198.40 0.94783 4.8251 0.0071832
-95.625 0.60416 0.00018309 -14.476 -14.463 0.043612 639.20 0.0015645 -14.557 -14.550 0.043120 1.3540 2.0642 1515.7 -0.0066853 398.88 0.16171 0.12488 8.0078 428.62 461.98 2.7274 1.0082 1.1997 198.88 0.93475 4.8524 0.0072564
-94.625 0.65446 0.00019692 -12.404 -12.391 0.055246 638.16 0.0015670 -12.491 -12.484 0.054721 1.3550 2.0667 1509.0 -0.0066650 392.53 0.16110 0.13455 7.4323 429.61 463.15 2.7189 1.0116 1.2032 199.36 0.92188 4.8796 0.0073299
-93.625 0.70822 0.00021160 -10.330 -10.316 0.066831 637.12 0.0015696 -10.424 -10.416 0.066271 1.3560 2.0691 1502.3 -0.0066444 386.34 0.16048 0.14482 6.9050 430.60 464.32 2.7107 1.0149 1.2068 199.83 0.90921 4.9068 0.0074036
-92.625 0.76564 0.00022714 -8.2536 -8.2376 0.078367 636.07 0.0015722 -8.3535 -8.3452 0.077771 1.3570 2.0716 1495.6 -0.0066236 380.31 0.15987 0.15573 6.4212 431.60 465.49 2.7025 1.0183 1.2104 200.30 0.89673 4.9340 0.0074776
-91.625 0.82689 0.00024359 -6.1739 -6.1567 0.089855 635.02 0.0015747 -6.2808 -6.2719 0.089220 1.3580 2.0742 1488.9 -0.0066025 374.41 0.15925 0.16731 5.9769 432.59 466.67 2.6946 1.0217 1.2140 200.77 0.88445 4.9611 0.0075518
-90.625 0.89218 0.00026100 -4.0914 -4.0727 0.10130 633.98 0.0015773 -4.2056 -4.1959 0.10062 1.3591 2.0767 1482.2 -0.0065811 368.66 0.15864 0.17958 5.5685 433.59 467.84 2.6868 1.0251 1.2177 201.24 0.87236 4.9883 0.0076263
-89.625 0.96172 0.00027939 -2.0059 -1.9858 0.11269 632.93 0.0015800 -2.1279 -2.1174 0.11197 1.3602 2.0793 1475.5 -0.0065595 363.05 0.15802 0.19258 5.1928 434.59 469.02 2.6791 1.0285 1.2213 201.70 0.86045 5.0154 0.0077011
-88.625 1.0357 0.00029880 0.082655 0.10429 0.12404 631.88 0.0015826 -0.047516 -0.036215 0.12328 1.3613 2.0819 1468.8 -0.0065375 357.56 0.15740 0.20633 4.8466 435.59 470.20 2.6717 1.0320 1.2250 202.15 0.84873 5.0425 0.0077761
-87.625 1.1144 0.00031929 2.1742 2.1975 0.13534 630.83 0.0015852 2.0355 2.0476 0.13454 1.3625 2.0846 1462.1 -0.0065153 352.21 0.15679 0.22087 4.5276 436.60 471.39 2.6643 1.0354 1.2288 202.61 0.83718 5.0696 0.0078514
-86.625 1.1979 0.00034088 4.2688 4.2939 0.14660 629.77 0.0015879 4.1211 4.1342 0.14575 1.3637 2.0873 1455.4 -0.0064928 346.98 0.15617 0.23623 4.2331 437.61 472.57 2.6571 1.0389 1.2325 203.06 0.82580 5.0967 0.0079270
-85.625 1.2866 0.00036362 6.3666 6.3935 0.15782 628.72 0.0015905 6.2094 6.2235 0.15691 1.3649 2.0900 1448.8 -0.0064701 341.87 0.15555 0.25245 3.9612 438.61 473.75 2.6501 1.0424 1.2363 203.50 0.81460 5.1237 0.0080028
-84.625 1.3806 0.00038755 8.4675 8.4964 0.16899 627.66 0.0015932 8.3004 8.3155 0.16803 1.3661 2.0927 1442.1 -0.0064470 336.87 0.15494 0.26956 3.7097 439.63 474.94 2.6432 1.0460 1.2402 203.95 0.80356 5.1508 0.0080789
-83.625 1.4803 0.00041272 10.572 10.603 0.18013 626.60 0.0015959 10.394 10.410 0.17911 1.3674 2.0955 1435.4 -0.0064236 331.99 0.15432 0.28760 3.4771 440.64 476.13 2.6364 1.0495 1.2440 204.38 0.79269 5.1778 0.0081553
-82.625 1.5858 0.00043917 12.679 12.712 0.19122 625.54 0.0015986 12.491 12.508 0.19014 1.3687 2.0983 1428.7 -0.0063999 327.22 0.15370 0.30659 3.2616 441.65 477.31 2.6298 1.0531 1.2479 204.82 0.78199 5.2048 0.0082319
-81.625 1.6975 0.00046694 14.790 14.825 0.20227 624.48 0.0016013 14.590 14.609 0.20113 1.3700 2.1012 1422.0 -0.0063759 322.55 0.15309 0.32659 3.0619 442.67 478.50 2.6233 1.0567 1.2519 205.25 0.77144 5.2318 0.0083088
-80.625 1.8155 0.00049608 16.904 16.942 0.21327 623.42 0.0016041 16.692 16.712 0.21208 1.3714 2.1041 1415.4 -0.0063516 317.99 0.15247 0.34763 2.8766 443.69 479.70 2.6169 1.0603 1.2558 205.67 0.76106 5.2587 0.0083860
-79.625 1.9402 0.00052664 19.021 19.062 0.22424 622.36 0.0016068 18.797 18.819 0.22299 1.3728 2.1070 1408.7 -0.0063270 313.52 0.15186 0.36974 2.7046 444.71 480.89 2.6106 1.0639 1.2598 206.10 0.75083 5.2857 0.0084634
-78.625 2.0718 0.00055866 21.142 21.186 0.23518 621.29 0.0016096 20.905 20.928 0.23385 1.3742 2.1099 1402.0 -0.0063021 309.15 0.15124 0.39296 2.5448 445.73 482.08 2.6045 1.0676 1.2639 206.51 0.74076 5.3126 0.0085411
-77.625 2.2107 0.00059218 23.267 23.313 0.24607 620.22 0.0016123 23.016 23.040 0.24468 1.3757 2.1129 1395.3 -0.0062768 304.88 0.15062 0.41735 2.3961 446.75 483.27 2.5985 1.0712 1.2680 206.93 0.73084 5.3395 0.0086190
-76.625 2.3571 0.00062727 25.395 25.444 0.25693 619.15 0.0016151 25.130 25.156 0.25546 1.3772 2.1159 1388.7 -0.0062512 300.69 0.15001 0.44292 2.2577 447.78 484.47 2.5926 1.0749 1.2721 207.34 0.72107 5.3664 0.0086972
-75.625 2.5113 0.00066396 27.526 27.579 0.26774 618.08 0.0016179 27.247 27.275 0.26620 1.3787 2.1190 1382.0 -0.0062253 296.59 0.14939 0.46974 2.1288 448.81 485.67 2.5869 1.0787 1.2762 207.74 0.71146 5.3933 0.0087757
-74.625 2.6736 0.00070230 29.662 29.718 0.27853 617.01 0.0016207 29.366 29.396 0.27691 1.3802 2.1221 1375.4 -0.0061990 292.58 0.14878 0.49783 2.0087 449.83 486.86 2.5812 1.0824 1.2804 208.14 0.70200 5.4201 0.0088544
-73.625 2.8444 0.00074235 31.801 31.860 0.28927 615.93 0.0016236 31.489 31.521 0.28758 1.3818 2.1252 1368.7 -0.0061724 288.65 0.14816 0.52725 1.8966 450.86 488.06 2.5757 1.0862 1.2847 208.54 0.69268 5.4469 0.0089334
-72.625 3.0240 0.00078415 33.943 34.007 0.29999 614.85 0.0016264 33.615 33.649 0.29821 1.3834 2.1284 1362.0 -0.0061454 284.81 0.14755 0.55804 1.7920 451.90 489.26 2.5703 1.0900 1.2889 208.93 0.68351 5.4737 0.0090126
-71.625 3.2127 0.00082775 36.090 36.157 0.31066 613.78 0.0016293 35.745 35.781 0.30880 1.3851 2.1316 1355.4 -0.0061181 281.03 0.14694 0.59024 1.6942 452.93 490.46 2.5650 1.0938 1.2932 209.32 0.67448 5.5005 0.0090922
-70.625 3.4108 0.00087321 38.240 38.312 0.32131 612.69 0.0016321 37.877 37.915 0.31935 1.3867 2.1349 1348.7 -0.0060904 277.34 0.14632 0.62390 1.6028 453.96 491.66 2.5598 1.0976 1.2976 209.70 0.66560 5.5273 0.0091720
-69.625 3.6187 0.00092057 40.395 40.470 0.33192 611.61 0.0016350 40.013 40.053 0.32987 1.3884 2.1382 1342.1 -0.0060624 273.72 0.14571 0.65906 1.5173 455.00 492.86 2.5547 1.1015 1.3020 210.08 0.65687 5.5540 0.0092520
-68.625 3.8367 0.00096988 42.553 42.633 0.34250 610.53 0.0016379 42.152 42.195 0.34036 1.3902 2.1415 1335.5 -0.0060339 270.17 0.14510 0.69577 1.4372 456.04 494.06 2.5497 1.1054 1.3064 210.45 0.64827 5.5807 0.0093324
-67.625 4.0652 0.0010212 44.715 44.800 0.35305 609.44 0.0016409 44.294 44.340 0.35080 1.3919 2.1449 1328.8 -0.0060051 266.69 0.14449 0.73408 1.3622 457.08 495.26 2.5448 1.1093 1.3109 210.82 0.63981 5.6074 0.0094130
-66.625 4.3046 0.0010746 46.882 46.972 0.36356 608.35 0.0016438 46.439 46.488 0.36122 1.3937 2.1483 1322.2 -0.0059760 263.28 0.14388 0.77404 1.2919 458.12 496.46 2.5400 1.1133 1.3154 211.18 0.63150 5.6341 0.0094939
-65.625 4.5551 0.0011301 49.052 49.147 0.37404 607.26 0.0016467 48.588 48.640 0.37160 1.3955 2.1518 1315.6 -0.0059464 259.93 0.14327 0.81570 1.2259 459.16 497.67 2.5353 1.1172 1.3200 211.54 0.62332 5.6608 0.0095750
-64.625 4.8173 0.0011877 51.227 51.327 0.38450 606.16 0.0016497 50.740 50.795 0.38195 1.3974 2.1553 1308.9 -0.0059164 256.65 0.14266 0.85910 1.1640 460.21 498.87 2.5307 1.1212 1.3246 211.89 0.61527 5.6874 0.0096564
-63.625 5.0915 0.0012476 53.406 53.512 0.39492 605.07 0.0016527 52.896 52.954 0.39226 1.3993 2.1588 1302.3 -0.0058861 253.42 0.14205 0.90429 1.1058 461.25 500.07 2.5262 1.1252 1.3293 212.24 0.60736 5.7140 0.0097382
-62.625 5.3781 0.0013098 55.589 55.701 0.40532 603.97 0.0016557 55.055 55.117 0.40254 1.4012 2.1624 1295.7 -0.0058553 250.26 0.14144 0.95134 1.0511 462.30 501.28 2.5218 1.1293 1.3340 212.58 0.59958 5.7406 0.0098201
-61.625 5.6774 0.0013742 57.776 57.895 0.41568 602.87 0.0016587 57.218 57.283 0.41279 1.4031 2.1660 1289.1 -0.0058241 247.16 0.14084 1.0003 0.99972 463.35 502.48 2.5175 1.1333 1.3387 212.92 0.59194 5.7672 0.0099024
-60.625 5.9899 0.0014411 59.968 60.093 0.42602 601.77 0.0016618 59.385 59.453 0.42301 1.4051 2.1697 1282.5 -0.0057925 244.12 0.14023 1.0512 0.95131 464.40 503.68 2.5133 1.1374 1.3435 213.26 0.58442 5.7938 0.0099850
-59.625 6.3160 0.0015104 62.165 62.296 0.43633 600.66 0.0016648 61.554 61.627 0.43320 1.4071 2.1734 1275.9 -0.0057605 241.13 0.13962 1.1041 0.90573 465.45 504.89 2.5091 1.1415 1.3483 213.58 0.57704 5.8203 0.010068
-58.625 6.6561 0.0015822 64.365 64.504 0.44661 599.55 0.0016679 63.728 63.805 0.44335 1.4091 2.1772 1269.3 -0.0057280 238.19 0.13902 1.1591 0.86277 466.50 506.09 2.5051 1.1457 1.3532 213.90 0.56978 5.8468 0.010151
-57.625 7.0107 0.0016565 66.571 66.717 0.45687 598.44 0.0016710 65.905 65.986 0.45348 1.4111 2.1810 1262.7 -0.0056951 235.31 0.13842 1.2161 0.82228 467.55 507.30 2.5011 1.1498 1.3581 214.22 0.56265 5.8733 0.010234
-56.625 7.3801 0.0017334 68.781 68.935 0.46710 597.33 0.0016741 68.086 68.172 0.46358 1.4132 2.1848 1256.1 -0.0056617 232.48 0.13781 1.2754 0.78408 468.60 508.50 2.4972 1.1540 1.3631 214.53 0.55564 5.8998 0.010318
-55.625 7.7648 0.0018129 70.995 71.158 0.47731 596.22 0.0016772 70.271 70.361 0.47364 1.4153 2.1887 1249.5 -0.0056279 229.69 0.13721 1.3369 0.74802 469.66 509.71 2.4934 1.1582 1.3681 214.84 0.54875 5.9263 0.010402
-54.625 8.1652 0.0018952 73.215 73.385 0.48748 595.10 0.0016804 72.460 72.554 0.48368 1.4174 2.1927 1242.9 -0.0055937 226.96 0.13661 1.4006 0.71396 470.72 510.91 2.4897 1.1624 1.3731 215.14 0.54199 5.9527 0.010486
-53.625 8.5819 0.0019802 75.439 75.618 0.49764 593.98 0.0016836 74.652 74.752 0.49369 1.4196 2.1967 1236.3 -0.0055589 224.27 0.13601 1.4667 0.68178 471.77 512.11 2.4860 1.1667 1.3782 215.43 0.53535 5.9792 0.010571
-52.625 9.0151 0.0020681 77.668 77.856 0.50777 592.86 0.0016867 76.849 76.954 0.50368 1.4218 2.2007 1229.8 -0.0055237 221.63 0.13541 1.5353 0.65136 472.83 513.32 2.4824 1.1710 1.3834 215.72 0.52882 6.0056 0.010656
-51.625 9.4655 0.0021588 79.901 80.099 0.51788 591.73 0.0016900 79.049 79.159 0.51363 1.4240 2.2048 1223.2 -0.0054880 219.04 0.13482 1.6062 0.62258 473.89 514.52 2.4789 1.1752 1.3886 216.00 0.52241 6.0320 0.010741
-50.625 9.9335 0.0022524 82.140 82.348 0.52796 590.60 0.0016932 81.253 81.369 0.52356 1.4262 2.2089 1216.6 -0.0054519 216.48 0.13422 1.6797 0.59534 474.95 515.73 2.4755 1.1796 1.3938 216.28 0.51612 6.0584 0.010827
-49.625 10.419 0.0023490 84.384 84.602 0.53802 589.47 0.0016964 83.462 83.584 0.53347 1.4285 2.2131 1210.1 -0.0054152 213.98 0.13363 1.7558 0.56954 476.01 516.93 2.4722 1.1839 1.3991 216.55 0.50994 6.0848 0.010913
-48.625 10.924 0.0024486 86.633 86.861 0.54806 588.34 0.0016997 85.674 85.802 0.54334 1.4308 2.2173 1203.5 -0.0053780 211.51 0.13303 1.8345 0.54510 477.07 518.13 2.4689 1.1883 1.4044 216.82 0.50387 6.1112 0.010999
-47.625 11.448 0.0025514 88.886 89.125 0.55807 587.20 0.0017030 87.891 88.025 0.55319 1.4331 2.2216 1196.9 -0.0053403 209.08 0.13244 1.9159 0.52194 478.14 519.33 2.4657 1.1927 1.4098 217.08 0.49792 6.1375 0.011085
-46.625 11.991 0.0026572 91.145 91.396 0.56807 586.06 0.0017063 90.111 90.252 0.56302 1.4354 2.2259 1190.4 -0.0053020 206.69 0.13185 2.0001 0.49997 479.20 520.53 2.4625 1.1971 1.4153 217.33 0.49207 6.1639 0.011172
-45.625 12.554 0.0027663 93.409 93.672 0.57804 584.92 0.0017096 92.336 92.484 0.57282 1.4378 2.2303 1183.8 -0.0052633 204.34 0.13126 2.0872 0.47912 480.27 521.74 2.4594 1.2015 1.4207 217.58 0.48633 6.1902 0.011259
-44.625 13.137 0.0028786 95.679 95.953 0.58799 583.77 0.0017130 94.565 94.720 0.58260 1.4402 2.2347 1177.3 -0.0052240 202.03 0.13067 2.1771 0.45933 481.33 522.94 2.4564 1.2060 1.4263 217.82 0.48069 6.2165 0.011347
-43.625 13.741 0.0029943 97.953 98.240 0.59792 582.62 0.0017164 96.799 96.961 0.59235 1.4426 2.2392 1170.7 -0.0051841 199.75 0.13008 2.2700 0.44053 482.40 524.14 2.4535 1.2104 1.4319 218.05 0.47516 6.2429 0.011435
-42.625 14.367 0.0031133 100.23 100.53 0.60784 581.47 0.0017198 99.036 99.207 0.60208 1.4450 2.2437 1164.2 -0.0051437 197.51 0.12949 2.3659 0.42267 483.46 525.33 2.4506 1.2149 1.4375 218.28 0.46973 6.2692 0.011523
-41.625 15.015 0.0032357 102.52 102.83 0.61773 580.32 0.0017232 101.28 101.46 0.61179 1.4475 2.2483 1157.7 -0.0051027 195.30 0.12891 2.4649 0.40569 484.53 526.53 2.4478 1.2195 1.4432 218.50 0.46440 6.2955 0.011612
-40.625 15.686 0.0033616 104.81 105.14 0.62760 579.16 0.0017266 103.52 103.71 0.62147 1.4500 2.2529 1151.1 -0.0050611 193.13 0.12832 2.5671 0.38954 485.60 527.73 2.4450 1.2240 1.4489 218.72 0.45917 6.3218 0.011701
-39.625 16.380 0.0034910 107.11 107.45 0.63745 578.00 0.0017301 105.78 105.97 0.63113 1.4525 2.2576 1144.6 -0.0050189 190.99 0.12774 2.6725 0.37418 486.67 528.93 2.4423 1.2286 1.4547 218.93 0.45403 6.3481 0.011790
-38.625 17.097 0.0036239 109.41 109.76 0.64729 576.83 0.0017336 108.03 108.24 0.64077 1.4550 2.2623 1138.0 -0.0049761 188.88 0.12716 2.7813 0.35955 487.74 530.12 2.4397 1.2332 1.4606 219.13 0.44900 6.3744 0.011880
-37.625 17.838 0.0037605 111.71 112.09 0.65711 575.66 0.0017371 110.29 110.51 0.65039 1.4576 2.2671 1131.5 -0.0049327 186.81 0.12658 2.8934 0.34562 488.81 531.32 2.4371 1.2378 1.4665 219.33 0.44405 6.4007 0.011970
-36.625 18.604 0.0039008 114.03 114.42 0.66691 574.49 0.0017407 112.56 112.78 0.65999 1.4602 2.2719 1125.0 -0.0048887 184.76 0.12600 3.0089 0.33235 489.88 532.51 2.4346 1.2424 1.4724 219.52 0.43920 6.4270 0.012060
-35.625 19.395 0.0040449 116.35 116.75 0.67669 573.32 0.0017442 114.83 115.06 0.66956 1.4628 2.2768 1118.5 -0.0048440 182.75 0.12542 3.1280 0.31969 490.95 533.70 2.4321 1.2471 1.4784 219.70 0.43444 6.4533 0.012151
-34.625 20.212 0.0041927 118.67 119.09 0.68646 572.14 0.0017478 117.10 117.34 0.67912 1.4654 2.2818 1111.9 -0.0047987 180.76 0.12485 3.2506 0.30763 492.02 534.89 2.4297 1.2517 1.4845 219.88 0.42977 6.4797 0.012243
-33.625 21.056 0.0043444 121.00 121.44 0.69621 570.96 0.0017514 119.38 119.63 0.68865 1.4681 2.2868 1105.4 -0.0047527 178.80 0.12427 3.3770 0.29612 493.09 536.08 2.4273 1.2564 1.4906 220.05 0.42519 6.5060 0.012334
-32.625 21.926 0.0044999 123.34 123.80 0.70594 569.77 0.0017551 121.66 121.93 0.69817 1.4708 2.2918 1098.9 -0.0047061 176.87 0.12370 3.5071 0.28514 494.17 537.27 2.4250 1.2611 1.4968 220.21 0.42070 6.5323 0.012426
-31.625 22.823 0.0046594 125.68 126.16 0.71566 568.58 0.0017588 123.95 124.23 0.70767 1.4735 2.2970 1092.3 -0.0046587 174.97 0.12313 3.6410 0.27465 495.24 538.46 2.4227 1.2659 1.5031 220.36 0.41629 6.5587 0.012519
-30.625 23.749 0.0048230 128.03 128.52 0.72536 567.39 0.0017625 126.24 126.53 0.71714 1.4762 2.3021 1085.8 -0.0046107 173.09 0.12256 3.7787 0.26464 496.31 539.64 2.4205 1.2706 1.5094 220.51 0.41196 6.5850 0.012612
-29.625 24.703 0.0049905 130.38 130.90 0.73504 566.19 0.0017662 128.54 128.84 0.72660 1.4790 2.3074 1079.3 -0.0045619 171.24 0.12200 3.9205 0.25507 497.38 540.83 2.4184 1.2754 1.5157 220.65 0.40772 6.6114 0.012706
-28.625 25.687 0.0051622 132.74 133.28 0.74472 564.99 0.0017699 130.84 131.16 0.73604 1.4818 2.3126 1072.8 -0.0045124 169.42 0.12143 4.0663 0.24592 498.46 542.01 2.4162 1.2802 1.5222 220.79 0.40356 6.6378 0.012800
-27.625 26.700 0.0053380 135.11 135.67 0.75437 563.78 0.0017737 133.15 133.48 0.74547 1.4846 2.3180 1066.2 -0.0044621 167.62 0.12087 4.2163 0.23717 499.53 543.19 2.4142 1.2850 1.5286 220.91 0.39947 6.6642 0.012894
-26.625 27.743 0.0055180 137.48 138.06 0.76402 562.57 0.0017775 135.47 135.81 0.75487 1.4874 2.3234 1059.7 -0.0044111 165.84 0.12031 4.3705 0.22881 500.60 544.37 2.4122 1.2899 1.5352 221.03 0.39547 6.6906 0.012989
-25.625 28.817 0.0057023 139.86 140.46 0.77364 561.36 0.0017814 137.78 138.14 0.76426 1.4902 2.3289 1053.2 -0.0043593 164.09 0.11975 4.5290 0.22080 501.68 545.55 2.4102 1.2947 1.5418 221.14 0.39154 6.7171 0.013084
-24.625 29.923 0.0058908 142.24 142.87 0.78326 560.14 0.0017853 140.11 140.48 0.77363 1.4931 2.3344 1046.7 -0.0043067 162.36 0.11919 4.6918 0.21314 502.75 546.72 2.4083 1.2996 1.5485 221.25 0.38768 6.7436 0.013180
-23.625 31.061 0.0060838 144.63 145.28 0.79286 558.92 0.0017892 142.44 142.82 0.78298 1.4960 2.3400 1040.1 -0.0042533 160.65 0.11863 4.8592 0.20580 503.82 547.90 2.4064 1.3045 1.5552 221.35 0.38391 6.7701 0.013277
-22.625 32.232 0.0062811 147.03 147.71 0.80245 557.69 0.0017931 144.77 145.17 0.79232 1.4990 2.3457 1033.6 -0.0041990 158.97 0.11807 5.0311 0.19877 504.90 549.07 2.4045 1.3095 1.5621 221.44 0.38020 6.7967 0.013374
-21.625 33.435 0.0064829 149.44 150.13 0.81202 556.46 0.0017971 147.11 147.52 0.80164 1.5019 2.3514 1027.1 -0.0041439 157.30 0.11752 5.2076 0.19203 505.97 550.24 2.4027 1.3144 1.5690 221.52 0.37656 6.8232 0.013471
-20.625 34.673 0.0066891 151.85 152.57 0.82159 555.23 0.0018011 149.45 149.88 0.81095 1.5049 2.3572 1020.6 -0.0040879 155.66 0.11697 5.3889 0.18557 507.04 551.40 2.4010 1.3194 1.5759 221.59 0.37300 6.8499 0.013569
-19.625 35.946 0.0068999 154.26 155.01 0.83114 553.99 0.0018051 151.80 152.25 0.82024 1.5079 2.3630 1014.0 -0.0040311 154.04 0.11642 5.5750 0.17937 508.11 552.57 2.3992 1.3244 1.5829 221.66 0.36950 6.8765 0.013668
-18.625 37.253 0.0071153 156.69 157.46 0.84068 552.74 0.0018092 154.16 154.62 0.82952 1.5109 2.3689 1007.5 -0.0039733 152.44 0.11587 5.7660 0.17343 509.19 553.73 2.3976 1.3294 1.5901 221.72 0.36608 6.9032 0.013767
-17.625 38.596 0.0073353 159.12 159.92 0.85020 551.49 0.0018133 156.52 157.00 0.83878 1.5140 2.3749 1001.0 -0.0039145 150.86 0.11532 5.9621 0.16773 510.26 554.89 2.3959 1.3345 1.5972 221.77 0.36272 6.9300 0.013867
-16.625 39.976 0.0075600 161.55 162.39 0.85972 550.24 0.0018174 158.89 159.39 0.84803 1.5171 2.3810 994.44 -0.0038549 149.29 0.11478 6.1632 0.16225 511.33 556.05 2.3943 1.3395 1.6045 221.81 0.35942 6.9568 0.013968
-15.625 41.392 0.0077895 163.99 164.86 0.86923 548.98 0.0018216 161.26 161.78 0.85726 1.5202 2.3871 987.91 -0.0037942 147.75 0.11423 6.3696 0.15700 512.40 557.20 2.3927 1.3446 1.6119 221.85 0.35619 6.9836 0.014069
-14.625 42.846 0.0080237 166.44 167.34 0.87872 547.71 0.0018258 163.64 164.18 0.86649 1.5233 2.3933 981.37 -0.0037325 146.22 0.11369 6.5812 0.15195 513.47 558.36 2.3912 1.3497 1.6193 221.87 0.35302 7.0105 0.014170
-13.625 44.338 0.0082627 168.90 169.83 0.88820 546.44 0.0018300 166.02 166.58 0.87569 1.5264 2.3996 974.83 -0.0036698 144.72 0.11315 6.7983 0.14710 514.54 559.51 2.3897 1.3549 1.6268 221.89 0.34992 7.0375 0.014273
-12.625 45.870 0.0085066 171.36 172.32 0.89768 545.17 0.0018343 168.41 168.99 0.88489 1.5296 2.4059 968.29 -0.0036061 143.23 0.11261 7.0208 0.14243 515.61 560.65 2.3883 1.3600 1.6344 221.90 0.34688 7.0646 0.014376
-11.625 47.440 0.0087553 173.83 174.83 0.90714 543.89 0.0018386 170.81 171.41 0.89407 1.5328 2.4124 961.75 -0.0035413 141.76 0.11208 7.2490 0.13795 516.68 561.80 2.3868 1.3652 1.6421 221.91 0.34389 7.0917 0.014479
-10.625 49.051 0.0090090 176.31 177.34 0.91659 542.60 0.0018430 173.21 173.83 0.90324 1.5360 2.4189 955.20 -0.0034753 140.30 0.11154 7.4829 0.13364 517.75 562.94 2.3854 1.3704 1.6498 221.90 0.34097 7.1188 0.014584
-9.6250 50.703 0.0092677 178.80 179.85 0.92604 541.31 0.0018474 175.61 176.26 0.91240 1.5393 2.4255 948.65 -0.0034082 138.86 0.11101 7.7226 0.12949 518.81 564.08 2.3841 1.3757 1.6577 221.88 0.33810 7.1461 0.014689
-8.6250 52.396 0.0095314 181.29 182.38 0.93547 540.02 0.0018518 178.03 178.70 0.92154 1.5426 2.4321 942.10 -0.0033400 137.44 0.11048 7.9683 0.12550 519.88 565.21 2.3827 1.3809 1.6657 221.86 0.33529 7.1734 0.014795
-7.6250 54.131 0.0098001 183.78 184.92 0.94490 538.72 0.0018563 180.45 181.14 0.93068 1.5459 2.4389 935.55 -0.0032705 136.03 0.10995 8.2200 0.12165 520.94 566.35 2.3814 1.3862 1.6737 221.83 0.33254 7.2008 0.014902
-6.6250 55.909 0.010074 186.29 187.46 0.95431 537.41 0.0018608 182.87 183.59 0.93980 1.5492 2.4457 928.99 -0.0031998 134.64 0.10942 8.4779 0.11795 522.01 567.48 2.3801 1.3915 1.6819 221.79 0.32984 7.2284 0.015009
-5.6250 57.730 0.010353 188.80 190.01 0.96372 536.10 0.0018653 185.30 186.05 0.94892 1.5525 2.4526 922.43 -0.0031279 133.27 0.10889 8.7420 0.11439 523.07 568.60 2.3789 1.3969 1.6902 221.74 0.32720 7.2560 0.015117
-4.6250 59.595 0.010637 191.32 192.57 0.97312 534.78 0.0018699 187.74 188.51 0.95802 1.5559 2.4596 915.87 -0.0030546 131.91 0.10837 9.0126 0.11096 524.13 569.72 2.3777 1.4022 1.6985 221.68 0.32461 7.2837 0.015226
-3.6250 61.505 0.010926 193.85 195.13 0.98251 533.45 0.0018746 190.19 190.98 0.96711 1.5593 2.4667 909.30 -0.0029800 130.56 0.10785 9.2896 0.10765 525.19 570.84 2.3765 1.4076 1.7070 221.62 0.32207 7.3115 0.015336
-2.6250 63.461 0.011221 196.38 197.71 0.99190 532.12 0.0018793 192.64 193.46 0.97620 1.5627 2.4739 902.73 -0.0029041 129.23 0.10733 9.5733 0.10446 526.25 571.96 2.3753 1.4131 1.7156 221.54 0.31958 7.3394 0.015447
-1.6250 65.462 0.011521 198.92 200.29 1.0013 530.78 0.0018840 195.10 195.95 0.98527 1.5662 2.4811 896.16 -0.0028267 127.91 0.10681 9.8638 0.10138 527.31 573.07 2.3742 1.4185 1.7243 221.45 0.31715 7.3674 0.015559
-0.62500 67.510 0.011826 201.47 202.88 1.0106 529.44 0.0018888 197.56 198.44 0.99434 1.5696 2.4885 889.58 -0.0027478 126.61 0.10629 10.161 0.098414 528.37 574.18 2.3731 1.4240 1.7331 221.36 0.31476 7.3956 0.015671
0.37500 69.606 0.012136 204.03 205.48 1.0200 528.09 0.0018936 200.03 200.94 1.0034 1.5731 2.4960 883.00 -0.0026675 125.32 0.10578 10.466 0.095552 529.42 575.28 2.3720 1.4295 1.7421 221.26 0.31242 7.4239 0.015785
1.3750 71.749 0.012452 206.59 208.09 1.0294 526.73 0.0018985 202.51 203.45 1.0124 1.5767 2.5035 876.42 -0.0025856 124.04 0.10527 10.777 0.092790 530.48 576.38 2.3709 1.4350 1.7512 221.14 0.31013 7.4523 0.015899
2.3750 73.941 0.012773 209.16 210.71 1.0387 525.37 0.0019034 204.99 205.96 1.0215 1.5802 2.5112 869.83 -0.0025022 122.78 0.10476 11.096 0.090123 531.53 577.47 2.3699 1.4406 1.7604 221.02 0.30789 7.4808 0.016015
3.3750 76.183 0.013100 211.74 213.33 1.0480 523.99 0.0019084 207.48 208.48 1.0305 1.5838 2.5190 863.24 -0.0024171 121.53 0.10425 11.422 0.087549 532.58 578.56 2.3688 1.4462 1.7697 220.89 0.30569 7.5095 0.016131
4.3750 78.475 0.013432 214.33 215.97 1.0574 522.62 0.0019134 209.98 211.01 1.0395 1.5874 2.5268 856.64 -0.0023303 120.29 0.10374 11.756 0.085062 533.63 579.65 2.3678 1.4518 1.7792 220.75 0.30354 7.5384 0.016249
5.3750 80.817 0.013769 216.92 218.61 1.0667 521.23 0.0019185 212.48 213.55 1.0486 1.5910 2.5348 850.04 -0.0022417 119.06 0.10324 12.098 0.082660 534.67 580.73 2.3669 1.4575 1.7888 220.60 0.30144 7.5674 0.016368
6.3750 83.211 0.014112 219.52 221.26 1.0760 519.84 0.0019237 215.00 216.10 1.0576 1.5946 2.5429 843.43 -0.0021514 117.85 0.10273 12.447 0.080340 535.72 581.81 2.3659 1.4632 1.7986 220.44 0.29938 7.5966 0.016487
7.3750 85.657 0.014461 222.13 223.92 1.0854 518.44 0.0019289 217.51 218.65 1.0666 1.5983 2.5511 836.82 -0.0020593 116.65 0.10223 12.805 0.078096 536.76 582.88 2.3650 1.4689 1.8085 220.27 0.29736 7.6259 0.016608
8.3750 88.156 0.014815 224.75 226.59 1.0947 517.03 0.0019341 220.04 221.22 1.0756 1.6020 2.5595 830.20 -0.0019652 115.46 0.10173 13.170 0.075928 537.80 583.95 2.3640 1.4746 1.8186 220.08 0.29538 7.6555 0.016730
9.3750 90.708 0.015174 227.37 229.27 1.1040 515.62 0.0019394 222.57 223.79 1.0846 1.6057 2.5679 823.58 -0.0018691 114.28 0.10124 13.545 0.073830 538.84 585.01 2.3631 1.4804 1.8288 219.89 0.29345 7.6852 0.016853
10.375 93.315 0.015539 230.01 231.95 1.1133 514.19 0.0019448 225.11 226.37 1.0936 1.6095 2.5765 816.96 -0.0017710 113.11 0.10074 13.927 0.071802 539.87 586.07 2.3622 1.4863 1.8392 219.69 0.29156 7.7151 0.016978
11.375 95.977 0.015909 232.65 234.65 1.1226 512.76 0.0019502 227.66 228.95 1.1025 1.6132 2.5852 810.32 -0.0016708 111.95 0.10025 14.319 0.069840 540.90 587.12 2.3614 1.4921 1.8498 219.48 0.28971 7.7452 0.017103
12.375 98.694 0.016285 235.29 237.36 1.1319 511.32 0.0019557 230.22 231.55 1.1115 1.6170 2.5940 803.68 -0.0015685 110.80 0.099756 14.719 0.067941 541.93 588.17 2.3605 1.4980 1.8605 219.26 0.28790 7.7756 0.017230
13.375 101.47 0.016667 237.95 240.07 1.1412 509.87 0.0019613 232.78 234.15 1.1205 1.6208 2.6030 797.04 -0.0014639 109.67 0.099267 15.128 0.066103 542.96 589.21 2.3597 1.5040 1.8715 219.03 0.28612 7.8061 0.017359
14.375 104.30 0.017054 240.62 242.79 1.1504 508.42 0.0019669 235.35 236.77 1.1295 1.6247 2.6121 790.39 -0.0013569 108.54 0.098779 15.547 0.064323 543.99 590.24 2.3588 1.5099 1.8826 218.79 0.28439 7.8369 0.017488
15.375 107.19 0.017446 243.29 245.53 1.1597 506.95 0.0019726 237.93 239.39 1.1384 1.6286 2.6214 783.73 -0.0012476 107.43 0.098294 15.974 0.062600 545.01 591.27 2.3580 1.5159 1.8940 218.53 0.28270 7.8680 0.017619
16.375 110.13 0.017845 245.97 248.27 1.1690 505.48 0.0019783 240.52 242.02 1.1474 1.6324 2.6308 777.07 -0.0011357 106.32 0.097810 16.412 0.060931 546.03 592.29 2.3572 1.5220 1.9055 218.27 0.28104 7.8993 0.017752
17.375 113.14 0.018248 248.66 251.02 1.1783 504.00 0.0019841 243.11 244.66 1.1564 1.6364 2.6403 770.40 -0.0010213 105.22 0.097328 16.859 0.059314 547.04 593.31 2.3564 1.5281 1.9172 217.99 0.27942 7.9308 0.017886
18.375 116.21 0.018657 251.36 253.78 1.1875 502.50 0.0019900 245.72 247.31 1.1653 1.6403 2.6501 763.72 -0.00090422 104.14 0.096848 17.317 0.057747 548.05 594.32 2.3557 1.5342 1.9292 217.71 0.27783 7.9626 0.018021
19.375 119.33 0.019072 254.06 256.56 1.1968 501.00 0.0019960 248.33 249.97 1.1743 1.6443 2.6599 757.04 -0.00078435 103.06 0.096371 17.785 0.056228 549.06 595.33 2.3549 1.5404 1.9414 217.41 0.27628 7.9947 0.018159
20.375 122.52 0.019492 256.78 259.34 1.2061 499.49 0.0020020 250.95 252.64 1.1832 1.6483 2.6700 750.35 -0.00066161 101.99 0.095895 18.263 0.054756 550.07 596.32 2.3541 1.5466 1.9538 217.10 0.27477 8.0272 0.018297
21.375 125.77 0.019917 259.50 262.13 1.2153 497.97 0.0020082 253.57 255.32 1.1922 1.6523 2.6802 743.64 -0.00053589 100.93 0.095420 18.752 0.053328 551.07 597.31 2.3534 1.5528 1.9665 216.78 0.27329 8.0599 0.018438
22.375 129.08 0.020348 262.23 264.93 1.2246 496.43 0.0020144 256.21 258.00 1.2012 1.6563 2.6906 736.94 -0.00040708 99.877 0.094948 19.252 0.051943 552.07 598.30 2.3526 1.5591 1.9795 216.45 0.27184 8.0929 0.018580
23.375 132.46 0.020784 264.97 267.74 1.2338 494.89 0.0020206 258.86 260.70 1.2101 1.6604 2.7012 730.22 -0.00027505 98.834 0.094478 19.763 0.050600 553.06 599.27 2.3519 1.5655 1.9927 216.11 0.27043 8.1263 0.018724
24.375 135.90 0.021225 267.72 270.56 1.2431 493.34 0.0020270 261.51 263.41 1.2191 1.6645 2.7120 723.49 -0.00013968 97.800 0.094009 20.285 0.049297 554.05 600.24 2.3512 1.5718 2.0061 215.75 0.26906 8.1600 0.018870
25.375 139.41 0.021672 270.47 273.39 1.2523 491.77 0.0020335 264.17 266.13 1.2280 1.6686 2.7230 716.76 -8.3775e-07 96.773 0.093543 20.820 0.048032 555.03 601.20 2.3504 1.5783 2.0199 215.39 0.26771 8.1941 0.019017
26.375 142.98 0.022123 273.24 276.23 1.2616 490.20 0.0020400 266.84 268.85 1.2370 1.6728 2.7342 710.01 0.00014161 95.755 0.093078 21.366 0.046804 556.01 602.15 2.3497 1.5847 2.0340 215.01 0.26640 8.2286 0.019167
27.375 146.62 0.022580 276.01 279.08 1.2708 488.61 0.0020466 269.52 271.59 1.2459 1.6770 2.7456 703.26 0.00028782 94.745 0.092615 21.924 0.045612 556.99 603.10 2.3490 1.5913 2.0484 214.62 0.26512 8.2634 0.019319
28.375 150.33 0.023042 278.80 281.94 1.2801 487.01 0.0020533 272.21 274.34 1.2549 1.6812 2.7573 696.49 0.00043793 93.742 0.092154 22.495 0.044454 557.96 604.03 2.3483 1.5978 2.0631 214.21 0.26387 8.2987 0.019472
29.375 154.10 0.023508 281.59 284.81 1.2893 485.40 0.0020601 274.91 277.10 1.2638 1.6854 2.7691 689.72 0.00059212 92.747 0.091695 23.079 0.043329 558.92 604.96 2.3476 1.6044 2.0781 213.80 0.26265 8.3344 0.019628
30.375 157.94 0.023980 284.39 287.69 1.2986 483.78 0.0020671 277.62 279.87 1.2728 1.6897 2.7813 682.93 0.00075055 91.760 0.091238 23.676 0.042237 559.88 605.88 2.3469 1.6111 2.0935 213.37 0.26147 8.3705 0.019786
31.375 161.86 0.024456 287.20 290.58 1.3078 482.15 0.0020741 280.34 282.66 1.2818 1.6939 2.7936 676.13 0.00091340 90.779 0.090782 24.287 0.041175 560.84 606.79 2.3462 1.6178 2.1092 212.93 0.26031 8.4071 0.019947
32.375 165.84 0.024936 290.02 293.49 1.3171 480.50 0.0020812 283.07 285.45 1.2908 1.6983 2.8063 669.32 0.0010809 89.806 0.090328 24.911 0.040143 561.79 607.69 2.3455 1.6246 2.1254 212.48 0.25919 8.4442 0.020110
33.375 169.90 0.025421 292.85 296.40 1.3263 478.83 0.0020884 285.81 288.26 1.2997 1.7026 2.8192 662.50 0.0012532 88.840 0.089876 25.549 0.039140 562.73 608.58 2.3448 1.6314 2.1419 212.01 0.25809 8.4818 0.020275
34.375 174.02 0.025911 295.69 299.32 1.3355 477.16 0.0020957 288.56 291.07 1.3087 1.7070 2.8324 655.67 0.0014305 87.880 0.089426 26.202 0.038164 563.67 609.46 2.3440 1.6383 2.1589 211.53 0.25702 8.5199 0.020443
35.375 178.22 0.026404 298.53 302.26 1.3448 475.47 0.0021032 291.32 293.90 1.3177 1.7114 2.8459 648.82 0.0016131 86.927 0.088977 26.870 0.037216 564.60 610.33 2.3433 1.6452 2.1763 211.04 0.25599 8.5586 0.020613
36.375 182.50 0.026901 301.39 305.20 1.3540 473.77 0.0021107 294.09 296.74 1.3267 1.7158 2.8597 641.96 0.0018012 85.980 0.088531 27.553 0.036293 565.52 611.19 2.3426 1.6522 2.1942 210.53 0.25498 8.5978 0.020786
37.375 186.84 0.027402 304.25 308.16 1.3633 472.05 0.0021184 296.87 299.60 1.3357 1.7203 2.8739 635.08 0.0019950 85.040 0.088085 28.252 0.035395 566.44 612.04 2.3419 1.6592 2.2125 210.01 0.25400 8.6376 0.020962
38.375 191.27 0.027907 307.13 311.13 1.3725 470.31 0.0021262 299.66 302.46 1.3447 1.7248 2.8884 628.19 0.0021949 84.105 0.087642 28.967 0.034522 567.35 612.88 2.3411 1.6663 2.2314 209.47 0.25305 8.6780 0.021141
39.375 195.77 0.028415 310.01 314.10 1.3818 468.56 0.0021342 302.46 305.34 1.3537 1.7293 2.9033 621.29 0.0024011 83.177 0.087200 29.699 0.033671 568.26 613.70 2.3404 1.6734 2.2508 208.92 0.25213 8.7190 0.021323
40.375 200.34 0.028925 312.91 317.09 1.3910 466.80 0.0021423 305.27 308.23 1.3627 1.7339 2.9185 614.37 0.0026140 82.254 0.086760 30.447 0.032844 569.15 614.52 2.3396 1.6806 2.2708 208.36 0.25123 8.7608 0.021508
41.375 205.00 0.029439 315.81 320.09 1.4002 465.01 0.0021505 308.10 311.14 1.3718 1.7385 2.9342 607.43 0.0028338 81.338 0.086322 31.214 0.032037 570.04 615.32 2.3389 1.6879 2.2913 207.78 0.25037 8.8032 0.021696
42.375 209.73 0.029954 318.72 323.11 1.4095 463.21 0.0021588 310.94 314.06 1.3808 1.7432 2.9502 600.47 0.0030609 80.426 0.085885 31.998 0.031252 570.92 616.11 2.3381 1.6952 2.3125 207.19 0.24953 8.8463 0.021888
43.375 214.54 0.030472 321.65 326.13 1.4187 461.40 0.0021673 313.79 316.99 1.3899 1.7478 2.9667 593.50 0.0032957 79.520 0.085449 32.800 0.030488 571.79 616.88 2.3373 1.7027 2.3344 206.58 0.24871 8.8902 0.022084
44.375 219.43 0.030991 324.58 329.17 1.4280 459.56 0.0021760 316.65 319.94 1.3989 1.7525 2.9837 586.51 0.0035386 78.619 0.085015 33.622 0.029742 572.65 617.65 2.3365 1.7101 2.3569 205.96 0.24793 8.9349 0.022283
45.375 224.41 0.031512 327.52 332.21 1.4373 457.71 0.0021848 319.52 322.90 1.4080 1.7573 3.0012 579.50 0.0037900 77.723 0.084583 34.463 0.029016 573.50 618.40 2.3357 1.7177 2.3802 205.32 0.24717 8.9805 0.022485
46.375 229.46 0.032033 330.48 335.27 1.4465 455.83 0.0021938 322.41 325.88 1.4171 1.7621 3.0192 572.46 0.0040504 76.832 0.084152 35.325 0.028308 574.34 619.13 2.3349 1.7253 2.4042 204.67 0.24644 9.0269 0.022692
47.375 234.60 0.032554 333.44 338.34 1.4558 453.94 0.0022029 325.31 328.87 1.4262 1.7669 3.0377 565.41 0.0043202 75.946 0.083723 36.208 0.027618 575.17 619.85 2.3340 1.7329 2.4291 204.00 0.24573 9.0742 0.022903
48.375 239.83 0.033075 336.42 341.43 1.4650 452.03 0.0022123 328.22 331.88 1.4353 1.7718 3.0569 558.34 0.0046000 75.064 0.083295 37.112 0.026945 576.00 620.55 2.3332 1.7407 2.4548 203.31 0.24505 9.1224 0.023119
49.375 245.13 0.033595 339.40 344.52 1.4743 450.09 0.0022218 331.15 334.90 1.4445 1.7767 3.0766 551.24 0.0048904 74.186 0.082868 38.039 0.026289 576.81 621.24 2.3323 1.7485 2.4815 202.61 0.24440 9.1716 0.023339
50.375 250.53 0.034113 342.40 347.63 1.4836 448.13 0.0022315 334.09 337.94 1.4536 1.7817 3.0970 544.13 0.0051920 73.313 0.082442 38.989 0.025648 577.61 621.91 2.3314 1.7564 2.5092 201.89 0.24377 9.2219 0.023564
51.375 256.01 0.034628 345.40 350.75 1.4928 446.15 0.0022414 337.04 341.00 1.4628 1.7867 3.1181 536.98 0.0055054 72.443 0.082018 39.962 0.025024 578.39 622.56 2.3304 1.7644 2.5379 201.16 0.24317 9.2733 0.023794
52.375 261.57 0.035141 348.42 353.88 1.5021 444.15 0.0022515 340.01 344.07 1.4720 1.7918 3.1400 529.82 0.0058313 71.577 0.081595 40.961 0.024414 579.17 623.20 2.3295 1.7724 2.5677 200.41 0.24260 9.3258 0.024029
53.375 267.23 0.035649 351.44 357.03 1.5114 442.12 0.0022618 343.00 347.17 1.4812 1.7969 3.1627 522.62 0.0061705 70.715 0.081174 41.985 0.023818 579.93 623.81 2.3285 1.7805 2.5987 199.63 0.24205 9.3795 0.024270
54.375 272.97 0.036152 354.48 360.19 1.5207 440.06 0.0022724 346.00 350.28 1.4904 1.8021 3.1862 515.40 0.0065239 69.856 0.080753 43.036 0.023237 580.68 624.41 2.3274 1.7887 2.6310 198.85 0.24154 9.4344 0.024516
55.375 278.81 0.036648 357.53 363.36 1.5300 437.98 0.0022832 349.02 353.40 1.4997 1.8073 3.2106 508.15 0.0068923 69.001 0.080334 44.114 0.022669 581.41 624.99 2.3264 1.7969 2.6646 198.04 0.24105 9.4907 0.024769
56.375 284.74 0.037137 360.59 366.54 1.5393 435.87 0.0022943 352.05 356.55 1.5090 1.8126 3.2360 500.87 0.0072767 68.148 0.079915 45.221 0.022114 582.13 625.54 2.3253 1.8052 2.6998 197.22 0.24059 9.5484 0.025028
57.375 290.76 0.037617 363.67 369.74 1.5486 433.73 0.0023056 355.10 359.72 1.5183 1.8179 3.2624 493.56 0.0076782 67.299 0.079498 46.358 0.021571 582.83 626.07 2.3241 1.8136 2.7365 196.37 0.24016 9.6075 0.025294
58.375 296.87 0.038087 366.75 372.95 1.5579 431.56 0.0023172 358.17 362.91 1.5276 1.8233 3.2900 486.22 0.0080980 66.451 0.079082 47.525 0.021041 583.52 626.58 2.3230 1.8220 2.7749 195.51 0.23976 9.6682 0.025568
59.375 303.08 0.038544 369.84 376.18 1.5673 429.36 0.0023290 361.25 366.12 1.5370 1.8288 3.3188 478.84 0.0085373 65.606 0.078666 48.726 0.020523 584.18 627.07 2.3218 1.8305 2.8152 194.63 0.23939 9.7305 0.025849
60.375 309.38 0.038988 372.95 379.42 1.5766 427.13 0.0023412 364.36 369.35 1.5464 1.8343 3.3489 471.43 0.0089976 64.763 0.078251 49.960 0.020016 584.83 627.53 2.3205 1.8391 2.8576 193.73 0.23905 9.7945 0.026138
61.375 315.78 0.039415 376.07 382.67 1.5859 424.87 0.0023537 367.48 372.60 1.5558 1.8400 3.3805 463.99 0.0094803 63.922 0.077838 51.229 0.019520 585.46 627.96 2.3192 1.8479 2.9022 192.82 0.23873 9.8603 0.026436
62.375 322.28 0.039823 379.20 385.94 1.5953 422.56 0.0023665 370.62 375.88 1.5653 1.8457 3.4136 456.50 0.0099871 63.083 0.077425 52.535 0.019035 586.07 628.37 2.3178 1.8567 2.9492 191.88 0.23845 9.9281 0.026744
63.375 328.88 0.040211 382.35 389.22 1.6046 420.22 0.0023797 373.79 379.18 1.5748 1.8514 3.4483 448.97 0.010520 62.244 0.077012 53.879 0.018560 586.66 628.74 2.3164 1.8656 2.9989 190.92 0.23819 9.9979 0.027061
64.375 335.58 0.040574 385.50 392.52 1.6140 417.85 0.0023932 376.97 382.51 1.5844 1.8573 3.4850 441.40 0.011081 61.407 0.076600 55.265 0.018095 587.22 629.09 2.3149 1.8747 3.0517 189.95 0.23796 10.070 0.027389
65.375 342.38 0.040909 388.67 395.83 1.6234 415.42 0.0024072 380.18 385.86 1.5939 1.8633 3.5236 433.79 0.011672 60.570 0.076189 56.692 0.017639 587.76 629.40 2.3133 1.8839 3.1077 188.95 0.23775 10.144 0.027729
66.375 349.28 0.041213 391.86 399.15 1.6328 412.96 0.0024215 383.41 389.25 1.6036 1.8693 3.5645 426.12 0.012296 59.733 0.075779 58.165 0.017193 588.28 629.68 2.3117 1.8933 3.1674 187.93 0.23757 10.221 0.028080
67.375 356.28 0.041481 395.05 402.50 1.6422 410.45 0.0024363 386.67 392.65 1.6133 1.8755 3.6078 418.41 0.012956 58.897 0.075368 59.684 0.016755 588.76 629.92 2.3100 1.9030 3.2311 186.89 0.23740 10.300 0.028446
68.375 363.40 0.041709 398.26 405.86 1.6516 407.89 0.0024516 389.95 396.09 1.6230 1.8818 3.6537 410.64 0.013655 58.059 0.074959 61.253 0.016326 589.22 630.13 2.3082 1.9129 3.2994 185.83 0.23724 10.382 0.028825
69.375 370.61 0.041890 401.49 409.23 1.6610 405.28 0.0024674 393.26 399.57 1.6328 1.8882 3.7027 402.81 0.014396 57.221 0.074549 62.875 0.015905 589.65 630.29 2.3064 1.9231 3.3727 184.74 0.23710 10.467 0.029221
70.375 377.94 0.042018 404.73 412.62 1.6704 402.62 0.0024838 396.60 403.07 1.6426 1.8947 3.7550 394.92 0.015183 56.381 0.074141 64.552 0.015491 590.04 630.41 2.3044 1.9336 3.4518 183.63 0.23697 10.555 0.029633
71.375 385.37 0.042085 407.98 416.03 1.6799 399.89 0.0025007 399.96 406.61 1.6525 1.9014 3.8109 386.97 0.016021 55.540 0.073732 66.288 0.015086 590.40 630.49 2.3024 1.9444 3.5371 182.50 0.23684 10.647 0.030064
72.375 392.92 0.042083 411.25 419.46 1.6894 397.11 0.0025182 403.36 410.18 1.6625 1.9083 3.8711 378.95 0.016915 54.696 0.073324 68.087 0.014687 590.73 630.51 2.3002 1.9556 3.6297 181.34 0.23671 10.743 0.030515
73.375 400.57 0.042001 414.53 422.90 1.6989 394.26 0.0025364 406.79 413.80 1.6726 1.9153 3.9359 370.85 0.017871 53.848 0.072917 69.953 0.014295 591.01 630.49 2.2979 1.9673 3.7303 180.16 0.23658 10.842 0.030989
74.375 408.34 0.041829 417.83 426.36 1.7084 391.34 0.0025553 410.26 417.45 1.6827 1.9226 4.0060 362.67 0.018894 52.997 0.072510 71.890 0.013910 591.25 630.41 2.2955 1.9793 3.8401 178.95 0.23643 10.946 0.031488
75.375 416.23 0.041551 421.15 429.84 1.7179 388.34 0.0025751 413.76 421.15 1.6930 1.9301 4.0822 354.41 0.019993 52.142 0.072104 73.904 0.013531 591.44 630.27 2.2930 1.9919 3.9604 177.71 0.23627 11.054 0.032014
76.375 424.23 0.041152 424.48 433.34 1.7274 385.26 0.0025957 417.31 424.90 1.7033 1.9378 4.1654 346.06 0.021177 51.281 0.071699 76.001 0.013158 591.59 630.07 2.2903 2.0050 4.0927 176.44 0.23609 11.168 0.032570
77.375 432.35 0.040611 427.83 436.86 1.7370 382.09 0.0026172 420.89 428.70 1.7137 1.9459 4.2565 337.60 0.022455 50.414 0.071295 78.187 0.012790 591.68 629.80 2.2874 2.0186 4.2389 175.15 0.23588 11.287 0.033161
78.375 440.59 0.039905 431.20 440.40 1.7466 378.83 0.0026397 424.53 432.54 1.7243 1.9543 4.3570 329.05 0.023838 49.539 0.070893 80.469 0.012427 591.71 629.46 2.2844 2.0328 4.4012 173.82 0.23563 11.412 0.033789
79.375 448.95 0.039006 434.58 443.96 1.7562 375.46 0.0026634 428.21 436.45 1.7349 1.9631 4.4684 320.38 0.025341 48.657 0.070494 82.856 0.012069 591.68 629.04 2.2812 2.0475 4.5824 172.46 0.23535 11.544 0.034461
80.375 457.44 0.037878 437.99 447.55 1.7659 371.97 0.0026884 431.94 440.42 1.7457 1.9723 4.5928 311.58 0.026980 47.764 0.070099 85.359 0.011715 591.58 628.53 2.2778 2.0630 4.7859 171.07 0.23501 11.684 0.035181
81.375 466.05 0.036479 441.42 451.16 1.7756 368.36 0.0027147 435.74 444.46 1.7567 1.9820 4.7327 302.66 0.028773 46.860 0.069708 87.988 0.011365 591.40 627.92 2.2742 2.0791 5.0161 169.64 0.23461 11.832 0.035957
82.375 474.79 0.034755 444.87 454.79 1.7853 364.61 0.0027427 439.60 448.58 1.7678 1.9924 4.8914 293.60 0.030744 45.942 0.069323 90.757 0.011018 591.14 627.21 2.2703 2.0959 5.2786 168.17 0.23413 11.989 0.036797
83.375 483.66 0.032638 448.34 458.44 1.7950 360.70 0.0027724 443.53 452.78 1.7791 2.0034 5.0731 284.38 0.032920 45.010 0.068948 93.681 0.010674 590.79 626.38 2.2661 2.1136 5.5807 166.67 0.23357 12.157 0.037711
84.375 492.67 0.030040 451.83 462.13 1.8048 356.61 0.0028041 447.54 457.07 1.7907 2.0153 5.2834 275.00 0.035335 44.059 0.068586 96.781 0.010333 590.33 625.42 2.2616 2.1321 5.9321 165.13 0.23290 12.338 0.038713
85.375 501.81 0.026847 455.35 465.84 1.8146 352.33 0.0028382 451.65 461.47 1.8025 2.0281 5.5302 265.44 0.038030 43.088 0.068241 100.08 0.0099920 589.74 624.31 2.2567 2.1517 6.3459 163.54 0.23209 12.532 0.039819
86.375 511.09 0.022906 458.90 469.58 1.8245 347.82 0.0028751 455.85 465.98 1.8145 2.0420 5.8240 255.69 0.041058 42.092 0.067923 103.61 0.0096520 589.03 623.04 2.2514 2.1723 6.8405 161.91 0.23112 12.743 0.041051
87.375 520.51 0.018008 462.48 473.36 1.8345 343.04 0.0029151 460.18 470.64 1.8269 2.0574 6.1803 245.72 0.044485 41.066 0.067640 107.40 0.0093114 588.15 621.56 2.2456 2.1943 7.4422 160.23 0.22995 12.973 0.042436
88.375 530.07 0.011857 466.09 477.17 1.8445 337.95 0.0029590 464.64 475.45 1.8397 2.0745 6.6221 235.52 0.048397 40.005 0.067412 111.50 0.0089689 587.08 619.86 2.2392 2.2178 8.1900 158.49 0.22854 13.226 0.044014
89.375 539.79 0.0040241 469.74 481.01 1.8545 332.48 0.0030077 469.27 480.46 1.8530 2.0936 7.1851 225.04 0.052906 38.901 0.067265 115.97 0.0086228 585.79 617.88 2.2321 2.2433 9.1445 156.69 0.22681 13.508 0.045839
90.375 556.33 undefined 472.51 484.14 1.8622 330.00 0.0030303 472.51 484.14 1.8622 2.0990 7.2405 223.37 0.053849 38.428 0.067093 330.00 0.0030303 472.51 484.14 1.8622 2.0990 7.2405 223.37 0.053849 38.428 0.067093
91.375 578.08 undefined 474.61 486.69 1.8679 330.00 0.0030303 474.61 486.69 1.8679 2.0932 6.8857 228.22 0.051907 38.456 0.066887 330.00 0.0030303 474.61 486.69 1.8679 2.0932 6.8857 228.22 0.051907 38.456 0.066887
92.375 600.00 undefined 476.70 489.23 1.8737 330.00 0.0030303 476.70 489.23 1.8737 2.0882 6.5884 232.80 0.050150 38.485 0.066727 330.00 0.0030303 476.70 489.23 1.8737 2.0882 6.5884 232.80 0.050150 38.485 0.066727
93.375 622.09 undefined 478.78 491.78 1.8794 330.00 0.0030303 478.78 491.78 1.8794 2.0839 6.3346 237.14 0.048547 38.515 0.066602 330.00 0.0030303 478.78 491.78 1.8794 2.0839 6.3346 237.14 0.048547 38.515 0.066602
94.375 644.34 undefined 480.87 494.33 1.8850 330.00 0.0030303 480.87 494.33 1.8850 2.0802 6.1145 241.26 0.047071 38.546 0.066505 330.00 0.0030303 480.87 494.33 1.8850 2.0802 6.1145 241.26 0.047071 38.546 0.066505
95.375 666.72 undefined 482.95 496.88 1.8907 330.00 0.0030303 482.95 496.88 1.8907 2.0772 5.9212 245.18 0.045704 38.581 0.066430 330.00 0.0030303 482.95 496.88 1.8907 2.0772 5.9212 245.18 0.045704 38.581 0.066430
96.375 689.23 undefined 485.02 499.42 1.8963 330.00 0.0030303 485.02 499.42 1.8963 2.0748 5.7498 248.94 0.044430 38.622 0.066373 330.00 0.0030303 485.02 499.42 1.8963 2.0748 5.7498 248.94 0.044430 38.622 0.066373
97.375 711.86 undefined 487.09 501.97 1.9019 330.00 0.0030303 487.09 501.97 1.9019 2.0728 5.5963 252.55 0.043236 38.645 0.066333 330.00 0.0030303 487.09 501.97 1.9019 2.0728 5.5963 252.55 0.043236 38.645 0.066333
98.375 734.60 undefined 489.17 504.51 1.9075 330.00 0.0030303 489.17 504.51 1.9075 2.0714 5.4579 256.03 0.042112 38.662 0.066308 330.00 0.0030303 489.17 504.51 1.9075 2.0714 5.4579 256.03 0.042112 38.662 0.066308
99.375 757.44 undefined 491.24 507.06 1.9131 330.00 0.0030303 491.24 507.06 1.9131 2.0704 5.3324 259.39 0.041050 38.684 0.066293 330.00 0.0030303 491.24 507.06 1.9131 2.0704 5.3324 259.39 0.041050 38.684 0.066293
100.38 780.38 undefined 493.31 509.61 1.9186 330.00 0.0030303 493.31 509.61 1.9186 2.0697 5.2179 262.64 0.040042 38.709 0.066287 330.00 0.0030303 493.31 509.61 1.9186 2.0697 5.2179 262.64 0.040042 38.709 0.066287
101.38 803.41 undefined 495.38 512.16 1.9242 330.00 0.0030303 495.38 512.16 1.9242 2.0694 5.1129 265.80 0.039085 38.735 0.066290 330.00 0.0030303 495.38 512.16 1.9242 2.0694 5.1129 265.80 0.039085 38.735 0.066290
102.38 826.52 undefined 497.45 514.72 1.9297 330.00 0.0030303 497.45 514.72 1.9297 2.0694 5.0163 268.87 0.038172 38.762 0.066301 330.00 0.0030303 497.45 514.72 1.9297 2.0694 5.0163 268.87 0.038172 38.762 0.066301
103.38 849.72 undefined 499.52 517.27 1.9352 330.00 0.0030303 499.52 517.27 1.9352 2.0697 4.9271 271.86 0.037300 38.790 0.066318 330.00 0.0030303 499.52 517.27 1.9352 2.0697 4.9271 271.86 0.037300 38.790 0.066318
104.38 872.99 undefined 501.59 519.83 1.9407 330.00 0.0030303 501.59 519.83 1.9407 2.0702 4.8444 274.79 0.036465 38.817 0.066341 330.00 0.0030303 501.59 519.83 1.9407 2.0702 4.8444 274.79 0.036465 38.817 0.066341
105.38 896.33 undefined 503.66 522.38 1.9461 330.00 0.0030303 503.66 522.38 1.9461 2.0709 4.7676 277.65 0.035665 38.845 0.066370 330.00 0.0030303 503.66 522.38 1.9461 2.0709 4.7676 277.65 0.035665 38.845 0.066370
106.38 919.74 undefined 505.73 524.94 1.9516 330.00 0.0030303 505.73 524.94 1.9516 2.0718 4.6960 280.45 0.034897 38.872 0.066403 330.00 0.0030303 505.73 524.94 1.9516 2.0718 4.6960 280.45 0.034897 38.872 0.066403
107.38 943.21 undefined 507.80 527.51 1.9571 330.00 0.0030303 507.80 527.51 1.9571 2.0729 4.6291 283.19 0.034158 38.900 0.066441 330.00 0.0030303 507.80 527.51 1.9571 2.0729 4.6291 283.19 0.034158 38.900 0.066441
108.38 966.75 undefined 509.87 530.07 1.9625 330.00 0.0030303 509.87 530.07 1.9625 2.0741 4.5664 285.88 0.033447 38.928 0.066483 330.00 0.0030303 509.87 530.07 1.9625 2.0741 4.5664 285.88 0.033447 38.928 0.066483
109.38 990.35 undefined 511.95 532.64 1.9679 330.00 0.0030303 511.95 532.64 1.9679 2.0755 4.5076 288.52 0.032762 38.955 0.066529 330.00 0.0030303 511.95 532.64 1.9679 2.0755 4.5076 288.52 0.032762 38.955 0.066529
110.38 1014.0 undefined 514.02 535.21 1.9734 330.00 0.0030303 514.02 535.21 1.9734 2.0770 4.4524 291.12 0.032101 38.983 0.066578 330.00 0.0030303 514.02 535.21 1.9734 2.0770 4.4524 291.12 0.032101 38.983 0.066578
111.38 1037.7 undefined 516.10 537.78 1.9788 330.00 0.0030303 516.10 537.78 1.9788 2.0786 4.4003 293.67 0.031462 39.011 0.066630 330.00 0.0030303 516.10 537.78 1.9788 2.0786 4.4003 293.67 0.031462 39.011 0.066630
112.38 1061.5 undefined 518.18 540.36 1.9842 330.00 0.0030303 518.18 540.36 1.9842 2.0803 4.3512 296.18 0.030845 39.038 0.066685 330.00 0.0030303 518.18 540.36 1.9842 2.0803 4.3512 296.18 0.030845 39.038 0.066685
113.38 1085.3 undefined 520.26 542.94 1.9896 330.00 0.0030303 520.26 542.94 1.9896 2.0822 4.3047 298.66 0.030248 39.066 0.066742 330.00 0.0030303 520.26 542.94 1.9896 2.0822 4.3047 298.66 0.030248 39.066 0.066742
114.38 1109.2 undefined 522.35 545.52 1.9949 330.00 0.0030303 522.35 545.52 1.9949 2.0841 4.2608 301.09 0.029670 39.093 0.066803 330.00 0.0030303 522.35 545.52 1.9949 2.0841 4.2608 301.09 0.029670 39.093 0.066803
115.38 1133.1 undefined 524.43 548.10 2.0003 330.00 0.0030303 524.43 548.10 2.0003 2.0861 4.2192 303.50 0.029110 39.121 0.066865 330.00 0.0030303 524.43 548.10 2.0003 2.0861 4.2192 303.50 0.029110 39.121 0.066865
116.38 1157.0 undefined 526.52 550.69 2.0057 330.00 0.0030303 526.52 550.69 2.0057 2.0882 4.1797 305.86 0.028567 39.148 0.066930 330.00 0.0030303 526.52 550.69 2.0057 2.0882 4.1797 305.86 0.028567 39.148 0.066930
117.38 1181.0 undefined 528.61 553.28 2.0110 330.00 0.0030303 528.61 553.28 2.0110 2.0904 4.1422 308.20 0.028040 39.176 0.066996 330.00 0.0030303 528.61 553.28 2.0110 2.0904 4.1422 308.20 0.028040 39.176 0.066996
118.38 1205.1 undefined 530.70 555.88 2.0164 330.00 0.0030303 530.70 555.88 2.0164 2.0927 4.1065 310.51 0.027528 39.203 0.067065 330.00 0.0030303 530.70 555.88 2.0164 2.0927 4.1065 310.51 0.027528 39.203 0.067065
119.38 1229.1 undefined 532.79 558.47 2.0217 330.00 0.0030303 532.79 558.47 2.0217 2.0950 4.0725 312.78 0.027031 39.231 0.067136 330.00 0.0030303 532.79 558.47 2.0217 2.0950 4.0725 312.78 0.027031 39.231 0.067136
120.38 1253.3 undefined 534.89 561.07 2.0271 330.00 0.0030303 534.89 561.07 2.0271 2.0974 4.0401 315.03 0.026548 39.258 0.067208 330.00 0.0030303 534.89 561.07 2.0271 2.0974 4.0401 315.03 0.026548 39.258 0.067208
121.38 1277.4 undefined 536.99 563.68 2.0324 330.00 0.0030303 536.99 563.68 2.0324 2.0999 4.0092 317.25 0.026079 39.285 0.067282 330.00 0.0030303 536.99 563.68 2.0324 2.0999 4.0092 317.25 0.026079 39.285 0.067282
122.38 1301.6 undefined 539.09 566.28 2.0377 330.00 0.0030303 539.09 566.28 2.0377 2.1024 3.9798 319.45 0.025621 39.313 0.067357 330.00 0.0030303 539.09 566.28 2.0377 2.1024 3.9798 319.45 0.025621 39.313 0.067357
123.38 1325.8 undefined 541.19 568.89 2.0430 330.00 0.0030303 541.19 568.89 2.0430 2.1050 3.9516 321.62 0.025176 39.340 0.067434 330.00 0.0030303 541.19 568.89 2.0430 2.1050 3.9516 321.62 0.025176 39.340 0.067434
124.38 1350.1 undefined 543.30 571.51 2.0483 330.00 0.0030303 543.30 571.51 2.0483 2.1076 3.9247 323.77 0.024743 39.367 0.067512 330.00 0.0030303 543.30 571.51 2.0483 2.1076 3.9247 323.77 0.024743 39.367 0.067512
125.38 1374.4 undefined 545.41 574.12 2.0536 330.00 0.0030303 545.41 574.12 2.0536 2.1103 3.8989 325.89 0.024321 39.395 0.067592 330.00 0.0030303 545.41 574.12 2.0536 2.1103 3.8989 325.89 0.024321 39.395 0.067592
126.38 1398.7 undefined 547.52 576.74 2.0589 330.00 0.0030303 547.52 576.74 2.0589 2.1130 3.8742 327.99 0.023909 39.422 0.067673 330.00 0.0030303 547.52 576.74 2.0589 2.1130 3.8742 327.99 0.023909 39.422 0.067673
127.38 1423.1 undefined 549.63 579.37 2.0642 330.00 0.0030303 549.63 579.37 2.0642 2.1158 3.8506 330.08 0.023507 39.449 0.067755 330.00 0.0030303 549.63 579.37 2.0642 2.1158 3.8506 330.08 0.023507 39.449 0.067755
128.38 1447.5 undefined 551.75 581.99 2.0695 330.00 0.0030303 551.75 581.99 2.0695 2.1186 3.8279 332.14 0.023116 39.477 0.067838 330.00 0.0030303 551.75 581.99 2.0695 2.1186 3.8279 332.14 0.023116 39.477 0.067838
129.38 1471.9 undefined 553.87 584.62 2.0748 330.00 0.0030303 553.87 584.62 2.0748 2.1214 3.8061 334.18 0.022734 39.504 0.067923 330.00 0.0030303 553.87 584.62 2.0748 2.1214 3.8061 334.18 0.022734 39.504 0.067923
130.38 1496.3 undefined 555.99 587.26 2.0800 330.00 0.0030303 555.99 587.26 2.0800 2.1243 3.7853 336.20 0.022360 39.531 0.068008 330.00 0.0030303 555.99 587.26 2.0800 2.1243 3.7853 336.20 0.022360 39.531 0.068008
131.38 1520.8 undefined 558.12 589.89 2.0853 330.00 0.0030303 558.12 589.89 2.0853 2.1272 3.7652 338.20 0.021996 39.558 0.068095 330.00 0.0030303 558.12 589.89 2.0853 2.1272 3.7652 338.20 0.021996 39.558 0.068095
132.38 1545.3 undefined 560.25 592.53 2.0905 330.00 0.0030303 560.25 592.53 2.0905 2.1302 3.7459 340.18 0.021640 39.585 0.068182 330.00 0.0030303 560.25 592.53 2.0905 2.1302 3.7459 340.18 0.021640 39.585 0.068182
133.38 1569.8 undefined 562.38 595.18 2.0958 330.00 0.0030303 562.38 595.18 2.0958 2.1332 3.7274 342.15 0.021292 39.613 0.068271 330.00 0.0030303 562.38 595.18 2.0958 2.1332 3.7274 342.15 0.021292 39.613 0.068271
134.38 1594.4 undefined 564.51 597.83 2.1010 330.00 0.0030303 564.51 597.83 2.1010 2.1362 3.7096 344.10 0.020952 39.640 0.068360 330.00 0.0030303 564.51 597.83 2.1010 2.1362 3.7096 344.10 0.020952 39.640 0.068360
135.38 1618.9 undefined 566.65 600.48 2.1063 330.00 0.0030303 566.65 600.48 2.1063 2.1392 3.6925 346.03 0.020619 39.667 0.068450 330.00 0.0030303 566.65 600.48 2.1063 2.1392 3.6925 346.03 0.020619 39.667 0.068450
136.38 1643.5 undefined 568.79 603.13 2.1115 330.00 0.0030303 568.79 603.13 2.1115 2.1423 3.6760 347.95 0.020294 39.694 0.068542 330.00 0.0030303 568.79 603.13 2.1115 2.1423 3.6760 347.95 0.020294 39.694 0.068542
137.38 1668.1 undefined 570.94 605.79 2.1167 330.00 0.0030303 570.94 605.79 2.1167 2.1454 3.6601 349.85 0.019976 39.721 0.068634 330.00 0.0030303 570.94 605.79 2.1167 2.1454 3.6601 349.85 0.019976 39.721 0.068634
138.38 1692.8 undefined 573.08 608.45 2.1220 330.00 0.0030303 573.08 608.45 2.1220 2.1485 3.6448 351.73 0.019664 39.748 0.068727 330.00 0.0030303 573.08 608.45 2.1220 2.1485 3.6448 351.73 0.019664 39.748 0.068727
139.38 1717.4 undefined 575.23 611.12 2.1272 330.00 0.0030303 575.23 611.12 2.1272 2.1516 3.6300 353.61 0.019359 39.775 0.068820 330.00 0.0030303 575.23 611.12 2.1272 2.1516 3.6300 353.61 0.019359 39.775 0.068820
140.38 1742.1 undefined 577.39 613.79 2.1324 330.00 0.0030303 577.39 613.79 2.1324 2.1548 3.6158 355.46 0.019061 39.802 0.068915 330.00 0.0030303 577.39 613.79 2.1324 2.1548 3.6158 355.46 0.019061 39.802 0.068915
141.38 1766.8 undefined 579.54 616.46 2.1376 330.00 0.0030303 579.54 616.46 2.1376 2.1580 3.6021 357.31 0.018768 39.829 0.069010 330.00 0.0030303 579.54 616.46 2.1376 2.1580 3.6021 357.31 0.018768 39.829 0.069010
142.38 1791.5 undefined 581.70 619.13 2.1428 330.00 0.0030303 581.70 619.13 2.1428 2.1612 3.5889 359.14 0.018482 39.856 0.069106 330.00 0.0030303 581.70 619.13 2.1428 2.1612 3.5889 359.14 0.018482 39.856 0.069106
143.38 1816.3 undefined 583.87 621.81 2.1480 330.00 0.0030303 583.87 621.81 2.1480 2.1644 3.5761 360.95 0.018201 39.883 0.069202 330.00 0.0030303 583.87 621.81 2.1480 2.1644 3.5761 360.95 0.018201 39.883 0.069202
144.38 1841.0 undefined 586.03 624.50 2.1532 330.00 0.0030303 586.03 624.50 2.1532 2.1676 3.5638 362.76 0.017927 39.910 0.069300 330.00 0.0030303 586.03 624.50 2.1532 2.1676 3.5638 362.76 0.017927 39.910 0.069300
145.38 1865.8 undefined 588.20 627.18 2.1584 330.00 0.0030303 588.20 627.18 2.1584 2.1709 3.5519 364.55 0.017657 39.937 0.069398 330.00 0.0030303 588.20 627.18 2.1584 2.1709 3.5519 364.55 0.017657 39.937 0.069398
146.38 1890.6 undefined 590.37 629.87 2.1636 330.00 0.0030303 590.37 629.87 2.1636 2.1741 3.5405 366.33 0.017393 39.964 0.069496 330.00 0.0030303 590.37 629.87 2.1636 2.1741 3.5405 366.33 0.017393 39.964 0.069496
147.38 1915.4 undefined 592.55 632.57 2.1687 330.00 0.0030303 592.55 632.57 2.1687 2.1774 3.5294 368.09 0.017134 39.991 0.069595 330.00 0.0030303 592.55 632.57 2.1687 2.1774 3.5294 368.09 0.017134 39.991 0.069595
148.38 1940.2 undefined 594.73 635.27 2.1739 330.00 0.0030303 594.73 635.27 2.1739 2.1807 3.5187 369.85 0.016880 40.018 0.069695 330.00 0.0030303 594.73 635.27 2.1739 2.1807 3.5187 369.85 0.016880 40.018 0.069695
149.38 1965.0 undefined 596.91 637.97 2.1791 330.00 0.0030303 596.91 637.97 2.1791 2.1840 3.5084 371.59 0.016630 40.044 0.069796 330.00 0.0030303 596.91 637.97 2.1791 2.1840 3.5084 371.59 0.016630 40.044 0.069796
150.38 1989.9 undefined 599.10 640.67 2.1843 330.00 0.0030303 599.10 640.67 2.1843 2.1874 3.4984 373.32 0.016386 40.071 0.069897 330.00 0.0030303 599.10 640.67 2.1843 2.1874 3.4984 373.32 0.016386 40.071 0.069897
151.38 2014.7 undefined 601.29 643.38 2.1894 330.00 0.0030303 601.29 643.38 2.1894 2.1907 3.4887 375.04 0.016146 40.098 0.069999 330.00 0.0030303 601.29 643.38 2.1894 2.1907 3.4887 375.04 0.016146 40.098 0.069999
152.38 2039.6 undefined 603.48 646.09 2.1946 330.00 0.0030303 603.48 646.09 2.1946 2.1940 3.4794 376.75 0.015910 40.125 0.070101 330.00 0.0030303 603.48 646.09 2.1946 2.1940 3.4794 376.75 0.015910 40.125 0.070101
153.38 2064.5 undefined 605.67 648.81 2.1997 330.00 0.0030303 605.67 648.81 2.1997 2.1974 3.4704 378.45 0.015679 40.152 0.070204 330.00 0.0030303 605.67 648.81 2.1997 2.1974 3.4704 378.45 0.015679 40.152 0.070204
154.38 2089.4 undefined 607.87 651.53 2.2049 330.00 0.0030303 607.87 651.53 2.2049 2.2008 3.4616 380.14 0.015452 40.178 0.070307 330.00 0.0030303 607.87 651.53 2.2049 2.2008 3.4616 380.14 0.015452 40.178 0.070307
155.38 2114.3 undefined 610.08 654.25 2.2100 330.00 0.0030303 610.08 654.25 2.2100 2.2041 3.4532 381.82 0.015229 40.205 0.070411 330.00 0.0030303 610.08 654.25 2.2100 2.2041 3.4532 381.82 0.015229 40.205 0.070411
156.38 2139.3 undefined 612.28 656.98 2.2152 330.00 0.0030303 612.28 656.98 2.2152 2.2075 3.4450 383.49 0.015010 40.232 0.070516 330.00 0.0030303 612.28 656.98 2.2152 2.2075 3.4450 383.49 0.015010 40.232 0.070516
157.38 2164.2 undefined 614.49 659.71 2.2203 330.00 0.0030303 614.49 659.71 2.2203 2.2109 3.4372 385.15 0.014795 40.258 0.070621 330.00 0.0030303 614.49 659.71 2.2203 2.2109 3.4372 385.15 0.014795 40.258 0.070621
158.38 2189.2 undefined 616.70 662.44 2.2254 330.00 0.0030303 616.70 662.44 2.2254 2.2143 3.4295 386.80 0.014584 40.285 0.070726 330.00 0.0030303 616.70 662.44 2.2254 2.2143 3.4295 386.80 0.014584 40.285 0.070726
159.38 2214.1 undefined 618.92 665.18 2.2306 330.00 0.0030303 618.92 665.18 2.2306 2.2177 3.4221 388.44 0.014376 40.312 0.070832 330.00 0.0030303 618.92 665.18 2.2306 2.2177 3.4221 388.44 0.014376 40.312 0.070832
160.38 2239.1 undefined 621.14 667.92 2.2357 330.00 0.0030303 621.14 667.92 2.2357 2.2211 3.4150 390.07 0.014172 40.338 0.070939 330.00 0.0030303 621.14 667.92 2.2357 2.2211 3.4150 390.07 0.014172 40.338 0.070939
161.38 2264.1 undefined 623.36 670.67 2.2408 330.00 0.0030303 623.36 670.67 2.2408 2.2246 3.4081 391.69 0.013972 40.365 0.071046 330.00 0.0030303 623.36 670.67 2.2408 2.2246 3.4081 391.69 0.013972 40.365 0.071046
162.38 2289.1 undefined 625.59 673.41 2.2459 330.00 0.0030303 625.59 673.41 2.2459 2.2280 3.4014 393.30 0.013775 40.391 0.071154 330.00 0.0030303 625.59 673.41 2.2459 2.2280 3.4014 393.30 0.013775 40.391 0.071154
163.38 2314.1 undefined 627.82 676.17 2.2510 330.00 0.0030303 627.82 676.17 2.2510 2.2314 3.3950 394.91 0.013581 40.418 0.071262 330.00 0.0030303 627.82 676.17 2.2510 2.2314 3.3950 394.91 0.013581 40.418 0.071262
164.38 2339.2 undefined 630.05 678.92 2.2562 330.00 0.0030303 630.05 678.92 2.2562 2.2349 3.3887 396.50 0.013390 40.445 0.071370 330.00 0.0030303 630.05 678.92 2.2562 2.2349 3.3887 396.50 0.013390 40.445 0.071370
165.38 2364.2 undefined 632.29 681.68 2.2613 330.00 0.0030303 632.29 681.68 2.2613 2.2383 3.3827 398.09 0.013203 40.471 0.071479 330.00 0.0030303 632.29 681.68 2.2613 2.2383 3.3827 398.09 0.013203 40.471 0.071479
166.38 2389.2 undefined 634.53 684.45 2.2664 330.00 0.0030303 634.53 684.45 2.2664 2.2418 3.3768 399.67 0.013019 40.498 0.071589 330.00 0.0030303 634.53 684.45 2.2664 2.2418 3.3768 399.67 0.013019 40.498 0.071589
167.38 2414.3 undefined 636.77 687.21 2.2715 330.00 0.0030303 636.77 687.21 2.2715 2.2452 3.3711 401.24 0.012838 40.524 0.071699 330.00 0.0030303 636.77 687.21 2.2715 2.2452 3.3711 401.24 0.012838 40.524 0.071699
168.38 2439.3 undefined 639.02 689.98 2.2766 330.00 0.0030303 639.02 689.98 2.2766 2.2487 3.3657 402.80 0.012659 40.551 0.071809 330.00 0.0030303 639.02 689.98 2.2766 2.2487 3.3657 402.80 0.012659 40.551 0.071809
169.38 2464.4 undefined 641.27 692.76 2.2817 330.00 0.0030303 641.27 692.76 2.2817 2.2522 3.3604 404.35 0.012484 40.577 0.071920 330.00 0.0030303 641.27 692.76 2.2817 2.2522 3.3604 404.35 0.012484 40.577 0.071920
170.38 2489.5 undefined 643.52 695.54 2.2867 330.00 0.0030303 643.52 695.54 2.2867 2.2557 3.3553 405.90 0.012311 40.603 0.072031 330.00 0.0030303 643.52 695.54 2.2867 2.2557 3.3553 405.90 0.012311 40.603 0.072031
171.38 2514.6 undefined 645.78 698.32 2.2918 330.00 0.0030303 645.78 698.32 2.2918 2.2591 3.3503 407.44 0.012141 40.630 0.072143 330.00 0.0030303 645.78 698.32 2.2918 2.2591 3.3503 407.44 0.012141 40.630 0.072143
172.38 2539.7 undefined 648.04 701.10 2.2969 330.00 0.0030303 648.04 701.10 2.2969 2.2626 3.3455 408.97 0.011974 40.656 0.072255 330.00 0.0030303 648.04 701.10 2.2969 2.2626 3.3455 408.97 0.011974 40.656 0.072255
173.38 2564.8 undefined 650.30 703.89 2.3020 330.00 0.0030303 650.30 703.89 2.3020 2.2661 3.3409 410.49 0.011810 40.682 0.072367 330.00 0.0030303 650.30 703.89 2.3020 2.2661 3.3409 410.49 0.011810 40.682 0.072367
174.38 2589.9 undefined 652.57 706.68 2.3071 330.00 0.0030303 652.57 706.68 2.3071 2.2696 3.3364 412.01 0.011648 40.709 0.072480 330.00 0.0030303 652.57 706.68 2.3071 2.2696 3.3364 412.01 0.011648 40.709 0.072480
175.38 2615.0 undefined 654.84 709.48 2.3121 330.00 0.0030303 654.84 709.48 2.3121 2.2731 3.3321 413.52 0.011488 40.735 0.072594 330.00 0.0030303 654.84 709.48 2.3121 2.2731 3.3321 413.52 0.011488 40.735 0.072594
176.38 2640.1 undefined 657.12 712.28 2.3172 330.00 0.0030303 657.12 712.28 2.3172 2.2766 3.3279 415.02 0.011331 40.761 0.072707 330.00 0.0030303 657.12 712.28 2.3172 2.2766 3.3279 415.02 0.011331 40.761 0.072707
177.38 2665.2 undefined 659.40 715.08 2.3223 330.00 0.0030303 659.40 715.08 2.3223 2.2801 3.3238 416.51 0.011177 40.788 0.072822 330.00 0.0030303 659.40 715.08 2.3223 2.2801 3.3238 416.51 0.011177 40.788 0.072822
178.38 2690.4 undefined 661.68 717.89 2.3273 330.00 0.0030303 661.68 717.89 2.3273 2.2836 3.3199 418.00 0.011024 40.814 0.072936 330.00 0.0030303 661.68 717.89 2.3273 2.2836 3.3199 418.00 0.011024 40.814 0.072936
179.38 2715.5 undefined 663.96 720.70 2.3324 330.00 0.0030303 663.96 720.70 2.3324 2.2871 3.3161 419.48 0.010874 40.840 0.073051 330.00 0.0030303 663.96 720.70 2.3324 2.2871 3.3161 419.48 0.010874 40.840 0.073051
180.38 2740.7 undefined 666.25 723.51 2.3374 330.00 0.0030303 666.25 723.51 2.3374 2.2906 3.3125 420.95 0.010727 40.866 0.073167 330.00 0.0030303 666.25 723.51 2.3374 2.2906 3.3125 420.95 0.010727 40.866 0.073167
181.38 2765.8 undefined 668.55 726.33 2.3425 330.00 0.0030303 668.55 726.33 2.3425 2.2941 3.3090 422.42 0.010581 40.893 0.073282 330.00 0.0030303 668.55 726.33 2.3425 2.2941 3.3090 422.42 0.010581 40.893 0.073282
182.38 2791.0 undefined 670.84 729.15 2.3475 330.00 0.0030303 670.84 729.15 2.3475 2.2976 3.3056 423.88 0.010438 40.919 0.073399 330.00 0.0030303 670.84 729.15 2.3475 2.2976 3.3056 423.88 0.010438 40.919 0.073399
183.38 2816.1 undefined 673.14 731.98 2.3526 330.00 0.0030303 673.14 731.98 2.3526 2.3011 3.3023 425.33 0.010297 40.945 0.073515 330.00 0.0030303 673.14 731.98 2.3526 2.3011 3.3023 425.33 0.010297 40.945 0.073515
184.38 2841.3 undefined 675.44 734.81 2.3576 330.00 0.0030303 675.44 734.81 2.3576 2.3046 3.2991 426.78 0.010157 40.971 0.073632 330.00 0.0030303 675.44 734.81 2.3576 2.3046 3.2991 426.78 0.010157 40.971 0.073632
185.38 2866.5 undefined 677.75 737.64 2.3626 330.00 0.0030303 677.75 737.64 2.3626 2.3082 3.2961 428.22 0.010020 40.997 0.073749 330.00 0.0030303 677.75 737.64 2.3626 2.3082 3.2961 428.22 0.010020 40.997 0.073749
186.38 2891.6 undefined 680.06 740.48 2.3677 330.00 0.0030303 680.06 740.48 2.3677 2.3117 3.2931 429.66 0.0098849 41.023 0.073867 330.00 0.0030303 680.06 740.48 2.3677 2.3117 3.2931 429.66 0.0098849 41.023 0.073867
187.38 2916.8 undefined 682.37 743.32 2.3727 330.00 0.0030303 682.37 743.32 2.3727 2.3152 3.2903 431.09 0.0097516 41.049 0.073985 330.00 0.0030303 682.37 743.32 2.3727 2.3152 3.2903 431.09 0.0097516 41.049 0.073985
188.38 2942.0 undefined 684.69 746.16 2.3777 330.00 0.0030303 684.69 746.16 2.3777 2.3187 3.2876 432.51 0.0096202 41.075 0.074104 330.00 0.0030303 684.69 746.16 2.3777 2.3187 3.2876 432.51 0.0096202 41.075 0.074104
189.38 2967.2 undefined 687.01 749.01 2.3827 330.00 0.0030303 687.01 749.01 2.3827 2.3222 3.2849 433.92 0.0094907 41.101 0.074222 330.00 0.0030303 687.01 749.01 2.3827 2.3222 3.2849 433.92 0.0094907 41.101 0.074222
190.38 2992.4 undefined 689.33 751.86 2.3878 330.00 0.0030303 689.33 751.86 2.3878 2.3258 3.2824 435.33 0.0093630 41.127 0.074342 330.00 0.0030303 689.33 751.86 2.3878 2.3258 3.2824 435.33 0.0093630 41.127 0.074342
191.38 3017.6 undefined 691.66 754.71 2.3928 330.00 0.0030303 691.66 754.71 2.3928 2.3293 3.2800 436.74 0.0092371 41.153 0.074461 330.00 0.0030303 691.66 754.71 2.3928 2.3293 3.2800 436.74 0.0092371 41.153 0.074461
192.38 3042.8 undefined 693.99 757.57 2.3978 330.00 0.0030303 693.99 757.57 2.3978 2.3328 3.2776 438.14 0.0091130 41.179 0.074581 330.00 0.0030303 693.99 757.57 2.3978 2.3328 3.2776 438.14 0.0091130 41.179 0.074581
193.38 3068.0 undefined 696.33 760.43 2.4028 330.00 0.0030303 696.33 760.43 2.4028 2.3363 3.2754 439.53 0.0089905 41.205 0.074701 330.00 0.0030303 696.33 760.43 2.4028 2.3363 3.2754 439.53 0.0089905 41.205 0.074701
194.38 3093.2 undefined 698.67 763.29 2.4078 330.00 0.0030303 698.67 763.29 2.4078 2.3399 3.2732 440.92 0.0088698 41.231 0.074822 330.00 0.0030303 698.67 763.29 2.4078 2.3399 3.2732 440.92 0.0088698 41.231 0.074822
195.38 3118.4 undefined 701.01 766.16 2.4128 330.00 0.0030303 701.01 766.16 2.4128 2.3434 3.2711 442.30 0.0087507 41.257 0.074943 330.00 0.0030303 701.01 766.16 2.4128 2.3434 3.2711 442.30 0.0087507 41.257 0.074943
196.38 3143.6 undefined 703.35 769.03 2.4178 330.00 0.0030303 703.35 769.03 2.4178 2.3469 3.2692 443.67 0.0086332 41.283 0.075064 330.00 0.0030303 703.35 769.03 2.4178 2.3469 3.2692 443.67 0.0086332 41.283 0.075064
197.38 3168.9 undefined 705.70 771.91 2.4228 330.00 0.0030303 705.70 771.91 2.4228 2.3505 3.2672 445.04 0.0085173 41.309 0.075186 330.00 0.0030303 705.70 771.91 2.4228 2.3505 3.2672 445.04 0.0085173 41.309 0.075186
198.38 3194.1 undefined 708.05 774.79 2.4278 330.00 0.0030303 708.05 774.79 2.4278 2.3540 3.2654 446.41 0.0084030 41.335 0.075308 330.00 0.0030303 708.05 774.79 2.4278 2.3540 3.2654 446.41 0.0084030 41.335 0.075308
199.38 3219.3 undefined 710.41 777.67 2.4328 330.00 0.0030303 710.41 777.67 2.4328 2.3575 3.2637 447.77 0.0082902 41.360 0.075430 330.00 0.0030303 710.41 777.67 2.4328 2.3575 3.2637 447.77 0.0082902 41.360 0.075430
200.38 3244.5 undefined 712.77 780.56 2.4378 330.00 0.0030303 712.77 780.56 2.4378 2.3610 3.2620 449.12 0.0081789 41.386 0.075553 330.00 0.0030303 712.77 780.56 2.4378 2.3610 3.2620 449.12 0.0081789 41.386 0.075553
201.38 3269.8 undefined 715.13 783.45 2.4428 330.00 0.0030303 715.13 783.45 2.4428 2.3646 3.2604 450.47 0.0080691 41.412 0.075676 330.00 0.0030303 715.13 783.45 2.4428 2.3646 3.2604 450.47 0.0080691 41.412 0.075676
202.38 3295.0 undefined 717.50 786.34 2.4477 330.00 0.0030303 717.50 786.34 2.4477 2.3681 3.2589 451.81 0.0079608 41.438 0.075799 330.00 0.0030303 717.50 786.34 2.4477 2.3681 3.2589 451.81 0.0079608 41.438 0.075799
203.38 3320.2 undefined 719.87 789.24 2.4527 330.00 0.0030303 719.87 789.24 2.4527 2.3716 3.2574 453.15 0.0078538 41.463 0.075923 330.00 0.0030303 719.87 789.24 2.4527 2.3716 3.2574 453.15 0.0078538 41.463 0.075923
204.38 3345.4 undefined 722.24 792.14 2.4577 330.00 0.0030303 722.24 792.14 2.4577 2.3752 3.2561 454.48 0.0077483 41.489 0.076047 330.00 0.0030303 722.24 792.14 2.4577 2.3752 3.2561 454.48 0.0077483 41.489 0.076047
205.38 3370.7 undefined 724.62 795.04 2.4627 330.00 0.0030303 724.62 795.04 2.4627 2.3787 3.2547 455.81 0.0076441 41.515 0.076171 330.00 0.0030303 724.62 795.04 2.4627 2.3787 3.2547 455.81 0.0076441 41.515 0.076171
206.38 3395.9 undefined 727.00 797.95 2.4676 330.00 0.0030303 727.00 797.95 2.4676 2.3822 3.2535 457.13 0.0075413 41.540 0.076295 330.00 0.0030303 727.00 797.95 2.4676 2.3822 3.2535 457.13 0.0075413 41.540 0.076295
207.38 3421.2 undefined 729.38 800.86 2.4726 330.00 0.0030303 729.38 800.86 2.4726 2.3858 3.2523 458.45 0.0074397 41.566 0.076420 330.00 0.0030303 729.38 800.86 2.4726 2.3858 3.2523 458.45 0.0074397 41.566 0.076420
208.38 3446.4 undefined 731.77 803.78 2.4776 330.00 0.0030303 731.77 803.78 2.4776 2.3893 3.2512 459.77 0.0073395 41.592 0.076546 330.00 0.0030303 731.77 803.78 2.4776 2.3893 3.2512 459.77 0.0073395 41.592 0.076546
209.38 3471.6 undefined 734.16 806.69 2.4825 330.00 0.0030303 734.16 806.69 2.4825 2.3928 3.2501 461.07 0.0072406 41.617 0.076671 330.00 0.0030303 734.16 806.69 2.4825 2.3928 3.2501 461.07 0.0072406 41.617 0.076671
210.38 3496.9 undefined 736.56 809.62 2.4875 330.00 0.0030303 736.56 809.62 2.4875 2.3964 3.2492 462.38 0.0071429 41.643 0.076797 330.00 0.0030303 736.56 809.62 2.4875 2.3964 3.2492 462.38 0.0071429 41.643 0.076797
211.38 3522.1 undefined 738.95 812.54 2.4924 330.00 0.0030303 738.95 812.54 2.4924 2.3999 3.2482 463.68 0.0070465 41.668 0.076923 330.00 0.0030303 738.95 812.54 2.4924 2.3999 3.2482 463.68 0.0070465 41.668 0.076923
212.38 3547.4 undefined 741.36 815.47 2.4974 330.00 0.0030303 741.36 815.47 2.4974 2.4034 3.2473 464.97 0.0069512 41.694 0.077050 330.00 0.0030303 741.36 815.47 2.4974 2.4034 3.2473 464.97 0.0069512 41.694 0.077050
213.38 3572.6 undefined 743.76 818.40 2.5023 330.00 0.0030303 743.76 818.40 2.5023 2.4070 3.2465 466.26 0.0068572 41.720 0.077177 330.00 0.0030303 743.76 818.40 2.5023 2.4070 3.2465 466.26 0.0068572 41.720 0.077177
214.38 3597.8 undefined 746.17 821.34 2.5073 330.00 0.0030303 746.17 821.34 2.5073 2.4105 3.2458 467.54 0.0067643 41.745 0.077304 330.00 0.0030303 746.17 821.34 2.5073 2.4105 3.2458 467.54 0.0067643 41.745 0.077304
215.38 3623.1 undefined 748.58 824.28 2.5122 330.00 0.0030303 748.58 824.28 2.5122 2.4140 3.2451 468.82 0.0066725 41.771 0.077431 330.00 0.0030303 748.58 824.28 2.5122 2.4140 3.2451 468.82 0.0066725 41.771 0.077431
216.38 3648.3 undefined 751.00 827.22 2.5172 330.00 0.0030303 751.00 827.22 2.5172 2.4175 3.2444 470.10 0.0065819 41.796 0.077559 330.00 0.0030303 751.00 827.22 2.5172 2.4175 3.2444 470.10 0.0065819 41.796 0.077559
217.38 3673.6 undefined 753.42 830.17 2.5221 330.00 0.0030303 753.42 830.17 2.5221 2.4211 3.2438 471.37 0.0064924 41.821 0.077687 330.00 0.0030303 753.42 830.17 2.5221 2.4211 3.2438 471.37 0.0064924 41.821 0.077687
218.38 3698.8 undefined 755.84 833.12 2.5270 330.00 0.0030303 755.84 833.12 2.5270 2.4246 3.2433 472.64 0.0064040 41.847 0.077816 330.00 0.0030303 755.84 833.12 2.5270 2.4246 3.2433 472.64 0.0064040 41.847 0.077816
219.38 3724.0 undefined 758.27 836.07 2.5320 330.00 0.0030303 758.27 836.07 2.5320 2.4281 3.2428 473.90 0.0063167 41.872 0.077944 330.00 0.0030303 758.27 836.07 2.5320 2.4281 3.2428 473.90 0.0063167 41.872 0.077944
220.38 3749.3 undefined 760.70 839.03 2.5369 330.00 0.0030303 760.70 839.03 2.5369 2.4316 3.2423 475.16 0.0062304 41.898 0.078073 330.00 0.0030303 760.70 839.03 2.5369 2.4316 3.2423 475.16 0.0062304 41.898 0.078073
221.38 3774.5 undefined 763.13 841.99 2.5418 330.00 0.0030303 763.13 841.99 2.5418 2.4352 3.2419 476.41 0.0061452 41.923 0.078203 330.00 0.0030303 763.13 841.99 2.5418 2.4352 3.2419 476.41 0.0061452 41.923 0.078203
222.38 3799.8 undefined 765.57 844.96 2.5467 330.00 0.0030303 765.57 844.96 2.5467 2.4387 3.2416 477.66 0.0060610 41.948 0.078332 330.00 0.0030303 765.57 844.96 2.5467 2.4387 3.2416 477.66 0.0060610 41.948 0.078332
223.38 3825.0 undefined 768.01 847.92 2.5517 330.00 0.0030303 768.01 847.92 2.5517 2.4422 3.2412 478.90 0.0059778 41.974 0.078462 330.00 0.0030303 768.01 847.92 2.5517 2.4422 3.2412 478.90 0.0059778 41.974 0.078462
224.38 3850.3 undefined 770.45 850.89 2.5566 330.00 0.0030303 770.45 850.89 2.5566 2.4457 3.2410 480.14 0.0058955 41.999 0.078592 330.00 0.0030303 770.45 850.89 2.5566 2.4457 3.2410 480.14 0.0058955 41.999 0.078592
225.38 3875.5 undefined 772.90 853.87 2.5615 330.00 0.0030303 772.90 853.87 2.5615 2.4493 3.2408 481.38 0.0058143 42.024 0.078722 330.00 0.0030303 772.90 853.87 2.5615 2.4493 3.2408 481.38 0.0058143 42.024 0.078722
226.38 3900.7 undefined 775.35 856.85 2.5664 330.00 0.0030303 775.35 856.85 2.5664 2.4528 3.2406 482.61 0.0057340 42.049 0.078853 330.00 0.0030303 775.35 856.85 2.5664 2.4528 3.2406 482.61 0.0057340 42.049 0.078853
227.38 3926.0 undefined 777.80 859.83 2.5713 330.00 0.0030303 777.80 859.83 2.5713 2.4563 3.2405 483.84 0.0056547 42.075 0.078984 330.00 0.0030303 777.80 859.83 2.5713 2.4563 3.2405 483.84 0.0056547 42.075 0.078984
228.38 3951.2 undefined 780.26 862.82 2.5762 330.00 0.0030303 780.26 862.82 2.5762 2.4598 3.2404 485.07 0.0055763 42.100 0.079115 330.00 0.0030303 780.26 862.82 2.5762 2.4598 3.2404 485.07 0.0055763 42.100 0.079115
229.38 3976.4 undefined 782.72 865.80 2.5811 330.00 0.0030303 782.72 865.80 2.5811 2.4633 3.2403 486.29 0.0054987 42.125 0.079247 330.00 0.0030303 782.72 865.80 2.5811 2.4633 3.2403 486.29 0.0054987 42.125 0.079247
230.38 4001.7 undefined 785.19 868.80 2.5860 330.00 0.0030303 785.19 868.80 2.5860 2.4668 3.2403 487.50 0.0054221 42.150 0.079379 330.00 0.0030303 785.19 868.80 2.5860 2.4668 3.2403 487.50 0.0054221 42.150 0.079379
231.38 4026.9 undefined 787.66 871.79 2.5909 330.00 0.0030303 787.66 871.79 2.5909 2.4703 3.2403 488.72 0.0053464 42.175 0.079511 330.00 0.0030303 787.66 871.79 2.5909 2.4703 3.2403 488.72 0.0053464 42.175 0.079511
232.38 4052.1 undefined 790.13 874.79 2.5958 330.00 0.0030303 790.13 874.79 2.5958 2.4739 3.2404 489.93 0.0052716 42.200 0.079643 330.00 0.0030303 790.13 874.79 2.5958 2.4739 3.2404 489.93 0.0052716 42.200 0.079643
233.38 4077.4 undefined 792.60 877.79 2.6007 330.00 0.0030303 792.60 877.79 2.6007 2.4774 3.2405 491.13 0.0051976 42.225 0.079776 330.00 0.0030303 792.60 877.79 2.6007 2.4774 3.2405 491.13 0.0051976 42.225 0.079776
234.38 4102.6 undefined 795.08 880.80 2.6056 330.00 0.0030303 795.08 880.80 2.6056 2.4809 3.2407 492.33 0.0051244 42.251 0.079908 330.00 0.0030303 795.08 880.80 2.6056 2.4809 3.2407 492.33 0.0051244 42.251 0.079908
235.38 4127.8 undefined 797.57 883.81 2.6105 330.00 0.0030303 797.57 883.81 2.6105 2.4844 3.2408 493.53 0.0050521 42.276 0.080041 330.00 0.0030303 797.57 883.81 2.6105 2.4844 3.2408 493.53 0.0050521 42.276 0.080041
236.38 4153.0 undefined 800.05 886.82 2.6154 330.00 0.0030303 800.05 886.82 2.6154 2.4879 3.2411 494.72 0.0049806 42.301 0.080175 330.00 0.0030303 800.05 886.82 2.6154 2.4879 3.2411 494.72 0.0049806 42.301 0.080175
237.38 4178.3 undefined 802.54 889.84 2.6203 330.00 0.0030303 802.54 889.84 2.6203 2.4914 3.2413 495.91 0.0049099 42.326 0.080308 330.00 0.0030303 802.54 889.84 2.6203 2.4914 3.2413 495.91 0.0049099 42.326 0.080308
238.38 4203.5 undefined 805.04 892.86 2.6251 330.00 0.0030303 805.04 892.86 2.6251 2.4949 3.2416 497.10 0.0048400 42.351 0.080442 330.00 0.0030303 805.04 892.86 2.6251 2.4949 3.2416 497.10 0.0048400 42.351 0.080442
239.38 4228.7 undefined 807.53 895.88 2.6300 330.00 0.0030303 807.53 895.88 2.6300 2.4984 3.2419 498.28 0.0047709 42.376 0.080576 330.00 0.0030303 807.53 895.88 2.6300 2.4984 3.2419 498.28 0.0047709 42.376 0.080576
240.38 4253.9 undefined 810.03 898.91 2.6349 330.00 0.0030303 810.03 898.91 2.6349 2.5019 3.2423 499.46 0.0047026 42.401 0.080711 330.00 0.0030303 810.03 898.91 2.6349 2.5019 3.2423 499.46 0.0047026 42.401 0.080711
241.38 4279.1 undefined 812.54 901.94 2.6398 330.00 0.0030303 812.54 901.94 2.6398 2.5054 3.2427 500.63 0.0046350 42.426 0.080845 330.00 0.0030303 812.54 901.94 2.6398 2.5054 3.2427 500.63 0.0046350 42.426 0.080845
242.38 4304.3 undefined 815.04 904.97 2.6446 330.00 0.0030303 815.04 904.97 2.6446 2.5089 3.2431 501.81 0.0045681 42.450 0.080980 330.00 0.0030303 815.04 904.97 2.6446 2.5089 3.2431 501.81 0.0045681 42.450 0.080980
243.38 4329.6 undefined 817.55 908.01 2.6495 330.00 0.0030303 817.55 908.01 2.6495 2.5124 3.2435 502.97 0.0045020 42.475 0.081115 330.00 0.0030303 817.55 908.01 2.6495 2.5124 3.2435 502.97 0.0045020 42.475 0.081115
244.38 4354.8 undefined 820.07 911.05 2.6544 330.00 0.0030303 820.07 911.05 2.6544 2.5158 3.2440 504.14 0.0044367 42.500 0.081250 330.00 0.0030303 820.07 911.05 2.6544 2.5158 3.2440 504.14 0.0044367 42.500 0.081250
245.38 4380.0 undefined 822.59 914.10 2.6592 330.00 0.0030303 822.59 914.10 2.6592 2.5193 3.2445 505.30 0.0043720 42.525 0.081386 330.00 0.0030303 822.59 914.10 2.6592 2.5193 3.2445 505.30 0.0043720 42.525 0.081386
246.38 4405.2 undefined 825.11 917.14 2.6641 330.00 0.0030303 825.11 917.14 2.6641 2.5228 3.2451 506.46 0.0043081 42.550 0.081521 330.00 0.0030303 825.11 917.14 2.6641 2.5228 3.2451 506.46 0.0043081 42.550 0.081521
247.38 4430.4 undefined 827.63 920.20 2.6689 330.00 0.0030303 827.63 920.20 2.6689 2.5263 3.2456 507.61 0.0042448 42.575 0.081657 330.00 0.0030303 827.63 920.20 2.6689 2.5263 3.2456 507.61 0.0042448 42.575 0.081657
248.38 4455.6 undefined 830.16 923.25 2.6738 330.00 0.0030303 830.16 923.25 2.6738 2.5298 3.2462 508.76 0.0041822 42.599 0.081793 330.00 0.0030303 830.16 923.25 2.6738 2.5298 3.2462 508.76 0.0041822 42.599 0.081793
249.38 4480.8 undefined 832.69 926.31 2.6786 330.00 0.0030303 832.69 926.31 2.6786 2.5333 3.2468 509.91 0.0041203 42.624 0.081930 330.00 0.0030303 832.69 926.31 2.6786 2.5333 3.2468 509.91 0.0041203 42.624 0.081930
250.38 4505.9 undefined 835.23 929.37 2.6835 330.00 0.0030303 835.23 929.37 2.6835 2.5367 3.2475 511.05 0.0040591 42.649 0.082066 330.00 0.0030303 835.23 929.37 2.6835 2.5367 3.2475 511.05 0.0040591 42.649 0.082066
251.38 4531.1 undefined 837.76 932.43 2.6883 330.00 0.0030303 837.76 932.43 2.6883 2.5402 3.2482 512.19 0.0039985 42.674 0.082203 330.00 0.0030303 837.76 932.43 2.6883 2.5402 3.2482 512.19 0.0039985 42.674 0.082203
252.38 4556.3 undefined 840.31 935.50 2.6932 330.00 0.0030303 840.31 935.50 2.6932 2.5437 3.2489 513.33 0.0039386 42.698 0.082340 330.00 0.0030303 840.31 935.50 2.6932 2.5437 3.2489 513.33 0.0039386 42.698 0.082340
253.38 4581.5 undefined 842.85 938.57 2.6980 330.00 0.0030303 842.85 938.57 2.6980 2.5472 3.2496 514.47 0.0038793 42.723 0.082476 330.00 0.0030303 842.85 938.57 2.6980 2.5472 3.2496 514.47 0.0038793 42.723 0.082476
254.38 4606.7 undefined 845.40 941.65 2.7028 330.00 0.0030303 845.40 941.65 2.7028 2.5506 3.2504 515.60 0.0038207 42.748 0.082614 330.00 0.0030303 845.40 941.65 2.7028 2.5506 3.2504 515.60 0.0038207 42.748 0.082614
255.38 4631.9 undefined 847.95 944.73 2.7077 330.00 0.0030303 847.95 944.73 2.7077 2.5541 3.2511 516.73 0.0037626 42.772 0.082751 330.00 0.0030303 847.95 944.73 2.7077 2.5541 3.2511 516.73 0.0037626 42.772 0.082751
256.38 4657.0 undefined 850.51 947.81 2.7125 330.00 0.0030303 850.51 947.81 2.7125 2.5576 3.2520 517.85 0.0037052 42.797 0.082888 330.00 0.0030303 850.51 947.81 2.7125 2.5576 3.2520 517.85 0.0037052 42.797 0.082888
257.38 4682.2 undefined 853.07 950.89 2.7173 330.00 0.0030303 853.07 950.89 2.7173 2.5610 3.2528 518.97 0.0036484 42.821 0.083026 330.00 0.0030303 853.07 950.89 2.7173 2.5610 3.2528 518.97 0.0036484 42.821 0.083026
258.38 4707.4 undefined 855.63 953.98 2.7222 330.00 0.0030303 855.63 953.98 2.7222 2.5645 3.2536 520.09 0.0035922 42.846 0.083164 330.00 0.0030303 855.63 953.98 2.7222 2.5645 3.2536 520.09 0.0035922 42.846 0.083164
259.38 4732.5 undefined 858.20 957.07 2.7270 330.00 0.0030303 858.20 957.07 2.7270 2.5679 3.2545 521.21 0.0035365 42.871 0.083301 330.00 0.0030303 858.20 957.07 2.7270 2.5679 3.2545 521.21 0.0035365 42.871 0.083301
260.38 4757.7 undefined 860.77 960.17 2.7318 330.00 0.0030303 860.77 960.17 2.7318 2.5714 3.2554 522.32 0.0034815 42.895 0.083439 330.00 0.0030303 860.77 960.17 2.7318 2.5714 3.2554 522.32 0.0034815 42.895 0.083439
261.38 4782.8 undefined 863.34 963.27 2.7366 330.00 0.0030303 863.34 963.27 2.7366 2.5748 3.2563 523.43 0.0034270 42.920 0.083577 330.00 0.0030303 863.34 963.27 2.7366 2.5748 3.2563 523.43 0.0034270 42.920 0.083577
262.38 4808.0 undefined 865.92 966.37 2.7414 330.00 0.0030303 865.92 966.37 2.7414 2.5783 3.2573 524.53 0.0033731 42.944 0.083715 330.00 0.0030303 865.92 966.37 2.7414 2.5783 3.2573 524.53 0.0033731 42.944 0.083715
263.38 4833.1 undefined 868.50 969.48 2.7462 330.00 0.0030303 868.50 969.48 2.7462 2.5817 3.2583 525.64 0.0033197 42.968 0.083853 330.00 0.0030303 868.50 969.48 2.7462 2.5817 3.2583 525.64 0.0033197 42.968 0.083853
264.38 4858.3 undefined 871.08 972.58 2.7511 330.00 0.0030303 871.08 972.58 2.7511 2.5852 3.2592 526.74 0.0032669 42.993 0.083991 330.00 0.0030303 871.08 972.58 2.7511 2.5852 3.2592 526.74 0.0032669 42.993 0.083991
265.38 4883.4 undefined 873.67 975.70 2.7559 330.00 0.0030303 873.67 975.70 2.7559 2.5886 3.2603 527.83 0.0032146 43.017 0.084129 330.00 0.0030303 873.67 975.70 2.7559 2.5886 3.2603 527.83 0.0032146 43.017 0.084129
266.38 4908.6 undefined 876.26 978.81 2.7607 330.00 0.0030303 876.26 978.81 2.7607 2.5921 3.2613 528.93 0.0031628 43.042 0.084267 330.00 0.0030303 876.26 978.81 2.7607 2.5921 3.2613 528.93 0.0031628 43.042 0.084267
267.38 4933.7 undefined 878.85 981.93 2.7655 330.00 0.0030303 878.85 981.93 2.7655 2.5955 3.2623 530.02 0.0031116 43.066 0.084405 330.00 0.0030303 878.85 981.93 2.7655 2.5955 3.2623 530.02 0.0031116 43.066 0.084405
268.38 4958.8 undefined 881.45 985.05 2.7703 330.00 0.0030303 881.45 985.05 2.7703 2.5989 3.2634 531.11 0.0030609 43.090 0.084542 330.00 0.0030303 881.45 985.05 2.7703 2.5989 3.2634 531.11 0.0030609 43.090 0.084542
269.38 4984.0 undefined 884.05 988.18 2.7751 330.00 0.0030303 884.05 988.18 2.7751 2.6024 3.2645 532.19 0.0030107 43.115 0.084680 330.00 0.0030303 884.05 988.18 2.7751 2.6024 3.2645 532.19 0.0030107 43.115 0.084680
270.38 5009.1 undefined 886.65 991.31 2.7799 330.00 0.0030303 886.65 991.31 2.7799 2.6058 3.2656 533.28 0.0029611 43.139 0.084817 330.00 0.0030303 886.65 991.31 2.7799 2.6058 3.2656 533.28 0.0029611 43.139 0.084817
271.38 5034.2 undefined 889.26 994.44 2.7847 330.00 0.0030303 889.26 994.44 2.7847 2.6092 3.2667 534.36 0.0029119 43.163 0.084953 330.00 0.0030303 889.26 994.44 2.7847 2.6092 3.2667 534.36 0.0029119 43.163 0.084953
272.38 5059.3 undefined 891.87 997.58 2.7894 330.00 0.0030303 891.87 997.58 2.7894 2.6127 3.2679 535.43 0.0028632 43.188 0.085090 330.00 0.0030303 891.87 997.58 2.7894 2.6127 3.2679 535.43 0.0028632 43.188 0.085090
273.38 5084.4 undefined 894.49 1000.7 2.7942 330.00 0.0030303 894.49 1000.7 2.7942 2.6161 3.2690 536.51 0.0028150 43.212 0.085226 330.00 0.0030303 894.49 1000.7 2.7942 2.6161 3.2690 536.51 0.0028150 43.212 0.085226
274.38 5109.5 undefined 897.10 1003.9 2.7990 330.00 0.0030303 897.10 1003.9 2.7990 2.6195 3.2702 537.58 0.0027673 43.236 0.085361 330.00 0.0030303 897.10 1003.9 2.7990 2.6195 3.2702 537.58 0.0027673 43.236 0.085361
275.38 5134.6 undefined 899.72 1007.0 2.8038 330.00 0.0030303 899.72 1007.0 2.8038 2.6229 3.2714 538.65 0.0027200 43.260 0.085495 330.00 0.0030303 899.72 1007.0 2.8038 2.6229 3.2714 538.65 0.0027200 43.260 0.085495
276.38 5159.7 undefined 902.35 1010.2 2.8086 330.00 0.0030303 902.35 1010.2 2.8086 2.6263 3.2727 539.71 0.0026733 43.284 0.085627 330.00 0.0030303 902.35 1010.2 2.8086 2.6263 3.2727 539.71 0.0026733 43.284 0.085627
277.38 5184.8 undefined 904.98 1013.3 2.8134 330.00 0.0030303 904.98 1013.3 2.8134 2.6297 3.2739 540.78 0.0026270 43.309 0.085758 330.00 0.0030303 904.98 1013.3 2.8134 2.6297 3.2739 540.78 0.0026270 43.309 0.085758
278.38 5209.9 undefined 907.61 1016.5 2.8181 330.00 0.0030303 907.61 1016.5 2.8181 2.6331 3.2751 541.84 0.0025811 43.333 0.085886 330.00 0.0030303 907.61 1016.5 2.8181 2.6331 3.2751 541.84 0.0025811 43.333 0.085886
279.38 5235.0 undefined 910.24 1019.6 2.8229 330.00 0.0030303 910.24 1019.6 2.8229 2.6365 3.2764 542.89 0.0025357 43.357 0.086010 330.00 0.0030303 910.24 1019.6 2.8229 2.6365 3.2764 542.89 0.0025357 43.357 0.086010
280.38 5260.1 undefined 912.88 1022.8 2.8277 330.00 0.0030303 912.88 1022.8 2.8277 2.6399 3.2777 543.95 0.0024907 43.381 0.086126 330.00 0.0030303 912.88 1022.8 2.8277 2.6399 3.2777 543.95 0.0024907 43.381 0.086126
281.38 5285.2 undefined 915.52 1025.9 2.8325 330.00 0.0030303 915.52 1025.9 2.8325 2.6433 3.2790 545.00 0.0024462 43.405 0.086216 330.00 0.0030303 915.52 1025.9 2.8325 2.6433 3.2790 545.00 0.0024462 43.405 0.086216
282.38 5310.2 undefined 918.17 1029.1 2.8372 330.00 0.0030303 918.17 1029.1 2.8372 2.6467 3.2803 546.05 0.0024021 43.429 0.086327 330.00 0.0030303 918.17 1029.1 2.8372 2.6467 3.2803 546.05 0.0024021 43.429 0.086327
283.38 5335.3 undefined 920.82 1032.3 2.8420 330.00 0.0030303 920.82 1032.3 2.8420 2.6501 3.2816 547.10 0.0023585 43.453 0.086483 330.00 0.0030303 920.82 1032.3 2.8420 2.6501 3.2816 547.10 0.0023585 43.453 0.086483
284.38 5360.4 undefined 923.47 1035.5 2.8467 330.00 0.0030303 923.47 1035.5 2.8467 2.6535 3.2830 548.14 0.0023152 43.477 0.086640 330.00 0.0030303 923.47 1035.5 2.8467 2.6535 3.2830 548.14 0.0023152 43.477 0.086640
285.38 5385.4 undefined 926.12 1038.6 2.8515 330.00 0.0030303 926.12 1038.6 2.8515 2.6569 3.2843 549.19 0.0022724 43.501 0.086797 330.00 0.0030303 926.12 1038.6 2.8515 2.6569 3.2843 549.19 0.0022724 43.501 0.086797
286.38 5410.5 undefined 928.78 1041.8 2.8563 330.00 0.0030303 928.78 1041.8 2.8563 2.6603 3.2857 550.23 0.0022300 43.525 0.086954 330.00 0.0030303 928.78 1041.8 2.8563 2.6603 3.2857 550.23 0.0022300 43.525 0.086954
287.38 5435.5 undefined 931.44 1045.0 2.8610 330.00 0.0030303 931.44 1045.0 2.8610 2.6637 3.2871 551.26 0.0021880 43.549 0.087111 330.00 0.0030303 931.44 1045.0 2.8610 2.6637 3.2871 551.26 0.0021880 43.549 0.087111
288.38 5460.6 undefined 934.11 1048.2 2.8658 330.00 0.0030303 934.11 1048.2 2.8658 2.6671 3.2885 552.30 0.0021464 43.573 0.087269 330.00 0.0030303 934.11 1048.2 2.8658 2.6671 3.2885 552.30 0.0021464 43.573 0.087269
289.38 5485.6 undefined 936.78 1051.4 2.8705 330.00 0.0030303 936.78 1051.4 2.8705 2.6704 3.2899 553.33 0.0021052 43.597 0.087427 330.00 0.0030303 936.78 1051.4 2.8705 2.6704 3.2899 553.33 0.0021052 43.597 0.087427
290.38 5510.7 undefined 939.45 1054.6 2.8753 330.00 0.0030303 939.45 1054.6 2.8753 2.6738 3.2914 554.36 0.0020644 43.621 0.087585 330.00 0.0030303 939.45 1054.6 2.8753 2.6738 3.2914 554.36 0.0020644 43.621 0.087585
291.38 5535.7 undefined 942.13 1057.8 2.8800 330.00 0.0030303 942.13 1057.8 2.8800 2.6772 3.2928 555.39 0.0020240 43.644 0.087744 330.00 0.0030303 942.13 1057.8 2.8800 2.6772 3.2928 555.39 0.0020240 43.644 0.087744
292.38 5560.7 undefined 944.80 1061.0 2.8847 330.00 0.0030303 944.80 1061.0 2.8847 2.6805 3.2943 556.41 0.0019840 43.668 0.087903 330.00 0.0030303 944.80 1061.0 2.8847 2.6805 3.2943 556.41 0.0019840 43.668 0.087903
293.38 5585.7 undefined 947.49 1064.2 2.8895 330.00 0.0030303 947.49 1064.2 2.8895 2.6839 3.2958 557.43 0.0019443 43.692 0.088062 330.00 0.0030303 947.49 1064.2 2.8895 2.6839 3.2958 557.43 0.0019443 43.692 0.088062
294.38 5610.8 undefined 950.17 1067.4 2.8942 330.00 0.0030303 950.17 1067.4 2.8942 2.6873 3.2972 558.45 0.0019051 43.716 0.088222 330.00 0.0030303 950.17 1067.4 2.8942 2.6873 3.2972 558.45 0.0019051 43.716 0.088222
295.38 5635.8 undefined 952.86 1070.6 2.8989 330.00 0.0030303 952.86 1070.6 2.8989 2.6906 3.2987 559.47 0.0018662 43.740 0.088381 330.00 0.0030303 952.86 1070.6 2.8989 2.6906 3.2987 559.47 0.0018662 43.740 0.088381
296.38 5660.8 undefined 955.55 1073.8 2.9037 330.00 0.0030303 955.55 1073.8 2.9037 2.6940 3.3002 560.49 0.0018276 43.763 0.088541 330.00 0.0030303 955.55 1073.8 2.9037 2.6940 3.3002 560.49 0.0018276 43.763 0.088541
297.38 5685.8 undefined 958.25 1077.0 2.9084 330.00 0.0030303 958.25 1077.0 2.9084 2.6973 3.3018 561.50 0.0017894 43.787 0.088702 330.00 0.0030303 958.25 1077.0 2.9084 2.6973 3.3018 561.50 0.0017894 43.787 0.088702
298.38 5710.8 undefined 960.95 1080.3 2.9131 330.00 0.0030303 960.95 1080.3 2.9131 2.7007 3.3033 562.51 0.0017516 43.811 0.088862 330.00 0.0030303 960.95 1080.3 2.9131 2.7007 3.3033 562.51 0.0017516 43.811 0.088862
299.38 5735.8 undefined 963.65 1083.5 2.9179 330.00 0.0030303 963.65 1083.5 2.9179 2.7040 3.3048 563.52 0.0017141 43.834 0.089023 330.00 0.0030303 963.65 1083.5 2.9179 2.7040 3.3048 563.52 0.0017141 43.834 0.089023
300.38 5760.8 undefined 966.36 1086.7 2.9226 330.00 0.0030303 966.36 1086.7 2.9226 2.7074 3.3064 564.52 0.0016770 43.858 0.089185 330.00 0.0030303 966.36 1086.7 2.9226 2.7074 3.3064 564.52 0.0016770 43.858 0.089185