Temperature (C) Pressure (psia) Quality (l+v) Internal Energy (l+v, kJ/kg) Enthalpy (l+v, kJ/kg) Entropy (l+v, J/g*K) Density (l, kg/m3) Volume (l, m3/kg) Internal Energy (l, kJ/kg) Enthalpy (l, kJ/kg) Entropy (l, J/g*K) Cv (l, J/g*K) Cp (l, J/g*K) Sound Spd. (l, m/s) Joule-Thomson (l, F/psia) Viscosity (l, uPa*s) Therm. Cond. (l, W/m*K) Density (v, kg/m3) Volume (v, m3/kg) Internal Energy (v, kJ/kg) Enthalpy (v, kJ/kg) Entropy (v, J/g*K) Cv (v, J/g*K) Cp (v, J/g*K) Sound Spd. (v, m/s) Joule-Thomson (v, F/psia) Viscosity (v, uPa*s) Therm. Cond. (v, W/m*K)
-187.62 2.4953e-08 1.5930e-11 -196.64 -196.64 -1.3959 733.13 0.0013640 -196.64 -196.64 -1.3959 1.3553 1.9158 2136.4 -0.0077592 10960. 0.20792 1.0669e-08 9.3732e+07 350.13 366.26 5.1858 0.69067 0.87923 143.28 6.1051 2.3259 0.0017061
-186.62 3.7339e-08 2.3531e-11 -194.73 -194.73 -1.3736 732.08 0.0013660 -194.73 -194.73 -1.3736 1.3539 1.9166 2129.6 -0.0077546 10073. 0.20765 1.5780e-08 6.3371e+07 350.82 367.14 5.1200 0.69462 0.88317 144.03 5.9178 2.3534 0.0017533
-185.62 5.5322e-08 3.4420e-11 -192.81 -192.81 -1.3516 731.04 0.0013679 -192.81 -192.81 -1.3516 1.3525 1.9174 2122.9 -0.0077498 9276.1 0.20737 2.3112e-08 4.3267e+07 351.52 368.02 5.0561 0.69857 0.88713 144.77 5.7383 2.3808 0.0018007
-184.62 8.1182e-08 4.9873e-11 -190.89 -190.89 -1.3298 730.00 0.0013699 -190.89 -190.89 -1.3298 1.3513 1.9182 2116.1 -0.0077448 8557.8 0.20708 3.3533e-08 2.9821e+07 352.22 368.91 4.9939 0.70253 0.89108 145.51 5.5662 2.4083 0.0018485
-183.62 1.1803e-07 7.1608e-11 -188.97 -188.97 -1.3083 728.96 0.0013718 -188.97 -188.97 -1.3083 1.3501 1.9191 2109.3 -0.0077395 7909.8 0.20678 4.8211e-08 2.0742e+07 352.92 369.81 4.9333 0.70648 0.89504 146.24 5.4011 2.4357 0.0018965
-182.62 1.7009e-07 1.0191e-10 -187.05 -187.05 -1.2869 727.92 0.0013738 -187.05 -187.05 -1.2869 1.3490 1.9201 2102.5 -0.0077340 7324.3 0.20647 6.8704e-08 1.4555e+07 353.63 370.70 4.8744 0.71043 0.89899 146.97 5.2426 2.4632 0.0019448
-181.62 2.4299e-07 1.4381e-10 -185.13 -185.13 -1.2658 726.88 0.0013757 -185.13 -185.13 -1.2658 1.3480 1.9210 2095.7 -0.0077283 6794.5 0.20616 9.7079e-08 1.0301e+07 354.35 371.60 4.8170 0.71438 0.90294 147.69 5.0904 2.4906 0.0019934
-180.62 3.4425e-07 2.0128e-10 -183.21 -183.21 -1.2450 725.85 0.0013777 -183.21 -183.21 -1.2450 1.3470 1.9220 2088.9 -0.0077225 6314.4 0.20584 1.3605e-07 7.3504e+06 355.06 372.51 4.7612 0.71833 0.90688 148.41 4.9442 2.5181 0.0020423
-179.62 4.8378e-07 2.7946e-10 -181.29 -181.29 -1.2243 724.81 0.0013797 -181.29 -181.29 -1.2243 1.3461 1.9231 2082.0 -0.0077164 5878.8 0.20551 1.8915e-07 5.2868e+06 355.78 373.42 4.7068 0.72227 0.91082 149.13 4.8038 2.5456 0.0020915
-178.62 6.7459e-07 3.8505e-10 -179.37 -179.37 -1.2038 723.78 0.0013816 -179.37 -179.37 -1.2038 1.3453 1.9241 2075.2 -0.0077102 5482.9 0.20517 2.6096e-07 3.8320e+06 356.51 374.33 4.6538 0.72620 0.91475 149.84 4.6688 2.5731 0.0021410
-177.62 9.3358e-07 5.2660e-10 -177.44 -177.44 -1.1836 722.75 0.0013836 -177.44 -177.44 -1.1836 1.3445 1.9252 2068.4 -0.0077039 5122.6 0.20483 3.5737e-07 2.7982e+06 357.23 375.25 4.6022 0.73012 0.91867 150.54 4.5390 2.6005 0.0021907
-176.62 1.2826e-06 7.1500e-10 -175.52 -175.52 -1.1635 721.72 0.0013856 -175.52 -175.52 -1.1635 1.3437 1.9263 2061.5 -0.0076973 4794.1 0.20447 4.8588e-07 2.0581e+06 357.97 376.17 4.5519 0.73403 0.92258 151.25 4.4142 2.6280 0.0022408
-175.62 1.7496e-06 9.6407e-10 -173.59 -173.59 -1.1437 720.69 0.0013876 -173.59 -173.59 -1.1437 1.3430 1.9274 2054.7 -0.0076907 4494.3 0.20411 6.5601e-07 1.5244e+06 358.70 377.09 4.5029 0.73792 0.92648 151.95 4.2941 2.6555 0.0022912
-174.62 2.3705e-06 1.2911e-09 -171.66 -171.66 -1.1240 719.66 0.0013895 -171.66 -171.66 -1.1240 1.3423 1.9286 2047.9 -0.0076838 4220.2 0.20375 8.7976e-07 1.1367e+06 359.44 378.02 4.4551 0.74181 0.93036 152.64 4.1784 2.6830 0.0023418
-173.62 3.1903e-06 1.7179e-09 -169.73 -169.73 -1.1045 718.64 0.0013915 -169.73 -169.73 -1.1045 1.3417 1.9298 2041.0 -0.0076769 3969.3 0.20338 1.1721e-06 8.5314e+05 360.19 378.95 4.4085 0.74568 0.93423 153.33 4.0671 2.7105 0.0023928
-172.62 4.2661e-06 2.2713e-09 -167.80 -167.80 -1.0852 717.61 0.0013935 -167.80 -167.80 -1.0852 1.3411 1.9310 2034.2 -0.0076698 3739.3 0.20300 1.5518e-06 6.4441e+05 360.93 379.89 4.3631 0.74953 0.93809 154.02 3.9599 2.7379 0.0024440
-171.62 5.6692e-06 2.9845e-09 -165.87 -165.87 -1.0661 716.58 0.0013955 -165.87 -165.87 -1.0661 1.3405 1.9322 2027.3 -0.0076625 3528.0 0.20261 2.0419e-06 4.8974e+05 361.69 380.83 4.3188 0.75337 0.94193 154.71 3.8566 2.7654 0.0024955
-170.62 7.4884e-06 3.8984e-09 -163.94 -163.94 -1.0472 715.56 0.0013975 -163.94 -163.94 -1.0472 1.3400 1.9334 2020.5 -0.0076552 3333.8 0.20222 2.6708e-06 3.7442e+05 362.44 381.77 4.2755 0.75720 0.94575 155.39 3.7570 2.7929 0.0025473
-169.62 9.8334e-06 5.0628e-09 -162.00 -162.00 -1.0284 714.54 0.0013995 -162.00 -162.00 -1.0284 1.3395 1.9347 2013.6 -0.0076477 3154.9 0.20182 3.4733e-06 2.8791e+05 363.20 382.72 4.2334 0.76100 0.94956 156.07 3.6609 2.8204 0.0025994
-168.62 1.2839e-05 6.5382e-09 -160.07 -160.07 -1.0098 713.52 0.0014015 -160.07 -160.07 -1.0098 1.3390 1.9359 2006.8 -0.0076401 2989.9 0.20141 4.4917e-06 2.2263e+05 363.96 383.67 4.1922 0.76479 0.95335 156.74 3.5683 2.8479 0.0026518
-167.62 1.6672e-05 8.3978e-09 -158.13 -158.13 -0.99134 712.49 0.0014035 -158.13 -158.13 -0.99134 1.3386 1.9372 2000.0 -0.0076323 2837.5 0.20100 5.7771e-06 1.7310e+05 364.73 384.63 4.1521 0.76856 0.95712 157.41 3.4790 2.8754 0.0027045
-166.62 2.1533e-05 1.0729e-08 -156.19 -156.19 -0.97306 711.47 0.0014055 -156.19 -156.19 -0.97306 1.3382 1.9385 1993.1 -0.0076245 2696.5 0.20058 7.3914e-06 1.3529e+05 365.50 385.59 4.1129 0.77232 0.96087 158.08 3.3927 2.9029 0.0027575
-165.62 2.7666e-05 1.3638e-08 -154.25 -154.25 -0.95494 710.45 0.0014075 -154.25 -154.25 -0.95494 1.3378 1.9398 1986.3 -0.0076165 2566.0 0.20016 9.4084e-06 1.0629e+05 366.27 386.55 4.0746 0.77605 0.96460 158.75 3.3095 2.9304 0.0028108
-164.62 3.5367e-05 1.7250e-08 -152.31 -152.31 -0.93698 709.44 0.0014096 -152.31 -152.31 -0.93698 1.3375 1.9411 1979.4 -0.0076084 2444.9 0.19973 1.1916e-05 83918. 367.05 387.52 4.0372 0.77976 0.96832 159.41 3.2291 2.9579 0.0028643
-163.62 4.4989e-05 2.1712e-08 -150.37 -150.37 -0.91917 708.42 0.0014116 -150.37 -150.37 -0.91917 1.3371 1.9424 1972.6 -0.0076002 2332.3 0.19930 1.5020e-05 66577. 367.83 388.49 4.0008 0.78346 0.97201 160.07 3.1514 2.9854 0.0029182
-162.62 5.6956e-05 2.7201e-08 -148.43 -148.43 -0.90151 707.40 0.0014136 -148.43 -148.43 -0.90151 1.3368 1.9437 1965.8 -0.0075919 2227.7 0.19886 1.8844e-05 53068. 368.62 389.46 3.9651 0.78713 0.97569 160.72 3.0764 3.0129 0.0029723
-161.62 7.1773e-05 3.3922e-08 -146.48 -146.48 -0.88400 706.38 0.0014157 -146.48 -146.48 -0.88400 1.3365 1.9451 1959.0 -0.0075834 2130.2 0.19841 2.3533e-05 42494. 369.41 390.44 3.9304 0.79079 0.97935 161.38 3.0038 3.0404 0.0030268
-160.62 9.0036e-05 4.2116e-08 -144.54 -144.54 -0.86663 705.37 0.0014177 -144.54 -144.54 -0.86663 1.3363 1.9465 1952.1 -0.0075748 2039.2 0.19796 2.9258e-05 34178. 370.20 391.42 3.8964 0.79443 0.98298 162.03 2.9337 3.0679 0.0030815
-159.62 0.00011245 5.2064e-08 -142.59 -142.59 -0.84940 704.35 0.0014197 -142.59 -142.59 -0.84940 1.3360 1.9478 1945.3 -0.0075661 1954.2 0.19751 3.6221e-05 27609. 371.00 392.40 3.8632 0.79805 0.98660 162.68 2.8658 3.0955 0.0031365
-158.62 0.00013985 6.4091e-08 -140.64 -140.64 -0.83231 703.34 0.0014218 -140.64 -140.64 -0.83231 1.3358 1.9492 1938.5 -0.0075573 1874.8 0.19705 4.4652e-05 22395. 371.80 393.39 3.8307 0.80164 0.99020 163.32 2.8002 3.1230 0.0031918
-157.62 0.00017320 7.8576e-08 -138.69 -138.69 -0.81536 702.32 0.0014238 -138.69 -138.69 -0.81536 1.3356 1.9506 1931.7 -0.0075484 1800.3 0.19658 5.4822e-05 18241. 372.60 394.38 3.7990 0.80522 0.99378 163.96 2.7367 3.1505 0.0032474
-156.62 0.00021364 9.5951e-08 -136.74 -136.74 -0.79854 701.31 0.0014259 -136.74 -136.74 -0.79854 1.3354 1.9520 1924.9 -0.0075393 1730.5 0.19611 6.7040e-05 14916. 373.41 395.38 3.7680 0.80878 0.99734 164.60 2.6752 3.1780 0.0033033
-155.62 0.00026248 1.1672e-07 -134.79 -134.79 -0.78185 700.30 0.0014280 -134.79 -134.79 -0.78185 1.3352 1.9534 1918.1 -0.0075302 1664.9 0.19564 8.1666e-05 12245. 374.22 396.38 3.7377 0.81232 1.0009 165.24 2.6157 3.2055 0.0033595
-154.62 0.00032125 1.4144e-07 -132.83 -132.83 -0.76530 699.29 0.0014300 -132.83 -132.83 -0.76530 1.3350 1.9548 1911.3 -0.0075209 1603.3 0.19516 9.9109e-05 10090. 375.03 397.38 3.7081 0.81585 1.0044 165.87 2.5580 3.2330 0.0034160
-153.62 0.00039171 1.7077e-07 -130.88 -130.88 -0.74887 698.27 0.0014321 -130.88 -130.88 -0.74887 1.3349 1.9563 1904.5 -0.0075114 1545.3 0.19468 0.00011984 8344.6 375.85 398.39 3.6792 0.81935 1.0079 166.50 2.5022 3.2606 0.0034727
-152.62 0.00047590 2.0545e-07 -128.92 -128.92 -0.73256 697.26 0.0014342 -128.92 -128.92 -0.73256 1.3348 1.9577 1897.8 -0.0075019 1490.6 0.19419 0.00014439 6925.9 376.67 399.40 3.6509 0.82284 1.0114 167.13 2.4481 3.2881 0.0035298
-151.62 0.00057613 2.4632e-07 -126.96 -126.96 -0.71638 696.25 0.0014363 -126.96 -126.96 -0.71638 1.3346 1.9592 1891.0 -0.0074922 1438.9 0.19370 0.00017336 5768.4 377.49 400.41 3.6232 0.82631 1.0149 167.76 2.3957 3.3156 0.0035872
-150.62 0.00069507 2.9431e-07 -125.00 -125.00 -0.70032 695.24 0.0014384 -125.00 -125.00 -0.70032 1.3345 1.9606 1884.2 -0.0074824 1390.2 0.19320 0.00020744 4820.7 378.32 401.42 3.5962 0.82976 1.0183 168.38 2.3448 3.3431 0.0036448
-149.62 0.00083574 3.5049e-07 -123.04 -123.04 -0.68437 694.23 0.0014404 -123.04 -123.04 -0.68438 1.3345 1.9621 1877.4 -0.0074724 1344.0 0.19270 0.00024740 4042.0 379.15 402.44 3.5697 0.83319 1.0218 169.00 2.2956 3.3706 0.0037027
-148.62 0.0010016 4.1606e-07 -121.08 -121.08 -0.66855 693.22 0.0014425 -121.08 -121.08 -0.66855 1.3344 1.9636 1870.7 -0.0074623 1300.3 0.19220 0.00029412 3400.0 379.99 403.47 3.5438 0.83661 1.0252 169.62 2.2478 3.3982 0.0037610
-147.62 0.0011965 4.9233e-07 -119.11 -119.11 -0.65284 692.21 0.0014447 -119.11 -119.11 -0.65284 1.3343 1.9651 1863.9 -0.0074521 1258.9 0.19169 0.00034856 2869.0 380.83 404.49 3.5185 0.84001 1.0286 170.24 2.2014 3.4257 0.0038195
-146.62 0.0014249 5.8081e-07 -117.15 -117.15 -0.63724 691.20 0.0014468 -117.15 -117.15 -0.63724 1.3343 1.9666 1857.2 -0.0074417 1219.6 0.19117 0.00041181 2428.3 381.67 405.52 3.4938 0.84340 1.0320 170.85 2.1565 3.4532 0.0038783
-145.62 0.0016917 6.8314e-07 -115.18 -115.18 -0.62175 690.19 0.0014489 -115.18 -115.18 -0.62175 1.3343 1.9682 1850.4 -0.0074312 1182.3 0.19066 0.00048510 2061.4 382.51 406.56 3.4695 0.84677 1.0353 171.46 2.1128 3.4807 0.0039374
-144.62 0.0020026 8.0116e-07 -113.21 -113.21 -0.60637 689.18 0.0014510 -113.21 -113.21 -0.60637 1.3343 1.9697 1843.7 -0.0074206 1146.8 0.19014 0.00056976 1755.1 383.36 407.59 3.4458 0.85012 1.0387 172.07 2.0705 3.5082 0.0039967
-143.62 0.0023637 9.3691e-07 -111.24 -111.24 -0.59109 688.17 0.0014531 -111.24 -111.24 -0.59110 1.3343 1.9713 1836.9 -0.0074098 1113.0 0.18962 0.00066731 1498.6 384.21 408.63 3.4226 0.85346 1.0420 172.68 2.0294 3.5358 0.0040564
-142.62 0.0027820 1.0926e-06 -109.27 -109.27 -0.57593 687.16 0.0014553 -109.27 -109.27 -0.57593 1.3343 1.9728 1830.2 -0.0073988 1080.8 0.18909 0.00077939 1283.1 385.07 409.68 3.3999 0.85679 1.0454 173.28 1.9896 3.5633 0.0041164
-141.62 0.0032653 1.2707e-06 -107.30 -107.30 -0.56086 686.15 0.0014574 -107.30 -107.30 -0.56087 1.3343 1.9744 1823.5 -0.0073878 1050.1 0.18856 0.00090784 1101.5 385.93 410.72 3.3777 0.86011 1.0487 173.88 1.9508 3.5908 0.0041766
-140.62 0.0038222 1.4740e-06 -105.32 -105.32 -0.54590 685.14 0.0014596 -105.32 -105.32 -0.54591 1.3344 1.9760 1816.7 -0.0073765 1020.7 0.18803 0.0010547 948.16 386.79 411.77 3.3560 0.86341 1.0520 174.48 1.9133 3.6183 0.0042372
-139.62 0.0044623 1.7054e-06 -103.34 -103.34 -0.53104 684.13 0.0014617 -103.34 -103.34 -0.53105 1.3344 1.9776 1810.0 -0.0073651 992.74 0.18749 0.0012221 818.26 387.65 412.83 3.3347 0.86670 1.0553 175.08 1.8768 3.6459 0.0042980
-138.62 0.0051963 1.9681e-06 -101.37 -101.37 -0.51628 683.12 0.0014639 -101.37 -101.37 -0.51629 1.3345 1.9792 1803.3 -0.0073536 965.97 0.18695 0.0014125 707.94 388.52 413.88 3.3139 0.86998 1.0586 175.67 1.8413 3.6734 0.0043592
-137.62 0.0060358 2.2656e-06 -99.385 -99.385 -0.50161 682.11 0.0014660 -99.386 -99.386 -0.50162 1.3346 1.9808 1796.6 -0.0073419 940.35 0.18641 0.0016287 614.00 389.39 414.94 3.2935 0.87325 1.0619 176.26 1.8069 3.7009 0.0044206
-136.62 0.0069938 2.6019e-06 -97.403 -97.403 -0.48704 681.10 0.0014682 -97.404 -97.404 -0.48705 1.3347 1.9825 1789.9 -0.0073301 915.81 0.18586 0.0018733 533.80 390.26 416.00 3.2735 0.87650 1.0651 176.85 1.7734 3.7284 0.0044823
-135.62 0.0080843 2.9811e-06 -95.420 -95.420 -0.47257 680.09 0.0014704 -95.421 -95.421 -0.47258 1.3348 1.9841 1783.2 -0.0073180 892.30 0.18531 0.0021497 465.17 391.14 417.07 3.2540 0.87975 1.0684 177.44 1.7409 3.7559 0.0045443
-134.62 0.0093230 3.4078e-06 -93.435 -93.434 -0.45819 679.08 0.0014726 -93.436 -93.436 -0.45820 1.3350 1.9858 1776.5 -0.0073059 869.75 0.18476 0.0024613 406.30 392.02 418.14 3.2348 0.88299 1.0716 178.02 1.7093 3.7834 0.0046066
-133.62 0.010727 3.8867e-06 -91.448 -91.447 -0.44389 678.07 0.0014748 -91.450 -91.449 -0.44391 1.3351 1.9875 1769.8 -0.0072935 848.11 0.18421 0.0028116 355.67 392.91 419.21 3.2161 0.88622 1.0749 178.61 1.6786 3.8109 0.0046691
-132.62 0.012315 4.4232e-06 -89.459 -89.459 -0.42969 677.06 0.0014770 -89.461 -89.461 -0.42971 1.3353 1.9892 1763.1 -0.0072810 827.32 0.18365 0.0032049 312.03 393.79 420.29 3.1977 0.88944 1.0781 179.19 1.6488 3.8385 0.0047320
-131.62 0.014106 5.0230e-06 -87.469 -87.468 -0.41558 676.04 0.0014792 -87.471 -87.471 -0.41560 1.3354 1.9909 1756.4 -0.0072684 807.34 0.18309 0.0036453 274.33 394.68 421.36 3.1798 0.89266 1.0813 179.76 1.6197 3.8660 0.0047951
-130.62 0.016124 5.6922e-06 -85.477 -85.476 -0.40155 675.03 0.0014814 -85.479 -85.479 -0.40157 1.3356 1.9926 1749.7 -0.0072555 788.12 0.18253 0.0041375 241.69 395.58 422.44 3.1622 0.89586 1.0846 180.34 1.5915 3.8935 0.0048586
-129.62 0.018392 6.4372e-06 -83.483 -83.482 -0.38761 674.02 0.0014836 -83.486 -83.486 -0.38763 1.3358 1.9944 1743.0 -0.0072425 769.63 0.18196 0.0046867 213.37 396.47 423.53 3.1450 0.89906 1.0878 180.91 1.5641 3.9210 0.0049223
-128.62 0.020935 7.2652e-06 -81.487 -81.487 -0.37376 673.01 0.0014859 -81.491 -81.490 -0.37378 1.3360 1.9961 1736.3 -0.0072294 751.83 0.18140 0.0052981 188.75 397.37 424.62 3.1281 0.90226 1.0910 181.48 1.5374 3.9485 0.0049863
-127.62 0.023783 8.1836e-06 -79.490 -79.489 -0.35998 672.00 0.0014881 -79.494 -79.493 -0.36001 1.3363 1.9979 1729.6 -0.0072160 734.67 0.18083 0.0059776 167.29 398.27 425.71 3.1116 0.90545 1.0942 182.05 1.5114 3.9760 0.0050506
-126.62 0.026966 9.2004e-06 -77.490 -77.490 -0.34629 670.98 0.0014904 -77.495 -77.495 -0.34632 1.3365 1.9997 1722.9 -0.0072025 718.14 0.18025 0.0067313 148.56 399.18 426.80 3.0954 0.90863 1.0974 182.62 1.4861 4.0035 0.0051152
-125.62 0.030515 1.0324e-05 -75.489 -75.489 -0.33268 669.97 0.0014926 -75.494 -75.494 -0.33272 1.3368 2.0015 1716.2 -0.0071888 702.18 0.17968 0.0075660 132.17 400.09 427.89 3.0795 0.91181 1.1006 183.18 1.4615 4.0310 0.0051800
-124.62 0.034467 1.1564e-05 -73.486 -73.486 -0.31915 668.95 0.0014949 -73.492 -73.492 -0.31919 1.3371 2.0033 1709.5 -0.0071749 686.79 0.17910 0.0084885 117.81 401.00 428.99 3.0640 0.91499 1.1038 183.74 1.4375 4.0584 0.0052452
-123.62 0.038859 1.2929e-05 -71.482 -71.481 -0.30570 667.94 0.0014971 -71.488 -71.487 -0.30574 1.3374 2.0051 1702.8 -0.0071609 671.93 0.17852 0.0095065 105.19 401.91 430.10 3.0488 0.91816 1.1070 184.30 1.4141 4.0859 0.0053106
-122.62 0.043731 1.4430e-05 -69.475 -69.474 -0.29232 666.92 0.0014994 -69.482 -69.481 -0.29237 1.3377 2.0070 1696.2 -0.0071466 657.57 0.17794 0.010628 94.092 402.83 431.20 3.0339 0.92134 1.1102 184.86 1.3913 4.1134 0.0053764
-121.62 0.049128 1.6077e-05 -67.466 -67.465 -0.27902 665.91 0.0015017 -67.474 -67.473 -0.27907 1.3380 2.0089 1689.5 -0.0071322 643.70 0.17736 0.011861 84.309 403.75 432.31 3.0193 0.92451 1.1134 185.41 1.3691 4.1409 0.0054424
-120.62 0.055096 1.7883e-05 -65.456 -65.454 -0.26579 664.89 0.0015040 -65.464 -65.463 -0.26585 1.3384 2.0107 1682.8 -0.0071176 630.28 0.17678 0.013215 75.669 404.67 433.42 3.0050 0.92767 1.1166 185.96 1.3475 4.1683 0.0055087
-119.62 0.061684 1.9858e-05 -63.443 -63.442 -0.25264 663.87 0.0015063 -63.452 -63.452 -0.25271 1.3387 2.0126 1676.1 -0.0071028 617.30 0.17619 0.014700 68.027 405.60 434.53 2.9909 0.93084 1.1198 186.51 1.3264 4.1958 0.0055752
-118.62 0.068946 2.2015e-05 -61.428 -61.427 -0.23956 662.86 0.0015086 -61.439 -61.438 -0.23963 1.3391 2.0146 1669.4 -0.0070878 604.74 0.17560 0.016325 61.255 406.53 435.64 2.9772 0.93401 1.1231 187.06 1.3058 4.2233 0.0056421
-117.62 0.076937 2.4369e-05 -59.412 -59.410 -0.22655 661.84 0.0015109 -59.423 -59.422 -0.22663 1.3395 2.0165 1662.8 -0.0070726 592.58 0.17501 0.018101 55.245 407.46 436.76 2.9638 0.93718 1.1263 187.60 1.2857 4.2507 0.0057092
-116.62 0.085718 2.6932e-05 -57.393 -57.391 -0.21362 660.82 0.0015133 -57.406 -57.405 -0.21370 1.3400 2.0184 1656.1 -0.0070573 580.80 0.17442 0.020040 49.901 408.39 437.88 2.9506 0.94035 1.1295 188.14 1.2660 4.2782 0.0057767
-115.62 0.095353 2.9719e-05 -55.372 -55.371 -0.20075 659.80 0.0015156 -55.386 -55.385 -0.20084 1.3404 2.0204 1649.4 -0.0070417 569.38 0.17383 0.022152 45.142 409.33 439.01 2.9377 0.94352 1.1327 188.68 1.2468 4.3056 0.0058444
-114.62 0.10591 3.2746e-05 -53.350 -53.348 -0.18795 658.78 0.0015180 -53.365 -53.364 -0.18805 1.3409 2.0224 1642.7 -0.0070260 558.32 0.17323 0.024451 40.898 410.27 440.13 2.9250 0.94669 1.1360 189.22 1.2281 4.3330 0.0059123
-113.62 0.11746 3.6028e-05 -51.325 -51.323 -0.17521 657.76 0.0015203 -51.342 -51.340 -0.17533 1.3413 2.0244 1636.0 -0.0070100 547.59 0.17264 0.026949 37.107 411.21 441.26 2.9126 0.94987 1.1392 189.75 1.2097 4.3604 0.0059806
-112.62 0.13008 3.9583e-05 -49.298 -49.295 -0.16255 656.73 0.0015227 -49.316 -49.315 -0.16267 1.3418 2.0264 1629.3 -0.0069938 537.18 0.17204 0.029661 33.715 412.16 442.39 2.9005 0.95305 1.1424 190.28 1.1918 4.3879 0.0060491
-111.62 0.14384 4.3427e-05 -47.269 -47.266 -0.14995 655.71 0.0015251 -47.289 -47.287 -0.15008 1.3424 2.0285 1622.7 -0.0069774 527.08 0.17144 0.032600 30.675 413.10 443.53 2.8885 0.95623 1.1457 190.81 1.1742 4.4153 0.0061180
-110.62 0.15884 4.7580e-05 -45.237 -45.234 -0.13741 654.69 0.0015274 -45.259 -45.258 -0.13755 1.3429 2.0305 1616.0 -0.0069609 517.28 0.17084 0.035781 27.948 414.06 444.66 2.8769 0.95942 1.1490 191.34 1.1570 4.4427 0.0061871
-109.62 0.17516 5.2059e-05 -43.204 -43.200 -0.12494 653.66 0.0015298 -43.228 -43.226 -0.12509 1.3435 2.0326 1609.3 -0.0069441 507.76 0.17024 0.039220 25.497 415.01 445.80 2.8654 0.96261 1.1522 191.86 1.1402 4.4701 0.0062564
-108.62 0.19290 5.6885e-05 -41.168 -41.164 -0.11252 652.64 0.0015322 -41.194 -41.192 -0.11269 1.3441 2.0347 1602.6 -0.0069271 498.51 0.16964 0.042933 23.292 415.96 446.94 2.8542 0.96581 1.1555 192.38 1.1236 4.4974 0.0063261
-107.62 0.21215 6.2078e-05 -39.130 -39.126 -0.10017 651.61 0.0015347 -39.158 -39.156 -0.10036 1.3447 2.0369 1595.9 -0.0069098 489.52 0.16903 0.046937 21.305 416.92 448.09 2.8433 0.96901 1.1588 192.90 1.1075 4.5248 0.0063960
-106.62 0.23301 6.7659e-05 -37.090 -37.085 -0.087885 650.58 0.0015371 -37.120 -37.118 -0.088082 1.3453 2.0390 1589.2 -0.0068924 480.79 0.16843 0.051250 19.512 417.88 449.23 2.8325 0.97222 1.1621 193.41 1.0916 4.5522 0.0064662
-105.62 0.25561 7.3649e-05 -35.047 -35.042 -0.075655 649.55 0.0015395 -35.080 -35.078 -0.075868 1.3460 2.0412 1582.6 -0.0068747 472.30 0.16782 0.055891 17.892 418.85 450.38 2.8220 0.97544 1.1655 193.93 1.0760 4.5795 0.0065367
-104.62 0.28004 8.0072e-05 -33.002 -32.996 -0.063484 648.52 0.0015420 -33.038 -33.035 -0.063714 1.3467 2.0434 1575.9 -0.0068569 464.04 0.16721 0.060878 16.426 419.81 451.53 2.8116 0.97867 1.1688 194.44 1.0608 4.6069 0.0066074
-103.62 0.30643 8.6952e-05 -30.955 -30.949 -0.051371 647.49 0.0015444 -30.994 -30.991 -0.051619 1.3474 2.0456 1569.2 -0.0068387 456.00 0.16660 0.066231 15.099 420.78 452.68 2.8015 0.98191 1.1722 194.94 1.0458 4.6342 0.0066785
-102.62 0.33490 9.4311e-05 -28.905 -28.898 -0.039315 646.46 0.0015469 -28.947 -28.944 -0.039582 1.3481 2.0478 1562.5 -0.0068204 448.18 0.16600 0.071971 13.894 421.75 453.84 2.7916 0.98516 1.1755 195.44 1.0310 4.6615 0.0067498
-101.62 0.36558 0.00010218 -26.852 -26.845 -0.027315 645.43 0.0015494 -26.898 -26.894 -0.027602 1.3489 2.0501 1555.8 -0.0068018 440.57 0.16539 0.078120 12.801 422.73 454.99 2.7818 0.98841 1.1789 195.95 1.0166 4.6888 0.0068213
-100.62 0.39862 0.00011057 -24.798 -24.790 -0.015370 644.39 0.0015519 -24.847 -24.843 -0.015678 1.3497 2.0524 1549.1 -0.0067830 433.16 0.16478 0.084699 11.807 423.70 456.15 2.7723 0.99168 1.1823 196.44 1.0024 4.7161 0.0068932
-99.625 0.43414 0.00011952 -22.740 -22.732 -0.0034796 643.36 0.0015544 -22.794 -22.789 -0.0038103 1.3505 2.0547 1542.4 -0.0067639 425.95 0.16416 0.091731 10.901 424.68 457.31 2.7630 0.99496 1.1858 196.94 0.98838 4.7434 0.0069653
-98.625 0.47230 0.00012906 -20.680 -20.671 0.0083571 642.32 0.0015569 -20.738 -20.733 0.0080027 1.3514 2.0570 1535.7 -0.0067447 418.92 0.16355 0.099240 10.077 425.66 458.48 2.7538 0.99825 1.1892 197.43 0.97464 4.7707 0.0070377
-97.625 0.51325 0.00013921 -18.618 -18.608 0.020141 641.28 0.0015594 -18.680 -18.674 0.019762 1.3522 2.0594 1529.0 -0.0067251 412.07 0.16294 0.10725 9.3239 426.65 459.64 2.7448 1.0016 1.1927 197.92 0.96112 4.7979 0.0071103
-96.625 0.55714 0.00015000 -16.553 -16.542 0.031873 640.24 0.0015619 -16.620 -16.614 0.031467 1.3531 2.0618 1522.3 -0.0067053 405.39 0.16233 0.11579 8.6365 427.63 460.81 2.7360 1.0049 1.1962 198.40 0.94783 4.8251 0.0071832
-95.625 0.60416 0.00016146 -14.485 -14.473 0.043553 639.20 0.0015645 -14.557 -14.550 0.043120 1.3540 2.0642 1515.7 -0.0066853 398.88 0.16171 0.12488 8.0078 428.62 461.98 2.7274 1.0082 1.1997 198.88 0.93475 4.8524 0.0072564
-94.625 0.65446 0.00017362 -12.415 -12.402 0.055184 638.16 0.0015670 -12.491 -12.484 0.054721 1.3550 2.0667 1509.0 -0.0066650 392.53 0.16110 0.13455 7.4323 429.61 463.15 2.7189 1.0116 1.2032 199.36 0.92188 4.8796 0.0073299
-93.625 0.70822 0.00018651 -10.341 -10.327 0.066764 637.12 0.0015696 -10.424 -10.416 0.066271 1.3560 2.0691 1502.3 -0.0066444 386.34 0.16048 0.14482 6.9050 430.60 464.32 2.7107 1.0149 1.2068 199.83 0.90921 4.9068 0.0074036
-92.625 0.76564 0.00020017 -8.2655 -8.2504 0.078296 636.07 0.0015722 -8.3535 -8.3452 0.077771 1.3570 2.0716 1495.6 -0.0066236 380.31 0.15987 0.15573 6.4212 431.60 465.49 2.7025 1.0183 1.2104 200.30 0.89673 4.9340 0.0074776
-91.625 0.82689 0.00021462 -6.1867 -6.1704 0.089779 635.02 0.0015747 -6.2808 -6.2719 0.089220 1.3580 2.0742 1488.9 -0.0066025 374.41 0.15925 0.16731 5.9769 432.59 466.67 2.6946 1.0217 1.2140 200.77 0.88445 4.9611 0.0075518
-90.625 0.89218 0.00022989 -4.1050 -4.0874 0.10122 633.98 0.0015773 -4.2056 -4.1959 0.10062 1.3591 2.0767 1482.2 -0.0065811 368.66 0.15864 0.17958 5.5685 433.59 467.84 2.6868 1.0251 1.2177 201.24 0.87236 4.9883 0.0076263
-89.625 0.96172 0.00024603 -2.0204 -2.0015 0.11261 632.93 0.0015800 -2.1279 -2.1174 0.11197 1.3602 2.0793 1475.5 -0.0065595 363.05 0.15802 0.19258 5.1928 434.59 469.02 2.6791 1.0285 1.2213 201.70 0.86045 5.0154 0.0077011
-88.625 1.0357 0.00026306 0.067085 0.087488 0.12395 631.88 0.0015826 -0.047516 -0.036215 0.12328 1.3613 2.0819 1468.8 -0.0065375 357.56 0.15740 0.20633 4.8466 435.59 470.20 2.6717 1.0320 1.2250 202.15 0.84873 5.0425 0.0077761
-87.625 1.1144 0.00028103 2.1576 2.1795 0.13525 630.83 0.0015852 2.0355 2.0476 0.13454 1.3625 2.0846 1462.1 -0.0065153 352.21 0.15679 0.22087 4.5276 436.60 471.39 2.6643 1.0354 1.2288 202.61 0.83718 5.0696 0.0078514
-86.625 1.1979 0.00029995 4.2511 4.2747 0.14650 629.77 0.0015879 4.1211 4.1342 0.14575 1.3637 2.0873 1455.4 -0.0064928 346.98 0.15617 0.23623 4.2331 437.61 472.57 2.6571 1.0389 1.2325 203.06 0.82580 5.0967 0.0079270
-85.625 1.2866 0.00031988 6.3477 6.3730 0.15771 628.72 0.0015905 6.2094 6.2235 0.15691 1.3649 2.0900 1448.8 -0.0064701 341.87 0.15555 0.25245 3.9612 438.61 473.75 2.6501 1.0424 1.2363 203.50 0.81460 5.1237 0.0080028
-84.625 1.3806 0.00034085 8.4474 8.4746 0.16888 627.66 0.0015932 8.3004 8.3155 0.16803 1.3661 2.0927 1442.1 -0.0064470 336.87 0.15494 0.26956 3.7097 439.63 474.94 2.6432 1.0460 1.2402 203.95 0.80356 5.1508 0.0080789
-83.625 1.4803 0.00036289 10.550 10.579 0.18000 626.60 0.0015959 10.394 10.410 0.17911 1.3674 2.0955 1435.4 -0.0064236 331.99 0.15432 0.28760 3.4771 440.64 476.13 2.6364 1.0495 1.2440 204.38 0.79269 5.1778 0.0081553
-82.625 1.5858 0.00038605 12.656 12.688 0.19109 625.54 0.0015986 12.491 12.508 0.19014 1.3687 2.0983 1428.7 -0.0063999 327.22 0.15370 0.30659 3.2616 441.65 477.31 2.6298 1.0531 1.2479 204.82 0.78199 5.2048 0.0082319
-81.625 1.6975 0.00041036 14.766 14.799 0.20213 624.48 0.0016013 14.590 14.609 0.20113 1.3700 2.1012 1422.0 -0.0063759 322.55 0.15309 0.32659 3.0619 442.67 478.50 2.6233 1.0567 1.2519 205.25 0.77144 5.2318 0.0083088
-80.625 1.8155 0.00043585 16.878 16.914 0.21313 623.42 0.0016041 16.692 16.712 0.21208 1.3714 2.1041 1415.4 -0.0063516 317.99 0.15247 0.34763 2.8766 443.69 479.70 2.6169 1.0603 1.2558 205.67 0.76106 5.2587 0.0083860
-79.625 1.9402 0.00046258 18.994 19.032 0.22409 622.36 0.0016068 18.797 18.819 0.22299 1.3728 2.1070 1408.7 -0.0063270 313.52 0.15186 0.36974 2.7046 444.71 480.89 2.6106 1.0639 1.2598 206.10 0.75083 5.2857 0.0084634
-78.625 2.0718 0.00049057 21.113 21.154 0.23501 621.29 0.0016096 20.905 20.928 0.23385 1.3742 2.1099 1402.0 -0.0063021 309.15 0.15124 0.39296 2.5448 445.73 482.08 2.6045 1.0676 1.2639 206.51 0.74076 5.3126 0.0085411
-77.625 2.2107 0.00051987 23.236 23.280 0.24590 620.22 0.0016123 23.016 23.040 0.24468 1.3757 2.1129 1395.3 -0.0062768 304.88 0.15062 0.41735 2.3961 446.75 483.27 2.5985 1.0712 1.2680 206.93 0.73084 5.3395 0.0086190
-76.625 2.3571 0.00055052 25.362 25.409 0.25675 619.15 0.0016151 25.130 25.156 0.25546 1.3772 2.1159 1388.7 -0.0062512 300.69 0.15001 0.44292 2.2577 447.78 484.47 2.5926 1.0749 1.2721 207.34 0.72107 5.3664 0.0086972
-75.625 2.5113 0.00058256 27.492 27.542 0.26756 618.08 0.0016179 27.247 27.275 0.26620 1.3787 2.1190 1382.0 -0.0062253 296.59 0.14939 0.46974 2.1288 448.81 485.67 2.5869 1.0787 1.2762 207.74 0.71146 5.3933 0.0087757
-74.625 2.6736 0.00061603 29.625 29.678 0.27833 617.01 0.0016207 29.366 29.396 0.27691 1.3802 2.1221 1375.4 -0.0061990 292.58 0.14878 0.49783 2.0087 449.83 486.86 2.5812 1.0824 1.2804 208.14 0.70200 5.4201 0.0088544
-73.625 2.8444 0.00065097 31.762 31.818 0.28907 615.93 0.0016236 31.489 31.521 0.28758 1.3818 2.1252 1368.7 -0.0061724 288.65 0.14816 0.52725 1.8966 450.86 488.06 2.5757 1.0862 1.2847 208.54 0.69268 5.4469 0.0089334
-72.625 3.0240 0.00068743 33.903 33.963 0.29977 614.85 0.0016264 33.615 33.649 0.29821 1.3834 2.1284 1362.0 -0.0061454 284.81 0.14755 0.55804 1.7920 451.90 489.26 2.5703 1.0900 1.2889 208.93 0.68351 5.4737 0.0090126
-71.625 3.2127 0.00072545 36.047 36.111 0.31043 613.78 0.0016293 35.745 35.781 0.30880 1.3851 2.1316 1355.4 -0.0061181 281.03 0.14694 0.59024 1.6942 452.93 490.46 2.5650 1.0938 1.2932 209.32 0.67448 5.5005 0.0090922
-70.625 3.4108 0.00076506 38.195 38.263 0.32107 612.69 0.0016321 37.877 37.915 0.31935 1.3867 2.1349 1348.7 -0.0060904 277.34 0.14632 0.62390 1.6028 453.96 491.66 2.5598 1.0976 1.2976 209.70 0.66560 5.5273 0.0091720
-69.625 3.6187 0.00080632 40.347 40.419 0.33167 611.61 0.0016350 40.013 40.053 0.32987 1.3884 2.1382 1342.1 -0.0060624 273.72 0.14571 0.65906 1.5173 455.00 492.86 2.5547 1.1015 1.3020 210.08 0.65687 5.5540 0.0092520
-68.625 3.8367 0.00084926 42.503 42.579 0.34223 610.53 0.0016379 42.152 42.195 0.34036 1.3902 2.1415 1335.5 -0.0060339 270.17 0.14510 0.69577 1.4372 456.04 494.06 2.5497 1.1054 1.3064 210.45 0.64827 5.5807 0.0093324
-67.625 4.0652 0.00089394 44.663 44.743 0.35277 609.44 0.0016409 44.294 44.340 0.35080 1.3919 2.1449 1328.8 -0.0060051 266.69 0.14449 0.73408 1.3622 457.08 495.26 2.5448 1.1093 1.3109 210.82 0.63981 5.6074 0.0094130
-66.625 4.3046 0.00094038 46.826 46.911 0.36327 608.35 0.0016438 46.439 46.488 0.36122 1.3937 2.1483 1322.2 -0.0059760 263.28 0.14388 0.77404 1.2919 458.12 496.46 2.5400 1.1133 1.3154 211.18 0.63150 5.6341 0.0094939
-65.625 4.5551 0.00098864 48.994 49.084 0.37374 607.26 0.0016467 48.588 48.640 0.37160 1.3955 2.1518 1315.6 -0.0059464 259.93 0.14327 0.81570 1.2259 459.16 497.67 2.5353 1.1172 1.3200 211.54 0.62332 5.6608 0.0095750
-64.625 4.8173 0.0010388 51.166 51.261 0.38418 606.16 0.0016497 50.740 50.795 0.38195 1.3974 2.1553 1308.9 -0.0059164 256.65 0.14266 0.85910 1.1640 460.21 498.87 2.5307 1.1212 1.3246 211.89 0.61527 5.6874 0.0096564
-63.625 5.0915 0.0010908 53.342 53.442 0.39459 605.07 0.0016527 52.896 52.954 0.39226 1.3993 2.1588 1302.3 -0.0058861 253.42 0.14205 0.90429 1.1058 461.25 500.07 2.5262 1.1252 1.3293 212.24 0.60736 5.7140 0.0097382
-62.625 5.3781 0.0011448 55.522 55.628 0.40497 603.97 0.0016557 55.055 55.117 0.40254 1.4012 2.1624 1295.7 -0.0058553 250.26 0.14144 0.95134 1.0511 462.30 501.28 2.5218 1.1293 1.3340 212.58 0.59958 5.7406 0.0098201
-61.625 5.6774 0.0012007 57.706 57.818 0.41532 602.87 0.0016587 57.218 57.283 0.41279 1.4031 2.1660 1289.1 -0.0058241 247.16 0.14084 1.0003 0.99972 463.35 502.48 2.5175 1.1333 1.3387 212.92 0.59194 5.7672 0.0099024
-60.625 5.9899 0.0012588 59.894 60.012 0.42564 601.77 0.0016618 59.385 59.453 0.42301 1.4051 2.1697 1282.5 -0.0057925 244.12 0.14023 1.0512 0.95131 464.40 503.68 2.5133 1.1374 1.3435 213.26 0.58442 5.7938 0.0099850
-59.625 6.3160 0.0013188 62.087 62.212 0.43593 600.66 0.0016648 61.554 61.627 0.43320 1.4071 2.1734 1275.9 -0.0057605 241.13 0.13962 1.1041 0.90573 465.45 504.89 2.5091 1.1415 1.3483 213.58 0.57704 5.8203 0.010068
-58.625 6.6561 0.0013811 64.284 64.415 0.44620 599.55 0.0016679 63.728 63.805 0.44335 1.4091 2.1772 1269.3 -0.0057280 238.19 0.13902 1.1591 0.86277 466.50 506.09 2.5051 1.1457 1.3532 213.90 0.56978 5.8468 0.010151
-57.625 7.0107 0.0014454 66.486 66.624 0.45644 598.44 0.0016710 65.905 65.986 0.45348 1.4111 2.1810 1262.7 -0.0056951 235.31 0.13842 1.2161 0.82228 467.55 507.30 2.5011 1.1498 1.3581 214.22 0.56265 5.8733 0.010234
-56.625 7.3801 0.0015121 68.692 68.837 0.46665 597.33 0.0016741 68.086 68.172 0.46358 1.4132 2.1848 1256.1 -0.0056617 232.48 0.13781 1.2754 0.78408 468.60 508.50 2.4972 1.1540 1.3631 214.53 0.55564 5.8998 0.010318
-55.625 7.7648 0.0015809 70.903 71.056 0.47684 596.22 0.0016772 70.271 70.361 0.47364 1.4153 2.1887 1249.5 -0.0056279 229.69 0.13721 1.3369 0.74802 469.66 509.71 2.4934 1.1582 1.3681 214.84 0.54875 5.9263 0.010402
-54.625 8.1652 0.0016521 73.118 73.279 0.48700 595.10 0.0016804 72.460 72.554 0.48368 1.4174 2.1927 1242.9 -0.0055937 226.96 0.13661 1.4006 0.71396 470.72 510.91 2.4897 1.1624 1.3731 215.14 0.54199 5.9527 0.010486
-53.625 8.5819 0.0017256 75.338 75.507 0.49713 593.98 0.0016836 74.652 74.752 0.49369 1.4196 2.1967 1236.3 -0.0055589 224.27 0.13601 1.4667 0.68178 471.77 512.11 2.4860 1.1667 1.3782 215.43 0.53535 5.9792 0.010571
-52.625 9.0151 0.0018015 77.562 77.740 0.50724 592.86 0.0016867 76.849 76.954 0.50368 1.4218 2.2007 1229.8 -0.0055237 221.63 0.13541 1.5353 0.65136 472.83 513.32 2.4824 1.1710 1.3834 215.72 0.52882 6.0056 0.010656
-51.625 9.4655 0.0018799 79.791 79.978 0.51733 591.73 0.0016900 79.049 79.159 0.51363 1.4240 2.2048 1223.2 -0.0054880 219.04 0.13482 1.6062 0.62258 473.89 514.52 2.4789 1.1752 1.3886 216.00 0.52241 6.0320 0.010741
-50.625 9.9335 0.0019607 82.025 82.221 0.52739 590.60 0.0016932 81.253 81.369 0.52356 1.4262 2.2089 1216.6 -0.0054519 216.48 0.13422 1.6797 0.59534 474.95 515.73 2.4755 1.1796 1.3938 216.28 0.51612 6.0584 0.010827
-49.625 10.419 0.0020441 84.264 84.469 0.53743 589.47 0.0016964 83.462 83.584 0.53347 1.4285 2.2131 1210.1 -0.0054152 213.98 0.13363 1.7558 0.56954 476.01 516.93 2.4722 1.1839 1.3991 216.55 0.50994 6.0848 0.010913
-48.625 10.924 0.0021300 86.508 86.723 0.54744 588.34 0.0016997 85.674 85.802 0.54334 1.4308 2.2173 1203.5 -0.0053780 211.51 0.13303 1.8345 0.54510 477.07 518.13 2.4689 1.1883 1.4044 216.82 0.50387 6.1112 0.010999
-47.625 11.448 0.0022185 88.756 88.982 0.55744 587.20 0.0017030 87.891 88.025 0.55319 1.4331 2.2216 1196.9 -0.0053403 209.08 0.13244 1.9159 0.52194 478.14 519.33 2.4657 1.1927 1.4098 217.08 0.49792 6.1375 0.011085
-46.625 11.991 0.0023097 91.010 91.246 0.56741 586.06 0.0017063 90.111 90.252 0.56302 1.4354 2.2259 1190.4 -0.0053020 206.69 0.13185 2.0001 0.49997 479.20 520.53 2.4625 1.1971 1.4153 217.33 0.49207 6.1639 0.011172
-45.625 12.554 0.0024036 93.269 93.516 0.57736 584.92 0.0017096 92.336 92.484 0.57282 1.4378 2.2303 1183.8 -0.0052633 204.34 0.13126 2.0872 0.47912 480.27 521.74 2.4594 1.2015 1.4207 217.58 0.48633 6.1902 0.011259
-44.625 13.137 0.0025002 95.532 95.791 0.58728 583.77 0.0017130 94.565 94.720 0.58260 1.4402 2.2347 1177.3 -0.0052240 202.03 0.13067 2.1771 0.45933 481.33 522.94 2.4564 1.2060 1.4263 217.82 0.48069 6.2165 0.011347
-43.625 13.741 0.0025997 97.801 98.072 0.59719 582.62 0.0017164 96.799 96.961 0.59235 1.4426 2.2392 1170.7 -0.0051841 199.75 0.13008 2.2700 0.44053 482.40 524.14 2.4535 1.2104 1.4319 218.05 0.47516 6.2429 0.011435
-42.625 14.367 0.0027019 100.08 100.36 0.60708 581.47 0.0017198 99.036 99.207 0.60208 1.4450 2.2437 1164.2 -0.0051437 197.51 0.12949 2.3659 0.42267 483.46 525.33 2.4506 1.2149 1.4375 218.28 0.46973 6.2692 0.011523
-41.625 15.015 0.0028070 102.35 102.65 0.61694 580.32 0.0017232 101.28 101.46 0.61179 1.4475 2.2483 1157.7 -0.0051027 195.30 0.12891 2.4649 0.40569 484.53 526.53 2.4478 1.2195 1.4432 218.50 0.46440 6.2955 0.011612
-40.625 15.686 0.0029151 104.64 104.95 0.62679 579.16 0.0017266 103.52 103.71 0.62147 1.4500 2.2529 1151.1 -0.0050611 193.13 0.12832 2.5671 0.38954 485.60 527.73 2.4450 1.2240 1.4489 218.72 0.45917 6.3218 0.011701
-39.625 16.380 0.0030260 106.93 107.25 0.63661 578.00 0.0017301 105.78 105.97 0.63113 1.4525 2.2576 1144.6 -0.0050189 190.99 0.12774 2.6725 0.37418 486.67 528.93 2.4423 1.2286 1.4547 218.93 0.45403 6.3481 0.011790
-38.625 17.097 0.0031400 109.22 109.56 0.64642 576.83 0.0017336 108.03 108.24 0.64077 1.4550 2.2623 1138.0 -0.0049761 188.88 0.12716 2.7813 0.35955 487.74 530.12 2.4397 1.2332 1.4606 219.13 0.44900 6.3744 0.011880
-37.625 17.838 0.0032570 111.52 111.88 0.65621 575.66 0.0017371 110.29 110.51 0.65039 1.4576 2.2671 1131.5 -0.0049327 186.81 0.12658 2.8934 0.34562 488.81 531.32 2.4371 1.2378 1.4665 219.33 0.44405 6.4007 0.011970
-36.625 18.604 0.0033771 113.83 114.20 0.66598 574.49 0.0017407 112.56 112.78 0.65999 1.4602 2.2719 1125.0 -0.0048887 184.76 0.12600 3.0089 0.33235 489.88 532.51 2.4346 1.2424 1.4724 219.52 0.43920 6.4270 0.012060
-35.625 19.395 0.0035003 116.14 116.52 0.67573 573.32 0.0017442 114.83 115.06 0.66956 1.4628 2.2768 1118.5 -0.0048440 182.75 0.12542 3.1280 0.31969 490.95 533.70 2.4321 1.2471 1.4784 219.70 0.43444 6.4533 0.012151
-34.625 20.212 0.0036266 118.46 118.86 0.68547 572.14 0.0017478 117.10 117.34 0.67912 1.4654 2.2818 1111.9 -0.0047987 180.76 0.12485 3.2506 0.30763 492.02 534.89 2.4297 1.2517 1.4845 219.88 0.42977 6.4797 0.012243
-33.625 21.056 0.0037561 120.78 121.20 0.69518 570.96 0.0017514 119.38 119.63 0.68865 1.4681 2.2868 1105.4 -0.0047527 178.80 0.12427 3.3770 0.29612 493.09 536.08 2.4273 1.2564 1.4906 220.05 0.42519 6.5060 0.012334
-32.625 21.926 0.0038889 123.11 123.54 0.70488 569.77 0.0017551 121.66 121.93 0.69817 1.4708 2.2918 1098.9 -0.0047061 176.87 0.12370 3.5071 0.28514 494.17 537.27 2.4250 1.2611 1.4968 220.21 0.42070 6.5323 0.012426
-31.625 22.823 0.0040249 125.44 125.89 0.71457 568.58 0.0017588 123.95 124.23 0.70767 1.4735 2.2970 1092.3 -0.0046587 174.97 0.12313 3.6410 0.27465 495.24 538.46 2.4227 1.2659 1.5031 220.36 0.41629 6.5587 0.012519
-30.625 23.749 0.0041642 127.78 128.25 0.72424 567.39 0.0017625 126.24 126.53 0.71714 1.4762 2.3021 1085.8 -0.0046107 173.09 0.12256 3.7787 0.26464 496.31 539.64 2.4205 1.2706 1.5094 220.51 0.41196 6.5850 0.012612
-29.625 24.703 0.0043069 130.13 130.62 0.73389 566.19 0.0017662 128.54 128.84 0.72660 1.4790 2.3074 1079.3 -0.0045619 171.24 0.12200 3.9205 0.25507 497.38 540.83 2.4184 1.2754 1.5157 220.65 0.40772 6.6114 0.012706
-28.625 25.687 0.0044529 132.48 132.99 0.74352 564.99 0.0017699 130.84 131.16 0.73604 1.4818 2.3126 1072.8 -0.0045124 169.42 0.12143 4.0663 0.24592 498.46 542.01 2.4162 1.2802 1.5222 220.79 0.40356 6.6378 0.012800
-27.625 26.700 0.0046024 134.84 135.36 0.75315 563.78 0.0017737 133.15 133.48 0.74547 1.4846 2.3180 1066.2 -0.0044621 167.62 0.12087 4.2163 0.23717 499.53 543.19 2.4142 1.2850 1.5286 220.91 0.39947 6.6642 0.012894
-26.625 27.743 0.0047553 137.20 137.75 0.76275 562.57 0.0017775 135.47 135.81 0.75487 1.4874 2.3234 1059.7 -0.0044111 165.84 0.12031 4.3705 0.22881 500.60 544.37 2.4122 1.2899 1.5352 221.03 0.39547 6.6906 0.012989
-25.625 28.817 0.0049117 139.57 140.14 0.77234 561.36 0.0017814 137.78 138.14 0.76426 1.4902 2.3289 1053.2 -0.0043593 164.09 0.11975 4.5290 0.22080 501.68 545.55 2.4102 1.2947 1.5418 221.14 0.39154 6.7171 0.013084
-24.625 29.923 0.0050715 141.95 142.54 0.78192 560.14 0.0017853 140.11 140.48 0.77363 1.4931 2.3344 1046.7 -0.0043067 162.36 0.11919 4.6918 0.21314 502.75 546.72 2.4083 1.2996 1.5485 221.25 0.38768 6.7436 0.013180
-23.625 31.061 0.0052350 144.33 144.94 0.79148 558.92 0.0017892 142.44 142.82 0.78298 1.4960 2.3400 1040.1 -0.0042533 160.65 0.11863 4.8592 0.20580 503.82 547.90 2.4064 1.3045 1.5552 221.35 0.38391 6.7701 0.013277
-22.625 32.232 0.0054020 146.72 147.35 0.80103 557.69 0.0017931 144.77 145.17 0.79232 1.4990 2.3457 1033.6 -0.0041990 158.97 0.11807 5.0311 0.19877 504.90 549.07 2.4045 1.3095 1.5621 221.44 0.38020 6.7967 0.013374
-21.625 33.435 0.0055726 149.11 149.77 0.81057 556.46 0.0017971 147.11 147.52 0.80164 1.5019 2.3514 1027.1 -0.0041439 157.30 0.11752 5.2076 0.19203 505.97 550.24 2.4027 1.3144 1.5690 221.52 0.37656 6.8232 0.013471
-20.625 34.673 0.0057468 151.51 152.19 0.82009 555.23 0.0018011 149.45 149.88 0.81095 1.5049 2.3572 1020.6 -0.0040879 155.66 0.11697 5.3889 0.18557 507.04 551.40 2.4010 1.3194 1.5759 221.59 0.37300 6.8499 0.013569
-19.625 35.946 0.0059247 153.91 154.62 0.82960 553.99 0.0018051 151.80 152.25 0.82024 1.5079 2.3630 1014.0 -0.0040311 154.04 0.11642 5.5750 0.17937 508.11 552.57 2.3992 1.3244 1.5829 221.66 0.36950 6.8765 0.013668
-18.625 37.253 0.0061063 156.33 157.06 0.83910 552.74 0.0018092 154.16 154.62 0.82952 1.5109 2.3689 1007.5 -0.0039733 152.44 0.11587 5.7660 0.17343 509.19 553.73 2.3976 1.3294 1.5901 221.72 0.36608 6.9032 0.013767
-17.625 38.596 0.0062917 158.75 159.51 0.84858 551.49 0.0018133 156.52 157.00 0.83878 1.5140 2.3749 1001.0 -0.0039145 150.86 0.11532 5.9621 0.16773 510.26 554.89 2.3959 1.3345 1.5972 221.77 0.36272 6.9300 0.013867
-16.625 39.976 0.0064807 161.17 161.96 0.85805 550.24 0.0018174 158.89 159.39 0.84803 1.5171 2.3810 994.44 -0.0038549 149.29 0.11478 6.1632 0.16225 511.33 556.05 2.3943 1.3395 1.6045 221.81 0.35942 6.9568 0.013968
-15.625 41.392 0.0066736 163.60 164.42 0.86751 548.98 0.0018216 161.26 161.78 0.85726 1.5202 2.3871 987.91 -0.0037942 147.75 0.11423 6.3696 0.15700 512.40 557.20 2.3927 1.3446 1.6119 221.85 0.35619 6.9836 0.014069
-14.625 42.846 0.0068702 166.04 166.88 0.87696 547.71 0.0018258 163.64 164.18 0.86649 1.5233 2.3933 981.37 -0.0037325 146.22 0.11369 6.5812 0.15195 513.47 558.36 2.3912 1.3497 1.6193 221.87 0.35302 7.0105 0.014170
-13.625 44.338 0.0070707 168.49 169.36 0.88640 546.44 0.0018300 166.02 166.58 0.87569 1.5264 2.3996 974.83 -0.0036698 144.72 0.11315 6.7983 0.14710 514.54 559.51 2.3897 1.3549 1.6268 221.89 0.34992 7.0375 0.014273
-12.625 45.870 0.0072750 170.94 171.84 0.89582 545.17 0.0018343 168.41 168.99 0.88489 1.5296 2.4059 968.29 -0.0036061 143.23 0.11261 7.0208 0.14243 515.61 560.65 2.3883 1.3600 1.6344 221.90 0.34688 7.0646 0.014376
-11.625 47.440 0.0074831 173.39 174.33 0.90524 543.89 0.0018386 170.81 171.41 0.89407 1.5328 2.4124 961.75 -0.0035413 141.76 0.11208 7.2490 0.13795 516.68 561.80 2.3868 1.3652 1.6421 221.91 0.34389 7.0917 0.014479
-10.625 49.051 0.0076951 175.86 176.82 0.91465 542.60 0.0018430 173.21 173.83 0.90324 1.5360 2.4189 955.20 -0.0034753 140.30 0.11154 7.4829 0.13364 517.75 562.94 2.3854 1.3704 1.6498 221.90 0.34097 7.1188 0.014584
-9.6250 50.703 0.0079111 178.33 179.33 0.92404 541.31 0.0018474 175.61 176.26 0.91240 1.5393 2.4255 948.65 -0.0034082 138.86 0.11101 7.7226 0.12949 518.81 564.08 2.3841 1.3757 1.6577 221.88 0.33810 7.1461 0.014689
-8.6250 52.396 0.0081309 180.81 181.84 0.93343 540.02 0.0018518 178.03 178.70 0.92154 1.5426 2.4321 942.10 -0.0033400 137.44 0.11048 7.9683 0.12550 519.88 565.21 2.3827 1.3809 1.6657 221.86 0.33529 7.1734 0.014795
-7.6250 54.131 0.0083547 183.29 184.36 0.94280 538.72 0.0018563 180.45 181.14 0.93068 1.5459 2.4389 935.55 -0.0032705 136.03 0.10995 8.2200 0.12165 520.94 566.35 2.3814 1.3862 1.6737 221.83 0.33254 7.2008 0.014902
-6.6250 55.909 0.0085824 185.78 186.88 0.95217 537.41 0.0018608 182.87 183.59 0.93980 1.5492 2.4457 928.99 -0.0031998 134.64 0.10942 8.4779 0.11795 522.01 567.48 2.3801 1.3915 1.6819 221.79 0.32984 7.2284 0.015009
-5.6250 57.730 0.0088141 188.28 189.42 0.96152 536.10 0.0018653 185.30 186.05 0.94892 1.5525 2.4526 922.43 -0.0031279 133.27 0.10889 8.7420 0.11439 523.07 568.60 2.3789 1.3969 1.6902 221.74 0.32720 7.2560 0.015117
-4.6250 59.595 0.0090497 190.79 191.96 0.97087 534.78 0.0018699 187.74 188.51 0.95802 1.5559 2.4596 915.87 -0.0030546 131.91 0.10837 9.0126 0.11096 524.13 569.72 2.3777 1.4022 1.6985 221.68 0.32461 7.2837 0.015226
-3.6250 61.505 0.0092893 193.30 194.51 0.98021 533.45 0.0018746 190.19 190.98 0.96711 1.5593 2.4667 909.30 -0.0029800 130.56 0.10785 9.2896 0.10765 525.19 570.84 2.3765 1.4076 1.7070 221.62 0.32207 7.3115 0.015336
-2.6250 63.461 0.0095329 195.82 197.07 0.98954 532.12 0.0018793 192.64 193.46 0.97620 1.5627 2.4739 902.73 -0.0029041 129.23 0.10733 9.5733 0.10446 526.25 571.96 2.3753 1.4131 1.7156 221.54 0.31958 7.3394 0.015447
-1.6250 65.462 0.0097805 198.34 199.63 0.99886 530.78 0.0018840 195.10 195.95 0.98527 1.5662 2.4811 896.16 -0.0028267 127.91 0.10681 9.8638 0.10138 527.31 573.07 2.3742 1.4185 1.7243 221.45 0.31715 7.3674 0.015559
-0.62500 67.510 0.010032 200.88 202.21 1.0082 529.44 0.0018888 197.56 198.44 0.99434 1.5696 2.4885 889.58 -0.0027478 126.61 0.10629 10.161 0.098414 528.37 574.18 2.3731 1.4240 1.7331 221.36 0.31476 7.3956 0.015671
0.37500 69.606 0.010288 203.42 204.79 1.0175 528.09 0.0018936 200.03 200.94 1.0034 1.5731 2.4960 883.00 -0.0026675 125.32 0.10578 10.466 0.095552 529.42 575.28 2.3720 1.4295 1.7421 221.26 0.31242 7.4239 0.015785
1.3750 71.749 0.010547 205.97 207.38 1.0268 526.73 0.0018985 202.51 203.45 1.0124 1.5767 2.5035 876.42 -0.0025856 124.04 0.10527 10.777 0.092790 530.48 576.38 2.3709 1.4350 1.7512 221.14 0.31013 7.4523 0.015899
2.3750 73.941 0.010811 208.52 209.98 1.0361 525.37 0.0019034 204.99 205.96 1.0215 1.5802 2.5112 869.83 -0.0025022 122.78 0.10476 11.096 0.090123 531.53 577.47 2.3699 1.4406 1.7604 221.02 0.30789 7.4808 0.016015
3.3750 76.183 0.011078 211.08 212.58 1.0453 523.99 0.0019084 207.48 208.48 1.0305 1.5838 2.5190 863.24 -0.0024171 121.53 0.10425 11.422 0.087549 532.58 578.56 2.3688 1.4462 1.7697 220.89 0.30569 7.5095 0.016131
4.3750 78.475 0.011349 213.65 215.20 1.0546 522.62 0.0019134 209.98 211.01 1.0395 1.5874 2.5268 856.64 -0.0023303 120.29 0.10374 11.756 0.085062 533.63 579.65 2.3678 1.4518 1.7792 220.75 0.30354 7.5384 0.016249
5.3750 80.817 0.011625 216.23 217.82 1.0639 521.23 0.0019185 212.48 213.55 1.0486 1.5910 2.5348 850.04 -0.0022417 119.06 0.10324 12.098 0.082660 534.67 580.73 2.3669 1.4575 1.7888 220.60 0.30144 7.5674 0.016368
6.3750 83.211 0.011904 218.81 220.45 1.0731 519.84 0.0019237 215.00 216.10 1.0576 1.5946 2.5429 843.43 -0.0021514 117.85 0.10273 12.447 0.080340 535.72 581.81 2.3659 1.4632 1.7986 220.44 0.29938 7.5966 0.016487
7.3750 85.657 0.012187 221.40 223.09 1.0824 518.44 0.0019289 217.51 218.65 1.0666 1.5983 2.5511 836.82 -0.0020593 116.65 0.10223 12.805 0.078096 536.76 582.88 2.3650 1.4689 1.8085 220.27 0.29736 7.6259 0.016608
8.3750 88.156 0.012474 224.00 225.74 1.0917 517.03 0.0019341 220.04 221.22 1.0756 1.6020 2.5595 830.20 -0.0019652 115.46 0.10173 13.170 0.075928 537.80 583.95 2.3640 1.4746 1.8186 220.08 0.29538 7.6555 0.016730
9.3750 90.708 0.012765 226.61 228.40 1.1009 515.62 0.0019394 222.57 223.79 1.0846 1.6057 2.5679 823.58 -0.0018691 114.28 0.10124 13.545 0.073830 538.84 585.01 2.3631 1.4804 1.8288 219.89 0.29345 7.6852 0.016853
10.375 93.315 0.013060 229.22 231.06 1.1101 514.19 0.0019448 225.11 226.37 1.0936 1.6095 2.5765 816.96 -0.0017710 113.11 0.10074 13.927 0.071802 539.87 586.07 2.3622 1.4863 1.8392 219.69 0.29156 7.7151 0.016978
11.375 95.977 0.013359 231.85 233.74 1.1194 512.76 0.0019502 227.66 228.95 1.1025 1.6132 2.5852 810.32 -0.0016708 111.95 0.10025 14.319 0.069840 540.90 587.12 2.3614 1.4921 1.8498 219.48 0.28971 7.7452 0.017103
12.375 98.694 0.013661 234.48 236.42 1.1286 511.32 0.0019557 230.22 231.55 1.1115 1.6170 2.5940 803.68 -0.0015685 110.80 0.099756 14.719 0.067941 541.93 588.17 2.3605 1.4980 1.8605 219.26 0.28790 7.7756 0.017230
13.375 101.47 0.013967 237.11 239.11 1.1378 509.87 0.0019613 232.78 234.15 1.1205 1.6208 2.6030 797.04 -0.0014639 109.67 0.099267 15.128 0.066103 542.96 589.21 2.3597 1.5040 1.8715 219.03 0.28612 7.8061 0.017359
14.375 104.30 0.014277 239.76 241.81 1.1470 508.42 0.0019669 235.35 236.77 1.1295 1.6247 2.6121 790.39 -0.0013569 108.54 0.098779 15.547 0.064323 543.99 590.24 2.3588 1.5099 1.8826 218.79 0.28439 7.8369 0.017488
15.375 107.19 0.014590 242.41 244.52 1.1562 506.95 0.0019726 237.93 239.39 1.1384 1.6286 2.6214 783.73 -0.0012476 107.43 0.098294 15.974 0.062600 545.01 591.27 2.3580 1.5159 1.8940 218.53 0.28270 7.8680 0.017619
16.375 110.13 0.014907 245.07 247.24 1.1654 505.48 0.0019783 240.52 242.02 1.1474 1.6324 2.6308 777.07 -0.0011357 106.32 0.097810 16.412 0.060931 546.03 592.29 2.3572 1.5220 1.9055 218.27 0.28104 7.8993 0.017752
17.375 113.14 0.015228 247.74 249.97 1.1746 504.00 0.0019841 243.11 244.66 1.1564 1.6364 2.6403 770.40 -0.0010213 105.22 0.097328 16.859 0.059314 547.04 593.31 2.3564 1.5281 1.9172 217.99 0.27942 7.9308 0.017886
18.375 116.21 0.015552 250.42 252.71 1.1838 502.50 0.0019900 245.72 247.31 1.1653 1.6403 2.6501 763.72 -0.00090422 104.14 0.096848 17.317 0.057747 548.05 594.32 2.3557 1.5342 1.9292 217.71 0.27783 7.9626 0.018021
19.375 119.33 0.015879 253.10 255.45 1.1930 501.00 0.0019960 248.33 249.97 1.1743 1.6443 2.6599 757.04 -0.00078435 103.06 0.096371 17.785 0.056228 549.06 595.33 2.3549 1.5404 1.9414 217.41 0.27628 7.9947 0.018159
20.375 122.52 0.016209 255.79 258.21 1.2022 499.49 0.0020020 250.95 252.64 1.1832 1.6483 2.6700 750.35 -0.00066161 101.99 0.095895 18.263 0.054756 550.07 596.32 2.3541 1.5466 1.9538 217.10 0.27477 8.0272 0.018297
21.375 125.77 0.016543 258.50 260.97 1.2114 497.97 0.0020082 253.57 255.32 1.1922 1.6523 2.6802 743.64 -0.00053589 100.93 0.095420 18.752 0.053328 551.07 597.31 2.3534 1.5528 1.9665 216.78 0.27329 8.0599 0.018438
22.375 129.08 0.016880 261.20 263.75 1.2206 496.43 0.0020144 256.21 258.00 1.2012 1.6563 2.6906 736.94 -0.00040708 99.877 0.094948 19.252 0.051943 552.07 598.30 2.3526 1.5591 1.9795 216.45 0.27184 8.0929 0.018580
23.375 132.46 0.017219 263.92 266.53 1.2298 494.89 0.0020206 258.86 260.70 1.2101 1.6604 2.7012 730.22 -0.00027505 98.834 0.094478 19.763 0.050600 553.06 599.27 2.3519 1.5655 1.9927 216.11 0.27043 8.1263 0.018724
24.375 135.90 0.017562 266.65 269.32 1.2389 493.34 0.0020270 261.51 263.41 1.2191 1.6645 2.7120 723.49 -0.00013968 97.800 0.094009 20.285 0.049297 554.05 600.24 2.3512 1.5718 2.0061 215.75 0.26906 8.1600 0.018870
25.375 139.41 0.017907 269.38 272.13 1.2481 491.77 0.0020335 264.17 266.13 1.2280 1.6686 2.7230 716.76 -8.3775e-07 96.773 0.093543 20.820 0.048032 555.03 601.20 2.3504 1.5783 2.0199 215.39 0.26771 8.1941 0.019017
26.375 142.98 0.018255 272.12 274.94 1.2573 490.20 0.0020400 266.84 268.85 1.2370 1.6728 2.7342 710.01 0.00014161 95.755 0.093078 21.366 0.046804 556.01 602.15 2.3497 1.5847 2.0340 215.01 0.26640 8.2286 0.019167
27.375 146.62 0.018605 274.87 277.76 1.2665 488.61 0.0020466 269.52 271.59 1.2459 1.6770 2.7456 703.26 0.00028782 94.745 0.092615 21.924 0.045612 556.99 603.10 2.3490 1.5913 2.0484 214.62 0.26512 8.2634 0.019319
28.375 150.33 0.018958 277.63 280.59 1.2756 487.01 0.0020533 272.21 274.34 1.2549 1.6812 2.7573 696.49 0.00043793 93.742 0.092154 22.495 0.044454 557.96 604.03 2.3483 1.5978 2.0631 214.21 0.26387 8.2987 0.019472
29.375 154.10 0.019312 280.40 283.43 1.2848 485.40 0.0020601 274.91 277.10 1.2638 1.6854 2.7691 689.72 0.00059212 92.747 0.091695 23.079 0.043329 558.92 604.96 2.3476 1.6044 2.0781 213.80 0.26265 8.3344 0.019628
30.375 157.94 0.019669 283.17 286.29 1.2939 483.78 0.0020671 277.62 279.87 1.2728 1.6897 2.7813 682.93 0.00075055 91.760 0.091238 23.676 0.042237 559.88 605.88 2.3469 1.6111 2.0935 213.37 0.26147 8.3705 0.019786
31.375 161.86 0.020027 285.96 289.15 1.3031 482.15 0.0020741 280.34 282.66 1.2818 1.6939 2.7936 676.13 0.00091340 90.779 0.090782 24.287 0.041175 560.84 606.79 2.3462 1.6178 2.1092 212.93 0.26031 8.4071 0.019947
32.375 165.84 0.020387 288.75 292.02 1.3123 480.50 0.0020812 283.07 285.45 1.2908 1.6983 2.8063 669.32 0.0010809 89.806 0.090328 24.911 0.040143 561.79 607.69 2.3455 1.6246 2.1254 212.48 0.25919 8.4442 0.020110
33.375 169.90 0.020748 291.55 294.90 1.3214 478.83 0.0020884 285.81 288.26 1.2997 1.7026 2.8192 662.50 0.0012532 88.840 0.089876 25.549 0.039140 562.73 608.58 2.3448 1.6314 2.1419 212.01 0.25809 8.4818 0.020275
34.375 174.02 0.021110 294.37 297.79 1.3306 477.16 0.0020957 288.56 291.07 1.3087 1.7070 2.8324 655.67 0.0014305 87.880 0.089426 26.202 0.038164 563.67 609.46 2.3440 1.6383 2.1589 211.53 0.25702 8.5199 0.020443
35.375 178.22 0.021473 297.19 300.70 1.3397 475.47 0.0021032 291.32 293.90 1.3177 1.7114 2.8459 648.82 0.0016131 86.927 0.088977 26.870 0.037216 564.60 610.33 2.3433 1.6452 2.1763 211.04 0.25599 8.5586 0.020613
36.375 182.50 0.021836 300.01 303.61 1.3489 473.77 0.0021107 294.09 296.74 1.3267 1.7158 2.8597 641.96 0.0018012 85.980 0.088531 27.553 0.036293 565.52 611.19 2.3426 1.6522 2.1942 210.53 0.25498 8.5978 0.020786
37.375 186.84 0.022199 302.85 306.53 1.3580 472.05 0.0021184 296.87 299.60 1.3357 1.7203 2.8739 635.08 0.0019950 85.040 0.088085 28.252 0.035395 566.44 612.04 2.3419 1.6592 2.2125 210.01 0.25400 8.6376 0.020962
38.375 191.27 0.022562 305.70 309.47 1.3672 470.31 0.0021262 299.66 302.46 1.3447 1.7248 2.8884 628.19 0.0021949 84.105 0.087642 28.967 0.034522 567.35 612.88 2.3411 1.6663 2.2314 209.47 0.25305 8.6780 0.021141
39.375 195.77 0.022924 308.55 312.41 1.3763 468.56 0.0021342 302.46 305.34 1.3537 1.7293 2.9033 621.29 0.0024011 83.177 0.087200 29.699 0.033671 568.26 613.70 2.3404 1.6734 2.2508 208.92 0.25213 8.7190 0.021323
40.375 200.34 0.023285 311.42 315.37 1.3855 466.80 0.0021423 305.27 308.23 1.3627 1.7339 2.9185 614.37 0.0026140 82.254 0.086760 30.447 0.032844 569.15 614.52 2.3396 1.6806 2.2708 208.36 0.25123 8.7608 0.021508
41.375 205.00 0.023645 314.29 318.33 1.3946 465.01 0.0021505 308.10 311.14 1.3718 1.7385 2.9342 607.43 0.0028338 81.338 0.086322 31.214 0.032037 570.04 615.32 2.3389 1.6879 2.2913 207.78 0.25037 8.8032 0.021696
42.375 209.73 0.024002 317.18 321.31 1.4038 463.21 0.0021588 310.94 314.06 1.3808 1.7432 2.9502 600.47 0.0030609 80.426 0.085885 31.998 0.031252 570.92 616.11 2.3381 1.6952 2.3125 207.19 0.24953 8.8463 0.021888
43.375 214.54 0.024358 320.07 324.30 1.4129 461.40 0.0021673 313.79 316.99 1.3899 1.7478 2.9667 593.50 0.0032957 79.520 0.085449 32.800 0.030488 571.79 616.88 2.3373 1.7027 2.3344 206.58 0.24871 8.8902 0.022084
44.375 219.43 0.024710 322.97 327.30 1.4221 459.56 0.0021760 316.65 319.94 1.3989 1.7525 2.9837 586.51 0.0035386 78.619 0.085015 33.622 0.029742 572.65 617.65 2.3365 1.7101 2.3569 205.96 0.24793 8.9349 0.022283
45.375 224.41 0.025058 325.89 330.31 1.4313 457.71 0.0021848 319.52 322.90 1.4080 1.7573 3.0012 579.50 0.0037900 77.723 0.084583 34.463 0.029016 573.50 618.40 2.3357 1.7177 2.3802 205.32 0.24717 8.9805 0.022485
46.375 229.46 0.025402 328.81 333.33 1.4404 455.83 0.0021938 322.41 325.88 1.4171 1.7621 3.0192 572.46 0.0040504 76.832 0.084152 35.325 0.028308 574.34 619.13 2.3349 1.7253 2.4042 204.67 0.24644 9.0269 0.022692
47.375 234.60 0.025741 331.74 336.36 1.4496 453.94 0.0022029 325.31 328.87 1.4262 1.7669 3.0377 565.41 0.0043202 75.946 0.083723 36.208 0.027618 575.17 619.85 2.3340 1.7329 2.4291 204.00 0.24573 9.0742 0.022903
48.375 239.83 0.026074 334.68 339.41 1.4587 452.03 0.0022123 328.22 331.88 1.4353 1.7718 3.0569 558.34 0.0046000 75.064 0.083295 37.112 0.026945 576.00 620.55 2.3332 1.7407 2.4548 203.31 0.24505 9.1224 0.023119
49.375 245.13 0.026400 337.63 342.46 1.4679 450.09 0.0022218 331.15 334.90 1.4445 1.7767 3.0766 551.24 0.0048904 74.186 0.082868 38.039 0.026289 576.81 621.24 2.3323 1.7485 2.4815 202.61 0.24440 9.1716 0.023339
50.375 250.53 0.026718 340.59 345.53 1.4771 448.13 0.0022315 334.09 337.94 1.4536 1.7817 3.0970 544.13 0.0051920 73.313 0.082442 38.989 0.025648 577.61 621.91 2.3314 1.7564 2.5092 201.89 0.24377 9.2219 0.023564
51.375 256.01 0.027028 343.57 348.61 1.4863 446.15 0.0022414 337.04 341.00 1.4628 1.7867 3.1181 536.98 0.0055054 72.443 0.082018 39.962 0.025024 578.39 622.56 2.3304 1.7644 2.5379 201.16 0.24317 9.2733 0.023794
52.375 261.57 0.027327 346.55 351.70 1.4954 444.15 0.0022515 340.01 344.07 1.4720 1.7918 3.1400 529.82 0.0058313 71.577 0.081595 40.961 0.024414 579.17 623.20 2.3295 1.7724 2.5677 200.41 0.24260 9.3258 0.024029
53.375 267.23 0.027616 349.54 354.81 1.5046 442.12 0.0022618 343.00 347.17 1.4812 1.7969 3.1627 522.62 0.0061705 70.715 0.081174 41.985 0.023818 579.93 623.81 2.3285 1.7805 2.5987 199.63 0.24205 9.3795 0.024270
54.375 272.97 0.027892 352.54 357.92 1.5138 440.06 0.0022724 346.00 350.28 1.4904 1.8021 3.1862 515.40 0.0065239 69.856 0.080753 43.036 0.023237 580.68 624.41 2.3274 1.7887 2.6310 198.85 0.24154 9.4344 0.024516
55.375 278.81 0.028154 355.56 361.05 1.5230 437.98 0.0022832 349.02 353.40 1.4997 1.8073 3.2106 508.15 0.0068923 69.001 0.080334 44.114 0.022669 581.41 624.99 2.3264 1.7969 2.6646 198.04 0.24105 9.4907 0.024769
56.375 284.74 0.028401 358.58 364.19 1.5322 435.87 0.0022943 352.05 356.55 1.5090 1.8126 3.2360 500.87 0.0072767 68.148 0.079915 45.221 0.022114 582.13 625.54 2.3253 1.8052 2.6998 197.22 0.24059 9.5484 0.025028
57.375 290.76 0.028630 361.62 367.35 1.5414 433.73 0.0023056 355.10 359.72 1.5183 1.8179 3.2624 493.56 0.0076782 67.299 0.079498 46.358 0.021571 582.83 626.07 2.3241 1.8136 2.7365 196.37 0.24016 9.6075 0.025294
58.375 296.87 0.028839 364.66 370.51 1.5506 431.56 0.0023172 358.17 362.91 1.5276 1.8233 3.2900 486.22 0.0080980 66.451 0.079082 47.525 0.021041 583.52 626.58 2.3230 1.8220 2.7749 195.51 0.23976 9.6682 0.025568
59.375 303.08 0.029027 367.72 373.69 1.5598 429.36 0.0023290 361.25 366.12 1.5370 1.8288 3.3188 478.84 0.0085373 65.606 0.078666 48.726 0.020523 584.18 627.07 2.3218 1.8305 2.8152 194.63 0.23939 9.7305 0.025849
60.375 309.38 0.029191 370.79 376.89 1.5690 427.13 0.0023412 364.36 369.35 1.5464 1.8343 3.3489 471.43 0.0089976 64.763 0.078251 49.960 0.020016 584.83 627.53 2.3205 1.8391 2.8576 193.73 0.23905 9.7945 0.026138
61.375 315.78 0.029328 373.87 380.09 1.5782 424.87 0.0023537 367.48 372.60 1.5558 1.8400 3.3805 463.99 0.0094803 63.922 0.077838 51.229 0.019520 585.46 627.96 2.3192 1.8479 2.9022 192.82 0.23873 9.8603 0.026436
62.375 322.28 0.029435 376.96 383.31 1.5875 422.56 0.0023665 370.62 375.88 1.5653 1.8457 3.4136 456.50 0.0099871 63.083 0.077425 52.535 0.019035 586.07 628.37 2.3178 1.8567 2.9492 191.88 0.23845 9.9281 0.026744
63.375 328.88 0.029509 380.07 386.55 1.5967 420.22 0.0023797 373.79 379.18 1.5748 1.8514 3.4483 448.97 0.010520 62.244 0.077012 53.879 0.018560 586.66 628.74 2.3164 1.8656 2.9989 190.92 0.23819 9.9979 0.027061
64.375 335.58 0.029546 383.19 389.80 1.6059 417.85 0.0023932 376.97 382.51 1.5844 1.8573 3.4850 441.40 0.011081 61.407 0.076600 55.265 0.018095 587.22 629.09 2.3149 1.8747 3.0517 189.95 0.23796 10.070 0.027389
65.375 342.38 0.029541 386.31 393.06 1.6152 415.42 0.0024072 380.18 385.86 1.5939 1.8633 3.5236 433.79 0.011672 60.570 0.076189 56.692 0.017639 587.76 629.40 2.3133 1.8839 3.1077 188.95 0.23775 10.144 0.027729
66.375 349.28 0.029490 389.46 396.34 1.6245 412.96 0.0024215 383.41 389.25 1.6036 1.8693 3.5645 426.12 0.012296 59.733 0.075779 58.165 0.017193 588.28 629.68 2.3117 1.8933 3.1674 187.93 0.23757 10.221 0.028080
67.375 356.28 0.029388 392.61 399.63 1.6337 410.45 0.0024363 386.67 392.65 1.6133 1.8755 3.6078 418.41 0.012956 58.897 0.075368 59.684 0.016755 588.76 629.92 2.3100 1.9030 3.2311 186.89 0.23740 10.300 0.028446
68.375 363.40 0.029228 395.78 402.93 1.6430 407.89 0.0024516 389.95 396.09 1.6230 1.8818 3.6537 410.64 0.013655 58.059 0.074959 61.253 0.016326 589.22 630.13 2.3082 1.9129 3.2994 185.83 0.23724 10.382 0.028825
69.375 370.61 0.029003 398.96 406.26 1.6523 405.28 0.0024674 393.26 399.57 1.6328 1.8882 3.7027 402.81 0.014396 57.221 0.074549 62.875 0.015905 589.65 630.29 2.3064 1.9231 3.3727 184.74 0.23710 10.467 0.029221
70.375 377.94 0.028705 402.15 409.60 1.6616 402.62 0.0024838 396.60 403.07 1.6426 1.8947 3.7550 394.92 0.015183 56.381 0.074141 64.552 0.015491 590.04 630.41 2.3044 1.9336 3.4518 183.63 0.23697 10.555 0.029633
71.375 385.37 0.028326 405.36 412.95 1.6710 399.89 0.0025007 399.96 406.61 1.6525 1.9014 3.8109 386.97 0.016021 55.540 0.073732 66.288 0.015086 590.40 630.49 2.3024 1.9444 3.5371 182.50 0.23684 10.647 0.030064
72.375 392.92 0.027853 408.58 416.32 1.6803 397.11 0.0025182 403.36 410.18 1.6625 1.9083 3.8711 378.95 0.016915 54.696 0.073324 68.087 0.014687 590.73 630.51 2.3002 1.9556 3.6297 181.34 0.23671 10.743 0.030515
73.375 400.57 0.027276 411.82 419.71 1.6896 394.26 0.0025364 406.79 413.80 1.6726 1.9153 3.9359 370.85 0.017871 53.848 0.072917 69.953 0.014295 591.01 630.49 2.2979 1.9673 3.7303 180.16 0.23658 10.842 0.030989
74.375 408.34 0.026579 415.07 423.11 1.6990 391.34 0.0025553 410.26 417.45 1.6827 1.9226 4.0060 362.67 0.018894 52.997 0.072510 71.890 0.013910 591.25 630.41 2.2955 1.9793 3.8401 178.95 0.23643 10.946 0.031488
75.375 416.23 0.025746 418.34 426.54 1.7084 388.34 0.0025751 413.76 421.15 1.6930 1.9301 4.0822 354.41 0.019993 52.142 0.072104 73.904 0.013531 591.44 630.27 2.2930 1.9919 3.9604 177.71 0.23627 11.054 0.032014
76.375 424.23 0.024757 421.62 429.98 1.7178 385.26 0.0025957 417.31 424.90 1.7033 1.9378 4.1654 346.06 0.021177 51.281 0.071699 76.001 0.013158 591.59 630.07 2.2903 2.0050 4.0927 176.44 0.23609 11.168 0.032570
77.375 432.35 0.023589 424.92 433.44 1.7272 382.09 0.0026172 420.89 428.70 1.7137 1.9459 4.2565 337.60 0.022455 50.414 0.071295 78.187 0.012790 591.68 629.80 2.2874 2.0186 4.2389 175.15 0.23588 11.287 0.033161
78.375 440.59 0.022213 428.24 436.92 1.7367 378.83 0.0026397 424.53 432.54 1.7243 1.9543 4.3570 329.05 0.023838 49.539 0.070893 80.469 0.012427 591.71 629.46 2.2844 2.0328 4.4012 173.82 0.23563 11.412 0.033789
79.375 448.95 0.020596 431.58 440.42 1.7462 375.46 0.0026634 428.21 436.45 1.7349 1.9631 4.4684 320.38 0.025341 48.657 0.070494 82.856 0.012069 591.68 629.04 2.2812 2.0475 4.5824 172.46 0.23535 11.544 0.034461
80.375 457.44 0.018696 434.93 443.94 1.7557 371.97 0.0026884 431.94 440.42 1.7457 1.9723 4.5928 311.58 0.026980 47.764 0.070099 85.359 0.011715 591.58 628.53 2.2778 2.0630 4.7859 171.07 0.23501 11.684 0.035181
81.375 466.05 0.016462 438.30 447.48 1.7652 368.36 0.0027147 435.74 444.46 1.7567 1.9820 4.7327 302.66 0.028773 46.860 0.069708 87.988 0.011365 591.40 627.92 2.2742 2.0791 5.0161 169.64 0.23461 11.832 0.035957
82.375 474.79 0.013832 441.70 451.05 1.7748 364.61 0.0027427 439.60 448.58 1.7678 1.9924 4.8914 293.60 0.030744 45.942 0.069323 90.757 0.011018 591.14 627.21 2.2703 2.0959 5.2786 168.17 0.23413 11.989 0.036797
83.375 483.66 0.010725 445.11 454.64 1.7844 360.70 0.0027724 443.53 452.78 1.7791 2.0034 5.0731 284.38 0.032920 45.010 0.068948 93.681 0.010674 590.79 626.38 2.2661 2.1136 5.5807 166.67 0.23357 12.157 0.037711
84.375 492.67 0.0070395 448.55 458.26 1.7940 356.61 0.0028041 447.54 457.07 1.7907 2.0153 5.2834 275.00 0.035335 44.059 0.068586 96.781 0.010333 590.33 625.42 2.2616 2.1321 5.9321 165.13 0.23290 12.338 0.038713
85.375 501.81 0.0026419 452.01 461.90 1.8037 352.33 0.0028382 451.65 461.47 1.8025 2.0281 5.5302 265.44 0.038030 43.088 0.068241 100.08 0.0099920 589.74 624.31 2.2567 2.1517 6.3459 163.54 0.23209 12.532 0.039819
86.375 518.68 undefined 454.80 465.02 1.8114 350.00 0.0028571 454.80 465.02 1.8114 2.0343 5.5907 262.56 0.038941 42.583 0.068047 350.00 0.0028571 454.80 465.02 1.8114 2.0343 5.5907 262.56 0.038941 42.583 0.068047
87.375 544.05 undefined 456.84 467.55 1.8171 350.00 0.0028571 456.84 467.55 1.8171 2.0324 5.4266 267.01 0.037700 42.610 0.068009 350.00 0.0028571 456.84 467.55 1.8171 2.0324 5.4266 267.01 0.037700 42.610 0.068009
88.375 569.58 undefined 458.87 470.09 1.8227 350.00 0.0028571 458.87 470.09 1.8227 2.0309 5.2818 271.28 0.036552 42.636 0.067987 350.00 0.0028571 458.87 470.09 1.8227 2.0309 5.2818 271.28 0.036552 42.636 0.067987
89.375 595.26 undefined 460.90 472.63 1.8283 350.00 0.0028571 460.90 472.63 1.8283 2.0296 5.1529 275.38 0.035486 42.663 0.067977 350.00 0.0028571 460.90 472.63 1.8283 2.0296 5.1529 275.38 0.035486 42.663 0.067977
90.375 621.08 undefined 462.93 475.16 1.8339 350.00 0.0028571 462.93 475.16 1.8339 2.0287 5.0372 279.33 0.034489 42.690 0.067977 350.00 0.0028571 462.93 475.16 1.8339 2.0287 5.0372 279.33 0.034489 42.690 0.067977
91.375 647.03 undefined 464.96 477.70 1.8395 350.00 0.0028571 464.96 477.70 1.8395 2.0280 4.9324 283.14 0.033554 42.717 0.067987 350.00 0.0028571 464.96 477.70 1.8395 2.0280 4.9324 283.14 0.033554 42.717 0.067987
92.375 673.11 undefined 466.98 480.24 1.8450 350.00 0.0028571 466.98 480.24 1.8450 2.0276 4.8370 286.82 0.032673 42.744 0.068004 350.00 0.0028571 466.98 480.24 1.8450 2.0276 4.8370 286.82 0.032673 42.744 0.068004
93.375 699.30 undefined 469.01 482.79 1.8506 350.00 0.0028571 469.01 482.79 1.8506 2.0275 4.7496 290.38 0.031840 42.771 0.068029 350.00 0.0028571 469.01 482.79 1.8506 2.0275 4.7496 290.38 0.031840 42.771 0.068029
94.375 725.60 undefined 471.04 485.33 1.8561 350.00 0.0028571 471.04 485.33 1.8561 2.0276 4.6692 293.83 0.031050 42.798 0.068059 350.00 0.0028571 471.04 485.33 1.8561 2.0276 4.6692 293.83 0.031050 42.798 0.068059
95.375 752.00 undefined 473.07 487.88 1.8616 350.00 0.0028571 473.07 487.88 1.8616 2.0280 4.5950 297.18 0.030299 42.826 0.068094 350.00 0.0028571 473.07 487.88 1.8616 2.0280 4.5950 297.18 0.030299 42.826 0.068094
96.375 778.50 undefined 475.10 490.43 1.8671 350.00 0.0028571 475.10 490.43 1.8671 2.0286 4.5262 300.44 0.029583 42.854 0.068134 350.00 0.0028571 475.10 490.43 1.8671 2.0286 4.5262 300.44 0.029583 42.854 0.068134
97.375 805.09 undefined 477.12 492.98 1.8726 350.00 0.0028571 477.12 492.98 1.8726 2.0295 4.4621 303.62 0.028899 42.880 0.068178 350.00 0.0028571 477.12 492.98 1.8726 2.0295 4.4621 303.62 0.028899 42.880 0.068178
98.375 831.76 undefined 479.15 495.54 1.8781 350.00 0.0028571 479.15 495.54 1.8781 2.0305 4.4024 306.72 0.028243 42.905 0.068226 350.00 0.0028571 479.15 495.54 1.8781 2.0305 4.4024 306.72 0.028243 42.905 0.068226
99.375 858.52 undefined 481.19 498.10 1.8835 350.00 0.0028571 481.19 498.10 1.8835 2.0317 4.3465 309.75 0.027615 42.931 0.068277 350.00 0.0028571 481.19 498.10 1.8835 2.0317 4.3465 309.75 0.027615 42.931 0.068277
100.38 885.36 undefined 483.22 500.66 1.8890 350.00 0.0028571 483.22 500.66 1.8890 2.0330 4.2942 312.71 0.027011 42.957 0.068332 350.00 0.0028571 483.22 500.66 1.8890 2.0330 4.2942 312.71 0.027011 42.957 0.068332
101.38 912.27 undefined 485.25 503.22 1.8944 350.00 0.0028571 485.25 503.22 1.8944 2.0345 4.2450 315.62 0.026430 42.984 0.068389 350.00 0.0028571 485.25 503.22 1.8944 2.0345 4.2450 315.62 0.026430 42.984 0.068389
102.38 939.25 undefined 487.29 505.79 1.8998 350.00 0.0028571 487.29 505.79 1.8998 2.0362 4.1987 318.46 0.025871 43.010 0.068449 350.00 0.0028571 487.29 505.79 1.8998 2.0362 4.1987 318.46 0.025871 43.010 0.068449
103.38 966.30 undefined 489.32 508.36 1.9052 350.00 0.0028571 489.32 508.36 1.9052 2.0379 4.1550 321.26 0.025331 43.037 0.068511 350.00 0.0028571 489.32 508.36 1.9052 2.0379 4.1550 321.26 0.025331 43.037 0.068511
104.38 993.41 undefined 491.36 510.93 1.9107 350.00 0.0028571 491.36 510.93 1.9107 2.0398 4.1138 324.00 0.024811 43.063 0.068576 350.00 0.0028571 491.36 510.93 1.9107 2.0398 4.1138 324.00 0.024811 43.063 0.068576
105.38 1020.6 undefined 493.40 513.51 1.9161 350.00 0.0028571 493.40 513.51 1.9161 2.0418 4.0748 326.69 0.024308 43.090 0.068643 350.00 0.0028571 493.40 513.51 1.9161 2.0418 4.0748 326.69 0.024308 43.090 0.068643
106.38 1047.8 undefined 495.45 516.09 1.9214 350.00 0.0028571 495.45 516.09 1.9214 2.0439 4.0379 329.34 0.023821 43.116 0.068712 350.00 0.0028571 495.45 516.09 1.9214 2.0439 4.0379 329.34 0.023821 43.116 0.068712
107.38 1075.1 undefined 497.49 518.67 1.9268 350.00 0.0028571 497.49 518.67 1.9268 2.0461 4.0029 331.95 0.023350 43.143 0.068782 350.00 0.0028571 497.49 518.67 1.9268 2.0461 4.0029 331.95 0.023350 43.143 0.068782
108.38 1102.5 undefined 499.54 521.26 1.9322 350.00 0.0028571 499.54 521.26 1.9322 2.0483 3.9697 334.52 0.022894 43.169 0.068855 350.00 0.0028571 499.54 521.26 1.9322 2.0483 3.9697 334.52 0.022894 43.169 0.068855
109.38 1129.9 undefined 501.59 523.85 1.9376 350.00 0.0028571 501.59 523.85 1.9376 2.0507 3.9381 337.05 0.022451 43.196 0.068929 350.00 0.0028571 501.59 523.85 1.9376 2.0507 3.9381 337.05 0.022451 43.196 0.068929
110.38 1157.3 undefined 503.64 526.44 1.9429 350.00 0.0028571 503.64 526.44 1.9429 2.0531 3.9080 339.55 0.022022 43.222 0.069004 350.00 0.0028571 503.64 526.44 1.9429 2.0531 3.9080 339.55 0.022022 43.222 0.069004
111.38 1184.8 undefined 505.69 529.03 1.9483 350.00 0.0028571 505.69 529.03 1.9483 2.0556 3.8793 342.01 0.021605 43.249 0.069081 350.00 0.0028571 505.69 529.03 1.9483 2.0556 3.8793 342.01 0.021605 43.249 0.069081
112.38 1212.4 undefined 507.75 531.63 1.9536 350.00 0.0028571 507.75 531.63 1.9536 2.0581 3.8520 344.43 0.021201 43.275 0.069159 350.00 0.0028571 507.75 531.63 1.9536 2.0581 3.8520 344.43 0.021201 43.275 0.069159
113.38 1240.0 undefined 509.81 534.24 1.9589 350.00 0.0028571 509.81 534.24 1.9589 2.0608 3.8260 346.83 0.020807 43.302 0.069239 350.00 0.0028571 509.81 534.24 1.9589 2.0608 3.8260 346.83 0.020807 43.302 0.069239
114.38 1267.6 undefined 511.87 536.84 1.9643 350.00 0.0028571 511.87 536.84 1.9643 2.0634 3.8011 349.20 0.020425 43.328 0.069320 350.00 0.0028571 511.87 536.84 1.9643 2.0634 3.8011 349.20 0.020425 43.328 0.069320
115.38 1295.3 undefined 513.94 539.45 1.9696 350.00 0.0028571 513.94 539.45 1.9696 2.0662 3.7773 351.53 0.020053 43.354 0.069402 350.00 0.0028571 513.94 539.45 1.9696 2.0662 3.7773 351.53 0.020053 43.354 0.069402
116.38 1323.0 undefined 516.01 542.07 1.9749 350.00 0.0028571 516.01 542.07 1.9749 2.0689 3.7545 353.84 0.019690 43.381 0.069485 350.00 0.0028571 516.01 542.07 1.9749 2.0689 3.7545 353.84 0.019690 43.381 0.069485
117.38 1350.7 undefined 518.08 544.68 1.9802 350.00 0.0028571 518.08 544.68 1.9802 2.0718 3.7327 356.12 0.019337 43.407 0.069570 350.00 0.0028571 518.08 544.68 1.9802 2.0718 3.7327 356.12 0.019337 43.407 0.069570
118.38 1378.5 undefined 520.15 547.31 1.9855 350.00 0.0028571 520.15 547.31 1.9855 2.0746 3.7119 358.38 0.018994 43.434 0.069655 350.00 0.0028571 520.15 547.31 1.9855 2.0746 3.7119 358.38 0.018994 43.434 0.069655
119.38 1406.4 undefined 522.23 549.93 1.9908 350.00 0.0028571 522.23 549.93 1.9908 2.0775 3.6919 360.61 0.018659 43.460 0.069741 350.00 0.0028571 522.23 549.93 1.9908 2.0775 3.6919 360.61 0.018659 43.460 0.069741
120.38 1434.2 undefined 524.30 552.56 1.9961 350.00 0.0028571 524.30 552.56 1.9961 2.0805 3.6727 362.82 0.018332 43.486 0.069829 350.00 0.0028571 524.30 552.56 1.9961 2.0805 3.6727 362.82 0.018332 43.486 0.069829
121.38 1462.1 undefined 526.39 555.19 2.0014 350.00 0.0028571 526.39 555.19 2.0014 2.0835 3.6543 365.00 0.018013 43.513 0.069917 350.00 0.0028571 526.39 555.19 2.0014 2.0835 3.6543 365.00 0.018013 43.513 0.069917
122.38 1490.1 undefined 528.47 557.82 2.0067 350.00 0.0028571 528.47 557.82 2.0067 2.0865 3.6366 367.16 0.017702 43.539 0.070006 350.00 0.0028571 528.47 557.82 2.0067 2.0865 3.6366 367.16 0.017702 43.539 0.070006
123.38 1518.0 undefined 530.56 560.46 2.0119 350.00 0.0028571 530.56 560.46 2.0119 2.0896 3.6197 369.30 0.017398 43.565 0.070096 350.00 0.0028571 530.56 560.46 2.0119 2.0896 3.6197 369.30 0.017398 43.565 0.070096
124.38 1546.0 undefined 532.65 563.11 2.0172 350.00 0.0028571 532.65 563.11 2.0172 2.0927 3.6034 371.42 0.017101 43.592 0.070187 350.00 0.0028571 532.65 563.11 2.0172 2.0927 3.6034 371.42 0.017101 43.592 0.070187
125.38 1574.0 undefined 534.74 565.75 2.0225 350.00 0.0028571 534.74 565.75 2.0225 2.0958 3.5877 373.52 0.016811 43.618 0.070279 350.00 0.0028571 534.74 565.75 2.0225 2.0958 3.5877 373.52 0.016811 43.618 0.070279
126.38 1602.1 undefined 536.84 568.40 2.0277 350.00 0.0028571 536.84 568.40 2.0277 2.0989 3.5726 375.60 0.016528 43.644 0.070371 350.00 0.0028571 536.84 568.40 2.0277 2.0989 3.5726 375.60 0.016528 43.644 0.070371
127.38 1630.2 undefined 538.94 571.06 2.0330 350.00 0.0028571 538.94 571.06 2.0330 2.1021 3.5581 377.66 0.016251 43.670 0.070464 350.00 0.0028571 538.94 571.06 2.0330 2.1021 3.5581 377.66 0.016251 43.670 0.070464
128.38 1658.3 undefined 541.05 573.71 2.0382 350.00 0.0028571 541.05 573.71 2.0382 2.1053 3.5442 379.71 0.015980 43.696 0.070558 350.00 0.0028571 541.05 573.71 2.0382 2.1053 3.5442 379.71 0.015980 43.696 0.070558
129.38 1686.4 undefined 543.15 576.37 2.0435 350.00 0.0028571 543.15 576.37 2.0435 2.1086 3.5307 381.73 0.015715 43.723 0.070653 350.00 0.0028571 543.15 576.37 2.0435 2.1086 3.5307 381.73 0.015715 43.723 0.070653
130.38 1714.6 undefined 545.26 579.04 2.0487 350.00 0.0028571 545.26 579.04 2.0487 2.1118 3.5178 383.74 0.015456 43.749 0.070748 350.00 0.0028571 545.26 579.04 2.0487 2.1118 3.5178 383.74 0.015456 43.749 0.070748
131.38 1742.8 undefined 547.38 581.71 2.0539 350.00 0.0028571 547.38 581.71 2.0539 2.1151 3.5053 385.73 0.015202 43.775 0.070844 350.00 0.0028571 547.38 581.71 2.0539 2.1151 3.5053 385.73 0.015202 43.775 0.070844
132.38 1771.0 undefined 549.49 584.38 2.0592 350.00 0.0028571 549.49 584.38 2.0592 2.1184 3.4933 387.71 0.014954 43.801 0.070941 350.00 0.0028571 549.49 584.38 2.0592 2.1184 3.4933 387.71 0.014954 43.801 0.070941
133.38 1799.2 undefined 551.61 587.06 2.0644 350.00 0.0028571 551.61 587.06 2.0644 2.1217 3.4818 389.67 0.014711 43.827 0.071038 350.00 0.0028571 551.61 587.06 2.0644 2.1217 3.4818 389.67 0.014711 43.827 0.071038
134.38 1827.5 undefined 553.74 589.74 2.0696 350.00 0.0028571 553.74 589.74 2.0696 2.1250 3.4706 391.61 0.014473 43.853 0.071136 350.00 0.0028571 553.74 589.74 2.0696 2.1250 3.4706 391.61 0.014473 43.853 0.071136
135.38 1855.7 undefined 555.86 592.42 2.0748 350.00 0.0028571 555.86 592.42 2.0748 2.1284 3.4598 393.54 0.014240 43.880 0.071235 350.00 0.0028571 555.86 592.42 2.0748 2.1284 3.4598 393.54 0.014240 43.880 0.071235
136.38 1884.0 undefined 557.99 595.11 2.0800 350.00 0.0028571 557.99 595.11 2.0800 2.1317 3.4495 395.45 0.014011 43.906 0.071334 350.00 0.0028571 557.99 595.11 2.0800 2.1317 3.4495 395.45 0.014011 43.906 0.071334
137.38 1912.4 undefined 560.13 597.80 2.0852 350.00 0.0028571 560.13 597.80 2.0852 2.1351 3.4394 397.35 0.013787 43.932 0.071434 350.00 0.0028571 560.13 597.80 2.0852 2.1351 3.4394 397.35 0.013787 43.932 0.071434
138.38 1940.7 undefined 562.26 600.49 2.0904 350.00 0.0028571 562.26 600.49 2.0904 2.1385 3.4298 399.24 0.013567 43.958 0.071534 350.00 0.0028571 562.26 600.49 2.0904 2.1385 3.4298 399.24 0.013567 43.958 0.071534
139.38 1969.1 undefined 564.40 603.19 2.0956 350.00 0.0028571 564.40 603.19 2.0956 2.1419 3.4205 401.11 0.013352 43.984 0.071635 350.00 0.0028571 564.40 603.19 2.0956 2.1419 3.4205 401.11 0.013352 43.984 0.071635
140.38 1997.4 undefined 566.55 605.90 2.1008 350.00 0.0028571 566.55 605.90 2.1008 2.1454 3.4115 402.97 0.013141 44.010 0.071737 350.00 0.0028571 566.55 605.90 2.1008 2.1454 3.4115 402.97 0.013141 44.010 0.071737
141.38 2025.8 undefined 568.69 608.60 2.1060 350.00 0.0028571 568.69 608.60 2.1060 2.1488 3.4028 404.82 0.012934 44.036 0.071839 350.00 0.0028571 568.69 608.60 2.1060 2.1488 3.4028 404.82 0.012934 44.036 0.071839
142.38 2054.2 undefined 570.85 611.31 2.1112 350.00 0.0028571 570.85 611.31 2.1112 2.1522 3.3944 406.65 0.012731 44.062 0.071941 350.00 0.0028571 570.85 611.31 2.1112 2.1522 3.3944 406.65 0.012731 44.062 0.071941
143.38 2082.7 undefined 573.00 614.03 2.1163 350.00 0.0028571 573.00 614.03 2.1163 2.1557 3.3863 408.47 0.012531 44.088 0.072044 350.00 0.0028571 573.00 614.03 2.1163 2.1557 3.3863 408.47 0.012531 44.088 0.072044
144.38 2111.1 undefined 575.16 616.74 2.1215 350.00 0.0028571 575.16 616.74 2.1215 2.1592 3.3785 410.28 0.012336 44.114 0.072148 350.00 0.0028571 575.16 616.74 2.1215 2.1592 3.3785 410.28 0.012336 44.114 0.072148
145.38 2139.6 undefined 577.32 619.47 2.1267 350.00 0.0028571 577.32 619.47 2.1267 2.1627 3.3709 412.08 0.012144 44.140 0.072252 350.00 0.0028571 577.32 619.47 2.1267 2.1627 3.3709 412.08 0.012144 44.140 0.072252
146.38 2168.0 undefined 579.48 622.19 2.1319 350.00 0.0028571 579.48 622.19 2.1319 2.1661 3.3636 413.87 0.011955 44.166 0.072357 350.00 0.0028571 579.48 622.19 2.1319 2.1661 3.3636 413.87 0.011955 44.166 0.072357
147.38 2196.5 undefined 581.65 624.92 2.1370 350.00 0.0028571 581.65 624.92 2.1370 2.1696 3.3566 415.64 0.011770 44.192 0.072462 350.00 0.0028571 581.65 624.92 2.1370 2.1696 3.3566 415.64 0.011770 44.192 0.072462
148.38 2225.0 undefined 583.82 627.65 2.1422 350.00 0.0028571 583.82 627.65 2.1422 2.1731 3.3498 417.40 0.011588 44.217 0.072567 350.00 0.0028571 583.82 627.65 2.1422 2.1731 3.3498 417.40 0.011588 44.217 0.072567
149.38 2253.6 undefined 586.00 630.39 2.1473 350.00 0.0028571 586.00 630.39 2.1473 2.1767 3.3432 419.16 0.011410 44.243 0.072673 350.00 0.0028571 586.00 630.39 2.1473 2.1767 3.3432 419.16 0.011410 44.243 0.072673
150.38 2282.1 undefined 588.17 633.13 2.1525 350.00 0.0028571 588.17 633.13 2.1525 2.1802 3.3368 420.90 0.011235 44.269 0.072780 350.00 0.0028571 588.17 633.13 2.1525 2.1802 3.3368 420.90 0.011235 44.269 0.072780
151.38 2310.6 undefined 590.36 635.87 2.1576 350.00 0.0028571 590.36 635.87 2.1576 2.1837 3.3307 422.63 0.011062 44.295 0.072887 350.00 0.0028571 590.36 635.87 2.1576 2.1837 3.3307 422.63 0.011062 44.295 0.072887
152.38 2339.2 undefined 592.54 638.62 2.1628 350.00 0.0028571 592.54 638.62 2.1628 2.1872 3.3248 424.35 0.010893 44.321 0.072994 350.00 0.0028571 592.54 638.62 2.1628 2.1872 3.3248 424.35 0.010893 44.321 0.072994
153.38 2367.8 undefined 594.73 641.37 2.1679 350.00 0.0028571 594.73 641.37 2.1679 2.1908 3.3190 426.06 0.010727 44.347 0.073102 350.00 0.0028571 594.73 641.37 2.1679 2.1908 3.3190 426.06 0.010727 44.347 0.073102
154.38 2396.4 undefined 596.92 644.13 2.1730 350.00 0.0028571 596.92 644.13 2.1730 2.1943 3.3135 427.76 0.010563 44.372 0.073211 350.00 0.0028571 596.92 644.13 2.1730 2.1943 3.3135 427.76 0.010563 44.372 0.073211
155.38 2425.0 undefined 599.12 646.89 2.1782 350.00 0.0028571 599.12 646.89 2.1782 2.1979 3.3082 429.46 0.010402 44.398 0.073319 350.00 0.0028571 599.12 646.89 2.1782 2.1979 3.3082 429.46 0.010402 44.398 0.073319
156.38 2453.6 undefined 601.32 649.65 2.1833 350.00 0.0028571 601.32 649.65 2.1833 2.2014 3.3030 431.14 0.010244 44.424 0.073429 350.00 0.0028571 601.32 649.65 2.1833 2.2014 3.3030 431.14 0.010244 44.424 0.073429
157.38 2482.2 undefined 603.52 652.42 2.1884 350.00 0.0028571 603.52 652.42 2.1884 2.2050 3.2980 432.81 0.010089 44.450 0.073538 350.00 0.0028571 603.52 652.42 2.1884 2.2050 3.2980 432.81 0.010089 44.450 0.073538
158.38 2510.8 undefined 605.73 655.19 2.1935 350.00 0.0028571 605.73 655.19 2.1935 2.2086 3.2932 434.48 0.0099362 44.476 0.073648 350.00 0.0028571 605.73 655.19 2.1935 2.2086 3.2932 434.48 0.0099362 44.476 0.073648
159.38 2539.5 undefined 607.94 657.97 2.1987 350.00 0.0028571 607.94 657.97 2.1987 2.2121 3.2886 436.13 0.0097858 44.501 0.073759 350.00 0.0028571 607.94 657.97 2.1987 2.2121 3.2886 436.13 0.0097858 44.501 0.073759
160.38 2568.1 undefined 610.15 660.74 2.2038 350.00 0.0028571 610.15 660.74 2.2038 2.2157 3.2841 437.78 0.0096380 44.527 0.073870 350.00 0.0028571 610.15 660.74 2.2038 2.2157 3.2841 437.78 0.0096380 44.527 0.073870
161.38 2596.8 undefined 612.37 663.53 2.2089 350.00 0.0028571 612.37 663.53 2.2089 2.2193 3.2798 439.41 0.0094925 44.553 0.073981 350.00 0.0028571 612.37 663.53 2.2089 2.2193 3.2798 439.41 0.0094925 44.553 0.073981
162.38 2625.4 undefined 614.59 666.31 2.2140 350.00 0.0028571 614.59 666.31 2.2140 2.2229 3.2756 441.04 0.0093494 44.578 0.074093 350.00 0.0028571 614.59 666.31 2.2140 2.2229 3.2756 441.04 0.0093494 44.578 0.074093
163.38 2654.1 undefined 616.82 669.10 2.2191 350.00 0.0028571 616.82 669.10 2.2191 2.2265 3.2716 442.66 0.0092086 44.604 0.074205 350.00 0.0028571 616.82 669.10 2.2191 2.2265 3.2716 442.66 0.0092086 44.604 0.074205
164.38 2682.8 undefined 619.05 671.89 2.2242 350.00 0.0028571 619.05 671.89 2.2242 2.2301 3.2677 444.27 0.0090700 44.630 0.074317 350.00 0.0028571 619.05 671.89 2.2242 2.2301 3.2677 444.27 0.0090700 44.630 0.074317
165.38 2711.5 undefined 621.28 674.69 2.2293 350.00 0.0028571 621.28 674.69 2.2293 2.2337 3.2639 445.87 0.0089335 44.655 0.074430 350.00 0.0028571 621.28 674.69 2.2293 2.2337 3.2639 445.87 0.0089335 44.655 0.074430
166.38 2740.2 undefined 623.51 677.49 2.2344 350.00 0.0028571 623.51 677.49 2.2344 2.2373 3.2603 447.47 0.0087992 44.681 0.074544 350.00 0.0028571 623.51 677.49 2.2344 2.2373 3.2603 447.47 0.0087992 44.681 0.074544
167.38 2768.9 undefined 625.75 680.30 2.2395 350.00 0.0028571 625.75 680.30 2.2395 2.2409 3.2568 449.06 0.0086670 44.706 0.074657 350.00 0.0028571 625.75 680.30 2.2395 2.2409 3.2568 449.06 0.0086670 44.706 0.074657
168.38 2797.6 undefined 627.99 683.11 2.2445 350.00 0.0028571 627.99 683.11 2.2445 2.2445 3.2535 450.64 0.0085369 44.732 0.074771 350.00 0.0028571 627.99 683.11 2.2445 2.2445 3.2535 450.64 0.0085369 44.732 0.074771
169.38 2826.4 undefined 630.24 685.92 2.2496 350.00 0.0028571 630.24 685.92 2.2496 2.2481 3.2503 452.21 0.0084087 44.757 0.074886 350.00 0.0028571 630.24 685.92 2.2496 2.2481 3.2503 452.21 0.0084087 44.757 0.074886
170.38 2855.1 undefined 632.49 688.73 2.2547 350.00 0.0028571 632.49 688.73 2.2547 2.2517 3.2471 453.77 0.0082825 44.783 0.075001 350.00 0.0028571 632.49 688.73 2.2547 2.2517 3.2471 453.77 0.0082825 44.783 0.075001
171.38 2883.8 undefined 634.74 691.55 2.2598 350.00 0.0028571 634.74 691.55 2.2598 2.2553 3.2441 455.33 0.0081582 44.809 0.075116 350.00 0.0028571 634.74 691.55 2.2598 2.2553 3.2441 455.33 0.0081582 44.809 0.075116
172.38 2912.6 undefined 637.00 694.38 2.2648 350.00 0.0028571 637.00 694.38 2.2648 2.2589 3.2413 456.88 0.0080358 44.834 0.075232 350.00 0.0028571 637.00 694.38 2.2648 2.2589 3.2413 456.88 0.0080358 44.834 0.075232
173.38 2941.3 undefined 639.26 697.20 2.2699 350.00 0.0028571 639.26 697.20 2.2699 2.2625 3.2385 458.42 0.0079152 44.859 0.075348 350.00 0.0028571 639.26 697.20 2.2699 2.2625 3.2385 458.42 0.0079152 44.859 0.075348
174.38 2970.1 undefined 641.53 700.03 2.2750 350.00 0.0028571 641.53 700.03 2.2750 2.2661 3.2358 459.95 0.0077963 44.885 0.075464 350.00 0.0028571 641.53 700.03 2.2750 2.2661 3.2358 459.95 0.0077963 44.885 0.075464
175.38 2998.9 undefined 643.79 702.87 2.2800 350.00 0.0028571 643.79 702.87 2.2800 2.2697 3.2332 461.48 0.0076793 44.910 0.075581 350.00 0.0028571 643.79 702.87 2.2800 2.2697 3.2332 461.48 0.0076793 44.910 0.075581
176.38 3027.6 undefined 646.07 705.71 2.2851 350.00 0.0028571 646.07 705.71 2.2851 2.2733 3.2308 463.00 0.0075639 44.936 0.075698 350.00 0.0028571 646.07 705.71 2.2851 2.2733 3.2308 463.00 0.0075639 44.936 0.075698
177.38 3056.4 undefined 648.34 708.55 2.2902 350.00 0.0028571 648.34 708.55 2.2902 2.2769 3.2284 464.51 0.0074502 44.961 0.075815 350.00 0.0028571 648.34 708.55 2.2902 2.2769 3.2284 464.51 0.0074502 44.961 0.075815
178.38 3085.2 undefined 650.62 711.40 2.2952 350.00 0.0028571 650.62 711.40 2.2952 2.2806 3.2261 466.02 0.0073382 44.987 0.075933 350.00 0.0028571 650.62 711.40 2.2952 2.2806 3.2261 466.02 0.0073382 44.987 0.075933
179.38 3114.0 undefined 652.90 714.24 2.3003 350.00 0.0028571 652.90 714.24 2.3003 2.2842 3.2240 467.52 0.0072278 45.012 0.076051 350.00 0.0028571 652.90 714.24 2.3003 2.2842 3.2240 467.52 0.0072278 45.012 0.076051
180.38 3142.8 undefined 655.19 717.10 2.3053 350.00 0.0028571 655.19 717.10 2.3053 2.2878 3.2219 469.01 0.0071190 45.037 0.076170 350.00 0.0028571 655.19 717.10 2.3053 2.2878 3.2219 469.01 0.0071190 45.037 0.076170
181.38 3171.6 undefined 657.48 719.95 2.3104 350.00 0.0028571 657.48 719.95 2.3104 2.2914 3.2199 470.50 0.0070117 45.063 0.076289 350.00 0.0028571 657.48 719.95 2.3104 2.2914 3.2199 470.50 0.0070117 45.063 0.076289
182.38 3200.4 undefined 659.77 722.82 2.3154 350.00 0.0028571 659.77 722.82 2.3154 2.2950 3.2180 471.98 0.0069059 45.088 0.076408 350.00 0.0028571 659.77 722.82 2.3154 2.2950 3.2180 471.98 0.0069059 45.088 0.076408
183.38 3229.2 undefined 662.07 725.68 2.3204 350.00 0.0028571 662.07 725.68 2.3204 2.2987 3.2161 473.45 0.0068016 45.113 0.076527 350.00 0.0028571 662.07 725.68 2.3204 2.2987 3.2161 473.45 0.0068016 45.113 0.076527
184.38 3258.0 undefined 664.37 728.55 2.3255 350.00 0.0028571 664.37 728.55 2.3255 2.3023 3.2144 474.92 0.0066988 45.139 0.076647 350.00 0.0028571 664.37 728.55 2.3255 2.3023 3.2144 474.92 0.0066988 45.139 0.076647
185.38 3286.8 undefined 666.67 731.42 2.3305 350.00 0.0028571 666.67 731.42 2.3305 2.3059 3.2127 476.38 0.0065974 45.164 0.076767 350.00 0.0028571 666.67 731.42 2.3305 2.3059 3.2127 476.38 0.0065974 45.164 0.076767
186.38 3315.6 undefined 668.98 734.29 2.3355 350.00 0.0028571 668.98 734.29 2.3355 2.3095 3.2112 477.83 0.0064974 45.189 0.076888 350.00 0.0028571 668.98 734.29 2.3355 2.3095 3.2112 477.83 0.0064974 45.189 0.076888
187.38 3344.4 undefined 671.29 737.17 2.3405 350.00 0.0028571 671.29 737.17 2.3405 2.3131 3.2096 479.28 0.0063988 45.214 0.077009 350.00 0.0028571 671.29 737.17 2.3405 2.3131 3.2096 479.28 0.0063988 45.214 0.077009
188.38 3373.2 undefined 673.61 740.06 2.3456 350.00 0.0028571 673.61 740.06 2.3456 2.3168 3.2082 480.73 0.0063015 45.240 0.077130 350.00 0.0028571 673.61 740.06 2.3456 2.3168 3.2082 480.73 0.0063015 45.240 0.077130
189.38 3402.0 undefined 675.92 742.94 2.3506 350.00 0.0028571 675.92 742.94 2.3506 2.3204 3.2069 482.16 0.0062055 45.265 0.077252 350.00 0.0028571 675.92 742.94 2.3506 2.3204 3.2069 482.16 0.0062055 45.265 0.077252
190.38 3430.9 undefined 678.25 745.83 2.3556 350.00 0.0028571 678.25 745.83 2.3556 2.3240 3.2056 483.59 0.0061109 45.290 0.077374 350.00 0.0028571 678.25 745.83 2.3556 2.3240 3.2056 483.59 0.0061109 45.290 0.077374
191.38 3459.7 undefined 680.57 748.73 2.3606 350.00 0.0028571 680.57 748.73 2.3606 2.3276 3.2043 485.02 0.0060175 45.315 0.077496 350.00 0.0028571 680.57 748.73 2.3606 2.3276 3.2043 485.02 0.0060175 45.315 0.077496
192.38 3488.5 undefined 682.90 751.62 2.3656 350.00 0.0028571 682.90 751.62 2.3656 2.3313 3.2032 486.44 0.0059253 45.340 0.077619 350.00 0.0028571 682.90 751.62 2.3656 2.3313 3.2032 486.44 0.0059253 45.340 0.077619
193.38 3517.4 undefined 685.23 754.52 2.3706 350.00 0.0028571 685.23 754.52 2.3706 2.3349 3.2021 487.85 0.0058344 45.365 0.077742 350.00 0.0028571 685.23 754.52 2.3706 2.3349 3.2021 487.85 0.0058344 45.365 0.077742
194.38 3546.2 undefined 687.57 757.43 2.3756 350.00 0.0028571 687.57 757.43 2.3756 2.3385 3.2011 489.26 0.0057447 45.391 0.077865 350.00 0.0028571 687.57 757.43 2.3756 2.3385 3.2011 489.26 0.0057447 45.391 0.077865
195.38 3575.0 undefined 689.91 760.34 2.3806 350.00 0.0028571 689.91 760.34 2.3806 2.3421 3.2001 490.66 0.0056562 45.416 0.077988 350.00 0.0028571 689.91 760.34 2.3806 2.3421 3.2001 490.66 0.0056562 45.416 0.077988
196.38 3603.9 undefined 692.26 763.25 2.3856 350.00 0.0028571 692.26 763.25 2.3856 2.3457 3.1992 492.06 0.0055688 45.441 0.078112 350.00 0.0028571 692.26 763.25 2.3856 2.3457 3.1992 492.06 0.0055688 45.441 0.078112
197.38 3632.7 undefined 694.60 766.17 2.3906 350.00 0.0028571 694.60 766.17 2.3906 2.3493 3.1984 493.45 0.0054826 45.466 0.078236 350.00 0.0028571 694.60 766.17 2.3906 2.3493 3.1984 493.45 0.0054826 45.466 0.078236
198.38 3661.5 undefined 696.95 769.08 2.3956 350.00 0.0028571 696.95 769.08 2.3956 2.3530 3.1976 494.83 0.0053974 45.491 0.078361 350.00 0.0028571 696.95 769.08 2.3956 2.3530 3.1976 494.83 0.0053974 45.491 0.078361
199.38 3690.4 undefined 699.31 772.01 2.4006 350.00 0.0028571 699.31 772.01 2.4006 2.3566 3.1969 496.21 0.0053134 45.516 0.078486 350.00 0.0028571 699.31 772.01 2.4006 2.3566 3.1969 496.21 0.0053134 45.516 0.078486
200.38 3719.2 undefined 701.67 774.93 2.4056 350.00 0.0028571 701.67 774.93 2.4056 2.3602 3.1962 497.59 0.0052305 45.541 0.078611 350.00 0.0028571 701.67 774.93 2.4056 2.3602 3.1962 497.59 0.0052305 45.541 0.078611
201.38 3748.1 undefined 704.03 777.86 2.4106 350.00 0.0028571 704.03 777.86 2.4106 2.3638 3.1956 498.96 0.0051486 45.566 0.078736 350.00 0.0028571 704.03 777.86 2.4106 2.3638 3.1956 498.96 0.0051486 45.566 0.078736
202.38 3776.9 undefined 706.40 780.80 2.4155 350.00 0.0028571 706.40 780.80 2.4155 2.3674 3.1950 500.32 0.0050677 45.591 0.078862 350.00 0.0028571 706.40 780.80 2.4155 2.3674 3.1950 500.32 0.0050677 45.591 0.078862
203.38 3805.7 undefined 708.76 783.74 2.4205 350.00 0.0028571 708.76 783.74 2.4205 2.3710 3.1945 501.68 0.0049879 45.616 0.078988 350.00 0.0028571 708.76 783.74 2.4205 2.3710 3.1945 501.68 0.0049879 45.616 0.078988
204.38 3834.6 undefined 711.14 786.68 2.4255 350.00 0.0028571 711.14 786.68 2.4255 2.3747 3.1941 503.04 0.0049091 45.641 0.079115 350.00 0.0028571 711.14 786.68 2.4255 2.3747 3.1941 503.04 0.0049091 45.641 0.079115
205.38 3863.4 undefined 713.51 789.62 2.4305 350.00 0.0028571 713.51 789.62 2.4305 2.3783 3.1937 504.39 0.0048313 45.666 0.079242 350.00 0.0028571 713.51 789.62 2.4305 2.3783 3.1937 504.39 0.0048313 45.666 0.079242
206.38 3892.3 undefined 715.89 792.57 2.4354 350.00 0.0028571 715.89 792.57 2.4354 2.3819 3.1933 505.73 0.0047544 45.691 0.079369 350.00 0.0028571 715.89 792.57 2.4354 2.3819 3.1933 505.73 0.0047544 45.691 0.079369
207.38 3921.1 undefined 718.28 795.52 2.4404 350.00 0.0028571 718.28 795.52 2.4404 2.3855 3.1930 507.07 0.0046785 45.715 0.079496 350.00 0.0028571 718.28 795.52 2.4404 2.3855 3.1930 507.07 0.0046785 45.715 0.079496
208.38 3950.0 undefined 720.66 798.48 2.4454 350.00 0.0028571 720.66 798.48 2.4454 2.3891 3.1928 508.41 0.0046036 45.740 0.079624 350.00 0.0028571 720.66 798.48 2.4454 2.3891 3.1928 508.41 0.0046036 45.740 0.079624
209.38 3978.8 undefined 723.06 801.44 2.4503 350.00 0.0028571 723.06 801.44 2.4503 2.3927 3.1926 509.74 0.0045295 45.765 0.079752 350.00 0.0028571 723.06 801.44 2.4503 2.3927 3.1926 509.74 0.0045295 45.765 0.079752
210.38 4007.6 undefined 725.45 804.40 2.4553 350.00 0.0028571 725.45 804.40 2.4553 2.3963 3.1924 511.06 0.0044564 45.790 0.079880 350.00 0.0028571 725.45 804.40 2.4553 2.3963 3.1924 511.06 0.0044564 45.790 0.079880
211.38 4036.5 undefined 727.85 807.36 2.4602 350.00 0.0028571 727.85 807.36 2.4602 2.3999 3.1923 512.38 0.0043842 45.815 0.080008 350.00 0.0028571 727.85 807.36 2.4602 2.3999 3.1923 512.38 0.0043842 45.815 0.080008
212.38 4065.3 undefined 730.25 810.33 2.4652 350.00 0.0028571 730.25 810.33 2.4652 2.4035 3.1922 513.70 0.0043128 45.840 0.080137 350.00 0.0028571 730.25 810.33 2.4652 2.4035 3.1922 513.70 0.0043128 45.840 0.080137
213.38 4094.2 undefined 732.66 813.31 2.4701 350.00 0.0028571 732.66 813.31 2.4701 2.4071 3.1922 515.01 0.0042423 45.864 0.080266 350.00 0.0028571 732.66 813.31 2.4701 2.4071 3.1922 515.01 0.0042423 45.864 0.080266
214.38 4123.0 undefined 735.06 816.28 2.4751 350.00 0.0028571 735.06 816.28 2.4751 2.4107 3.1922 516.32 0.0041726 45.889 0.080396 350.00 0.0028571 735.06 816.28 2.4751 2.4107 3.1922 516.32 0.0041726 45.889 0.080396
215.38 4151.8 undefined 737.48 819.27 2.4800 350.00 0.0028571 737.48 819.27 2.4800 2.4143 3.1922 517.62 0.0041038 45.914 0.080525 350.00 0.0028571 737.48 819.27 2.4800 2.4143 3.1922 517.62 0.0041038 45.914 0.080525
216.38 4180.7 undefined 739.89 822.25 2.4850 350.00 0.0028571 739.89 822.25 2.4850 2.4179 3.1923 518.92 0.0040358 45.939 0.080655 350.00 0.0028571 739.89 822.25 2.4850 2.4179 3.1923 518.92 0.0040358 45.939 0.080655
217.38 4209.5 undefined 742.31 825.24 2.4899 350.00 0.0028571 742.31 825.24 2.4899 2.4215 3.1924 520.21 0.0039686 45.963 0.080786 350.00 0.0028571 742.31 825.24 2.4899 2.4215 3.1924 520.21 0.0039686 45.963 0.080786
218.38 4238.3 undefined 744.74 828.23 2.4948 350.00 0.0028571 744.74 828.23 2.4948 2.4251 3.1926 521.50 0.0039022 45.988 0.080916 350.00 0.0028571 744.74 828.23 2.4948 2.4251 3.1926 521.50 0.0039022 45.988 0.080916
219.38 4267.2 undefined 747.16 831.22 2.4998 350.00 0.0028571 747.16 831.22 2.4998 2.4287 3.1928 522.78 0.0038366 46.013 0.081047 350.00 0.0028571 747.16 831.22 2.4998 2.4287 3.1928 522.78 0.0038366 46.013 0.081047
220.38 4296.0 undefined 749.59 834.22 2.5047 350.00 0.0028571 749.59 834.22 2.5047 2.4323 3.1930 524.06 0.0037718 46.037 0.081178 350.00 0.0028571 749.59 834.22 2.5047 2.4323 3.1930 524.06 0.0037718 46.037 0.081178
221.38 4324.8 undefined 752.03 837.22 2.5096 350.00 0.0028571 752.03 837.22 2.5096 2.4359 3.1933 525.34 0.0037077 46.062 0.081310 350.00 0.0028571 752.03 837.22 2.5096 2.4359 3.1933 525.34 0.0037077 46.062 0.081310
222.38 4353.6 undefined 754.47 840.23 2.5146 350.00 0.0028571 754.47 840.23 2.5146 2.4395 3.1936 526.61 0.0036444 46.086 0.081442 350.00 0.0028571 754.47 840.23 2.5146 2.4395 3.1936 526.61 0.0036444 46.086 0.081442
223.38 4382.5 undefined 756.91 843.24 2.5195 350.00 0.0028571 756.91 843.24 2.5195 2.4430 3.1940 527.88 0.0035818 46.111 0.081574 350.00 0.0028571 756.91 843.24 2.5195 2.4430 3.1940 527.88 0.0035818 46.111 0.081574
224.38 4411.3 undefined 759.35 846.25 2.5244 350.00 0.0028571 759.35 846.25 2.5244 2.4466 3.1944 529.14 0.0035199 46.136 0.081706 350.00 0.0028571 759.35 846.25 2.5244 2.4466 3.1944 529.14 0.0035199 46.136 0.081706
225.38 4440.1 undefined 761.80 849.27 2.5293 350.00 0.0028571 761.80 849.27 2.5293 2.4502 3.1948 530.40 0.0034587 46.160 0.081838 350.00 0.0028571 761.80 849.27 2.5293 2.4502 3.1948 530.40 0.0034587 46.160 0.081838
226.38 4468.9 undefined 764.25 852.29 2.5342 350.00 0.0028571 764.25 852.29 2.5342 2.4538 3.1952 531.66 0.0033983 46.185 0.081971 350.00 0.0028571 764.25 852.29 2.5342 2.4538 3.1952 531.66 0.0033983 46.185 0.081971
227.38 4497.7 undefined 766.71 855.31 2.5391 350.00 0.0028571 766.71 855.31 2.5391 2.4574 3.1957 532.91 0.0033385 46.209 0.082104 350.00 0.0028571 766.71 855.31 2.5391 2.4574 3.1957 532.91 0.0033385 46.209 0.082104
228.38 4526.5 undefined 769.17 858.34 2.5440 350.00 0.0028571 769.17 858.34 2.5440 2.4609 3.1962 534.16 0.0032794 46.234 0.082238 350.00 0.0028571 769.17 858.34 2.5440 2.4609 3.1962 534.16 0.0032794 46.234 0.082238
229.38 4555.4 undefined 771.63 861.37 2.5490 350.00 0.0028571 771.63 861.37 2.5490 2.4645 3.1967 535.40 0.0032210 46.258 0.082371 350.00 0.0028571 771.63 861.37 2.5490 2.4645 3.1967 535.40 0.0032210 46.258 0.082371
230.38 4584.2 undefined 774.10 864.40 2.5539 350.00 0.0028571 774.10 864.40 2.5539 2.4681 3.1973 536.64 0.0031632 46.283 0.082505 350.00 0.0028571 774.10 864.40 2.5539 2.4681 3.1973 536.64 0.0031632 46.283 0.082505
231.38 4613.0 undefined 776.57 867.44 2.5588 350.00 0.0028571 776.57 867.44 2.5588 2.4716 3.1979 537.88 0.0031061 46.307 0.082640 350.00 0.0028571 776.57 867.44 2.5588 2.4716 3.1979 537.88 0.0031061 46.307 0.082640
232.38 4641.8 undefined 779.04 870.48 2.5637 350.00 0.0028571 779.04 870.48 2.5637 2.4752 3.1986 539.11 0.0030496 46.331 0.082774 350.00 0.0028571 779.04 870.48 2.5637 2.4752 3.1986 539.11 0.0030496 46.331 0.082774
233.38 4670.6 undefined 781.52 873.52 2.5686 350.00 0.0028571 781.52 873.52 2.5686 2.4788 3.1992 540.34 0.0029937 46.356 0.082909 350.00 0.0028571 781.52 873.52 2.5686 2.4788 3.1992 540.34 0.0029937 46.356 0.082909
234.38 4699.3 undefined 784.00 876.57 2.5734 350.00 0.0028571 784.00 876.57 2.5734 2.4823 3.1999 541.56 0.0029385 46.380 0.083044 350.00 0.0028571 784.00 876.57 2.5734 2.4823 3.1999 541.56 0.0029385 46.380 0.083044
235.38 4728.1 undefined 786.48 879.62 2.5783 350.00 0.0028571 786.48 879.62 2.5783 2.4859 3.2006 542.78 0.0028839 46.405 0.083179 350.00 0.0028571 786.48 879.62 2.5783 2.4859 3.2006 542.78 0.0028839 46.405 0.083179
236.38 4756.9 undefined 788.97 882.68 2.5832 350.00 0.0028571 788.97 882.68 2.5832 2.4894 3.2014 544.00 0.0028299 46.429 0.083314 350.00 0.0028571 788.97 882.68 2.5832 2.4894 3.2014 544.00 0.0028299 46.429 0.083314
237.38 4785.7 undefined 791.46 885.73 2.5881 350.00 0.0028571 791.46 885.73 2.5881 2.4930 3.2021 545.21 0.0027765 46.453 0.083450 350.00 0.0028571 791.46 885.73 2.5881 2.4930 3.2021 545.21 0.0027765 46.453 0.083450
238.38 4814.5 undefined 793.95 888.80 2.5930 350.00 0.0028571 793.95 888.80 2.5930 2.4966 3.2029 546.42 0.0027237 46.478 0.083586 350.00 0.0028571 793.95 888.80 2.5930 2.4966 3.2029 546.42 0.0027237 46.478 0.083586
239.38 4843.3 undefined 796.45 891.86 2.5979 350.00 0.0028571 796.45 891.86 2.5979 2.5001 3.2037 547.62 0.0026714 46.502 0.083722 350.00 0.0028571 796.45 891.86 2.5979 2.5001 3.2037 547.62 0.0026714 46.502 0.083722
240.38 4872.0 undefined 798.95 894.93 2.6027 350.00 0.0028571 798.95 894.93 2.6027 2.5036 3.2046 548.83 0.0026197 46.526 0.083859 350.00 0.0028571 798.95 894.93 2.6027 2.5036 3.2046 548.83 0.0026197 46.526 0.083859
241.38 4900.8 undefined 801.46 898.00 2.6076 350.00 0.0028571 801.46 898.00 2.6076 2.5072 3.2055 550.03 0.0025686 46.550 0.083995 350.00 0.0028571 801.46 898.00 2.6076 2.5072 3.2055 550.03 0.0025686 46.550 0.083995
242.38 4929.6 undefined 803.97 901.08 2.6125 350.00 0.0028571 803.97 901.08 2.6125 2.5107 3.2064 551.22 0.0025180 46.575 0.084132 350.00 0.0028571 803.97 901.08 2.6125 2.5107 3.2064 551.22 0.0025180 46.575 0.084132
243.38 4958.3 undefined 806.48 904.16 2.6174 350.00 0.0028571 806.48 904.16 2.6174 2.5143 3.2073 552.41 0.0024680 46.599 0.084269 350.00 0.0028571 806.48 904.16 2.6174 2.5143 3.2073 552.41 0.0024680 46.599 0.084269
244.38 4987.1 undefined 809.00 907.24 2.6222 350.00 0.0028571 809.00 907.24 2.6222 2.5178 3.2082 553.60 0.0024185 46.623 0.084407 350.00 0.0028571 809.00 907.24 2.6222 2.5178 3.2082 553.60 0.0024185 46.623 0.084407
245.38 5015.8 undefined 811.52 910.33 2.6271 350.00 0.0028571 811.52 910.33 2.6271 2.5213 3.2092 554.78 0.0023696 46.647 0.084544 350.00 0.0028571 811.52 910.33 2.6271 2.5213 3.2092 554.78 0.0023696 46.647 0.084544
246.38 5044.6 undefined 814.04 913.41 2.6319 350.00 0.0028571 814.04 913.41 2.6319 2.5249 3.2102 555.97 0.0023211 46.671 0.084682 350.00 0.0028571 814.04 913.41 2.6319 2.5249 3.2102 555.97 0.0023211 46.671 0.084682
247.38 5073.3 undefined 816.57 916.51 2.6368 350.00 0.0028571 816.57 916.51 2.6368 2.5284 3.2112 557.14 0.0022732 46.695 0.084820 350.00 0.0028571 816.57 916.51 2.6368 2.5284 3.2112 557.14 0.0022732 46.695 0.084820
248.38 5102.1 undefined 819.10 919.60 2.6417 350.00 0.0028571 819.10 919.60 2.6417 2.5319 3.2122 558.32 0.0022258 46.720 0.084959 350.00 0.0028571 819.10 919.60 2.6417 2.5319 3.2122 558.32 0.0022258 46.720 0.084959
249.38 5130.8 undefined 821.63 922.70 2.6465 350.00 0.0028571 821.63 922.70 2.6465 2.5355 3.2133 559.49 0.0021789 46.744 0.085097 350.00 0.0028571 821.63 922.70 2.6465 2.5355 3.2133 559.49 0.0021789 46.744 0.085097
250.38 5159.5 undefined 824.17 925.81 2.6514 350.00 0.0028571 824.17 925.81 2.6514 2.5390 3.2143 560.66 0.0021325 46.768 0.085236 350.00 0.0028571 824.17 925.81 2.6514 2.5390 3.2143 560.66 0.0021325 46.768 0.085236
251.38 5188.3 undefined 826.71 928.91 2.6562 350.00 0.0028571 826.71 928.91 2.6562 2.5425 3.2154 561.82 0.0020866 46.792 0.085374 350.00 0.0028571 826.71 928.91 2.6562 2.5425 3.2154 561.82 0.0020866 46.792 0.085374
252.38 5217.0 undefined 829.25 932.02 2.6611 350.00 0.0028571 829.25 932.02 2.6611 2.5460 3.2165 562.98 0.0020411 46.816 0.085514 350.00 0.0028571 829.25 932.02 2.6611 2.5460 3.2165 562.98 0.0020411 46.816 0.085514
253.38 5245.7 undefined 831.80 935.14 2.6659 350.00 0.0028571 831.80 935.14 2.6659 2.5495 3.2177 564.14 0.0019961 46.840 0.085663 350.00 0.0028571 831.80 935.14 2.6659 2.5495 3.2177 564.14 0.0019961 46.840 0.085663
254.38 5274.4 undefined 834.35 938.25 2.6707 350.00 0.0028571 834.35 938.25 2.6707 2.5530 3.2188 565.30 0.0019516 46.864 0.085813 350.00 0.0028571 834.35 938.25 2.6707 2.5530 3.2188 565.30 0.0019516 46.864 0.085813
255.38 5303.1 undefined 836.91 941.37 2.6756 350.00 0.0028571 836.91 941.37 2.6756 2.5565 3.2200 566.45 0.0019076 46.888 0.085962 350.00 0.0028571 836.91 941.37 2.6756 2.5565 3.2200 566.45 0.0019076 46.888 0.085962
256.38 5331.8 undefined 839.46 944.50 2.6804 350.00 0.0028571 839.46 944.50 2.6804 2.5601 3.2212 567.60 0.0018640 46.912 0.086112 350.00 0.0028571 839.46 944.50 2.6804 2.5601 3.2212 567.60 0.0018640 46.912 0.086112
257.38 5360.5 undefined 842.03 947.63 2.6853 350.00 0.0028571 842.03 947.63 2.6853 2.5636 3.2224 568.74 0.0018209 46.936 0.086262 350.00 0.0028571 842.03 947.63 2.6853 2.5636 3.2224 568.74 0.0018209 46.936 0.086262
258.38 5389.2 undefined 844.59 950.76 2.6901 350.00 0.0028571 844.59 950.76 2.6901 2.5671 3.2236 569.88 0.0017782 46.960 0.086412 350.00 0.0028571 844.59 950.76 2.6901 2.5671 3.2236 569.88 0.0017782 46.960 0.086412
259.38 5417.9 undefined 847.16 953.89 2.6949 350.00 0.0028571 847.16 953.89 2.6949 2.5705 3.2249 571.02 0.0017359 46.984 0.086563 350.00 0.0028571 847.16 953.89 2.6949 2.5705 3.2249 571.02 0.0017359 46.984 0.086563
260.38 5446.6 undefined 849.73 957.03 2.6997 350.00 0.0028571 849.73 957.03 2.6997 2.5740 3.2262 572.16 0.0016941 47.007 0.086714 350.00 0.0028571 849.73 957.03 2.6997 2.5740 3.2262 572.16 0.0016941 47.007 0.086714
261.38 5475.3 undefined 852.31 960.17 2.7046 350.00 0.0028571 852.31 960.17 2.7046 2.5775 3.2274 573.29 0.0016527 47.031 0.086865 350.00 0.0028571 852.31 960.17 2.7046 2.5775 3.2274 573.29 0.0016527 47.031 0.086865
262.38 5504.0 undefined 854.89 963.31 2.7094 350.00 0.0028571 854.89 963.31 2.7094 2.5810 3.2287 574.42 0.0016117 47.055 0.087016 350.00 0.0028571 854.89 963.31 2.7094 2.5810 3.2287 574.42 0.0016117 47.055 0.087016
263.38 5532.6 undefined 857.47 966.46 2.7142 350.00 0.0028571 857.47 966.46 2.7142 2.5845 3.2301 575.55 0.0015712 47.079 0.087168 350.00 0.0028571 857.47 966.46 2.7142 2.5845 3.2301 575.55 0.0015712 47.079 0.087168
264.38 5561.3 undefined 860.06 969.61 2.7190 350.00 0.0028571 860.06 969.61 2.7190 2.5880 3.2314 576.67 0.0015310 47.103 0.087320 350.00 0.0028571 860.06 969.61 2.7190 2.5880 3.2314 576.67 0.0015310 47.103 0.087320
265.38 5589.9 undefined 862.65 972.76 2.7238 350.00 0.0028571 862.65 972.76 2.7238 2.5915 3.2327 577.80 0.0014913 47.127 0.087473 350.00 0.0028571 862.65 972.76 2.7238 2.5915 3.2327 577.80 0.0014913 47.127 0.087473
266.38 5618.6 undefined 865.24 975.92 2.7286 350.00 0.0028571 865.24 975.92 2.7286 2.5949 3.2341 578.91 0.0014519 47.150 0.087626 350.00 0.0028571 865.24 975.92 2.7286 2.5949 3.2341 578.91 0.0014519 47.150 0.087626
267.38 5647.3 undefined 867.84 979.08 2.7335 350.00 0.0028571 867.84 979.08 2.7335 2.5984 3.2355 580.03 0.0014130 47.174 0.087779 350.00 0.0028571 867.84 979.08 2.7335 2.5984 3.2355 580.03 0.0014130 47.174 0.087779
268.38 5675.9 undefined 870.44 982.25 2.7383 350.00 0.0028571 870.44 982.25 2.7383 2.6019 3.2369 581.14 0.0013744 47.198 0.087932 350.00 0.0028571 870.44 982.25 2.7383 2.6019 3.2369 581.14 0.0013744 47.198 0.087932
269.38 5704.5 undefined 873.04 985.42 2.7431 350.00 0.0028571 873.04 985.42 2.7431 2.6053 3.2383 582.25 0.0013362 47.222 0.088085 350.00 0.0028571 873.04 985.42 2.7431 2.6053 3.2383 582.25 0.0013362 47.222 0.088085
270.38 5733.2 undefined 875.65 988.59 2.7479 350.00 0.0028571 875.65 988.59 2.7479 2.6088 3.2397 583.36 0.0012984 47.245 0.088239 350.00 0.0028571 875.65 988.59 2.7479 2.6088 3.2397 583.36 0.0012984 47.245 0.088239
271.38 5761.8 undefined 878.26 991.76 2.7527 350.00 0.0028571 878.26 991.76 2.7527 2.6123 3.2411 584.46 0.0012610 47.269 0.088393 350.00 0.0028571 878.26 991.76 2.7527 2.6123 3.2411 584.46 0.0012610 47.269 0.088393
272.38 5790.4 undefined 880.87 994.94 2.7575 350.00 0.0028571 880.87 994.94 2.7575 2.6157 3.2426 585.56 0.0012239 47.293 0.088548 350.00 0.0028571 880.87 994.94 2.7575 2.6157 3.2426 585.56 0.0012239 47.293 0.088548
273.38 5819.0 undefined 883.49 998.12 2.7622 350.00 0.0028571 883.49 998.12 2.7622 2.6192 3.2441 586.66 0.0011873 47.316 0.088703 350.00 0.0028571 883.49 998.12 2.7622 2.6192 3.2441 586.66 0.0011873 47.316 0.088703
274.38 5847.6 undefined 886.11 1001.3 2.7670 350.00 0.0028571 886.11 1001.3 2.7670 2.6226 3.2456 587.76 0.0011509 47.340 0.088858 350.00 0.0028571 886.11 1001.3 2.7670 2.6226 3.2456 587.76 0.0011509 47.340 0.088858
275.38 5876.2 undefined 888.73 1004.5 2.7718 350.00 0.0028571 888.73 1004.5 2.7718 2.6261 3.2470 588.85 0.0011149 47.363 0.089013 350.00 0.0028571 888.73 1004.5 2.7718 2.6261 3.2470 588.85 0.0011149 47.363 0.089013
276.38 5904.8 undefined 891.36 1007.7 2.7766 350.00 0.0028571 891.36 1007.7 2.7766 2.6295 3.2486 589.94 0.0010793 47.387 0.089169 350.00 0.0028571 891.36 1007.7 2.7766 2.6295 3.2486 589.94 0.0010793 47.387 0.089169
277.38 5933.4 undefined 893.99 1010.9 2.7814 350.00 0.0028571 893.99 1010.9 2.7814 2.6330 3.2501 591.03 0.0010440 47.411 0.089325 350.00 0.0028571 893.99 1010.9 2.7814 2.6330 3.2501 591.03 0.0010440 47.411 0.089325
278.38 5962.0 undefined 896.63 1014.1 2.7862 350.00 0.0028571 896.63 1014.1 2.7862 2.6364 3.2516 592.11 0.0010091 47.434 0.089481 350.00 0.0028571 896.63 1014.1 2.7862 2.6364 3.2516 592.11 0.0010091 47.434 0.089481
279.38 5990.6 undefined 899.27 1017.3 2.7910 350.00 0.0028571 899.27 1017.3 2.7910 2.6398 3.2532 593.20 0.00097452 47.458 0.089637 350.00 0.0028571 899.27 1017.3 2.7910 2.6398 3.2532 593.20 0.00097452 47.458 0.089637
280.38 6019.2 undefined 901.91 1020.5 2.7957 350.00 0.0028571 901.91 1020.5 2.7957 2.6433 3.2547 594.28 0.00094026 47.481 0.089794 350.00 0.0028571 901.91 1020.5 2.7957 2.6433 3.2547 594.28 0.00094026 47.481 0.089794
281.38 6047.8 undefined 904.55 1023.7 2.8005 350.00 0.0028571 904.55 1023.7 2.8005 2.6467 3.2563 595.35 0.00090633 47.505 0.089951 350.00 0.0028571 904.55 1023.7 2.8005 2.6467 3.2563 595.35 0.00090633 47.505 0.089951
282.38 6076.3 undefined 907.20 1026.9 2.8053 350.00 0.0028571 907.20 1026.9 2.8053 2.6501 3.2579 596.43 0.00087273 47.528 0.089602 350.00 0.0028571 907.20 1026.9 2.8053 2.6501 3.2579 596.43 0.00087273 47.528 0.089602
283.38 6104.9 undefined 909.85 1030.1 2.8101 350.00 0.0028571 909.85 1030.1 2.8101 2.6535 3.2595 597.50 0.00083945 47.551 0.089759 350.00 0.0028571 909.85 1030.1 2.8101 2.6535 3.2595 597.50 0.00083945 47.551 0.089759
284.38 6133.4 undefined 912.51 1033.3 2.8148 350.00 0.0028571 912.51 1033.3 2.8148 2.6569 3.2611 598.57 0.00080649 47.575 0.089916 350.00 0.0028571 912.51 1033.3 2.8148 2.6569 3.2611 598.57 0.00080649 47.575 0.089916
285.38 6162.0 undefined 915.17 1036.6 2.8196 350.00 0.0028571 915.17 1036.6 2.8196 2.6604 3.2627 599.64 0.00077385 47.598 0.090073 350.00 0.0028571 915.17 1036.6 2.8196 2.6604 3.2627 599.64 0.00077385 47.598 0.090073
286.38 6190.5 undefined 917.83 1039.8 2.8243 350.00 0.0028571 917.83 1039.8 2.8243 2.6638 3.2643 600.70 0.00074151 47.622 0.090231 350.00 0.0028571 917.83 1039.8 2.8243 2.6638 3.2643 600.70 0.00074151 47.622 0.090231
287.38 6219.1 undefined 920.49 1043.0 2.8291 350.00 0.0028571 920.49 1043.0 2.8291 2.6672 3.2660 601.76 0.00070948 47.645 0.090389 350.00 0.0028571 920.49 1043.0 2.8291 2.6672 3.2660 601.76 0.00070948 47.645 0.090389
288.38 6247.6 undefined 923.16 1046.2 2.8339 350.00 0.0028571 923.16 1046.2 2.8339 2.6706 3.2676 602.82 0.00067776 47.668 0.090547 350.00 0.0028571 923.16 1046.2 2.8339 2.6706 3.2676 602.82 0.00067776 47.668 0.090547
289.38 6276.1 undefined 925.84 1049.5 2.8386 350.00 0.0028571 925.84 1049.5 2.8386 2.6740 3.2693 603.88 0.00064634 47.692 0.090706 350.00 0.0028571 925.84 1049.5 2.8386 2.6740 3.2693 603.88 0.00064634 47.692 0.090706
290.38 6304.6 undefined 928.51 1052.7 2.8434 350.00 0.0028571 928.51 1052.7 2.8434 2.6774 3.2710 604.93 0.00061521 47.715 0.090865 350.00 0.0028571 928.51 1052.7 2.8434 2.6774 3.2710 604.93 0.00061521 47.715 0.090865
291.38 6333.1 undefined 931.19 1055.9 2.8481 350.00 0.0028571 931.19 1055.9 2.8481 2.6808 3.2726 605.98 0.00058438 47.738 0.091024 350.00 0.0028571 931.19 1055.9 2.8481 2.6808 3.2726 605.98 0.00058438 47.738 0.091024
292.38 6361.6 undefined 933.87 1059.2 2.8529 350.00 0.0028571 933.87 1059.2 2.8529 2.6842 3.2743 607.03 0.00055383 47.761 0.091183 350.00 0.0028571 933.87 1059.2 2.8529 2.6842 3.2743 607.03 0.00055383 47.761 0.091183
293.38 6390.1 undefined 936.56 1062.4 2.8576 350.00 0.0028571 936.56 1062.4 2.8576 2.6876 3.2760 608.08 0.00052357 47.785 0.091343 350.00 0.0028571 936.56 1062.4 2.8576 2.6876 3.2760 608.08 0.00052357 47.785 0.091343
294.38 6418.6 undefined 939.25 1065.7 2.8624 350.00 0.0028571 939.25 1065.7 2.8624 2.6909 3.2778 609.12 0.00049360 47.808 0.091503 350.00 0.0028571 939.25 1065.7 2.8624 2.6909 3.2778 609.12 0.00049360 47.808 0.091503
295.38 6447.1 undefined 941.94 1068.9 2.8671 350.00 0.0028571 941.94 1068.9 2.8671 2.6943 3.2795 610.17 0.00046390 47.831 0.091663 350.00 0.0028571 941.94 1068.9 2.8671 2.6943 3.2795 610.17 0.00046390 47.831 0.091663
296.38 6475.6 undefined 944.64 1072.2 2.8718 350.00 0.0028571 944.64 1072.2 2.8718 2.6977 3.2812 611.21 0.00043448 47.854 0.091824 350.00 0.0028571 944.64 1072.2 2.8718 2.6977 3.2812 611.21 0.00043448 47.854 0.091824
297.38 6504.1 undefined 947.34 1075.5 2.8766 350.00 0.0028571 947.34 1075.5 2.8766 2.7011 3.2830 612.24 0.00040534 47.877 0.091985 350.00 0.0028571 947.34 1075.5 2.8766 2.7011 3.2830 612.24 0.00040534 47.877 0.091985
298.38 6532.5 undefined 950.04 1078.7 2.8813 350.00 0.0028571 950.04 1078.7 2.8813 2.7044 3.2847 613.28 0.00037646 47.901 0.092146 350.00 0.0028571 950.04 1078.7 2.8813 2.7044 3.2847 613.28 0.00037646 47.901 0.092146
299.38 6561.0 undefined 952.74 1082.0 2.8860 350.00 0.0028571 952.74 1082.0 2.8860 2.7078 3.2865 614.31 0.00034785 47.924 0.092307 350.00 0.0028571 952.74 1082.0 2.8860 2.7078 3.2865 614.31 0.00034785 47.924 0.092307
300.38 6589.5 undefined 955.45 1085.3 2.8908 350.00 0.0028571 955.45 1085.3 2.8908 2.7112 3.2882 615.34 0.00031950 47.947 0.092469 350.00 0.0028571 955.45 1085.3 2.8908 2.7112 3.2882 615.34 0.00031950 47.947 0.092469