Temperature (C) Pressure (psia) Quality (l+v) Internal Energy (l+v, kJ/kg) Enthalpy (l+v, kJ/kg) Entropy (l+v, J/g*K) Density (l, kg/m3) Volume (l, m3/kg) Internal Energy (l, kJ/kg) Enthalpy (l, kJ/kg) Entropy (l, J/g*K) Cv (l, J/g*K) Cp (l, J/g*K) Sound Spd. (l, m/s) Joule-Thomson (l, F/psia) Viscosity (l, uPa*s) Therm. Cond. (l, W/m*K) Density (v, kg/m3) Volume (v, m3/kg) Internal Energy (v, kJ/kg) Enthalpy (v, kJ/kg) Entropy (v, J/g*K) Cv (v, J/g*K) Cp (v, J/g*K) Sound Spd. (v, m/s) Joule-Thomson (v, F/psia) Viscosity (v, uPa*s) Therm. Cond. (v, W/m*K)
-187.62 2.4953e-08 1.4677e-11 -196.64 -196.64 -1.3959 733.13 0.0013640 -196.64 -196.64 -1.3959 1.3553 1.9158 2136.4 -0.0077592 10960. 0.20792 1.0669e-08 9.3732e+07 350.13 366.26 5.1858 0.69067 0.87923 143.28 6.1051 2.3259 0.0017061
-186.62 3.7339e-08 2.1678e-11 -194.73 -194.73 -1.3736 732.08 0.0013660 -194.73 -194.73 -1.3736 1.3539 1.9166 2129.6 -0.0077546 10073. 0.20765 1.5780e-08 6.3371e+07 350.82 367.14 5.1200 0.69462 0.88317 144.03 5.9178 2.3534 0.0017533
-185.62 5.5322e-08 3.1706e-11 -192.81 -192.81 -1.3516 731.04 0.0013679 -192.81 -192.81 -1.3516 1.3525 1.9174 2122.9 -0.0077498 9276.1 0.20737 2.3112e-08 4.3267e+07 351.52 368.02 5.0561 0.69857 0.88713 144.77 5.7383 2.3808 0.0018007
-184.62 8.1182e-08 4.5936e-11 -190.89 -190.89 -1.3298 730.00 0.0013699 -190.89 -190.89 -1.3298 1.3513 1.9182 2116.1 -0.0077448 8557.8 0.20708 3.3533e-08 2.9821e+07 352.22 368.91 4.9939 0.70253 0.89108 145.51 5.5662 2.4083 0.0018485
-183.62 1.1803e-07 6.5948e-11 -188.97 -188.97 -1.3083 728.96 0.0013718 -188.97 -188.97 -1.3083 1.3501 1.9191 2109.3 -0.0077395 7909.8 0.20678 4.8211e-08 2.0742e+07 352.92 369.81 4.9333 0.70648 0.89504 146.24 5.4011 2.4357 0.0018965
-182.62 1.7009e-07 9.3846e-11 -187.05 -187.05 -1.2869 727.92 0.0013738 -187.05 -187.05 -1.2869 1.3490 1.9201 2102.5 -0.0077340 7324.3 0.20647 6.8704e-08 1.4555e+07 353.63 370.70 4.8744 0.71043 0.89899 146.97 5.2426 2.4632 0.0019448
-181.62 2.4299e-07 1.3241e-10 -185.13 -185.13 -1.2658 726.88 0.0013757 -185.13 -185.13 -1.2658 1.3480 1.9210 2095.7 -0.0077283 6794.5 0.20616 9.7079e-08 1.0301e+07 354.35 371.60 4.8170 0.71438 0.90294 147.69 5.0904 2.4906 0.0019934
-180.62 3.4425e-07 1.8530e-10 -183.21 -183.21 -1.2450 725.85 0.0013777 -183.21 -183.21 -1.2450 1.3470 1.9220 2088.9 -0.0077225 6314.4 0.20584 1.3605e-07 7.3504e+06 355.06 372.51 4.7612 0.71833 0.90688 148.41 4.9442 2.5181 0.0020423
-179.62 4.8378e-07 2.5725e-10 -181.29 -181.29 -1.2243 724.81 0.0013797 -181.29 -181.29 -1.2243 1.3461 1.9231 2082.0 -0.0077164 5878.8 0.20551 1.8915e-07 5.2868e+06 355.78 373.42 4.7068 0.72227 0.91082 149.13 4.8038 2.5456 0.0020915
-178.62 6.7459e-07 3.5441e-10 -179.37 -179.37 -1.2038 723.78 0.0013816 -179.37 -179.37 -1.2038 1.3453 1.9241 2075.2 -0.0077102 5482.9 0.20517 2.6096e-07 3.8320e+06 356.51 374.33 4.6538 0.72620 0.91475 149.84 4.6688 2.5731 0.0021410
-177.62 9.3358e-07 4.8463e-10 -177.44 -177.44 -1.1836 722.75 0.0013836 -177.44 -177.44 -1.1836 1.3445 1.9252 2068.4 -0.0077039 5122.6 0.20483 3.5737e-07 2.7982e+06 357.23 375.25 4.6022 0.73012 0.91867 150.54 4.5390 2.6005 0.0021907
-176.62 1.2826e-06 6.5795e-10 -175.52 -175.52 -1.1635 721.72 0.0013856 -175.52 -175.52 -1.1635 1.3437 1.9263 2061.5 -0.0076973 4794.1 0.20447 4.8588e-07 2.0581e+06 357.97 376.17 4.5519 0.73403 0.92258 151.25 4.4142 2.6280 0.0022408
-175.62 1.7496e-06 8.8704e-10 -173.59 -173.59 -1.1437 720.69 0.0013876 -173.59 -173.59 -1.1437 1.3430 1.9274 2054.7 -0.0076907 4494.3 0.20411 6.5601e-07 1.5244e+06 358.70 377.09 4.5029 0.73792 0.92648 151.95 4.2941 2.6555 0.0022912
-174.62 2.3705e-06 1.1878e-09 -171.66 -171.66 -1.1240 719.66 0.0013895 -171.66 -171.66 -1.1240 1.3423 1.9286 2047.9 -0.0076838 4220.2 0.20375 8.7976e-07 1.1367e+06 359.44 378.02 4.4551 0.74181 0.93036 152.64 4.1784 2.6830 0.0023418
-173.62 3.1903e-06 1.5803e-09 -169.73 -169.73 -1.1045 718.64 0.0013915 -169.73 -169.73 -1.1045 1.3417 1.9298 2041.0 -0.0076769 3969.3 0.20338 1.1721e-06 8.5314e+05 360.19 378.95 4.4085 0.74568 0.93423 153.33 4.0671 2.7105 0.0023928
-172.62 4.2661e-06 2.0891e-09 -167.80 -167.80 -1.0852 717.61 0.0013935 -167.80 -167.80 -1.0852 1.3411 1.9310 2034.2 -0.0076698 3739.3 0.20300 1.5518e-06 6.4441e+05 360.93 379.89 4.3631 0.74953 0.93809 154.02 3.9599 2.7379 0.0024440
-171.62 5.6692e-06 2.7447e-09 -165.87 -165.87 -1.0661 716.58 0.0013955 -165.87 -165.87 -1.0661 1.3405 1.9322 2027.3 -0.0076625 3528.0 0.20261 2.0419e-06 4.8974e+05 361.69 380.83 4.3188 0.75337 0.94193 154.71 3.8566 2.7654 0.0024955
-170.62 7.4884e-06 3.5848e-09 -163.94 -163.94 -1.0472 715.56 0.0013975 -163.94 -163.94 -1.0472 1.3400 1.9334 2020.5 -0.0076552 3333.8 0.20222 2.6708e-06 3.7442e+05 362.44 381.77 4.2755 0.75720 0.94575 155.39 3.7570 2.7929 0.0025473
-169.62 9.8334e-06 4.6550e-09 -162.00 -162.00 -1.0284 714.54 0.0013995 -162.00 -162.00 -1.0284 1.3395 1.9347 2013.6 -0.0076477 3154.9 0.20182 3.4733e-06 2.8791e+05 363.20 382.72 4.2334 0.76100 0.94956 156.07 3.6609 2.8204 0.0025994
-168.62 1.2839e-05 6.0108e-09 -160.07 -160.07 -1.0098 713.52 0.0014015 -160.07 -160.07 -1.0098 1.3390 1.9359 2006.8 -0.0076401 2989.9 0.20141 4.4917e-06 2.2263e+05 363.96 383.67 4.1922 0.76479 0.95335 156.74 3.5683 2.8479 0.0026518
-167.62 1.6672e-05 7.7194e-09 -158.13 -158.13 -0.99134 712.49 0.0014035 -158.13 -158.13 -0.99134 1.3386 1.9372 2000.0 -0.0076323 2837.5 0.20100 5.7771e-06 1.7310e+05 364.73 384.63 4.1521 0.76856 0.95712 157.41 3.4790 2.8754 0.0027045
-166.62 2.1533e-05 9.8616e-09 -156.19 -156.19 -0.97306 711.47 0.0014055 -156.19 -156.19 -0.97306 1.3382 1.9385 1993.1 -0.0076245 2696.5 0.20058 7.3914e-06 1.3529e+05 365.50 385.59 4.1129 0.77232 0.96087 158.08 3.3927 2.9029 0.0027575
-165.62 2.7666e-05 1.2534e-08 -154.25 -154.25 -0.95494 710.45 0.0014075 -154.25 -154.25 -0.95494 1.3378 1.9398 1986.3 -0.0076165 2566.0 0.20016 9.4084e-06 1.0629e+05 366.27 386.55 4.0746 0.77605 0.96460 158.75 3.3095 2.9304 0.0028108
-164.62 3.5367e-05 1.5851e-08 -152.31 -152.31 -0.93698 709.44 0.0014096 -152.31 -152.31 -0.93698 1.3375 1.9411 1979.4 -0.0076084 2444.9 0.19973 1.1916e-05 83918. 367.05 387.52 4.0372 0.77976 0.96832 159.41 3.2291 2.9579 0.0028643
-163.62 4.4989e-05 1.9949e-08 -150.37 -150.37 -0.91917 708.42 0.0014116 -150.37 -150.37 -0.91917 1.3371 1.9424 1972.6 -0.0076002 2332.3 0.19930 1.5020e-05 66577. 367.83 388.49 4.0008 0.78346 0.97201 160.07 3.1514 2.9854 0.0029182
-162.62 5.6956e-05 2.4988e-08 -148.43 -148.43 -0.90151 707.40 0.0014136 -148.43 -148.43 -0.90151 1.3368 1.9437 1965.8 -0.0075919 2227.7 0.19886 1.8844e-05 53068. 368.62 389.46 3.9651 0.78713 0.97569 160.72 3.0764 3.0129 0.0029723
-161.62 7.1773e-05 3.1159e-08 -146.48 -146.48 -0.88400 706.38 0.0014157 -146.48 -146.48 -0.88400 1.3365 1.9451 1959.0 -0.0075834 2130.2 0.19841 2.3533e-05 42494. 369.41 390.44 3.9304 0.79079 0.97935 161.38 3.0038 3.0404 0.0030268
-160.62 9.0036e-05 3.8680e-08 -144.54 -144.54 -0.86663 705.37 0.0014177 -144.54 -144.54 -0.86663 1.3363 1.9465 1952.1 -0.0075748 2039.2 0.19796 2.9258e-05 34178. 370.20 391.42 3.8964 0.79443 0.98298 162.03 2.9337 3.0679 0.0030815
-159.62 0.00011245 4.7811e-08 -142.59 -142.59 -0.84940 704.35 0.0014197 -142.59 -142.59 -0.84940 1.3360 1.9478 1945.3 -0.0075661 1954.2 0.19751 3.6221e-05 27609. 371.00 392.40 3.8632 0.79805 0.98660 162.68 2.8658 3.0955 0.0031365
-158.62 0.00013985 5.8848e-08 -140.64 -140.64 -0.83231 703.34 0.0014218 -140.64 -140.64 -0.83231 1.3358 1.9492 1938.5 -0.0075573 1874.8 0.19705 4.4652e-05 22395. 371.80 393.39 3.8307 0.80164 0.99020 163.32 2.8002 3.1230 0.0031918
-157.62 0.00017320 7.2139e-08 -138.69 -138.69 -0.81536 702.32 0.0014238 -138.69 -138.69 -0.81536 1.3356 1.9506 1931.7 -0.0075484 1800.3 0.19658 5.4822e-05 18241. 372.60 394.38 3.7990 0.80522 0.99378 163.96 2.7367 3.1505 0.0032474
-156.62 0.00021364 8.8079e-08 -136.74 -136.74 -0.79854 701.31 0.0014259 -136.74 -136.74 -0.79854 1.3354 1.9520 1924.9 -0.0075393 1730.5 0.19611 6.7040e-05 14916. 373.41 395.38 3.7680 0.80878 0.99734 164.60 2.6752 3.1780 0.0033033
-155.62 0.00026248 1.0713e-07 -134.79 -134.79 -0.78185 700.30 0.0014280 -134.79 -134.79 -0.78185 1.3352 1.9534 1918.1 -0.0075302 1664.9 0.19564 8.1666e-05 12245. 374.22 396.38 3.7377 0.81232 1.0009 165.24 2.6157 3.2055 0.0033595
-154.62 0.00032125 1.2980e-07 -132.83 -132.83 -0.76530 699.29 0.0014300 -132.83 -132.83 -0.76530 1.3350 1.9548 1911.3 -0.0075209 1603.3 0.19516 9.9109e-05 10090. 375.03 397.38 3.7081 0.81585 1.0044 165.87 2.5580 3.2330 0.0034160
-153.62 0.00039171 1.5670e-07 -130.88 -130.88 -0.74887 698.27 0.0014321 -130.88 -130.88 -0.74887 1.3349 1.9563 1904.5 -0.0075114 1545.3 0.19468 0.00011984 8344.6 375.85 398.39 3.6792 0.81935 1.0079 166.50 2.5022 3.2606 0.0034727
-152.62 0.00047590 1.8850e-07 -128.92 -128.92 -0.73256 697.26 0.0014342 -128.92 -128.92 -0.73256 1.3348 1.9577 1897.8 -0.0075019 1490.6 0.19419 0.00014439 6925.9 376.67 399.40 3.6509 0.82284 1.0114 167.13 2.4481 3.2881 0.0035298
-151.62 0.00057613 2.2596e-07 -126.96 -126.96 -0.71638 696.25 0.0014363 -126.96 -126.96 -0.71638 1.3346 1.9592 1891.0 -0.0074922 1438.9 0.19370 0.00017336 5768.4 377.49 400.41 3.6232 0.82631 1.0149 167.76 2.3957 3.3156 0.0035872
-150.62 0.00069507 2.6996e-07 -125.00 -125.00 -0.70032 695.24 0.0014384 -125.00 -125.00 -0.70032 1.3345 1.9606 1884.2 -0.0074824 1390.2 0.19320 0.00020744 4820.7 378.32 401.42 3.5962 0.82976 1.0183 168.38 2.3448 3.3431 0.0036448
-149.62 0.00083574 3.2144e-07 -123.04 -123.04 -0.68437 694.23 0.0014404 -123.04 -123.04 -0.68438 1.3345 1.9621 1877.4 -0.0074724 1344.0 0.19270 0.00024740 4042.0 379.15 402.44 3.5697 0.83319 1.0218 169.00 2.2956 3.3706 0.0037027
-148.62 0.0010016 3.8152e-07 -121.08 -121.08 -0.66855 693.22 0.0014425 -121.08 -121.08 -0.66855 1.3344 1.9636 1870.7 -0.0074623 1300.3 0.19220 0.00029412 3400.0 379.99 403.47 3.5438 0.83661 1.0252 169.62 2.2478 3.3982 0.0037610
-147.62 0.0011965 4.5141e-07 -119.11 -119.11 -0.65284 692.21 0.0014447 -119.11 -119.11 -0.65284 1.3343 1.9651 1863.9 -0.0074521 1258.9 0.19169 0.00034856 2869.0 380.83 404.49 3.5185 0.84001 1.0286 170.24 2.2014 3.4257 0.0038195
-146.62 0.0014249 5.3246e-07 -117.15 -117.15 -0.63724 691.20 0.0014468 -117.15 -117.15 -0.63724 1.3343 1.9666 1857.2 -0.0074417 1219.6 0.19117 0.00041181 2428.3 381.67 405.52 3.4938 0.84340 1.0320 170.85 2.1565 3.4532 0.0038783
-145.62 0.0016917 6.2618e-07 -115.18 -115.18 -0.62175 690.19 0.0014489 -115.18 -115.18 -0.62175 1.3343 1.9682 1850.4 -0.0074312 1182.3 0.19066 0.00048510 2061.4 382.51 406.56 3.4695 0.84677 1.0353 171.46 2.1128 3.4807 0.0039374
-144.62 0.0020026 7.3426e-07 -113.21 -113.21 -0.60637 689.18 0.0014510 -113.21 -113.21 -0.60637 1.3343 1.9697 1843.7 -0.0074206 1146.8 0.19014 0.00056976 1755.1 383.36 407.59 3.4458 0.85012 1.0387 172.07 2.0705 3.5082 0.0039967
-143.62 0.0023637 8.5855e-07 -111.24 -111.24 -0.59109 688.17 0.0014531 -111.24 -111.24 -0.59110 1.3343 1.9713 1836.9 -0.0074098 1113.0 0.18962 0.00066731 1498.6 384.21 408.63 3.4226 0.85346 1.0420 172.68 2.0294 3.5358 0.0040564
-142.62 0.0027820 1.0011e-06 -109.27 -109.27 -0.57593 687.16 0.0014553 -109.27 -109.27 -0.57593 1.3343 1.9728 1830.2 -0.0073988 1080.8 0.18909 0.00077939 1283.1 385.07 409.68 3.3999 0.85679 1.0454 173.28 1.9896 3.5633 0.0041164
-141.62 0.0032653 1.1641e-06 -107.30 -107.30 -0.56086 686.15 0.0014574 -107.30 -107.30 -0.56087 1.3343 1.9744 1823.5 -0.0073878 1050.1 0.18856 0.00090784 1101.5 385.93 410.72 3.3777 0.86011 1.0487 173.88 1.9508 3.5908 0.0041766
-140.62 0.0038222 1.3502e-06 -105.32 -105.32 -0.54590 685.14 0.0014596 -105.32 -105.32 -0.54591 1.3344 1.9760 1816.7 -0.0073765 1020.7 0.18803 0.0010547 948.16 386.79 411.77 3.3560 0.86341 1.0520 174.48 1.9133 3.6183 0.0042372
-139.62 0.0044623 1.5619e-06 -103.34 -103.34 -0.53104 684.13 0.0014617 -103.34 -103.34 -0.53105 1.3344 1.9776 1810.0 -0.0073651 992.74 0.18749 0.0012221 818.26 387.65 412.83 3.3347 0.86670 1.0553 175.08 1.8768 3.6459 0.0042980
-138.62 0.0051963 1.8022e-06 -101.37 -101.37 -0.51628 683.12 0.0014639 -101.37 -101.37 -0.51629 1.3345 1.9792 1803.3 -0.0073536 965.97 0.18695 0.0014125 707.94 388.52 413.88 3.3139 0.86998 1.0586 175.67 1.8413 3.6734 0.0043592
-137.62 0.0060358 2.0744e-06 -99.385 -99.385 -0.50161 682.11 0.0014660 -99.386 -99.386 -0.50162 1.3346 1.9808 1796.6 -0.0073419 940.35 0.18641 0.0016287 614.00 389.39 414.94 3.2935 0.87325 1.0619 176.26 1.8069 3.7009 0.0044206
-136.62 0.0069938 2.3820e-06 -97.403 -97.403 -0.48704 681.10 0.0014682 -97.404 -97.404 -0.48705 1.3347 1.9825 1789.9 -0.0073301 915.81 0.18586 0.0018733 533.80 390.26 416.00 3.2735 0.87650 1.0651 176.85 1.7734 3.7284 0.0044823
-135.62 0.0080843 2.7287e-06 -95.420 -95.420 -0.47257 680.09 0.0014704 -95.421 -95.421 -0.47258 1.3348 1.9841 1783.2 -0.0073180 892.30 0.18531 0.0021497 465.17 391.14 417.07 3.2540 0.87975 1.0684 177.44 1.7409 3.7559 0.0045443
-134.62 0.0093230 3.1188e-06 -93.435 -93.434 -0.45819 679.08 0.0014726 -93.436 -93.436 -0.45820 1.3350 1.9858 1776.5 -0.0073059 869.75 0.18476 0.0024613 406.30 392.02 418.14 3.2348 0.88299 1.0716 178.02 1.7093 3.7834 0.0046066
-133.62 0.010727 3.5566e-06 -91.448 -91.448 -0.44390 678.07 0.0014748 -91.450 -91.449 -0.44391 1.3351 1.9875 1769.8 -0.0072935 848.11 0.18421 0.0028116 355.67 392.91 419.21 3.2161 0.88622 1.0749 178.61 1.6786 3.8109 0.0046691
-132.62 0.012315 4.0469e-06 -89.459 -89.459 -0.42969 677.06 0.0014770 -89.461 -89.461 -0.42971 1.3353 1.9892 1763.1 -0.0072810 827.32 0.18365 0.0032049 312.03 393.79 420.29 3.1977 0.88944 1.0781 179.19 1.6488 3.8385 0.0047320
-131.62 0.014106 4.5950e-06 -87.469 -87.469 -0.41558 676.04 0.0014792 -87.471 -87.471 -0.41560 1.3354 1.9909 1756.4 -0.0072684 807.34 0.18309 0.0036453 274.33 394.68 421.36 3.1798 0.89266 1.0813 179.76 1.6197 3.8660 0.0047951
-130.62 0.016124 5.2063e-06 -85.477 -85.477 -0.40155 675.03 0.0014814 -85.479 -85.479 -0.40157 1.3356 1.9926 1749.7 -0.0072555 788.12 0.18253 0.0041375 241.69 395.58 422.44 3.1622 0.89586 1.0846 180.34 1.5915 3.8935 0.0048586
-129.62 0.018392 5.8869e-06 -83.483 -83.483 -0.38761 674.02 0.0014836 -83.486 -83.486 -0.38763 1.3358 1.9944 1743.0 -0.0072425 769.63 0.18196 0.0046867 213.37 396.47 423.53 3.1450 0.89906 1.0878 180.91 1.5641 3.9210 0.0049223
-128.62 0.020935 6.6431e-06 -81.487 -81.487 -0.37376 673.01 0.0014859 -81.491 -81.490 -0.37378 1.3360 1.9961 1736.3 -0.0072294 751.83 0.18140 0.0052981 188.75 397.37 424.62 3.1281 0.90226 1.0910 181.48 1.5374 3.9485 0.0049863
-127.62 0.023783 7.4818e-06 -79.490 -79.490 -0.35999 672.00 0.0014881 -79.494 -79.493 -0.36001 1.3363 1.9979 1729.6 -0.0072160 734.67 0.18083 0.0059776 167.29 398.27 425.71 3.1116 0.90545 1.0942 182.05 1.5114 3.9760 0.0050506
-126.62 0.026966 8.4100e-06 -77.491 -77.490 -0.34629 670.98 0.0014904 -77.495 -77.495 -0.34632 1.3365 1.9997 1722.9 -0.0072025 718.14 0.18025 0.0067313 148.56 399.18 426.80 3.0954 0.90863 1.0974 182.62 1.4861 4.0035 0.0051152
-125.62 0.030515 9.4358e-06 -75.490 -75.489 -0.33268 669.97 0.0014926 -75.494 -75.494 -0.33272 1.3368 2.0015 1716.2 -0.0071888 702.18 0.17968 0.0075660 132.17 400.09 427.89 3.0795 0.91181 1.1006 183.18 1.4615 4.0310 0.0051800
-124.62 0.034467 1.0567e-05 -73.487 -73.486 -0.31915 668.95 0.0014949 -73.492 -73.492 -0.31919 1.3371 2.0033 1709.5 -0.0071749 686.79 0.17910 0.0084885 117.81 401.00 428.99 3.0640 0.91499 1.1038 183.74 1.4375 4.0584 0.0052452
-123.62 0.038859 1.1813e-05 -71.482 -71.481 -0.30570 667.94 0.0014971 -71.488 -71.487 -0.30574 1.3374 2.0051 1702.8 -0.0071609 671.93 0.17852 0.0095065 105.19 401.91 430.10 3.0488 0.91816 1.1070 184.30 1.4141 4.0859 0.0053106
-122.62 0.043731 1.3182e-05 -69.475 -69.475 -0.29232 666.92 0.0014994 -69.482 -69.481 -0.29237 1.3377 2.0070 1696.2 -0.0071466 657.57 0.17794 0.010628 94.092 402.83 431.20 3.0339 0.92134 1.1102 184.86 1.3913 4.1134 0.0053764
-121.62 0.049128 1.4685e-05 -67.467 -67.466 -0.27902 665.91 0.0015017 -67.474 -67.473 -0.27907 1.3380 2.0089 1689.5 -0.0071322 643.70 0.17736 0.011861 84.309 403.75 432.31 3.0193 0.92451 1.1134 185.41 1.3691 4.1409 0.0054424
-120.62 0.055096 1.6331e-05 -65.456 -65.455 -0.26580 664.89 0.0015040 -65.464 -65.463 -0.26585 1.3384 2.0107 1682.8 -0.0071176 630.28 0.17678 0.013215 75.669 404.67 433.42 3.0050 0.92767 1.1166 185.96 1.3475 4.1683 0.0055087
-119.62 0.061684 1.8132e-05 -63.444 -63.443 -0.25265 663.87 0.0015063 -63.452 -63.452 -0.25271 1.3387 2.0126 1676.1 -0.0071028 617.30 0.17619 0.014700 68.027 405.60 434.53 2.9909 0.93084 1.1198 186.51 1.3264 4.1958 0.0055752
-118.62 0.068946 2.0098e-05 -61.429 -61.428 -0.23957 662.86 0.0015086 -61.439 -61.438 -0.23963 1.3391 2.0146 1669.4 -0.0070878 604.74 0.17560 0.016325 61.255 406.53 435.64 2.9772 0.93401 1.1231 187.06 1.3058 4.2233 0.0056421
-117.62 0.076937 2.2243e-05 -59.413 -59.411 -0.22656 661.84 0.0015109 -59.423 -59.422 -0.22663 1.3395 2.0165 1662.8 -0.0070726 592.58 0.17501 0.018101 55.245 407.46 436.76 2.9638 0.93718 1.1263 187.60 1.2857 4.2507 0.0057092
-116.62 0.085718 2.4578e-05 -57.394 -57.393 -0.21362 660.82 0.0015133 -57.406 -57.405 -0.21370 1.3400 2.0184 1656.1 -0.0070573 580.80 0.17442 0.020040 49.901 408.39 437.88 2.9506 0.94035 1.1295 188.14 1.2660 4.2782 0.0057767
-115.62 0.095353 2.7118e-05 -55.374 -55.372 -0.20076 659.80 0.0015156 -55.386 -55.385 -0.20084 1.3404 2.0204 1649.4 -0.0070417 569.38 0.17383 0.022152 45.142 409.33 439.01 2.9377 0.94352 1.1327 188.68 1.2468 4.3056 0.0058444
-114.62 0.10591 2.9875e-05 -53.351 -53.349 -0.18796 658.78 0.0015180 -53.365 -53.364 -0.18805 1.3409 2.0224 1642.7 -0.0070260 558.32 0.17323 0.024451 40.898 410.27 440.13 2.9250 0.94669 1.1360 189.22 1.2281 4.3330 0.0059123
-113.62 0.11746 3.2864e-05 -51.326 -51.324 -0.17522 657.76 0.0015203 -51.342 -51.340 -0.17533 1.3413 2.0244 1636.0 -0.0070100 547.59 0.17264 0.026949 37.107 411.21 441.26 2.9126 0.94987 1.1392 189.75 1.2097 4.3604 0.0059806
-112.62 0.13008 3.6100e-05 -49.300 -49.297 -0.16256 656.73 0.0015227 -49.316 -49.315 -0.16267 1.3418 2.0264 1629.3 -0.0069938 537.18 0.17204 0.029661 33.715 412.16 442.39 2.9005 0.95305 1.1424 190.28 1.1918 4.3879 0.0060491
-111.62 0.14384 3.9599e-05 -47.271 -47.268 -0.14996 655.71 0.0015251 -47.289 -47.287 -0.15008 1.3424 2.0285 1622.7 -0.0069774 527.08 0.17144 0.032600 30.675 413.10 443.53 2.8885 0.95623 1.1457 190.81 1.1742 4.4153 0.0061180
-110.62 0.15884 4.3378e-05 -45.239 -45.236 -0.13742 654.69 0.0015274 -45.259 -45.258 -0.13755 1.3429 2.0305 1616.0 -0.0069609 517.28 0.17084 0.035781 27.948 414.06 444.66 2.8769 0.95942 1.1490 191.34 1.1570 4.4427 0.0061871
-109.62 0.17516 4.7454e-05 -43.206 -43.203 -0.12495 653.66 0.0015298 -43.228 -43.226 -0.12509 1.3435 2.0326 1609.3 -0.0069441 507.76 0.17024 0.039220 25.497 415.01 445.80 2.8654 0.96261 1.1522 191.86 1.1402 4.4701 0.0062564
-108.62 0.19290 5.1844e-05 -41.170 -41.167 -0.11254 652.64 0.0015322 -41.194 -41.192 -0.11269 1.3441 2.0347 1602.6 -0.0069271 498.51 0.16964 0.042933 23.292 415.96 446.94 2.8542 0.96581 1.1555 192.38 1.1236 4.4974 0.0063261
-107.62 0.21215 5.6566e-05 -39.133 -39.129 -0.10019 651.61 0.0015347 -39.158 -39.156 -0.10036 1.3447 2.0369 1595.9 -0.0069098 489.52 0.16903 0.046937 21.305 416.92 448.09 2.8433 0.96901 1.1588 192.90 1.1075 4.5248 0.0063960
-106.62 0.23301 6.1640e-05 -37.092 -37.088 -0.087902 650.58 0.0015371 -37.120 -37.118 -0.088082 1.3453 2.0390 1589.2 -0.0068924 480.79 0.16843 0.051250 19.512 417.88 449.23 2.8325 0.97222 1.1621 193.41 1.0916 4.5522 0.0064662
-105.62 0.25561 6.7086e-05 -35.050 -35.045 -0.075674 649.55 0.0015395 -35.080 -35.078 -0.075868 1.3460 2.0412 1582.6 -0.0068747 472.30 0.16782 0.055891 17.892 418.85 450.38 2.8220 0.97544 1.1655 193.93 1.0760 4.5795 0.0065367
-104.62 0.28004 7.2924e-05 -33.005 -33.000 -0.063505 648.52 0.0015420 -33.038 -33.035 -0.063714 1.3467 2.0434 1575.9 -0.0068569 464.04 0.16721 0.060878 16.426 419.81 451.53 2.8116 0.97867 1.1688 194.44 1.0608 4.6069 0.0066074
-103.62 0.30643 7.9174e-05 -30.958 -30.952 -0.051393 647.49 0.0015444 -30.994 -30.991 -0.051619 1.3474 2.0456 1569.2 -0.0068387 456.00 0.16660 0.066231 15.099 420.78 452.68 2.8015 0.98191 1.1722 194.94 1.0458 4.6342 0.0066785
-102.62 0.33490 8.5860e-05 -28.909 -28.902 -0.039339 646.46 0.0015469 -28.947 -28.944 -0.039582 1.3481 2.0478 1562.5 -0.0068204 448.18 0.16600 0.071971 13.894 421.75 453.84 2.7916 0.98516 1.1755 195.44 1.0310 4.6615 0.0067498
-101.62 0.36558 9.3002e-05 -26.857 -26.850 -0.027340 645.43 0.0015494 -26.898 -26.894 -0.027602 1.3489 2.0501 1555.8 -0.0068018 440.57 0.16539 0.078120 12.801 422.73 454.99 2.7818 0.98841 1.1789 195.95 1.0166 4.6888 0.0068213
-100.62 0.39862 0.00010062 -24.802 -24.795 -0.015398 644.39 0.0015519 -24.847 -24.843 -0.015678 1.3497 2.0524 1549.1 -0.0067830 433.16 0.16478 0.084699 11.807 423.70 456.15 2.7723 0.99168 1.1823 196.44 1.0024 4.7161 0.0068932
-99.625 0.43414 0.00010875 -22.745 -22.737 -0.0035094 643.36 0.0015544 -22.794 -22.789 -0.0038103 1.3505 2.0547 1542.4 -0.0067639 425.95 0.16416 0.091731 10.901 424.68 457.31 2.7630 0.99496 1.1858 196.94 0.98838 4.7434 0.0069653
-98.625 0.47230 0.00011741 -20.686 -20.677 0.0083251 642.32 0.0015569 -20.738 -20.733 0.0080027 1.3514 2.0570 1535.7 -0.0067447 418.92 0.16355 0.099240 10.077 425.66 458.48 2.7538 0.99825 1.1892 197.43 0.97464 4.7707 0.0070377
-97.625 0.51325 0.00012661 -18.624 -18.614 0.020107 641.28 0.0015594 -18.680 -18.674 0.019762 1.3522 2.0594 1529.0 -0.0067251 412.07 0.16294 0.10725 9.3239 426.65 459.64 2.7448 1.0016 1.1927 197.92 0.96112 4.7979 0.0071103
-96.625 0.55714 0.00013640 -16.559 -16.548 0.031836 640.24 0.0015619 -16.620 -16.614 0.031467 1.3531 2.0618 1522.3 -0.0067053 405.39 0.16233 0.11579 8.6365 427.63 460.81 2.7360 1.0049 1.1962 198.40 0.94783 4.8251 0.0071832
-95.625 0.60416 0.00014679 -14.492 -14.480 0.043514 639.20 0.0015645 -14.557 -14.550 0.043120 1.3540 2.0642 1515.7 -0.0066853 398.88 0.16171 0.12488 8.0078 428.62 461.98 2.7274 1.0082 1.1997 198.88 0.93475 4.8524 0.0072564
-94.625 0.65446 0.00015782 -12.422 -12.409 0.055142 638.16 0.0015670 -12.491 -12.484 0.054721 1.3550 2.0667 1509.0 -0.0066650 392.53 0.16110 0.13455 7.4323 429.61 463.15 2.7189 1.0116 1.2032 199.36 0.92188 4.8796 0.0073299
-93.625 0.70822 0.00016950 -10.349 -10.336 0.066719 637.12 0.0015696 -10.424 -10.416 0.066271 1.3560 2.0691 1502.3 -0.0066444 386.34 0.16048 0.14482 6.9050 430.60 464.32 2.7107 1.0149 1.2068 199.83 0.90921 4.9068 0.0074036
-92.625 0.76564 0.00018188 -8.2735 -8.2590 0.078248 636.07 0.0015722 -8.3535 -8.3452 0.077771 1.3570 2.0716 1495.6 -0.0066236 380.31 0.15987 0.15573 6.4212 431.60 465.49 2.7025 1.0183 1.2104 200.30 0.89673 4.9340 0.0074776
-91.625 0.82689 0.00019497 -6.1953 -6.1797 0.089728 635.02 0.0015747 -6.2808 -6.2719 0.089220 1.3580 2.0742 1488.9 -0.0066025 374.41 0.15925 0.16731 5.9769 432.59 466.67 2.6946 1.0217 1.2140 200.77 0.88445 4.9611 0.0075518
-90.625 0.89218 0.00020880 -4.1142 -4.0974 0.10116 633.98 0.0015773 -4.2056 -4.1959 0.10062 1.3591 2.0767 1482.2 -0.0065811 368.66 0.15864 0.17958 5.5685 433.59 467.84 2.6868 1.0251 1.2177 201.24 0.87236 4.9883 0.0076263
-89.625 0.96172 0.00022341 -2.0303 -2.0121 0.11255 632.93 0.0015800 -2.1279 -2.1174 0.11197 1.3602 2.0793 1475.5 -0.0065595 363.05 0.15802 0.19258 5.1928 434.59 469.02 2.6791 1.0285 1.2213 201.70 0.86045 5.0154 0.0077011
-88.625 1.0357 0.00023883 0.056528 0.076092 0.12389 631.88 0.0015826 -0.047516 -0.036215 0.12328 1.3613 2.0819 1468.8 -0.0065375 357.56 0.15740 0.20633 4.8466 435.59 470.20 2.6717 1.0320 1.2250 202.15 0.84873 5.0425 0.0077761
-87.625 1.1144 0.00025508 2.1463 2.1674 0.13518 630.83 0.0015852 2.0355 2.0476 0.13454 1.3625 2.0846 1462.1 -0.0065153 352.21 0.15679 0.22087 4.5276 436.60 471.39 2.6643 1.0354 1.2288 202.61 0.83718 5.0696 0.0078514
-86.625 1.1979 0.00027221 4.2391 4.2617 0.14643 629.77 0.0015879 4.1211 4.1342 0.14575 1.3637 2.0873 1455.4 -0.0064928 346.98 0.15617 0.23623 4.2331 437.61 472.57 2.6571 1.0389 1.2325 203.06 0.82580 5.0967 0.0079270
-85.625 1.2866 0.00029023 6.3349 6.3592 0.15764 628.72 0.0015905 6.2094 6.2235 0.15691 1.3649 2.0900 1448.8 -0.0064701 341.87 0.15555 0.25245 3.9612 438.61 473.75 2.6501 1.0424 1.2363 203.50 0.81460 5.1237 0.0080028
-84.625 1.3806 0.00030919 8.4337 8.4598 0.16880 627.66 0.0015932 8.3004 8.3155 0.16803 1.3661 2.0927 1442.1 -0.0064470 336.87 0.15494 0.26956 3.7097 439.63 474.94 2.6432 1.0460 1.2402 203.95 0.80356 5.1508 0.0080789
-83.625 1.4803 0.00032911 10.536 10.564 0.17992 626.60 0.0015959 10.394 10.410 0.17911 1.3674 2.0955 1435.4 -0.0064236 331.99 0.15432 0.28760 3.4771 440.64 476.13 2.6364 1.0495 1.2440 204.38 0.79269 5.1778 0.0081553
-82.625 1.5858 0.00035003 12.641 12.671 0.19100 625.54 0.0015986 12.491 12.508 0.19014 1.3687 2.0983 1428.7 -0.0063999 327.22 0.15370 0.30659 3.2616 441.65 477.31 2.6298 1.0531 1.2479 204.82 0.78199 5.2048 0.0082319
-81.625 1.6975 0.00037199 14.749 14.781 0.20204 624.48 0.0016013 14.590 14.609 0.20113 1.3700 2.1012 1422.0 -0.0063759 322.55 0.15309 0.32659 3.0619 442.67 478.50 2.6233 1.0567 1.2519 205.25 0.77144 5.2318 0.0083088
-80.625 1.8155 0.00039501 16.861 16.895 0.21303 623.42 0.0016041 16.692 16.712 0.21208 1.3714 2.1041 1415.4 -0.0063516 317.99 0.15247 0.34763 2.8766 443.69 479.70 2.6169 1.0603 1.2558 205.67 0.76106 5.2587 0.0083860
-79.625 1.9402 0.00041914 18.976 19.012 0.22399 622.36 0.0016068 18.797 18.819 0.22299 1.3728 2.1070 1408.7 -0.0063270 313.52 0.15186 0.36974 2.7046 444.71 480.89 2.6106 1.0639 1.2598 206.10 0.75083 5.2857 0.0084634
-78.625 2.0718 0.00044440 21.094 21.133 0.23491 621.29 0.0016096 20.905 20.928 0.23385 1.3742 2.1099 1402.0 -0.0063021 309.15 0.15124 0.39296 2.5448 445.73 482.08 2.6045 1.0676 1.2639 206.51 0.74076 5.3126 0.0085411
-77.625 2.2107 0.00047083 23.215 23.257 0.24578 620.22 0.0016123 23.016 23.040 0.24468 1.3757 2.1129 1395.3 -0.0062768 304.88 0.15062 0.41735 2.3961 446.75 483.27 2.5985 1.0712 1.2680 206.93 0.73084 5.3395 0.0086190
-76.625 2.3571 0.00049847 25.340 25.385 0.25662 619.15 0.0016151 25.130 25.156 0.25546 1.3772 2.1159 1388.7 -0.0062512 300.69 0.15001 0.44292 2.2577 447.78 484.47 2.5926 1.0749 1.2721 207.34 0.72107 5.3664 0.0086972
-75.625 2.5113 0.00052736 27.469 27.516 0.26743 618.08 0.0016179 27.247 27.275 0.26620 1.3787 2.1190 1382.0 -0.0062253 296.59 0.14939 0.46974 2.1288 448.81 485.67 2.5869 1.0787 1.2762 207.74 0.71146 5.3933 0.0087757
-74.625 2.6736 0.00055753 29.601 29.651 0.27819 617.01 0.0016207 29.366 29.396 0.27691 1.3802 2.1221 1375.4 -0.0061990 292.58 0.14878 0.49783 2.0087 449.83 486.86 2.5812 1.0824 1.2804 208.14 0.70200 5.4201 0.0088544
-73.625 2.8444 0.00058901 31.736 31.790 0.28892 615.93 0.0016236 31.489 31.521 0.28758 1.3818 2.1252 1368.7 -0.0061724 288.65 0.14816 0.52725 1.8966 450.86 488.06 2.5757 1.0862 1.2847 208.54 0.69268 5.4469 0.0089334
-72.625 3.0240 0.00062185 33.876 33.933 0.29962 614.85 0.0016264 33.615 33.649 0.29821 1.3834 2.1284 1362.0 -0.0061454 284.81 0.14755 0.55804 1.7920 451.90 489.26 2.5703 1.0900 1.2889 208.93 0.68351 5.4737 0.0090126
-71.625 3.2127 0.00065607 36.018 36.079 0.31028 613.78 0.0016293 35.745 35.781 0.30880 1.3851 2.1316 1355.4 -0.0061181 281.03 0.14694 0.59024 1.6942 452.93 490.46 2.5650 1.0938 1.2932 209.32 0.67448 5.5005 0.0090922
-70.625 3.4108 0.00069173 38.165 38.229 0.32090 612.69 0.0016321 37.877 37.915 0.31935 1.3867 2.1349 1348.7 -0.0060904 277.34 0.14632 0.62390 1.6028 453.96 491.66 2.5598 1.0976 1.2976 209.70 0.66560 5.5273 0.0091720
-69.625 3.6187 0.00072885 40.315 40.383 0.33149 611.61 0.0016350 40.013 40.053 0.32987 1.3884 2.1382 1342.1 -0.0060624 273.72 0.14571 0.65906 1.5173 455.00 492.86 2.5547 1.1015 1.3020 210.08 0.65687 5.5540 0.0092520
-68.625 3.8367 0.00076747 42.469 42.542 0.34205 610.53 0.0016379 42.152 42.195 0.34036 1.3902 2.1415 1335.5 -0.0060339 270.17 0.14510 0.69577 1.4372 456.04 494.06 2.5497 1.1054 1.3064 210.45 0.64827 5.5807 0.0093324
-67.625 4.0652 0.00080764 44.627 44.704 0.35258 609.44 0.0016409 44.294 44.340 0.35080 1.3919 2.1449 1328.8 -0.0060051 266.69 0.14449 0.73408 1.3622 457.08 495.26 2.5448 1.1093 1.3109 210.82 0.63981 5.6074 0.0094130
-66.625 4.3046 0.00084938 46.789 46.870 0.36307 608.35 0.0016438 46.439 46.488 0.36122 1.3937 2.1483 1322.2 -0.0059760 263.28 0.14388 0.77404 1.2919 458.12 496.46 2.5400 1.1133 1.3154 211.18 0.63150 5.6341 0.0094939
-65.625 4.5551 0.00089274 48.955 49.041 0.37353 607.26 0.0016467 48.588 48.640 0.37160 1.3955 2.1518 1315.6 -0.0059464 259.93 0.14327 0.81570 1.2259 459.16 497.67 2.5353 1.1172 1.3200 211.54 0.62332 5.6608 0.0095750
-64.625 4.8173 0.00093775 51.124 51.215 0.38396 606.16 0.0016497 50.740 50.795 0.38195 1.3974 2.1553 1308.9 -0.0059164 256.65 0.14266 0.85910 1.1640 460.21 498.87 2.5307 1.1212 1.3246 211.89 0.61527 5.6874 0.0096564
-63.625 5.0915 0.00098446 53.298 53.394 0.39436 605.07 0.0016527 52.896 52.954 0.39226 1.3993 2.1588 1302.3 -0.0058861 253.42 0.14205 0.90429 1.1058 461.25 500.07 2.5262 1.1252 1.3293 212.24 0.60736 5.7140 0.0097382
-62.625 5.3781 0.0010329 55.476 55.578 0.40473 603.97 0.0016557 55.055 55.117 0.40254 1.4012 2.1624 1295.7 -0.0058553 250.26 0.14144 0.95134 1.0511 462.30 501.28 2.5218 1.1293 1.3340 212.58 0.59958 5.7406 0.0098201
-61.625 5.6774 0.0010831 57.658 57.765 0.41507 602.87 0.0016587 57.218 57.283 0.41279 1.4031 2.1660 1289.1 -0.0058241 247.16 0.14084 1.0003 0.99972 463.35 502.48 2.5175 1.1333 1.3387 212.92 0.59194 5.7672 0.0099024
-60.625 5.9899 0.0011351 59.844 59.957 0.42538 601.77 0.0016618 59.385 59.453 0.42301 1.4051 2.1697 1282.5 -0.0057925 244.12 0.14023 1.0512 0.95131 464.40 503.68 2.5133 1.1374 1.3435 213.26 0.58442 5.7938 0.0099850
-59.625 6.3160 0.0011890 62.035 62.154 0.43566 600.66 0.0016648 61.554 61.627 0.43320 1.4071 2.1734 1275.9 -0.0057605 241.13 0.13962 1.1041 0.90573 465.45 504.89 2.5091 1.1415 1.3483 213.58 0.57704 5.8203 0.010068
-58.625 6.6561 0.0012447 64.229 64.355 0.44592 599.55 0.0016679 63.728 63.805 0.44335 1.4091 2.1772 1269.3 -0.0057280 238.19 0.13902 1.1591 0.86277 466.50 506.09 2.5051 1.1457 1.3532 213.90 0.56978 5.8468 0.010151
-57.625 7.0107 0.0013024 66.428 66.561 0.45615 598.44 0.0016710 65.905 65.986 0.45348 1.4111 2.1810 1262.7 -0.0056951 235.31 0.13842 1.2161 0.82228 467.55 507.30 2.5011 1.1498 1.3581 214.22 0.56265 5.8733 0.010234
-56.625 7.3801 0.0013620 68.632 68.771 0.46635 597.33 0.0016741 68.086 68.172 0.46358 1.4132 2.1848 1256.1 -0.0056617 232.48 0.13781 1.2754 0.78408 468.60 508.50 2.4972 1.1540 1.3631 214.53 0.55564 5.8998 0.010318
-55.625 7.7648 0.0014236 70.840 70.986 0.47652 596.22 0.0016772 70.271 70.361 0.47364 1.4153 2.1887 1249.5 -0.0056279 229.69 0.13721 1.3369 0.74802 469.66 509.71 2.4934 1.1582 1.3681 214.84 0.54875 5.9263 0.010402
-54.625 8.1652 0.0014872 73.052 73.206 0.48667 595.10 0.0016804 72.460 72.554 0.48368 1.4174 2.1927 1242.9 -0.0055937 226.96 0.13661 1.4006 0.71396 470.72 510.91 2.4897 1.1624 1.3731 215.14 0.54199 5.9527 0.010486
-53.625 8.5819 0.0015530 75.269 75.431 0.49679 593.98 0.0016836 74.652 74.752 0.49369 1.4196 2.1967 1236.3 -0.0055589 224.27 0.13601 1.4667 0.68178 471.77 512.11 2.4860 1.1667 1.3782 215.43 0.53535 5.9792 0.010571
-52.625 9.0151 0.0016208 77.491 77.661 0.50688 592.86 0.0016867 76.849 76.954 0.50368 1.4218 2.2007 1229.8 -0.0055237 221.63 0.13541 1.5353 0.65136 472.83 513.32 2.4824 1.1710 1.3834 215.72 0.52882 6.0056 0.010656
-51.625 9.4655 0.0016908 79.717 79.895 0.51696 591.73 0.0016900 79.049 79.159 0.51363 1.4240 2.2048 1223.2 -0.0054880 219.04 0.13482 1.6062 0.62258 473.89 514.52 2.4789 1.1752 1.3886 216.00 0.52241 6.0320 0.010741
-50.625 9.9335 0.0017629 81.947 82.135 0.52700 590.60 0.0016932 81.253 81.369 0.52356 1.4262 2.2089 1216.6 -0.0054519 216.48 0.13422 1.6797 0.59534 474.95 515.73 2.4755 1.1796 1.3938 216.28 0.51612 6.0584 0.010827
-49.625 10.419 0.0018373 84.183 84.380 0.53703 589.47 0.0016964 83.462 83.584 0.53347 1.4285 2.2131 1210.1 -0.0054152 213.98 0.13363 1.7558 0.56954 476.01 516.93 2.4722 1.1839 1.3991 216.55 0.50994 6.0848 0.010913
-48.625 10.924 0.0019139 86.423 86.630 0.54703 588.34 0.0016997 85.674 85.802 0.54334 1.4308 2.2173 1203.5 -0.0053780 211.51 0.13303 1.8345 0.54510 477.07 518.13 2.4689 1.1883 1.4044 216.82 0.50387 6.1112 0.010999
-47.625 11.448 0.0019928 88.668 88.885 0.55700 587.20 0.0017030 87.891 88.025 0.55319 1.4331 2.2216 1196.9 -0.0053403 209.08 0.13244 1.9159 0.52194 478.14 519.33 2.4657 1.1927 1.4098 217.08 0.49792 6.1375 0.011085
-46.625 11.991 0.0020741 90.918 91.145 0.56696 586.06 0.0017063 90.111 90.252 0.56302 1.4354 2.2259 1190.4 -0.0053020 206.69 0.13185 2.0001 0.49997 479.20 520.53 2.4625 1.1971 1.4153 217.33 0.49207 6.1639 0.011172
-45.625 12.554 0.0021577 93.173 93.410 0.57689 584.92 0.0017096 92.336 92.484 0.57282 1.4378 2.2303 1183.8 -0.0052633 204.34 0.13126 2.0872 0.47912 480.27 521.74 2.4594 1.2015 1.4207 217.58 0.48633 6.1902 0.011259
-44.625 13.137 0.0022437 95.433 95.681 0.58680 583.77 0.0017130 94.565 94.720 0.58260 1.4402 2.2347 1177.3 -0.0052240 202.03 0.13067 2.1771 0.45933 481.33 522.94 2.4564 1.2060 1.4263 217.82 0.48069 6.2165 0.011347
-43.625 13.741 0.0023321 97.698 97.957 0.59669 582.62 0.0017164 96.799 96.961 0.59235 1.4426 2.2392 1170.7 -0.0051841 199.75 0.13008 2.2700 0.44053 482.40 524.14 2.4535 1.2104 1.4319 218.05 0.47516 6.2429 0.011435
-42.625 14.367 0.0024230 99.968 100.24 0.60656 581.47 0.0017198 99.036 99.207 0.60208 1.4450 2.2437 1164.2 -0.0051437 197.51 0.12949 2.3659 0.42267 483.46 525.33 2.4506 1.2149 1.4375 218.28 0.46973 6.2692 0.011523
-41.625 15.015 0.0025164 102.24 102.53 0.61641 580.32 0.0017232 101.28 101.46 0.61179 1.4475 2.2483 1157.7 -0.0051027 195.30 0.12891 2.4649 0.40569 484.53 526.53 2.4478 1.2195 1.4432 218.50 0.46440 6.2955 0.011612
-40.625 15.686 0.0026123 104.52 104.82 0.62623 579.16 0.0017266 103.52 103.71 0.62147 1.4500 2.2529 1151.1 -0.0050611 193.13 0.12832 2.5671 0.38954 485.60 527.73 2.4450 1.2240 1.4489 218.72 0.45917 6.3218 0.011701
-39.625 16.380 0.0027108 106.81 107.12 0.63604 578.00 0.0017301 105.78 105.97 0.63113 1.4525 2.2576 1144.6 -0.0050189 190.99 0.12774 2.6725 0.37418 486.67 528.93 2.4423 1.2286 1.4547 218.93 0.45403 6.3481 0.011790
-38.625 17.097 0.0028119 109.10 109.42 0.64583 576.83 0.0017336 108.03 108.24 0.64077 1.4550 2.2623 1138.0 -0.0049761 188.88 0.12716 2.7813 0.35955 487.74 530.12 2.4397 1.2332 1.4606 219.13 0.44900 6.3744 0.011880
-37.625 17.838 0.0029156 111.40 111.73 0.65560 575.66 0.0017371 110.29 110.51 0.65039 1.4576 2.2671 1131.5 -0.0049327 186.81 0.12658 2.8934 0.34562 488.81 531.32 2.4371 1.2378 1.4665 219.33 0.44405 6.4007 0.011970
-36.625 18.604 0.0030219 113.70 114.05 0.66535 574.49 0.0017407 112.56 112.78 0.65999 1.4602 2.2719 1125.0 -0.0048887 184.76 0.12600 3.0089 0.33235 489.88 532.51 2.4346 1.2424 1.4724 219.52 0.43920 6.4270 0.012060
-35.625 19.395 0.0031310 116.00 116.37 0.67508 573.32 0.0017442 114.83 115.06 0.66956 1.4628 2.2768 1118.5 -0.0048440 182.75 0.12542 3.1280 0.31969 490.95 533.70 2.4321 1.2471 1.4784 219.70 0.43444 6.4533 0.012151
-34.625 20.212 0.0032427 118.32 118.70 0.68479 572.14 0.0017478 117.10 117.34 0.67912 1.4654 2.2818 1111.9 -0.0047987 180.76 0.12485 3.2506 0.30763 492.02 534.89 2.4297 1.2517 1.4845 219.88 0.42977 6.4797 0.012243
-33.625 21.056 0.0033573 120.63 121.03 0.69449 570.96 0.0017514 119.38 119.63 0.68865 1.4681 2.2868 1105.4 -0.0047527 178.80 0.12427 3.3770 0.29612 493.09 536.08 2.4273 1.2564 1.4906 220.05 0.42519 6.5060 0.012334
-32.625 21.926 0.0034746 122.96 123.37 0.70417 569.77 0.0017551 121.66 121.93 0.69817 1.4708 2.2918 1098.9 -0.0047061 176.87 0.12370 3.5071 0.28514 494.17 537.27 2.4250 1.2611 1.4968 220.21 0.42070 6.5323 0.012426
-31.625 22.823 0.0035946 125.28 125.72 0.71383 568.58 0.0017588 123.95 124.23 0.70767 1.4735 2.2970 1092.3 -0.0046587 174.97 0.12313 3.6410 0.27465 495.24 538.46 2.4227 1.2659 1.5031 220.36 0.41629 6.5587 0.012519
-30.625 23.749 0.0037176 127.62 128.07 0.72348 567.39 0.0017625 126.24 126.53 0.71714 1.4762 2.3021 1085.8 -0.0046107 173.09 0.12256 3.7787 0.26464 496.31 539.64 2.4205 1.2706 1.5094 220.51 0.41196 6.5850 0.012612
-29.625 24.703 0.0038434 129.96 130.43 0.73310 566.19 0.0017662 128.54 128.84 0.72660 1.4790 2.3074 1079.3 -0.0045619 171.24 0.12200 3.9205 0.25507 497.38 540.83 2.4184 1.2754 1.5157 220.65 0.40772 6.6114 0.012706
-28.625 25.687 0.0039720 132.30 132.79 0.74272 564.99 0.0017699 130.84 131.16 0.73604 1.4818 2.3126 1072.8 -0.0045124 169.42 0.12143 4.0663 0.24592 498.46 542.01 2.4162 1.2802 1.5222 220.79 0.40356 6.6378 0.012800
-27.625 26.700 0.0041036 134.66 135.16 0.75231 563.78 0.0017737 133.15 133.48 0.74547 1.4846 2.3180 1066.2 -0.0044621 167.62 0.12087 4.2163 0.23717 499.53 543.19 2.4142 1.2850 1.5286 220.91 0.39947 6.6642 0.012894
-26.625 27.743 0.0042381 137.01 137.54 0.76189 562.57 0.0017775 135.47 135.81 0.75487 1.4874 2.3234 1059.7 -0.0044111 165.84 0.12031 4.3705 0.22881 500.60 544.37 2.4122 1.2899 1.5352 221.03 0.39547 6.6906 0.012989
-25.625 28.817 0.0043756 139.38 139.92 0.77146 561.36 0.0017814 137.78 138.14 0.76426 1.4902 2.3289 1053.2 -0.0043593 164.09 0.11975 4.5290 0.22080 501.68 545.55 2.4102 1.2947 1.5418 221.14 0.39154 6.7171 0.013084
-24.625 29.923 0.0045160 141.74 142.31 0.78101 560.14 0.0017853 140.11 140.48 0.77363 1.4931 2.3344 1046.7 -0.0043067 162.36 0.11919 4.6918 0.21314 502.75 546.72 2.4083 1.2996 1.5485 221.25 0.38768 6.7436 0.013180
-23.625 31.061 0.0046594 144.12 144.71 0.79055 558.92 0.0017892 142.44 142.82 0.78298 1.4960 2.3400 1040.1 -0.0042533 160.65 0.11863 4.8592 0.20580 503.82 547.90 2.4064 1.3045 1.5552 221.35 0.38391 6.7701 0.013277
-22.625 32.232 0.0048059 146.50 147.11 0.80007 557.69 0.0017931 144.77 145.17 0.79232 1.4990 2.3457 1033.6 -0.0041990 158.97 0.11807 5.0311 0.19877 504.90 549.07 2.4045 1.3095 1.5621 221.44 0.38020 6.7967 0.013374
-21.625 33.435 0.0049553 148.89 149.52 0.80958 556.46 0.0017971 147.11 147.52 0.80164 1.5019 2.3514 1027.1 -0.0041439 157.30 0.11752 5.2076 0.19203 505.97 550.24 2.4027 1.3144 1.5690 221.52 0.37656 6.8232 0.013471
-20.625 34.673 0.0051079 151.28 151.94 0.81907 555.23 0.0018011 149.45 149.88 0.81095 1.5049 2.3572 1020.6 -0.0040879 155.66 0.11697 5.3889 0.18557 507.04 551.40 2.4010 1.3194 1.5759 221.59 0.37300 6.8499 0.013569
-19.625 35.946 0.0052635 153.68 154.36 0.82855 553.99 0.0018051 151.80 152.25 0.82024 1.5079 2.3630 1014.0 -0.0040311 154.04 0.11642 5.5750 0.17937 508.11 552.57 2.3992 1.3244 1.5829 221.66 0.36950 6.8765 0.013668
-18.625 37.253 0.0054222 156.08 156.79 0.83802 552.74 0.0018092 154.16 154.62 0.82952 1.5109 2.3689 1007.5 -0.0039733 152.44 0.11587 5.7660 0.17343 509.19 553.73 2.3976 1.3294 1.5901 221.72 0.36608 6.9032 0.013767
-17.625 38.596 0.0055840 158.50 159.22 0.84748 551.49 0.0018133 156.52 157.00 0.83878 1.5140 2.3749 1001.0 -0.0039145 150.86 0.11532 5.9621 0.16773 510.26 554.89 2.3959 1.3345 1.5972 221.77 0.36272 6.9300 0.013867
-16.625 39.976 0.0057489 160.91 161.67 0.85692 550.24 0.0018174 158.89 159.39 0.84803 1.5171 2.3810 994.44 -0.0038549 149.29 0.11478 6.1632 0.16225 511.33 556.05 2.3943 1.3395 1.6045 221.81 0.35942 6.9568 0.013968
-15.625 41.392 0.0059169 163.34 164.12 0.86635 548.98 0.0018216 161.26 161.78 0.85726 1.5202 2.3871 987.91 -0.0037942 147.75 0.11423 6.3696 0.15700 512.40 557.20 2.3927 1.3446 1.6119 221.85 0.35619 6.9836 0.014069
-14.625 42.846 0.0060881 165.77 166.58 0.87577 547.71 0.0018258 163.64 164.18 0.86649 1.5233 2.3933 981.37 -0.0037325 146.22 0.11369 6.5812 0.15195 513.47 558.36 2.3912 1.3497 1.6193 221.87 0.35302 7.0105 0.014170
-13.625 44.338 0.0062624 168.20 169.04 0.88517 546.44 0.0018300 166.02 166.58 0.87569 1.5264 2.3996 974.83 -0.0036698 144.72 0.11315 6.7983 0.14710 514.54 559.51 2.3897 1.3549 1.6268 221.89 0.34992 7.0375 0.014273
-12.625 45.870 0.0064398 170.65 171.51 0.89457 545.17 0.0018343 168.41 168.99 0.88489 1.5296 2.4059 968.29 -0.0036061 143.23 0.11261 7.0208 0.14243 515.61 560.65 2.3883 1.3600 1.6344 221.90 0.34688 7.0646 0.014376
-11.625 47.440 0.0066205 173.10 173.99 0.90395 543.89 0.0018386 170.81 171.41 0.89407 1.5328 2.4124 961.75 -0.0035413 141.76 0.11208 7.2490 0.13795 516.68 561.80 2.3868 1.3652 1.6421 221.91 0.34389 7.0917 0.014479
-10.625 49.051 0.0068042 175.55 176.48 0.91333 542.60 0.0018430 173.21 173.83 0.90324 1.5360 2.4189 955.20 -0.0034753 140.30 0.11154 7.4829 0.13364 517.75 562.94 2.3854 1.3704 1.6498 221.90 0.34097 7.1188 0.014584
-9.6250 50.703 0.0069912 178.01 178.97 0.92269 541.31 0.0018474 175.61 176.26 0.91240 1.5393 2.4255 948.65 -0.0034082 138.86 0.11101 7.7226 0.12949 518.81 564.08 2.3841 1.3757 1.6577 221.88 0.33810 7.1461 0.014689
-8.6250 52.396 0.0071813 180.48 181.47 0.93204 540.02 0.0018518 178.03 178.70 0.92154 1.5426 2.4321 942.10 -0.0033400 137.44 0.11048 7.9683 0.12550 519.88 565.21 2.3827 1.3809 1.6657 221.86 0.33529 7.1734 0.014795
-7.6250 54.131 0.0073746 182.96 183.98 0.94138 538.72 0.0018563 180.45 181.14 0.93068 1.5459 2.4389 935.55 -0.0032705 136.03 0.10995 8.2200 0.12165 520.94 566.35 2.3814 1.3862 1.6737 221.83 0.33254 7.2008 0.014902
-6.6250 55.909 0.0075710 185.44 186.50 0.95071 537.41 0.0018608 182.87 183.59 0.93980 1.5492 2.4457 928.99 -0.0031998 134.64 0.10942 8.4779 0.11795 522.01 567.48 2.3801 1.3915 1.6819 221.79 0.32984 7.2284 0.015009
-5.6250 57.730 0.0077706 187.93 189.02 0.96003 536.10 0.0018653 185.30 186.05 0.94892 1.5525 2.4526 922.43 -0.0031279 133.27 0.10889 8.7420 0.11439 523.07 568.60 2.3789 1.3969 1.6902 221.74 0.32720 7.2560 0.015117
-4.6250 59.595 0.0079733 190.42 191.55 0.96934 534.78 0.0018699 187.74 188.51 0.95802 1.5559 2.4596 915.87 -0.0030546 131.91 0.10837 9.0126 0.11096 524.13 569.72 2.3777 1.4022 1.6985 221.68 0.32461 7.2837 0.015226
-3.6250 61.505 0.0081792 192.93 194.09 0.97864 533.45 0.0018746 190.19 190.98 0.96711 1.5593 2.4667 909.30 -0.0029800 130.56 0.10785 9.2896 0.10765 525.19 570.84 2.3765 1.4076 1.7070 221.62 0.32207 7.3115 0.015336
-2.6250 63.461 0.0083882 195.44 196.64 0.98793 532.12 0.0018793 192.64 193.46 0.97620 1.5627 2.4739 902.73 -0.0029041 129.23 0.10733 9.5733 0.10446 526.25 571.96 2.3753 1.4131 1.7156 221.54 0.31958 7.3394 0.015447
-1.6250 65.462 0.0086004 197.95 199.19 0.99722 530.78 0.0018840 195.10 195.95 0.98527 1.5662 2.4811 896.16 -0.0028267 127.91 0.10681 9.8638 0.10138 527.31 573.07 2.3742 1.4185 1.7243 221.45 0.31715 7.3674 0.015559
-0.62500 67.510 0.0088156 200.48 201.75 1.0065 529.44 0.0018888 197.56 198.44 0.99434 1.5696 2.4885 889.58 -0.0027478 126.61 0.10629 10.161 0.098414 528.37 574.18 2.3731 1.4240 1.7331 221.36 0.31476 7.3956 0.015671
0.37500 69.606 0.0090339 203.01 204.32 1.0158 528.09 0.0018936 200.03 200.94 1.0034 1.5731 2.4960 883.00 -0.0026675 125.32 0.10578 10.466 0.095552 529.42 575.28 2.3720 1.4295 1.7421 221.26 0.31242 7.4239 0.015785
1.3750 71.749 0.0092552 205.54 206.90 1.0250 526.73 0.0018985 202.51 203.45 1.0124 1.5767 2.5035 876.42 -0.0025856 124.04 0.10527 10.777 0.092790 530.48 576.38 2.3709 1.4350 1.7512 221.14 0.31013 7.4523 0.015899
2.3750 73.941 0.0094796 208.09 209.48 1.0343 525.37 0.0019034 204.99 205.96 1.0215 1.5802 2.5112 869.83 -0.0025022 122.78 0.10476 11.096 0.090123 531.53 577.47 2.3699 1.4406 1.7604 221.02 0.30789 7.4808 0.016015
3.3750 76.183 0.0097070 210.64 212.08 1.0435 523.99 0.0019084 207.48 208.48 1.0305 1.5838 2.5190 863.24 -0.0024171 121.53 0.10425 11.422 0.087549 532.58 578.56 2.3688 1.4462 1.7697 220.89 0.30569 7.5095 0.016131
4.3750 78.475 0.0099373 213.20 214.68 1.0527 522.62 0.0019134 209.98 211.01 1.0395 1.5874 2.5268 856.64 -0.0023303 120.29 0.10374 11.756 0.085062 533.63 579.65 2.3678 1.4518 1.7792 220.75 0.30354 7.5384 0.016249
5.3750 80.817 0.010171 215.76 217.29 1.0620 521.23 0.0019185 212.48 213.55 1.0486 1.5910 2.5348 850.04 -0.0022417 119.06 0.10324 12.098 0.082660 534.67 580.73 2.3669 1.4575 1.7888 220.60 0.30144 7.5674 0.016368
6.3750 83.211 0.010407 218.33 219.90 1.0712 519.84 0.0019237 215.00 216.10 1.0576 1.5946 2.5429 843.43 -0.0021514 117.85 0.10273 12.447 0.080340 535.72 581.81 2.3659 1.4632 1.7986 220.44 0.29938 7.5966 0.016487
7.3750 85.657 0.010646 220.91 222.53 1.0804 518.44 0.0019289 217.51 218.65 1.0666 1.5983 2.5511 836.82 -0.0020593 116.65 0.10223 12.805 0.078096 536.76 582.88 2.3650 1.4689 1.8085 220.27 0.29736 7.6259 0.016608
8.3750 88.156 0.010888 223.50 225.16 1.0896 517.03 0.0019341 220.04 221.22 1.0756 1.6020 2.5595 830.20 -0.0019652 115.46 0.10173 13.170 0.075928 537.80 583.95 2.3640 1.4746 1.8186 220.08 0.29538 7.6555 0.016730
9.3750 90.708 0.011132 226.09 227.81 1.0988 515.62 0.0019394 222.57 223.79 1.0846 1.6057 2.5679 823.58 -0.0018691 114.28 0.10124 13.545 0.073830 538.84 585.01 2.3631 1.4804 1.8288 219.89 0.29345 7.6852 0.016853
10.375 93.315 0.011379 228.70 230.46 1.1080 514.19 0.0019448 225.11 226.37 1.0936 1.6095 2.5765 816.96 -0.0017710 113.11 0.10074 13.927 0.071802 539.87 586.07 2.3622 1.4863 1.8392 219.69 0.29156 7.7151 0.016978
11.375 95.977 0.011629 231.30 233.12 1.1172 512.76 0.0019502 227.66 228.95 1.1025 1.6132 2.5852 810.32 -0.0016708 111.95 0.10025 14.319 0.069840 540.90 587.12 2.3614 1.4921 1.8498 219.48 0.28971 7.7452 0.017103
12.375 98.694 0.011882 233.92 235.79 1.1264 511.32 0.0019557 230.22 231.55 1.1115 1.6170 2.5940 803.68 -0.0015685 110.80 0.099756 14.719 0.067941 541.93 588.17 2.3605 1.4980 1.8605 219.26 0.28790 7.7756 0.017230
13.375 101.47 0.012137 236.55 238.46 1.1355 509.87 0.0019613 232.78 234.15 1.1205 1.6208 2.6030 797.04 -0.0014639 109.67 0.099267 15.128 0.066103 542.96 589.21 2.3597 1.5040 1.8715 219.03 0.28612 7.8061 0.017359
14.375 104.30 0.012394 239.18 241.15 1.1447 508.42 0.0019669 235.35 236.77 1.1295 1.6247 2.6121 790.39 -0.0013569 108.54 0.098779 15.547 0.064323 543.99 590.24 2.3588 1.5099 1.8826 218.79 0.28439 7.8369 0.017488
15.375 107.19 0.012654 241.82 243.84 1.1539 506.95 0.0019726 237.93 239.39 1.1384 1.6286 2.6214 783.73 -0.0012476 107.43 0.098294 15.974 0.062600 545.01 591.27 2.3580 1.5159 1.8940 218.53 0.28270 7.8680 0.017619
16.375 110.13 0.012916 244.46 246.54 1.1630 505.48 0.0019783 240.52 242.02 1.1474 1.6324 2.6308 777.07 -0.0011357 106.32 0.097810 16.412 0.060931 546.03 592.29 2.3572 1.5220 1.9055 218.27 0.28104 7.8993 0.017752
17.375 113.14 0.013180 247.12 249.26 1.1722 504.00 0.0019841 243.11 244.66 1.1564 1.6364 2.6403 770.40 -0.0010213 105.22 0.097328 16.859 0.059314 547.04 593.31 2.3564 1.5281 1.9172 217.99 0.27942 7.9308 0.017886
18.375 116.21 0.013446 249.78 251.98 1.1813 502.50 0.0019900 245.72 247.31 1.1653 1.6403 2.6501 763.72 -0.00090422 104.14 0.096848 17.317 0.057747 548.05 594.32 2.3557 1.5342 1.9292 217.71 0.27783 7.9626 0.018021
19.375 119.33 0.013714 252.45 254.70 1.1905 501.00 0.0019960 248.33 249.97 1.1743 1.6443 2.6599 757.04 -0.00078435 103.06 0.096371 17.785 0.056228 549.06 595.33 2.3549 1.5404 1.9414 217.41 0.27628 7.9947 0.018159
20.375 122.52 0.013983 255.13 257.44 1.1996 499.49 0.0020020 250.95 252.64 1.1832 1.6483 2.6700 750.35 -0.00066161 101.99 0.095895 18.263 0.054756 550.07 596.32 2.3541 1.5466 1.9538 217.10 0.27477 8.0272 0.018297
21.375 125.77 0.014255 257.81 260.19 1.2087 497.97 0.0020082 253.57 255.32 1.1922 1.6523 2.6802 743.64 -0.00053589 100.93 0.095420 18.752 0.053328 551.07 597.31 2.3534 1.5528 1.9665 216.78 0.27329 8.0599 0.018438
22.375 129.08 0.014528 260.51 262.95 1.2179 496.43 0.0020144 256.21 258.00 1.2012 1.6563 2.6906 736.94 -0.00040708 99.877 0.094948 19.252 0.051943 552.07 598.30 2.3526 1.5591 1.9795 216.45 0.27184 8.0929 0.018580
23.375 132.46 0.014802 263.21 265.71 1.2270 494.89 0.0020206 258.86 260.70 1.2101 1.6604 2.7012 730.22 -0.00027505 98.834 0.094478 19.763 0.050600 553.06 599.27 2.3519 1.5655 1.9927 216.11 0.27043 8.1263 0.018724
24.375 135.90 0.015078 265.92 268.49 1.2361 493.34 0.0020270 261.51 263.41 1.2191 1.6645 2.7120 723.49 -0.00013968 97.800 0.094009 20.285 0.049297 554.05 600.24 2.3512 1.5718 2.0061 215.75 0.26906 8.1600 0.018870
25.375 139.41 0.015354 268.64 271.27 1.2452 491.77 0.0020335 264.17 266.13 1.2280 1.6686 2.7230 716.76 -8.3775e-07 96.773 0.093543 20.820 0.048032 555.03 601.20 2.3504 1.5783 2.0199 215.39 0.26771 8.1941 0.019017
26.375 142.98 0.015632 271.36 274.06 1.2544 490.20 0.0020400 266.84 268.85 1.2370 1.6728 2.7342 710.01 0.00014161 95.755 0.093078 21.366 0.046804 556.01 602.15 2.3497 1.5847 2.0340 215.01 0.26640 8.2286 0.019167
27.375 146.62 0.015910 274.10 276.87 1.2635 488.61 0.0020466 269.52 271.59 1.2459 1.6770 2.7456 703.26 0.00028782 94.745 0.092615 21.924 0.045612 556.99 603.10 2.3490 1.5913 2.0484 214.62 0.26512 8.2634 0.019319
28.375 150.33 0.016188 276.84 279.68 1.2726 487.01 0.0020533 272.21 274.34 1.2549 1.6812 2.7573 696.49 0.00043793 93.742 0.092154 22.495 0.044454 557.96 604.03 2.3483 1.5978 2.0631 214.21 0.26387 8.2987 0.019472
29.375 154.10 0.016467 279.59 282.50 1.2817 485.40 0.0020601 274.91 277.10 1.2638 1.6854 2.7691 689.72 0.00059212 92.747 0.091695 23.079 0.043329 558.92 604.96 2.3476 1.6044 2.0781 213.80 0.26265 8.3344 0.019628
30.375 157.94 0.016746 282.35 285.33 1.2908 483.78 0.0020671 277.62 279.87 1.2728 1.6897 2.7813 682.93 0.00075055 91.760 0.091238 23.676 0.042237 559.88 605.88 2.3469 1.6111 2.0935 213.37 0.26147 8.3705 0.019786
31.375 161.86 0.017024 285.12 288.17 1.2999 482.15 0.0020741 280.34 282.66 1.2818 1.6939 2.7936 676.13 0.00091340 90.779 0.090782 24.287 0.041175 560.84 606.79 2.3462 1.6178 2.1092 212.93 0.26031 8.4071 0.019947
32.375 165.84 0.017302 287.89 291.03 1.3090 480.50 0.0020812 283.07 285.45 1.2908 1.6983 2.8063 669.32 0.0010809 89.806 0.090328 24.911 0.040143 561.79 607.69 2.3455 1.6246 2.1254 212.48 0.25919 8.4442 0.020110
33.375 169.90 0.017579 290.68 293.89 1.3181 478.83 0.0020884 285.81 288.26 1.2997 1.7026 2.8192 662.50 0.0012532 88.840 0.089876 25.549 0.039140 562.73 608.58 2.3448 1.6314 2.1419 212.01 0.25809 8.4818 0.020275
34.375 174.02 0.017855 293.47 296.76 1.3272 477.16 0.0020957 288.56 291.07 1.3087 1.7070 2.8324 655.67 0.0014305 87.880 0.089426 26.202 0.038164 563.67 609.46 2.3440 1.6383 2.1589 211.53 0.25702 8.5199 0.020443
35.375 178.22 0.018129 296.27 299.64 1.3363 475.47 0.0021032 291.32 293.90 1.3177 1.7114 2.8459 648.82 0.0016131 86.927 0.088977 26.870 0.037216 564.60 610.33 2.3433 1.6452 2.1763 211.04 0.25599 8.5586 0.020613
36.375 182.50 0.018401 299.08 302.53 1.3454 473.77 0.0021107 294.09 296.74 1.3267 1.7158 2.8597 641.96 0.0018012 85.980 0.088531 27.553 0.036293 565.52 611.19 2.3426 1.6522 2.1942 210.53 0.25498 8.5978 0.020786
37.375 186.84 0.018670 301.90 305.43 1.3545 472.05 0.0021184 296.87 299.60 1.3357 1.7203 2.8739 635.08 0.0019950 85.040 0.088085 28.252 0.035395 566.44 612.04 2.3419 1.6592 2.2125 210.01 0.25400 8.6376 0.020962
38.375 191.27 0.018937 304.73 308.34 1.3636 470.31 0.0021262 299.66 302.46 1.3447 1.7248 2.8884 628.19 0.0021949 84.105 0.087642 28.967 0.034522 567.35 612.88 2.3411 1.6663 2.2314 209.47 0.25305 8.6780 0.021141
39.375 195.77 0.019201 307.56 311.26 1.3727 468.56 0.0021342 302.46 305.34 1.3537 1.7293 2.9033 621.29 0.0024011 83.177 0.087200 29.699 0.033671 568.26 613.70 2.3404 1.6734 2.2508 208.92 0.25213 8.7190 0.021323
40.375 200.34 0.019461 310.41 314.19 1.3818 466.80 0.0021423 305.27 308.23 1.3627 1.7339 2.9185 614.37 0.0026140 82.254 0.086760 30.447 0.032844 569.15 614.52 2.3396 1.6806 2.2708 208.36 0.25123 8.7608 0.021508
41.375 205.00 0.019716 313.26 317.14 1.3908 465.01 0.0021505 308.10 311.14 1.3718 1.7385 2.9342 607.43 0.0028338 81.338 0.086322 31.214 0.032037 570.04 615.32 2.3389 1.6879 2.2913 207.78 0.25037 8.8032 0.021696
42.375 209.73 0.019967 316.13 320.09 1.3999 463.21 0.0021588 310.94 314.06 1.3808 1.7432 2.9502 600.47 0.0030609 80.426 0.085885 31.998 0.031252 570.92 616.11 2.3381 1.6952 2.3125 207.19 0.24953 8.8463 0.021888
43.375 214.54 0.020212 319.00 323.05 1.4090 461.40 0.0021673 313.79 316.99 1.3899 1.7478 2.9667 593.50 0.0032957 79.520 0.085449 32.800 0.030488 571.79 616.88 2.3373 1.7027 2.3344 206.58 0.24871 8.8902 0.022084
44.375 219.43 0.020450 321.88 326.03 1.4181 459.56 0.0021760 316.65 319.94 1.3989 1.7525 2.9837 586.51 0.0035386 78.619 0.085015 33.622 0.029742 572.65 617.65 2.3365 1.7101 2.3569 205.96 0.24793 8.9349 0.022283
45.375 224.41 0.020682 324.77 329.01 1.4272 457.71 0.0021848 319.52 322.90 1.4080 1.7573 3.0012 579.50 0.0037900 77.723 0.084583 34.463 0.029016 573.50 618.40 2.3357 1.7177 2.3802 205.32 0.24717 8.9805 0.022485
46.375 229.46 0.020906 327.68 332.01 1.4363 455.83 0.0021938 322.41 325.88 1.4171 1.7621 3.0192 572.46 0.0040504 76.832 0.084152 35.325 0.028308 574.34 619.13 2.3349 1.7253 2.4042 204.67 0.24644 9.0269 0.022692
47.375 234.60 0.021121 330.59 335.02 1.4454 453.94 0.0022029 325.31 328.87 1.4262 1.7669 3.0377 565.41 0.0043202 75.946 0.083723 36.208 0.027618 575.17 619.85 2.3340 1.7329 2.4291 204.00 0.24573 9.0742 0.022903
48.375 239.83 0.021326 333.51 338.04 1.4545 452.03 0.0022123 328.22 331.88 1.4353 1.7718 3.0569 558.34 0.0046000 75.064 0.083295 37.112 0.026945 576.00 620.55 2.3332 1.7407 2.4548 203.31 0.24505 9.1224 0.023119
49.375 245.13 0.021521 336.43 341.07 1.4636 450.09 0.0022218 331.15 334.90 1.4445 1.7767 3.0766 551.24 0.0048904 74.186 0.082868 38.039 0.026289 576.81 621.24 2.3323 1.7485 2.4815 202.61 0.24440 9.1716 0.023339
50.375 250.53 0.021704 339.37 344.11 1.4727 448.13 0.0022315 334.09 337.94 1.4536 1.7817 3.0970 544.13 0.0051920 73.313 0.082442 38.989 0.025648 577.61 621.91 2.3314 1.7564 2.5092 201.89 0.24377 9.2219 0.023564
51.375 256.01 0.021874 342.32 347.16 1.4818 446.15 0.0022414 337.04 341.00 1.4628 1.7867 3.1181 536.98 0.0055054 72.443 0.082018 39.962 0.025024 578.39 622.56 2.3304 1.7644 2.5379 201.16 0.24317 9.2733 0.023794
52.375 261.57 0.022029 345.28 350.22 1.4909 444.15 0.0022515 340.01 344.07 1.4720 1.7918 3.1400 529.82 0.0058313 71.577 0.081595 40.961 0.024414 579.17 623.20 2.3295 1.7724 2.5677 200.41 0.24260 9.3258 0.024029
53.375 267.23 0.022169 348.25 353.30 1.5000 442.12 0.0022618 343.00 347.17 1.4812 1.7969 3.1627 522.62 0.0061705 70.715 0.081174 41.985 0.023818 579.93 623.81 2.3285 1.7805 2.5987 199.63 0.24205 9.3795 0.024270
54.375 272.97 0.022291 351.23 356.39 1.5091 440.06 0.0022724 346.00 350.28 1.4904 1.8021 3.1862 515.40 0.0065239 69.856 0.080753 43.036 0.023237 580.68 624.41 2.3274 1.7887 2.6310 198.85 0.24154 9.4344 0.024516
55.375 278.81 0.022394 354.22 359.49 1.5182 437.98 0.0022832 349.02 353.40 1.4997 1.8073 3.2106 508.15 0.0068923 69.001 0.080334 44.114 0.022669 581.41 624.99 2.3264 1.7969 2.6646 198.04 0.24105 9.4907 0.024769
56.375 284.74 0.022476 357.22 362.60 1.5273 435.87 0.0022943 352.05 356.55 1.5090 1.8126 3.2360 500.87 0.0072767 68.148 0.079915 45.221 0.022114 582.13 625.54 2.3253 1.8052 2.6998 197.22 0.24059 9.5484 0.025028
57.375 290.76 0.022535 360.23 365.72 1.5365 433.73 0.0023056 355.10 359.72 1.5183 1.8179 3.2624 493.56 0.0076782 67.299 0.079498 46.358 0.021571 582.83 626.07 2.3241 1.8136 2.7365 196.37 0.24016 9.6075 0.025294
58.375 296.87 0.022568 363.25 368.86 1.5456 431.56 0.0023172 358.17 362.91 1.5276 1.8233 3.2900 486.22 0.0080980 66.451 0.079082 47.525 0.021041 583.52 626.58 2.3230 1.8220 2.7749 195.51 0.23976 9.6682 0.025568
59.375 303.08 0.022573 366.28 372.01 1.5547 429.36 0.0023290 361.25 366.12 1.5370 1.8288 3.3188 478.84 0.0085373 65.606 0.078666 48.726 0.020523 584.18 627.07 2.3218 1.8305 2.8152 194.63 0.23939 9.7305 0.025849
60.375 309.38 0.022548 369.33 375.17 1.5639 427.13 0.0023412 364.36 369.35 1.5464 1.8343 3.3489 471.43 0.0089976 64.763 0.078251 49.960 0.020016 584.83 627.53 2.3205 1.8391 2.8576 193.73 0.23905 9.7945 0.026138
61.375 315.78 0.022488 372.38 378.35 1.5730 424.87 0.0023537 367.48 372.60 1.5558 1.8400 3.3805 463.99 0.0094803 63.922 0.077838 51.229 0.019520 585.46 627.96 2.3192 1.8479 2.9022 192.82 0.23873 9.8603 0.026436
62.375 322.28 0.022391 375.45 381.53 1.5821 422.56 0.0023665 370.62 375.88 1.5653 1.8457 3.4136 456.50 0.0099871 63.083 0.077425 52.535 0.019035 586.07 628.37 2.3178 1.8567 2.9492 191.88 0.23845 9.9281 0.026744
63.375 328.88 0.022252 378.52 384.74 1.5913 420.22 0.0023797 373.79 379.18 1.5748 1.8514 3.4483 448.97 0.010520 62.244 0.077012 53.879 0.018560 586.66 628.74 2.3164 1.8656 2.9989 190.92 0.23819 9.9979 0.027061
64.375 335.58 0.022068 381.61 387.95 1.6005 417.85 0.0023932 376.97 382.51 1.5844 1.8573 3.4850 441.40 0.011081 61.407 0.076600 55.265 0.018095 587.22 629.09 2.3149 1.8747 3.0517 189.95 0.23796 10.070 0.027389
65.375 342.38 0.021832 384.71 391.18 1.6096 415.42 0.0024072 380.18 385.86 1.5939 1.8633 3.5236 433.79 0.011672 60.570 0.076189 56.692 0.017639 587.76 629.40 2.3133 1.8839 3.1077 188.95 0.23775 10.144 0.027729
66.375 349.28 0.021541 387.83 394.42 1.6188 412.96 0.0024215 383.41 389.25 1.6036 1.8693 3.5645 426.12 0.012296 59.733 0.075779 58.165 0.017193 588.28 629.68 2.3117 1.8933 3.1674 187.93 0.23757 10.221 0.028080
67.375 356.28 0.021188 390.95 397.68 1.6280 410.45 0.0024363 386.67 392.65 1.6133 1.8755 3.6078 418.41 0.012956 58.897 0.075368 59.684 0.016755 588.76 629.92 2.3100 1.9030 3.2311 186.89 0.23740 10.300 0.028446
68.375 363.40 0.020765 394.09 400.95 1.6372 407.89 0.0024516 389.95 396.09 1.6230 1.8818 3.6537 410.64 0.013655 58.059 0.074959 61.253 0.016326 589.22 630.13 2.3082 1.9129 3.2994 185.83 0.23724 10.382 0.028825
69.375 370.61 0.020265 397.24 404.24 1.6464 405.28 0.0024674 393.26 399.57 1.6328 1.8882 3.7027 402.81 0.014396 57.221 0.074549 62.875 0.015905 589.65 630.29 2.3064 1.9231 3.3727 184.74 0.23710 10.467 0.029221
70.375 377.94 0.019679 400.40 407.54 1.6557 402.62 0.0024838 396.60 403.07 1.6426 1.8947 3.7550 394.92 0.015183 56.381 0.074141 64.552 0.015491 590.04 630.41 2.3044 1.9336 3.4518 183.63 0.23697 10.555 0.029633
71.375 385.37 0.018996 403.58 410.86 1.6649 399.89 0.0025007 399.96 406.61 1.6525 1.9014 3.8109 386.97 0.016021 55.540 0.073732 66.288 0.015086 590.40 630.49 2.3024 1.9444 3.5371 182.50 0.23684 10.647 0.030064
72.375 392.92 0.018204 406.77 414.20 1.6741 397.11 0.0025182 403.36 410.18 1.6625 1.9083 3.8711 378.95 0.016915 54.696 0.073324 68.087 0.014687 590.73 630.51 2.3002 1.9556 3.6297 181.34 0.23671 10.743 0.030515
73.375 400.57 0.017290 409.98 417.55 1.6834 394.26 0.0025364 406.79 413.80 1.6726 1.9153 3.9359 370.85 0.017871 53.848 0.072917 69.953 0.014295 591.01 630.49 2.2979 1.9673 3.7303 180.16 0.23658 10.842 0.030989
74.375 408.34 0.016238 413.20 420.91 1.6927 391.34 0.0025553 410.26 417.45 1.6827 1.9226 4.0060 362.67 0.018894 52.997 0.072510 71.890 0.013910 591.25 630.41 2.2955 1.9793 3.8401 178.95 0.23643 10.946 0.031488
75.375 416.23 0.015029 416.43 424.30 1.7020 388.34 0.0025751 413.76 421.15 1.6930 1.9301 4.0822 354.41 0.019993 52.142 0.072104 73.904 0.013531 591.44 630.27 2.2930 1.9919 3.9604 177.71 0.23627 11.054 0.032014
76.375 424.23 0.013640 419.68 427.70 1.7113 385.26 0.0025957 417.31 424.90 1.7033 1.9378 4.1654 346.06 0.021177 51.281 0.071699 76.001 0.013158 591.59 630.07 2.2903 2.0050 4.0927 176.44 0.23609 11.168 0.032570
77.375 432.35 0.012046 422.95 431.12 1.7206 382.09 0.0026172 420.89 428.70 1.7137 1.9459 4.2565 337.60 0.022455 50.414 0.071295 78.187 0.012790 591.68 629.80 2.2874 2.0186 4.2389 175.15 0.23588 11.287 0.033161
78.375 440.59 0.010216 426.23 434.56 1.7300 378.83 0.0026397 424.53 432.54 1.7243 1.9543 4.3570 329.05 0.023838 49.539 0.070893 80.469 0.012427 591.71 629.46 2.2844 2.0328 4.4012 173.82 0.23563 11.412 0.033789
79.375 448.95 0.0081119 429.53 438.02 1.7394 375.46 0.0026634 428.21 436.45 1.7349 1.9631 4.4684 320.38 0.025341 48.657 0.070494 82.856 0.012069 591.68 629.04 2.2812 2.0475 4.5824 172.46 0.23535 11.544 0.034461
80.375 457.44 0.0056881 432.85 441.49 1.7488 371.97 0.0026884 431.94 440.42 1.7457 1.9723 4.5928 311.58 0.026980 47.764 0.070099 85.359 0.011715 591.58 628.53 2.2778 2.0630 4.7859 171.07 0.23501 11.684 0.035181
81.375 466.05 0.0028886 436.19 444.99 1.7582 368.36 0.0027147 435.74 444.46 1.7567 1.9820 4.7327 302.66 0.028773 46.860 0.069708 87.988 0.011365 591.40 627.92 2.2742 2.0791 5.0161 169.64 0.23461 11.832 0.035957
82.375 476.80 undefined 439.41 448.41 1.7672 365.00 0.0027397 439.41 448.41 1.7672 1.9913 4.8629 294.98 0.030436 46.040 0.069364 365.00 0.0027397 439.41 448.41 1.7672 1.9913 4.8629 294.98 0.030436 46.040 0.069364
83.375 505.28 undefined 441.40 450.94 1.7728 365.00 0.0027397 441.40 450.94 1.7728 1.9911 4.7603 299.20 0.029534 46.066 0.069381 365.00 0.0027397 441.40 450.94 1.7728 1.9911 4.7603 299.20 0.029534 46.066 0.069381
84.375 533.90 undefined 443.39 453.47 1.7784 365.00 0.0027397 443.39 453.47 1.7784 1.9911 4.6676 303.28 0.028689 46.092 0.069405 365.00 0.0027397 443.39 453.47 1.7784 1.9911 4.6676 303.28 0.028689 46.092 0.069405
85.375 562.66 undefined 445.38 456.01 1.7840 365.00 0.0027397 445.38 456.01 1.7840 1.9913 4.5835 307.24 0.027895 46.117 0.069436 365.00 0.0027397 445.38 456.01 1.7840 1.9913 4.5835 307.24 0.027895 46.117 0.069436
86.375 591.55 undefined 447.37 458.54 1.7895 365.00 0.0027397 447.37 458.54 1.7895 1.9916 4.5065 311.09 0.027146 46.143 0.069472 365.00 0.0027397 447.37 458.54 1.7895 1.9916 4.5065 311.09 0.027146 46.143 0.069472
87.375 620.57 undefined 449.36 461.08 1.7950 365.00 0.0027397 449.36 461.08 1.7950 1.9922 4.4359 314.81 0.026437 46.169 0.069514 365.00 0.0027397 449.36 461.08 1.7950 1.9922 4.4359 314.81 0.026437 46.169 0.069514
88.375 649.70 undefined 451.35 463.63 1.8006 365.00 0.0027397 451.35 463.63 1.8006 1.9928 4.3707 318.43 0.025766 46.195 0.069560 365.00 0.0027397 451.35 463.63 1.8006 1.9928 4.3707 318.43 0.025766 46.195 0.069560
89.375 678.95 undefined 453.35 466.17 1.8061 365.00 0.0027397 453.35 466.17 1.8061 1.9937 4.3103 321.96 0.025127 46.221 0.069609 365.00 0.0027397 453.35 466.17 1.8061 1.9937 4.3103 321.96 0.025127 46.221 0.069609
90.375 708.31 undefined 455.34 468.72 1.8116 365.00 0.0027397 455.34 468.72 1.8116 1.9947 4.2541 325.39 0.024518 46.247 0.069662 365.00 0.0027397 455.34 468.72 1.8116 1.9947 4.2541 325.39 0.024518 46.247 0.069662
91.375 737.76 undefined 457.34 471.27 1.8170 365.00 0.0027397 457.34 471.27 1.8170 1.9958 4.2017 328.73 0.023937 46.272 0.069718 365.00 0.0027397 457.34 471.27 1.8170 1.9958 4.2017 328.73 0.023937 46.272 0.069718
92.375 767.31 undefined 459.33 473.83 1.8225 365.00 0.0027397 459.33 473.83 1.8225 1.9972 4.1528 331.99 0.023380 46.298 0.069778 365.00 0.0027397 459.33 473.83 1.8225 1.9972 4.1528 331.99 0.023380 46.298 0.069778
93.375 796.96 undefined 461.33 476.39 1.8280 365.00 0.0027397 461.33 476.39 1.8280 1.9986 4.1069 335.18 0.022846 46.324 0.069839 365.00 0.0027397 461.33 476.39 1.8280 1.9986 4.1069 335.18 0.022846 46.324 0.069839
94.375 826.69 undefined 463.33 478.95 1.8334 365.00 0.0027397 463.33 478.95 1.8334 2.0002 4.0637 338.29 0.022334 46.350 0.069903 365.00 0.0027397 463.33 478.95 1.8334 2.0002 4.0637 338.29 0.022334 46.350 0.069903
95.375 856.50 undefined 465.33 481.51 1.8389 365.00 0.0027397 465.33 481.51 1.8389 2.0019 4.0231 341.34 0.021841 46.376 0.069970 365.00 0.0027397 465.33 481.51 1.8389 2.0019 4.0231 341.34 0.021841 46.376 0.069970
96.375 886.39 undefined 467.34 484.08 1.8443 365.00 0.0027397 467.34 484.08 1.8443 2.0038 3.9848 344.33 0.021367 46.402 0.070038 365.00 0.0027397 467.34 484.08 1.8443 2.0038 3.9848 344.33 0.021367 46.402 0.070038
97.375 916.35 undefined 469.34 486.65 1.8497 365.00 0.0027397 469.34 486.65 1.8497 2.0058 3.9486 347.26 0.020909 46.428 0.070108 365.00 0.0027397 469.34 486.65 1.8497 2.0058 3.9486 347.26 0.020909 46.428 0.070108
98.375 946.39 undefined 471.35 489.22 1.8551 365.00 0.0027397 471.35 489.22 1.8551 2.0078 3.9144 350.13 0.020467 46.453 0.070181 365.00 0.0027397 471.35 489.22 1.8551 2.0078 3.9144 350.13 0.020467 46.453 0.070181
99.375 976.50 undefined 473.36 491.80 1.8605 365.00 0.0027397 473.36 491.80 1.8605 2.0100 3.8819 352.95 0.020040 46.479 0.070254 365.00 0.0027397 473.36 491.80 1.8605 2.0100 3.8819 352.95 0.020040 46.479 0.070254
100.38 1006.7 undefined 475.37 494.38 1.8659 365.00 0.0027397 475.37 494.38 1.8659 2.0123 3.8511 355.73 0.019627 46.504 0.070330 365.00 0.0027397 475.37 494.38 1.8659 2.0123 3.8511 355.73 0.019627 46.504 0.070330
101.38 1036.9 undefined 477.38 496.97 1.8713 365.00 0.0027397 477.38 496.97 1.8713 2.0146 3.8219 358.46 0.019227 46.530 0.070406 365.00 0.0027397 477.38 496.97 1.8713 2.0146 3.8219 358.46 0.019227 46.530 0.070406
102.38 1067.2 undefined 479.40 499.56 1.8767 365.00 0.0027397 479.40 499.56 1.8767 2.0171 3.7941 361.14 0.018840 46.556 0.070484 365.00 0.0027397 479.40 499.56 1.8767 2.0171 3.7941 361.14 0.018840 46.556 0.070484
103.38 1097.6 undefined 481.41 502.15 1.8820 365.00 0.0027397 481.41 502.15 1.8820 2.0196 3.7676 363.78 0.018464 46.581 0.070564 365.00 0.0027397 481.41 502.15 1.8820 2.0196 3.7676 363.78 0.018464 46.581 0.070564
104.38 1128.0 undefined 483.44 504.74 1.8874 365.00 0.0027397 483.44 504.74 1.8874 2.0222 3.7424 366.39 0.018100 46.607 0.070645 365.00 0.0027397 483.44 504.74 1.8874 2.0222 3.7424 366.39 0.018100 46.607 0.070645
105.38 1158.4 undefined 485.46 507.34 1.8927 365.00 0.0027397 485.46 507.34 1.8927 2.0248 3.7183 368.96 0.017746 46.633 0.070727 365.00 0.0027397 485.46 507.34 1.8927 2.0248 3.7183 368.96 0.017746 46.633 0.070727
106.38 1188.9 undefined 487.48 509.94 1.8981 365.00 0.0027397 487.48 509.94 1.8981 2.0275 3.6954 371.49 0.017402 46.658 0.070810 365.00 0.0027397 487.48 509.94 1.8981 2.0275 3.6954 371.49 0.017402 46.658 0.070810
107.38 1219.5 undefined 489.51 512.55 1.9034 365.00 0.0027397 489.51 512.55 1.9034 2.0303 3.6734 373.98 0.017068 46.684 0.070894 365.00 0.0027397 489.51 512.55 1.9034 2.0303 3.6734 373.98 0.017068 46.684 0.070894
108.38 1250.1 undefined 491.55 515.16 1.9088 365.00 0.0027397 491.55 515.16 1.9088 2.0331 3.6525 376.45 0.016743 46.709 0.070979 365.00 0.0027397 491.55 515.16 1.9088 2.0331 3.6525 376.45 0.016743 46.709 0.070979
109.38 1280.8 undefined 493.58 517.77 1.9141 365.00 0.0027397 493.58 517.77 1.9141 2.0360 3.6324 378.88 0.016427 46.735 0.071065 365.00 0.0027397 493.58 517.77 1.9141 2.0360 3.6324 378.88 0.016427 46.735 0.071065
110.38 1311.5 undefined 495.62 520.39 1.9194 365.00 0.0027397 495.62 520.39 1.9194 2.0389 3.6132 381.29 0.016119 46.761 0.071152 365.00 0.0027397 495.62 520.39 1.9194 2.0389 3.6132 381.29 0.016119 46.761 0.071152
111.38 1342.2 undefined 497.66 523.01 1.9247 365.00 0.0027397 497.66 523.01 1.9247 2.0419 3.5948 383.66 0.015819 46.786 0.071240 365.00 0.0027397 497.66 523.01 1.9247 2.0419 3.5948 383.66 0.015819 46.786 0.071240
112.38 1373.0 undefined 499.70 525.64 1.9300 365.00 0.0027397 499.70 525.64 1.9300 2.0449 3.5772 386.01 0.015527 46.812 0.071329 365.00 0.0027397 499.70 525.64 1.9300 2.0449 3.5772 386.01 0.015527 46.812 0.071329
113.38 1403.8 undefined 501.75 528.27 1.9353 365.00 0.0027397 501.75 528.27 1.9353 2.0479 3.5603 388.33 0.015242 46.837 0.071418 365.00 0.0027397 501.75 528.27 1.9353 2.0479 3.5603 388.33 0.015242 46.837 0.071418
114.38 1434.7 undefined 503.80 530.90 1.9406 365.00 0.0027397 503.80 530.90 1.9406 2.0510 3.5440 390.62 0.014963 46.863 0.071509 365.00 0.0027397 503.80 530.90 1.9406 2.0510 3.5440 390.62 0.014963 46.863 0.071509
115.38 1465.6 undefined 505.85 533.53 1.9459 365.00 0.0027397 505.85 533.53 1.9459 2.0542 3.5285 392.89 0.014692 46.889 0.071600 365.00 0.0027397 505.85 533.53 1.9459 2.0542 3.5285 392.89 0.014692 46.889 0.071600
116.38 1496.5 undefined 507.91 536.17 1.9512 365.00 0.0027397 507.91 536.17 1.9512 2.0573 3.5135 395.14 0.014427 46.914 0.071692 365.00 0.0027397 507.91 536.17 1.9512 2.0573 3.5135 395.14 0.014427 46.914 0.071692
117.38 1527.5 undefined 509.96 538.82 1.9565 365.00 0.0027397 509.96 538.82 1.9565 2.0605 3.4992 397.36 0.014169 46.940 0.071785 365.00 0.0027397 509.96 538.82 1.9565 2.0605 3.4992 397.36 0.014169 46.940 0.071785
118.38 1558.5 undefined 512.03 541.47 1.9617 365.00 0.0027397 512.03 541.47 1.9617 2.0637 3.4854 399.57 0.013916 46.965 0.071878 365.00 0.0027397 512.03 541.47 1.9617 2.0637 3.4854 399.57 0.013916 46.965 0.071878
119.38 1589.5 undefined 514.09 544.12 1.9670 365.00 0.0027397 514.09 544.12 1.9670 2.0670 3.4721 401.75 0.013669 46.991 0.071972 365.00 0.0027397 514.09 544.12 1.9670 2.0670 3.4721 401.75 0.013669 46.991 0.071972
120.38 1620.5 undefined 516.16 546.77 1.9723 365.00 0.0027397 516.16 546.77 1.9723 2.0703 3.4593 403.90 0.013428 47.016 0.072067 365.00 0.0027397 516.16 546.77 1.9723 2.0703 3.4593 403.90 0.013428 47.016 0.072067
121.38 1651.6 undefined 518.23 549.43 1.9775 365.00 0.0027397 518.23 549.43 1.9775 2.0736 3.4470 406.04 0.013192 47.042 0.072163 365.00 0.0027397 518.23 549.43 1.9775 2.0736 3.4470 406.04 0.013192 47.042 0.072163
122.38 1682.8 undefined 520.31 552.09 1.9828 365.00 0.0027397 520.31 552.09 1.9828 2.0769 3.4352 408.16 0.012962 47.067 0.072259 365.00 0.0027397 520.31 552.09 1.9828 2.0769 3.4352 408.16 0.012962 47.067 0.072259
123.38 1713.9 undefined 522.39 554.76 1.9880 365.00 0.0027397 522.39 554.76 1.9880 2.0802 3.4238 410.26 0.012736 47.093 0.072355 365.00 0.0027397 522.39 554.76 1.9880 2.0802 3.4238 410.26 0.012736 47.093 0.072355
124.38 1745.1 undefined 524.47 557.43 1.9933 365.00 0.0027397 524.47 557.43 1.9933 2.0836 3.4129 412.34 0.012515 47.118 0.072453 365.00 0.0027397 524.47 557.43 1.9933 2.0836 3.4129 412.34 0.012515 47.118 0.072453
125.38 1776.3 undefined 526.55 560.11 1.9985 365.00 0.0027397 526.55 560.11 1.9985 2.0870 3.4023 414.41 0.012299 47.143 0.072551 365.00 0.0027397 526.55 560.11 1.9985 2.0870 3.4023 414.41 0.012299 47.143 0.072551
126.38 1807.5 undefined 528.64 562.79 2.0038 365.00 0.0027397 528.64 562.79 2.0038 2.0904 3.3922 416.46 0.012088 47.169 0.072649 365.00 0.0027397 528.64 562.79 2.0038 2.0904 3.3922 416.46 0.012088 47.169 0.072649
127.38 1838.8 undefined 530.73 565.47 2.0090 365.00 0.0027397 530.73 565.47 2.0090 2.0938 3.3824 418.49 0.011880 47.194 0.072748 365.00 0.0027397 530.73 565.47 2.0090 2.0938 3.3824 418.49 0.011880 47.194 0.072748
128.38 1870.0 undefined 532.83 568.15 2.0142 365.00 0.0027397 532.83 568.15 2.0142 2.0973 3.3729 420.50 0.011677 47.220 0.072848 365.00 0.0027397 532.83 568.15 2.0142 2.0973 3.3729 420.50 0.011677 47.220 0.072848
129.38 1901.3 undefined 534.93 570.84 2.0194 365.00 0.0027397 534.93 570.84 2.0194 2.1008 3.3638 422.50 0.011478 47.245 0.072948 365.00 0.0027397 534.93 570.84 2.0194 2.1008 3.3638 422.50 0.011478 47.245 0.072948
130.38 1932.7 undefined 537.03 573.54 2.0247 365.00 0.0027397 537.03 573.54 2.0247 2.1042 3.3551 424.48 0.011284 47.270 0.073049 365.00 0.0027397 537.03 573.54 2.0247 2.1042 3.3551 424.48 0.011284 47.270 0.073049
131.38 1964.0 undefined 539.14 576.24 2.0299 365.00 0.0027397 539.14 576.24 2.0299 2.1077 3.3466 426.45 0.011093 47.296 0.073150 365.00 0.0027397 539.14 576.24 2.0299 2.1077 3.3466 426.45 0.011093 47.296 0.073150
132.38 1995.4 undefined 541.25 578.94 2.0351 365.00 0.0027397 541.25 578.94 2.0351 2.1112 3.3384 428.40 0.010905 47.321 0.073252 365.00 0.0027397 541.25 578.94 2.0351 2.1112 3.3384 428.40 0.010905 47.321 0.073252
133.38 2026.8 undefined 543.36 581.64 2.0403 365.00 0.0027397 543.36 581.64 2.0403 2.1147 3.3306 430.34 0.010722 47.347 0.073354 365.00 0.0027397 543.36 581.64 2.0403 2.1147 3.3306 430.34 0.010722 47.347 0.073354
134.38 2058.2 undefined 545.48 584.35 2.0455 365.00 0.0027397 545.48 584.35 2.0455 2.1183 3.3230 432.26 0.010542 47.372 0.073457 365.00 0.0027397 545.48 584.35 2.0455 2.1183 3.3230 432.26 0.010542 47.372 0.073457
135.38 2089.6 undefined 547.60 587.07 2.0507 365.00 0.0027397 547.60 587.07 2.0507 2.1218 3.3157 434.17 0.010365 47.397 0.073560 365.00 0.0027397 547.60 587.07 2.0507 2.1218 3.3157 434.17 0.010365 47.397 0.073560
136.38 2121.0 undefined 549.72 589.79 2.0559 365.00 0.0027397 549.72 589.79 2.0559 2.1254 3.3086 436.07 0.010192 47.422 0.073664 365.00 0.0027397 549.72 589.79 2.0559 2.1254 3.3086 436.07 0.010192 47.422 0.073664
137.38 2152.5 undefined 551.85 592.51 2.0611 365.00 0.0027397 551.85 592.51 2.0611 2.1289 3.3018 437.96 0.010021 47.448 0.073768 365.00 0.0027397 551.85 592.51 2.0611 2.1289 3.3018 437.96 0.010021 47.448 0.073768
138.38 2184.0 undefined 553.98 595.23 2.0662 365.00 0.0027397 553.98 595.23 2.0662 2.1325 3.2952 439.83 0.0098545 47.473 0.073873 365.00 0.0027397 553.98 595.23 2.0662 2.1325 3.2952 439.83 0.0098545 47.473 0.073873
139.38 2215.4 undefined 556.11 597.96 2.0714 365.00 0.0027397 556.11 597.96 2.0714 2.1361 3.2889 441.69 0.0096907 47.498 0.073978 365.00 0.0027397 556.11 597.96 2.0714 2.1361 3.2889 441.69 0.0096907 47.498 0.073978
140.38 2247.0 undefined 558.25 600.69 2.0766 365.00 0.0027397 558.25 600.69 2.0766 2.1397 3.2828 443.53 0.0095298 47.524 0.074084 365.00 0.0027397 558.25 600.69 2.0766 2.1397 3.2828 443.53 0.0095298 47.524 0.074084
141.38 2278.5 undefined 560.39 603.43 2.0818 365.00 0.0027397 560.39 603.43 2.0818 2.1433 3.2769 445.37 0.0093718 47.549 0.074190 365.00 0.0027397 560.39 603.43 2.0818 2.1433 3.2769 445.37 0.0093718 47.549 0.074190
142.38 2310.0 undefined 562.54 606.17 2.0869 365.00 0.0027397 562.54 606.17 2.0869 2.1469 3.2712 447.19 0.0092167 47.574 0.074297 365.00 0.0027397 562.54 606.17 2.0869 2.1469 3.2712 447.19 0.0092167 47.574 0.074297
143.38 2341.6 undefined 564.69 608.92 2.0921 365.00 0.0027397 564.69 608.92 2.0921 2.1505 3.2657 449.00 0.0090643 47.599 0.074404 365.00 0.0027397 564.69 608.92 2.0921 2.1505 3.2657 449.00 0.0090643 47.599 0.074404
144.38 2373.1 undefined 566.84 611.67 2.0973 365.00 0.0027397 566.84 611.67 2.0973 2.1541 3.2604 450.80 0.0089145 47.624 0.074511 365.00 0.0027397 566.84 611.67 2.0973 2.1541 3.2604 450.80 0.0089145 47.624 0.074511
145.38 2404.7 undefined 568.99 614.42 2.1024 365.00 0.0027397 568.99 614.42 2.1024 2.1577 3.2553 452.59 0.0087674 47.650 0.074619 365.00 0.0027397 568.99 614.42 2.1024 2.1577 3.2553 452.59 0.0087674 47.650 0.074619
146.38 2436.3 undefined 571.15 617.17 2.1076 365.00 0.0027397 571.15 617.17 2.1076 2.1614 3.2504 454.37 0.0086229 47.675 0.074727 365.00 0.0027397 571.15 617.17 2.1076 2.1614 3.2504 454.37 0.0086229 47.675 0.074727
147.38 2467.9 undefined 573.32 619.93 2.1127 365.00 0.0027397 573.32 619.93 2.1127 2.1650 3.2457 456.14 0.0084808 47.700 0.074836 365.00 0.0027397 573.32 619.93 2.1127 2.1650 3.2457 456.14 0.0084808 47.700 0.074836
148.38 2499.6 undefined 575.48 622.70 2.1179 365.00 0.0027397 575.48 622.70 2.1179 2.1686 3.2411 457.90 0.0083411 47.725 0.074945 365.00 0.0027397 575.48 622.70 2.1179 2.1686 3.2411 457.90 0.0083411 47.725 0.074945
149.38 2531.2 undefined 577.65 625.47 2.1230 365.00 0.0027397 577.65 625.47 2.1230 2.1723 3.2367 459.64 0.0082038 47.750 0.075054 365.00 0.0027397 577.65 625.47 2.1230 2.1723 3.2367 459.64 0.0082038 47.750 0.075054
150.38 2562.8 undefined 579.83 628.24 2.1281 365.00 0.0027397 579.83 628.24 2.1281 2.1759 3.2324 461.38 0.0080688 47.775 0.075164 365.00 0.0027397 579.83 628.24 2.1281 2.1759 3.2324 461.38 0.0080688 47.775 0.075164
151.38 2594.5 undefined 582.01 631.01 2.1333 365.00 0.0027397 582.01 631.01 2.1333 2.1796 3.2283 463.11 0.0079361 47.800 0.075275 365.00 0.0027397 582.01 631.01 2.1333 2.1796 3.2283 463.11 0.0079361 47.800 0.075275
152.38 2626.2 undefined 584.19 633.79 2.1384 365.00 0.0027397 584.19 633.79 2.1384 2.1832 3.2244 464.83 0.0078055 47.826 0.075385 365.00 0.0027397 584.19 633.79 2.1384 2.1832 3.2244 464.83 0.0078055 47.826 0.075385
153.38 2657.8 undefined 586.37 636.58 2.1435 365.00 0.0027397 586.37 636.58 2.1435 2.1869 3.2206 466.53 0.0076771 47.851 0.075497 365.00 0.0027397 586.37 636.58 2.1435 2.1869 3.2206 466.53 0.0076771 47.851 0.075497
154.38 2689.5 undefined 588.56 639.36 2.1487 365.00 0.0027397 588.56 639.36 2.1487 2.1906 3.2169 468.23 0.0075508 47.876 0.075608 365.00 0.0027397 588.56 639.36 2.1487 2.1906 3.2169 468.23 0.0075508 47.876 0.075608
155.38 2721.2 undefined 590.75 642.16 2.1538 365.00 0.0027397 590.75 642.16 2.1538 2.1942 3.2134 469.92 0.0074265 47.901 0.075720 365.00 0.0027397 590.75 642.16 2.1538 2.1942 3.2134 469.92 0.0074265 47.901 0.075720
156.38 2752.9 undefined 592.95 644.95 2.1589 365.00 0.0027397 592.95 644.95 2.1589 2.1979 3.2100 471.60 0.0073042 47.926 0.075832 365.00 0.0027397 592.95 644.95 2.1589 2.1979 3.2100 471.60 0.0073042 47.926 0.075832
157.38 2784.6 undefined 595.15 647.75 2.1640 365.00 0.0027397 595.15 647.75 2.1640 2.2016 3.2068 473.27 0.0071838 47.951 0.075945 365.00 0.0027397 595.15 647.75 2.1640 2.2016 3.2068 473.27 0.0071838 47.951 0.075945
158.38 2816.4 undefined 597.35 650.55 2.1691 365.00 0.0027397 597.35 650.55 2.1691 2.2053 3.2036 474.94 0.0070654 47.976 0.076058 365.00 0.0027397 597.35 650.55 2.1691 2.2053 3.2036 474.94 0.0070654 47.976 0.076058
159.38 2848.1 undefined 599.56 653.36 2.1742 365.00 0.0027397 599.56 653.36 2.1742 2.2089 3.2006 476.59 0.0069488 48.001 0.076171 365.00 0.0027397 599.56 653.36 2.1742 2.2089 3.2006 476.59 0.0069488 48.001 0.076171
160.38 2879.8 undefined 601.77 656.17 2.1794 365.00 0.0027397 601.77 656.17 2.1794 2.2126 3.1977 478.24 0.0068340 48.026 0.076285 365.00 0.0027397 601.77 656.17 2.1794 2.2126 3.1977 478.24 0.0068340 48.026 0.076285
161.38 2911.6 undefined 603.98 658.98 2.1845 365.00 0.0027397 603.98 658.98 2.1845 2.2163 3.1949 479.88 0.0067210 48.051 0.076399 365.00 0.0027397 603.98 658.98 2.1845 2.2163 3.1949 479.88 0.0067210 48.051 0.076399
162.38 2943.4 undefined 606.20 661.80 2.1896 365.00 0.0027397 606.20 661.80 2.1896 2.2200 3.1922 481.50 0.0066098 48.076 0.076514 365.00 0.0027397 606.20 661.80 2.1896 2.2200 3.1922 481.50 0.0066098 48.076 0.076514
163.38 2975.1 undefined 608.42 664.62 2.1947 365.00 0.0027397 608.42 664.62 2.1947 2.2237 3.1897 483.13 0.0065003 48.101 0.076629 365.00 0.0027397 608.42 664.62 2.1947 2.2237 3.1897 483.13 0.0065003 48.101 0.076629
164.38 3006.9 undefined 610.65 667.45 2.1997 365.00 0.0027397 610.65 667.45 2.1997 2.2274 3.1872 484.74 0.0063924 48.126 0.076744 365.00 0.0027397 610.65 667.45 2.1997 2.2274 3.1872 484.74 0.0063924 48.126 0.076744
165.38 3038.7 undefined 612.88 670.28 2.2048 365.00 0.0027397 612.88 670.28 2.2048 2.2311 3.1849 486.34 0.0062861 48.150 0.076860 365.00 0.0027397 612.88 670.28 2.2048 2.2311 3.1849 486.34 0.0062861 48.150 0.076860
166.38 3070.4 undefined 615.11 673.11 2.2099 365.00 0.0027397 615.11 673.11 2.2099 2.2348 3.1826 487.94 0.0061815 48.175 0.076976 365.00 0.0027397 615.11 673.11 2.2099 2.2348 3.1826 487.94 0.0061815 48.175 0.076976
167.38 3102.2 undefined 617.35 675.95 2.2150 365.00 0.0027397 617.35 675.95 2.2150 2.2385 3.1805 489.53 0.0060784 48.200 0.077092 365.00 0.0027397 617.35 675.95 2.2150 2.2385 3.1805 489.53 0.0060784 48.200 0.077092
168.38 3134.0 undefined 619.59 678.79 2.2201 365.00 0.0027397 619.59 678.79 2.2201 2.2421 3.1784 491.11 0.0059768 48.225 0.077209 365.00 0.0027397 619.59 678.79 2.2201 2.2421 3.1784 491.11 0.0059768 48.225 0.077209
169.38 3165.8 undefined 621.83 681.63 2.2252 365.00 0.0027397 621.83 681.63 2.2252 2.2458 3.1764 492.69 0.0058767 48.250 0.077326 365.00 0.0027397 621.83 681.63 2.2252 2.2458 3.1764 492.69 0.0058767 48.250 0.077326
170.38 3197.6 undefined 624.08 684.48 2.2302 365.00 0.0027397 624.08 684.48 2.2302 2.2495 3.1745 494.26 0.0057781 48.275 0.077443 365.00 0.0027397 624.08 684.48 2.2302 2.2495 3.1745 494.26 0.0057781 48.275 0.077443
171.38 3229.4 undefined 626.33 687.34 2.2353 365.00 0.0027397 626.33 687.34 2.2353 2.2532 3.1727 495.82 0.0056809 48.300 0.077561 365.00 0.0027397 626.33 687.34 2.2353 2.2532 3.1727 495.82 0.0056809 48.300 0.077561
172.38 3261.3 undefined 628.59 690.19 2.2404 365.00 0.0027397 628.59 690.19 2.2404 2.2569 3.1710 497.37 0.0055851 48.324 0.077679 365.00 0.0027397 628.59 690.19 2.2404 2.2569 3.1710 497.37 0.0055851 48.324 0.077679
173.38 3293.1 undefined 630.85 693.05 2.2454 365.00 0.0027397 630.85 693.05 2.2454 2.2606 3.1694 498.91 0.0054907 48.349 0.077797 365.00 0.0027397 630.85 693.05 2.2454 2.2606 3.1694 498.91 0.0054907 48.349 0.077797
174.38 3324.9 undefined 633.11 695.92 2.2505 365.00 0.0027397 633.11 695.92 2.2505 2.2643 3.1678 500.45 0.0053977 48.374 0.077916 365.00 0.0027397 633.11 695.92 2.2505 2.2643 3.1678 500.45 0.0053977 48.374 0.077916
175.38 3356.7 undefined 635.37 698.78 2.2556 365.00 0.0027397 635.37 698.78 2.2556 2.2680 3.1664 501.99 0.0053060 48.399 0.078035 365.00 0.0027397 635.37 698.78 2.2556 2.2680 3.1664 501.99 0.0053060 48.399 0.078035
176.38 3388.6 undefined 637.64 701.65 2.2606 365.00 0.0027397 637.64 701.65 2.2606 2.2717 3.1650 503.51 0.0052155 48.424 0.078155 365.00 0.0027397 637.64 701.65 2.2606 2.2717 3.1650 503.51 0.0052155 48.424 0.078155
177.38 3420.4 undefined 639.92 704.53 2.2657 365.00 0.0027397 639.92 704.53 2.2657 2.2754 3.1637 505.03 0.0051264 48.448 0.078275 365.00 0.0027397 639.92 704.53 2.2657 2.2754 3.1637 505.03 0.0051264 48.448 0.078275
178.38 3452.2 undefined 642.20 707.41 2.2707 365.00 0.0027397 642.20 707.41 2.2707 2.2791 3.1624 506.54 0.0050385 48.473 0.078395 365.00 0.0027397 642.20 707.41 2.2707 2.2791 3.1624 506.54 0.0050385 48.473 0.078395
179.38 3484.1 undefined 644.48 710.29 2.2758 365.00 0.0027397 644.48 710.29 2.2758 2.2828 3.1612 508.05 0.0049518 48.498 0.078515 365.00 0.0027397 644.48 710.29 2.2758 2.2828 3.1612 508.05 0.0049518 48.498 0.078515
180.38 3515.9 undefined 646.76 713.18 2.2808 365.00 0.0027397 646.76 713.18 2.2808 2.2865 3.1601 509.55 0.0048663 48.522 0.078636 365.00 0.0027397 646.76 713.18 2.2808 2.2865 3.1601 509.55 0.0048663 48.522 0.078636
181.38 3547.8 undefined 649.05 716.07 2.2858 365.00 0.0027397 649.05 716.07 2.2858 2.2902 3.1591 511.04 0.0047819 48.547 0.078757 365.00 0.0027397 649.05 716.07 2.2858 2.2902 3.1591 511.04 0.0047819 48.547 0.078757
182.38 3579.6 undefined 651.34 718.96 2.2909 365.00 0.0027397 651.34 718.96 2.2909 2.2939 3.1581 512.53 0.0046988 48.572 0.078878 365.00 0.0027397 651.34 718.96 2.2909 2.2939 3.1581 512.53 0.0046988 48.572 0.078878
183.38 3611.5 undefined 653.64 721.86 2.2959 365.00 0.0027397 653.64 721.86 2.2959 2.2976 3.1572 514.01 0.0046167 48.596 0.079000 365.00 0.0027397 653.64 721.86 2.2959 2.2976 3.1572 514.01 0.0046167 48.596 0.079000
184.38 3643.3 undefined 655.94 724.76 2.3009 365.00 0.0027397 655.94 724.76 2.3009 2.3013 3.1564 515.48 0.0045358 48.621 0.079122 365.00 0.0027397 655.94 724.76 2.3009 2.3013 3.1564 515.48 0.0045358 48.621 0.079122
185.38 3675.2 undefined 658.24 727.66 2.3060 365.00 0.0027397 658.24 727.66 2.3060 2.3050 3.1556 516.95 0.0044559 48.646 0.079245 365.00 0.0027397 658.24 727.66 2.3060 2.3050 3.1556 516.95 0.0044559 48.646 0.079245
186.38 3707.0 undefined 660.55 730.57 2.3110 365.00 0.0027397 660.55 730.57 2.3110 2.3087 3.1549 518.41 0.0043771 48.670 0.079368 365.00 0.0027397 660.55 730.57 2.3110 2.3087 3.1549 518.41 0.0043771 48.670 0.079368
187.38 3738.9 undefined 662.86 733.48 2.3160 365.00 0.0027397 662.86 733.48 2.3160 2.3123 3.1542 519.87 0.0042994 48.695 0.079491 365.00 0.0027397 662.86 733.48 2.3160 2.3123 3.1542 519.87 0.0042994 48.695 0.079491
188.38 3770.8 undefined 665.17 736.40 2.3210 365.00 0.0027397 665.17 736.40 2.3210 2.3160 3.1536 521.32 0.0042227 48.719 0.079614 365.00 0.0027397 665.17 736.40 2.3210 2.3160 3.1536 521.32 0.0042227 48.719 0.079614
189.38 3802.6 undefined 667.49 739.32 2.3261 365.00 0.0027397 667.49 739.32 2.3261 2.3197 3.1530 522.76 0.0041470 48.744 0.079738 365.00 0.0027397 667.49 739.32 2.3261 2.3197 3.1530 522.76 0.0041470 48.744 0.079738
190.38 3834.5 undefined 669.81 742.24 2.3311 365.00 0.0027397 669.81 742.24 2.3311 2.3234 3.1525 524.20 0.0040723 48.769 0.079862 365.00 0.0027397 669.81 742.24 2.3311 2.3234 3.1525 524.20 0.0040723 48.769 0.079862
191.38 3866.3 undefined 672.14 745.17 2.3361 365.00 0.0027397 672.14 745.17 2.3361 2.3271 3.1521 525.63 0.0039986 48.793 0.079986 365.00 0.0027397 672.14 745.17 2.3361 2.3271 3.1521 525.63 0.0039986 48.793 0.079986
192.38 3898.2 undefined 674.46 748.10 2.3411 365.00 0.0027397 674.46 748.10 2.3411 2.3308 3.1517 527.06 0.0039258 48.818 0.080111 365.00 0.0027397 674.46 748.10 2.3411 2.3308 3.1517 527.06 0.0039258 48.818 0.080111
193.38 3930.1 undefined 676.80 751.04 2.3461 365.00 0.0027397 676.80 751.04 2.3461 2.3345 3.1514 528.48 0.0038540 48.842 0.080236 365.00 0.0027397 676.80 751.04 2.3461 2.3345 3.1514 528.48 0.0038540 48.842 0.080236
194.38 3961.9 undefined 679.13 753.97 2.3511 365.00 0.0027397 679.13 753.97 2.3511 2.3382 3.1511 529.90 0.0037831 48.867 0.080361 365.00 0.0027397 679.13 753.97 2.3511 2.3382 3.1511 529.90 0.0037831 48.867 0.080361
195.38 3993.8 undefined 681.47 756.92 2.3561 365.00 0.0027397 681.47 756.92 2.3561 2.3418 3.1508 531.31 0.0037131 48.891 0.080487 365.00 0.0027397 681.47 756.92 2.3561 2.3418 3.1508 531.31 0.0037131 48.891 0.080487
196.38 4025.7 undefined 683.82 759.86 2.3611 365.00 0.0027397 683.82 759.86 2.3611 2.3455 3.1506 532.71 0.0036439 48.916 0.080613 365.00 0.0027397 683.82 759.86 2.3611 2.3455 3.1506 532.71 0.0036439 48.916 0.080613
197.38 4057.5 undefined 686.16 762.81 2.3661 365.00 0.0027397 686.16 762.81 2.3661 2.3492 3.1505 534.11 0.0035757 48.940 0.080739 365.00 0.0027397 686.16 762.81 2.3661 2.3492 3.1505 534.11 0.0035757 48.940 0.080739
198.38 4089.4 undefined 688.52 765.76 2.3711 365.00 0.0027397 688.52 765.76 2.3711 2.3529 3.1504 535.51 0.0035083 48.964 0.080865 365.00 0.0027397 688.52 765.76 2.3711 2.3529 3.1504 535.51 0.0035083 48.964 0.080865
199.38 4121.3 undefined 690.87 768.72 2.3761 365.00 0.0027397 690.87 768.72 2.3761 2.3566 3.1503 536.90 0.0034418 48.989 0.080992 365.00 0.0027397 690.87 768.72 2.3761 2.3566 3.1503 536.90 0.0034418 48.989 0.080992
200.38 4153.1 undefined 693.23 771.68 2.3811 365.00 0.0027397 693.23 771.68 2.3811 2.3602 3.1503 538.28 0.0033761 49.013 0.081119 365.00 0.0027397 693.23 771.68 2.3811 2.3602 3.1503 538.28 0.0033761 49.013 0.081119
201.38 4185.0 undefined 695.59 774.64 2.3860 365.00 0.0027397 695.59 774.64 2.3860 2.3639 3.1504 539.66 0.0033112 49.038 0.081247 365.00 0.0027397 695.59 774.64 2.3860 2.3639 3.1504 539.66 0.0033112 49.038 0.081247
202.38 4216.8 undefined 697.96 777.61 2.3910 365.00 0.0027397 697.96 777.61 2.3910 2.3676 3.1504 541.04 0.0032471 49.062 0.081374 365.00 0.0027397 697.96 777.61 2.3910 2.3676 3.1504 541.04 0.0032471 49.062 0.081374
203.38 4248.7 undefined 700.33 780.58 2.3960 365.00 0.0027397 700.33 780.58 2.3960 2.3712 3.1505 542.41 0.0031838 49.086 0.081502 365.00 0.0027397 700.33 780.58 2.3960 2.3712 3.1505 542.41 0.0031838 49.086 0.081502
204.38 4280.5 undefined 702.70 783.56 2.4010 365.00 0.0027397 702.70 783.56 2.4010 2.3749 3.1507 543.77 0.0031213 49.111 0.081631 365.00 0.0027397 702.70 783.56 2.4010 2.3749 3.1507 543.77 0.0031213 49.111 0.081631
205.38 4312.4 undefined 705.08 786.54 2.4059 365.00 0.0027397 705.08 786.54 2.4059 2.3786 3.1509 545.13 0.0030596 49.135 0.081759 365.00 0.0027397 705.08 786.54 2.4059 2.3786 3.1509 545.13 0.0030596 49.135 0.081759
206.38 4344.3 undefined 707.46 789.52 2.4109 365.00 0.0027397 707.46 789.52 2.4109 2.3822 3.1511 546.49 0.0029986 49.159 0.081888 365.00 0.0027397 707.46 789.52 2.4109 2.3822 3.1511 546.49 0.0029986 49.159 0.081888
207.38 4376.1 undefined 709.84 792.50 2.4159 365.00 0.0027397 709.84 792.50 2.4159 2.3859 3.1514 547.84 0.0029383 49.183 0.082018 365.00 0.0027397 709.84 792.50 2.4159 2.3859 3.1514 547.84 0.0029383 49.183 0.082018
208.38 4408.0 undefined 712.23 795.49 2.4208 365.00 0.0027397 712.23 795.49 2.4208 2.3896 3.1517 549.18 0.0028788 49.208 0.082147 365.00 0.0027397 712.23 795.49 2.4208 2.3896 3.1517 549.18 0.0028788 49.208 0.082147
209.38 4439.8 undefined 714.62 798.49 2.4258 365.00 0.0027397 714.62 798.49 2.4258 2.3932 3.1520 550.52 0.0028199 49.232 0.082277 365.00 0.0027397 714.62 798.49 2.4258 2.3932 3.1520 550.52 0.0028199 49.232 0.082277
210.38 4471.6 undefined 717.01 801.48 2.4308 365.00 0.0027397 717.01 801.48 2.4308 2.3969 3.1524 551.86 0.0027618 49.256 0.082407 365.00 0.0027397 717.01 801.48 2.4308 2.3969 3.1524 551.86 0.0027618 49.256 0.082407
211.38 4503.5 undefined 719.41 804.48 2.4357 365.00 0.0027397 719.41 804.48 2.4357 2.4005 3.1528 553.19 0.0027044 49.280 0.082538 365.00 0.0027397 719.41 804.48 2.4357 2.4005 3.1528 553.19 0.0027044 49.280 0.082538
212.38 4535.3 undefined 721.82 807.49 2.4407 365.00 0.0027397 721.82 807.49 2.4407 2.4042 3.1533 554.52 0.0026477 49.305 0.082668 365.00 0.0027397 721.82 807.49 2.4407 2.4042 3.1533 554.52 0.0026477 49.305 0.082668
213.38 4567.2 undefined 724.22 810.49 2.4456 365.00 0.0027397 724.22 810.49 2.4456 2.4078 3.1538 555.84 0.0025916 49.329 0.082799 365.00 0.0027397 724.22 810.49 2.4456 2.4078 3.1538 555.84 0.0025916 49.329 0.082799
214.38 4599.0 undefined 726.63 813.51 2.4506 365.00 0.0027397 726.63 813.51 2.4506 2.4115 3.1543 557.16 0.0025362 49.353 0.082931 365.00 0.0027397 726.63 813.51 2.4506 2.4115 3.1543 557.16 0.0025362 49.353 0.082931
215.38 4630.8 undefined 729.04 816.52 2.4555 365.00 0.0027397 729.04 816.52 2.4555 2.4151 3.1548 558.47 0.0024814 49.377 0.083062 365.00 0.0027397 729.04 816.52 2.4555 2.4151 3.1548 558.47 0.0024814 49.377 0.083062
216.38 4662.7 undefined 731.46 819.54 2.4605 365.00 0.0027397 731.46 819.54 2.4605 2.4188 3.1554 559.78 0.0024273 49.401 0.083194 365.00 0.0027397 731.46 819.54 2.4605 2.4188 3.1554 559.78 0.0024273 49.401 0.083194
217.38 4694.5 undefined 733.88 822.56 2.4654 365.00 0.0027397 733.88 822.56 2.4654 2.4224 3.1560 561.09 0.0023738 49.425 0.083326 365.00 0.0027397 733.88 822.56 2.4654 2.4224 3.1560 561.09 0.0023738 49.425 0.083326
218.38 4726.3 undefined 736.31 825.59 2.4703 365.00 0.0027397 736.31 825.59 2.4703 2.4261 3.1567 562.39 0.0023209 49.450 0.083458 365.00 0.0027397 736.31 825.59 2.4703 2.4261 3.1567 562.39 0.0023209 49.450 0.083458
219.38 4758.1 undefined 738.73 828.61 2.4753 365.00 0.0027397 738.73 828.61 2.4753 2.4297 3.1573 563.68 0.0022687 49.474 0.083591 365.00 0.0027397 738.73 828.61 2.4753 2.4297 3.1573 563.68 0.0022687 49.474 0.083591
220.38 4789.9 undefined 741.17 831.65 2.4802 365.00 0.0027397 741.17 831.65 2.4802 2.4333 3.1580 564.97 0.0022170 49.498 0.083724 365.00 0.0027397 741.17 831.65 2.4802 2.4333 3.1580 564.97 0.0022170 49.498 0.083724
221.38 4821.8 undefined 743.60 834.68 2.4851 365.00 0.0027397 743.60 834.68 2.4851 2.4370 3.1588 566.26 0.0021659 49.522 0.083857 365.00 0.0027397 743.60 834.68 2.4851 2.4370 3.1588 566.26 0.0021659 49.522 0.083857
222.38 4853.6 undefined 746.04 837.72 2.4901 365.00 0.0027397 746.04 837.72 2.4901 2.4406 3.1595 567.55 0.0021154 49.546 0.083991 365.00 0.0027397 746.04 837.72 2.4901 2.4406 3.1595 567.55 0.0021154 49.546 0.083991
223.38 4885.4 undefined 748.48 840.77 2.4950 365.00 0.0027397 748.48 840.77 2.4950 2.4442 3.1603 568.83 0.0020655 49.570 0.084125 365.00 0.0027397 748.48 840.77 2.4950 2.4442 3.1603 568.83 0.0020655 49.570 0.084125
224.38 4917.2 undefined 750.93 843.81 2.4999 365.00 0.0027397 750.93 843.81 2.4999 2.4479 3.1611 570.10 0.0020162 49.594 0.084259 365.00 0.0027397 750.93 843.81 2.4999 2.4479 3.1611 570.10 0.0020162 49.594 0.084259
225.38 4949.0 undefined 753.38 846.86 2.5048 365.00 0.0027397 753.38 846.86 2.5048 2.4515 3.1620 571.37 0.0019674 49.618 0.084393 365.00 0.0027397 753.38 846.86 2.5048 2.4515 3.1620 571.37 0.0019674 49.618 0.084393
226.38 4980.8 undefined 755.83 849.92 2.5097 365.00 0.0027397 755.83 849.92 2.5097 2.4551 3.1628 572.64 0.0019191 49.642 0.084528 365.00 0.0027397 755.83 849.92 2.5097 2.4551 3.1628 572.64 0.0019191 49.642 0.084528
227.38 5012.6 undefined 758.29 852.97 2.5146 365.00 0.0027397 758.29 852.97 2.5146 2.4587 3.1637 573.90 0.0018714 49.666 0.084663 365.00 0.0027397 758.29 852.97 2.5146 2.4587 3.1637 573.90 0.0018714 49.666 0.084663
228.38 5044.3 undefined 760.75 856.03 2.5196 365.00 0.0027397 760.75 856.03 2.5196 2.4623 3.1646 575.16 0.0018243 49.690 0.084798 365.00 0.0027397 760.75 856.03 2.5196 2.4623 3.1646 575.16 0.0018243 49.690 0.084798
229.38 5076.1 undefined 763.21 859.10 2.5245 365.00 0.0027397 763.21 859.10 2.5245 2.4659 3.1656 576.42 0.0017776 49.714 0.084933 365.00 0.0027397 763.21 859.10 2.5245 2.4659 3.1656 576.42 0.0017776 49.714 0.084933
230.38 5107.9 undefined 765.68 862.17 2.5294 365.00 0.0027397 765.68 862.17 2.5294 2.4696 3.1665 577.67 0.0017315 49.737 0.085069 365.00 0.0027397 765.68 862.17 2.5294 2.4696 3.1665 577.67 0.0017315 49.737 0.085069
231.38 5139.7 undefined 768.15 865.24 2.5343 365.00 0.0027397 768.15 865.24 2.5343 2.4732 3.1675 578.92 0.0016859 49.761 0.085205 365.00 0.0027397 768.15 865.24 2.5343 2.4732 3.1675 578.92 0.0016859 49.761 0.085205
232.38 5171.4 undefined 770.63 868.31 2.5392 365.00 0.0027397 770.63 868.31 2.5392 2.4768 3.1685 580.17 0.0016408 49.785 0.085341 365.00 0.0027397 770.63 868.31 2.5392 2.4768 3.1685 580.17 0.0016408 49.785 0.085341
233.38 5203.2 undefined 773.11 871.39 2.5441 365.00 0.0027397 773.11 871.39 2.5441 2.4804 3.1696 581.41 0.0015961 49.809 0.085478 365.00 0.0027397 773.11 871.39 2.5441 2.4804 3.1696 581.41 0.0015961 49.809 0.085478
234.38 5235.0 undefined 775.59 874.47 2.5490 365.00 0.0027397 775.59 874.47 2.5490 2.4840 3.1706 582.64 0.0015520 49.833 0.085615 365.00 0.0027397 775.59 874.47 2.5490 2.4840 3.1706 582.64 0.0015520 49.833 0.085615
235.38 5266.7 undefined 778.07 877.56 2.5539 365.00 0.0027397 778.07 877.56 2.5539 2.4876 3.1717 583.88 0.0015084 49.857 0.085752 365.00 0.0027397 778.07 877.56 2.5539 2.4876 3.1717 583.88 0.0015084 49.857 0.085752
236.38 5298.5 undefined 780.56 880.65 2.5588 365.00 0.0027397 780.56 880.65 2.5588 2.4912 3.1728 585.11 0.0014652 49.881 0.085889 365.00 0.0027397 780.56 880.65 2.5588 2.4912 3.1728 585.11 0.0014652 49.881 0.085889
237.38 5330.2 undefined 783.06 883.74 2.5636 365.00 0.0027397 783.06 883.74 2.5636 2.4947 3.1739 586.33 0.0014225 49.904 0.086026 365.00 0.0027397 783.06 883.74 2.5636 2.4947 3.1739 586.33 0.0014225 49.904 0.086026
238.38 5361.9 undefined 785.55 886.84 2.5685 365.00 0.0027397 785.55 886.84 2.5685 2.4983 3.1751 587.56 0.0013802 49.928 0.086164 365.00 0.0027397 785.55 886.84 2.5685 2.4983 3.1751 587.56 0.0013802 49.928 0.086164
239.38 5393.7 undefined 788.05 889.94 2.5734 365.00 0.0027397 788.05 889.94 2.5734 2.5019 3.1762 588.77 0.0013384 49.952 0.086302 365.00 0.0027397 788.05 889.94 2.5734 2.5019 3.1762 588.77 0.0013384 49.952 0.086302
240.38 5425.4 undefined 790.56 893.04 2.5783 365.00 0.0027397 790.56 893.04 2.5783 2.5055 3.1774 589.99 0.0012971 49.976 0.086440 365.00 0.0027397 790.56 893.04 2.5783 2.5055 3.1774 589.99 0.0012971 49.976 0.086440
241.38 5457.1 undefined 793.06 896.15 2.5832 365.00 0.0027397 793.06 896.15 2.5832 2.5091 3.1786 591.20 0.0012562 49.999 0.086579 365.00 0.0027397 793.06 896.15 2.5832 2.5091 3.1786 591.20 0.0012562 49.999 0.086579
242.38 5488.8 undefined 795.57 899.26 2.5880 365.00 0.0027397 795.57 899.26 2.5880 2.5127 3.1799 592.41 0.0012157 50.023 0.086717 365.00 0.0027397 795.57 899.26 2.5880 2.5127 3.1799 592.41 0.0012157 50.023 0.086717
243.38 5520.6 undefined 798.09 902.37 2.5929 365.00 0.0027397 798.09 902.37 2.5929 2.5162 3.1811 593.62 0.0011757 50.047 0.086856 365.00 0.0027397 798.09 902.37 2.5929 2.5162 3.1811 593.62 0.0011757 50.047 0.086856
244.38 5552.3 undefined 800.61 905.49 2.5978 365.00 0.0027397 800.61 905.49 2.5978 2.5198 3.1824 594.82 0.0011361 50.070 0.086996 365.00 0.0027397 800.61 905.49 2.5978 2.5198 3.1824 594.82 0.0011361 50.070 0.086996
245.38 5584.0 undefined 803.13 908.61 2.6027 365.00 0.0027397 803.13 908.61 2.6027 2.5234 3.1836 596.02 0.0010969 50.094 0.087135 365.00 0.0027397 803.13 908.61 2.6027 2.5234 3.1836 596.02 0.0010969 50.094 0.087135
246.38 5615.7 undefined 805.65 911.73 2.6075 365.00 0.0027397 805.65 911.73 2.6075 2.5269 3.1849 597.21 0.0010581 50.118 0.087275 365.00 0.0027397 805.65 911.73 2.6075 2.5269 3.1849 597.21 0.0010581 50.118 0.087275
247.38 5647.3 undefined 808.18 914.86 2.6124 365.00 0.0027397 808.18 914.86 2.6124 2.5305 3.1862 598.40 0.0010197 50.141 0.087418 365.00 0.0027397 808.18 914.86 2.6124 2.5305 3.1862 598.40 0.0010197 50.141 0.087418
248.38 5679.0 undefined 810.71 917.99 2.6172 365.00 0.0027397 810.71 917.99 2.6172 2.5341 3.1876 599.59 0.00098174 50.165 0.087566 365.00 0.0027397 810.71 917.99 2.6172 2.5341 3.1876 599.59 0.00098174 50.165 0.087566
249.38 5710.7 undefined 813.25 921.12 2.6221 365.00 0.0027397 813.25 921.12 2.6221 2.5376 3.1889 600.78 0.00094417 50.188 0.087714 365.00 0.0027397 813.25 921.12 2.6221 2.5376 3.1889 600.78 0.00094417 50.188 0.087714
250.38 5742.4 undefined 815.79 924.26 2.6270 365.00 0.0027397 815.79 924.26 2.6270 2.5412 3.1903 601.96 0.00090698 50.212 0.087863 365.00 0.0027397 815.79 924.26 2.6270 2.5412 3.1903 601.96 0.00090698 50.212 0.087863
251.38 5774.0 undefined 818.33 927.40 2.6318 365.00 0.0027397 818.33 927.40 2.6318 2.5447 3.1917 603.14 0.00087018 50.236 0.088012 365.00 0.0027397 818.33 927.40 2.6318 2.5447 3.1917 603.14 0.00087018 50.236 0.088012
252.38 5805.7 undefined 820.88 930.55 2.6367 365.00 0.0027397 820.88 930.55 2.6367 2.5483 3.1931 604.31 0.00083376 50.259 0.088161 365.00 0.0027397 820.88 930.55 2.6367 2.5483 3.1931 604.31 0.00083376 50.259 0.088161
253.38 5837.4 undefined 823.43 933.70 2.6415 365.00 0.0027397 823.43 933.70 2.6415 2.5518 3.1945 605.48 0.00079772 50.283 0.088311 365.00 0.0027397 823.43 933.70 2.6415 2.5518 3.1945 605.48 0.00079772 50.283 0.088311
254.38 5869.0 undefined 825.98 936.85 2.6463 365.00 0.0027397 825.98 936.85 2.6463 2.5553 3.1959 606.65 0.00076205 50.306 0.088461 365.00 0.0027397 825.98 936.85 2.6463 2.5553 3.1959 606.65 0.00076205 50.306 0.088461
255.38 5900.7 undefined 828.54 940.00 2.6512 365.00 0.0027397 828.54 940.00 2.6512 2.5589 3.1974 607.82 0.00072674 50.330 0.088611 365.00 0.0027397 828.54 940.00 2.6512 2.5589 3.1974 607.82 0.00072674 50.330 0.088611
256.38 5932.3 undefined 831.10 943.16 2.6560 365.00 0.0027397 831.10 943.16 2.6560 2.5624 3.1988 608.98 0.00069180 50.353 0.088761 365.00 0.0027397 831.10 943.16 2.6560 2.5624 3.1988 608.98 0.00069180 50.353 0.088761
257.38 5963.9 undefined 833.66 946.32 2.6609 365.00 0.0027397 833.66 946.32 2.6609 2.5659 3.2003 610.14 0.00065721 50.376 0.088912 365.00 0.0027397 833.66 946.32 2.6609 2.5659 3.2003 610.14 0.00065721 50.376 0.088912
258.38 5995.5 undefined 836.23 949.49 2.6657 365.00 0.0027397 836.23 949.49 2.6657 2.5695 3.2018 611.30 0.00062297 50.400 0.089063 365.00 0.0027397 836.23 949.49 2.6657 2.5695 3.2018 611.30 0.00062297 50.400 0.089063
259.38 6027.2 undefined 838.80 952.65 2.6705 365.00 0.0027397 838.80 952.65 2.6705 2.5730 3.2033 612.45 0.00058908 50.423 0.089215 365.00 0.0027397 838.80 952.65 2.6705 2.5730 3.2033 612.45 0.00058908 50.423 0.089215
260.38 6058.8 undefined 841.38 955.83 2.6754 365.00 0.0027397 841.38 955.83 2.6754 2.5765 3.2048 613.60 0.00055553 50.447 0.089366 365.00 0.0027397 841.38 955.83 2.6754 2.5765 3.2048 613.60 0.00055553 50.447 0.089366
261.38 6090.4 undefined 843.96 959.00 2.6802 365.00 0.0027397 843.96 959.00 2.6802 2.5800 3.2064 614.75 0.00052232 50.470 0.089518 365.00 0.0027397 843.96 959.00 2.6802 2.5800 3.2064 614.75 0.00052232 50.470 0.089518
262.38 6122.0 undefined 846.54 962.18 2.6850 365.00 0.0027397 846.54 962.18 2.6850 2.5835 3.2079 615.90 0.00048945 50.493 0.089671 365.00 0.0027397 846.54 962.18 2.6850 2.5835 3.2079 615.90 0.00048945 50.493 0.089671
263.38 6153.6 undefined 849.12 965.36 2.6898 365.00 0.0027397 849.12 965.36 2.6898 2.5870 3.2095 617.04 0.00045690 50.517 0.089823 365.00 0.0027397 849.12 965.36 2.6898 2.5870 3.2095 617.04 0.00045690 50.517 0.089823
264.38 6185.1 undefined 851.71 968.55 2.6947 365.00 0.0027397 851.71 968.55 2.6947 2.5905 3.2110 618.18 0.00042468 50.540 0.089976 365.00 0.0027397 851.71 968.55 2.6947 2.5905 3.2110 618.18 0.00042468 50.540 0.089976
265.38 6216.7 undefined 854.30 971.74 2.6995 365.00 0.0027397 854.30 971.74 2.6995 2.5941 3.2126 619.31 0.00039278 50.563 0.090129 365.00 0.0027397 854.30 971.74 2.6995 2.5941 3.2126 619.31 0.00039278 50.563 0.090129
266.38 6248.3 undefined 856.90 974.93 2.7043 365.00 0.0027397 856.90 974.93 2.7043 2.5976 3.2142 620.44 0.00036120 50.587 0.090283 365.00 0.0027397 856.90 974.93 2.7043 2.5976 3.2142 620.44 0.00036120 50.587 0.090283
267.38 6279.9 undefined 859.50 978.12 2.7091 365.00 0.0027397 859.50 978.12 2.7091 2.6010 3.2158 621.58 0.00032994 50.610 0.090436 365.00 0.0027397 859.50 978.12 2.7091 2.6010 3.2158 621.58 0.00032994 50.610 0.090436
268.38 6311.4 undefined 862.10 981.32 2.7139 365.00 0.0027397 862.10 981.32 2.7139 2.6045 3.2174 622.70 0.00029898 50.633 0.090590 365.00 0.0027397 862.10 981.32 2.7139 2.6045 3.2174 622.70 0.00029898 50.633 0.090590
269.38 6343.0 undefined 864.71 984.53 2.7187 365.00 0.0027397 864.71 984.53 2.7187 2.6080 3.2191 623.83 0.00026833 50.656 0.090745 365.00 0.0027397 864.71 984.53 2.7187 2.6080 3.2191 623.83 0.00026833 50.656 0.090745
270.38 6374.5 undefined 867.32 987.73 2.7235 365.00 0.0027397 867.32 987.73 2.7235 2.6115 3.2207 624.95 0.00023798 50.680 0.090899 365.00 0.0027397 867.32 987.73 2.7235 2.6115 3.2207 624.95 0.00023798 50.680 0.090899
271.38 6406.0 undefined 869.93 990.94 2.7283 365.00 0.0027397 869.93 990.94 2.7283 2.6150 3.2224 626.07 0.00020793 50.703 0.091054 365.00 0.0027397 869.93 990.94 2.7283 2.6150 3.2224 626.07 0.00020793 50.703 0.091054
272.38 6437.6 undefined 872.55 994.15 2.7331 365.00 0.0027397 872.55 994.15 2.7331 2.6185 3.2241 627.18 0.00017817 50.726 0.091209 365.00 0.0027397 872.55 994.15 2.7331 2.6185 3.2241 627.18 0.00017817 50.726 0.091209
273.38 6469.1 undefined 875.17 997.37 2.7379 365.00 0.0027397 875.17 997.37 2.7379 2.6220 3.2257 628.30 0.00014871 50.749 0.091365 365.00 0.0027397 875.17 997.37 2.7379 2.6220 3.2257 628.30 0.00014871 50.749 0.091365
274.38 6500.6 undefined 877.79 1000.6 2.7427 365.00 0.0027397 877.79 1000.6 2.7427 2.6254 3.2274 629.41 0.00011953 50.772 0.091521 365.00 0.0027397 877.79 1000.6 2.7427 2.6254 3.2274 629.41 0.00011953 50.772 0.091521
275.38 6532.1 undefined 880.42 1003.8 2.7475 365.00 0.0027397 880.42 1003.8 2.7475 2.6289 3.2291 630.52 9.0635e-05 50.795 0.091677 365.00 0.0027397 880.42 1003.8 2.7475 2.6289 3.2291 630.52 9.0635e-05 50.795 0.091677
276.38 6563.6 undefined 883.05 1007.0 2.7523 365.00 0.0027397 883.05 1007.0 2.7523 2.6324 3.2309 631.62 6.2021e-05 50.818 0.091833 365.00 0.0027397 883.05 1007.0 2.7523 2.6324 3.2309 631.62 6.2021e-05 50.818 0.091833
277.38 6595.1 undefined 885.68 1010.3 2.7571 365.00 0.0027397 885.68 1010.3 2.7571 2.6358 3.2326 632.73 3.3685e-05 50.841 0.091990 365.00 0.0027397 885.68 1010.3 2.7571 2.6358 3.2326 632.73 3.3685e-05 50.841 0.091990
278.38 6626.6 undefined 888.32 1013.5 2.7619 365.00 0.0027397 888.32 1013.5 2.7619 2.6393 3.2343 633.83 5.6220e-06 50.865 0.092147 365.00 0.0027397 888.32 1013.5 2.7619 2.6393 3.2343 633.83 5.6220e-06 50.865 0.092147
279.38 6658.1 undefined 890.96 1016.7 2.7667 365.00 0.0027397 890.96 1016.7 2.7667 2.6427 3.2361 634.92 -2.2170e-05 50.888 0.092304 365.00 0.0027397 890.96 1016.7 2.7667 2.6427 3.2361 634.92 -2.2170e-05 50.888 0.092304
280.38 6689.6 undefined 893.61 1020.0 2.7715 365.00 0.0027397 893.61 1020.0 2.7715 2.6462 3.2378 636.02 -4.9695e-05 50.911 0.092461 365.00 0.0027397 893.61 1020.0 2.7715 2.6462 3.2378 636.02 -4.9695e-05 50.911 0.092461
281.38 6721.0 undefined 896.26 1023.2 2.7762 365.00 0.0027397 896.26 1023.2 2.7762 2.6496 3.2396 637.11 -7.6956e-05 50.934 0.092619 365.00 0.0027397 896.26 1023.2 2.7762 2.6496 3.2396 637.11 -7.6956e-05 50.934 0.092619
282.38 6752.5 undefined 898.91 1026.5 2.7810 365.00 0.0027397 898.91 1026.5 2.7810 2.6531 3.2414 638.20 -0.00010396 50.957 0.092287 365.00 0.0027397 898.91 1026.5 2.7810 2.6531 3.2414 638.20 -0.00010396 50.957 0.092287
283.38 6783.9 undefined 901.56 1029.7 2.7858 365.00 0.0027397 901.56 1029.7 2.7858 2.6565 3.2431 639.29 -0.00013070 50.980 0.092444 365.00 0.0027397 901.56 1029.7 2.7858 2.6565 3.2431 639.29 -0.00013070 50.980 0.092444
284.38 6815.4 undefined 904.22 1033.0 2.7906 365.00 0.0027397 904.22 1033.0 2.7906 2.6599 3.2449 640.37 -0.00015719 51.003 0.092602 365.00 0.0027397 904.22 1033.0 2.7906 2.6599 3.2449 640.37 -0.00015719 51.003 0.092602
285.38 6846.8 undefined 906.88 1036.2 2.7953 365.00 0.0027397 906.88 1036.2 2.7953 2.6634 3.2467 641.45 -0.00018342 51.026 0.092760 365.00 0.0027397 906.88 1036.2 2.7953 2.6634 3.2467 641.45 -0.00018342 51.026 0.092760
286.38 6878.2 undefined 909.55 1039.5 2.8001 365.00 0.0027397 909.55 1039.5 2.8001 2.6668 3.2485 642.53 -0.00020941 51.048 0.092919 365.00 0.0027397 909.55 1039.5 2.8001 2.6668 3.2485 642.53 -0.00020941 51.048 0.092919
287.38 6909.7 undefined 912.21 1042.7 2.8049 365.00 0.0027397 912.21 1042.7 2.8049 2.6702 3.2504 643.61 -0.00023515 51.071 0.093077 365.00 0.0027397 912.21 1042.7 2.8049 2.6702 3.2504 643.61 -0.00023515 51.071 0.093077
288.38 6941.1 undefined 914.89 1046.0 2.8096 365.00 0.0027397 914.89 1046.0 2.8096 2.6737 3.2522 644.69 -0.00026065 51.094 0.093236 365.00 0.0027397 914.89 1046.0 2.8096 2.6737 3.2522 644.69 -0.00026065 51.094 0.093236
289.38 6972.5 undefined 917.56 1049.3 2.8144 365.00 0.0027397 917.56 1049.3 2.8144 2.6771 3.2540 645.76 -0.00028591 51.117 0.093395 365.00 0.0027397 917.56 1049.3 2.8144 2.6771 3.2540 645.76 -0.00028591 51.117 0.093395
290.38 7003.9 undefined 920.24 1052.5 2.8192 365.00 0.0027397 920.24 1052.5 2.8192 2.6805 3.2559 646.83 -0.00031093 51.140 0.093555 365.00 0.0027397 920.24 1052.5 2.8192 2.6805 3.2559 646.83 -0.00031093 51.140 0.093555
291.38 7035.3 undefined 922.92 1055.8 2.8239 365.00 0.0027397 922.92 1055.8 2.8239 2.6839 3.2577 647.90 -0.00033571 51.163 0.093715 365.00 0.0027397 922.92 1055.8 2.8239 2.6839 3.2577 647.90 -0.00033571 51.163 0.093715
292.38 7066.7 undefined 925.61 1059.1 2.8287 365.00 0.0027397 925.61 1059.1 2.8287 2.6873 3.2596 648.96 -0.00036027 51.186 0.093875 365.00 0.0027397 925.61 1059.1 2.8287 2.6873 3.2596 648.96 -0.00036027 51.186 0.093875
293.38 7098.0 undefined 928.30 1062.4 2.8334 365.00 0.0027397 928.30 1062.4 2.8334 2.6907 3.2615 650.02 -0.00038459 51.208 0.094035 365.00 0.0027397 928.30 1062.4 2.8334 2.6907 3.2615 650.02 -0.00038459 51.208 0.094035
294.38 7129.4 undefined 930.99 1065.7 2.8382 365.00 0.0027397 930.99 1065.7 2.8382 2.6941 3.2633 651.08 -0.00040869 51.231 0.094196 365.00 0.0027397 930.99 1065.7 2.8382 2.6941 3.2633 651.08 -0.00040869 51.231 0.094196
295.38 7160.8 undefined 933.69 1069.0 2.8429 365.00 0.0027397 933.69 1069.0 2.8429 2.6975 3.2652 652.14 -0.00043257 51.254 0.094357 365.00 0.0027397 933.69 1069.0 2.8429 2.6975 3.2652 652.14 -0.00043257 51.254 0.094357
296.38 7192.1 undefined 936.39 1072.2 2.8476 365.00 0.0027397 936.39 1072.2 2.8476 2.7009 3.2671 653.20 -0.00045622 51.277 0.094518 365.00 0.0027397 936.39 1072.2 2.8476 2.7009 3.2671 653.20 -0.00045622 51.277 0.094518
297.38 7223.5 undefined 939.09 1075.5 2.8524 365.00 0.0027397 939.09 1075.5 2.8524 2.7043 3.2690 654.25 -0.00047965 51.299 0.094680 365.00 0.0027397 939.09 1075.5 2.8524 2.7043 3.2690 654.25 -0.00047965 51.299 0.094680
298.38 7254.8 undefined 941.79 1078.8 2.8571 365.00 0.0027397 941.79 1078.8 2.8571 2.7077 3.2709 655.30 -0.00050287 51.322 0.094842 365.00 0.0027397 941.79 1078.8 2.8571 2.7077 3.2709 655.30 -0.00050287 51.322 0.094842
299.38 7286.1 undefined 944.50 1082.1 2.8619 365.00 0.0027397 944.50 1082.1 2.8619 2.7111 3.2728 656.35 -0.00052587 51.345 0.095004 365.00 0.0027397 944.50 1082.1 2.8619 2.7111 3.2728 656.35 -0.00052587 51.345 0.095004
300.38 7317.4 undefined 947.22 1085.4 2.8666 365.00 0.0027397 947.22 1085.4 2.8666 2.7144 3.2748 657.40 -0.00054866 51.367 0.095167 365.00 0.0027397 947.22 1085.4 2.8666 2.7144 3.2748 657.40 -0.00054866 51.367 0.095167