Temperature (C) Pressure (psia) Quality (l+v) Internal Energy (l+v, kJ/kg) Enthalpy (l+v, kJ/kg) Entropy (l+v, J/g*K) Density (l, kg/m3) Volume (l, m3/kg) Internal Energy (l, kJ/kg) Enthalpy (l, kJ/kg) Entropy (l, J/g*K) Cv (l, J/g*K) Cp (l, J/g*K) Sound Spd. (l, m/s) Joule-Thomson (l, F/psia) Viscosity (l, uPa*s) Therm. Cond. (l, W/m*K) Density (v, kg/m3) Volume (v, m3/kg) Internal Energy (v, kJ/kg) Enthalpy (v, kJ/kg) Entropy (v, J/g*K) Cv (v, J/g*K) Cp (v, J/g*K) Sound Spd. (v, m/s) Joule-Thomson (v, F/psia) Viscosity (v, uPa*s) Therm. Cond. (v, W/m*K)
-187.62 2.4953e-08 1.4282e-11 -196.64 -196.64 -1.3959 733.13 0.0013640 -196.64 -196.64 -1.3959 1.3553 1.9158 2136.4 -0.0077592 10960. 0.20792 1.0669e-08 9.3732e+07 350.13 366.26 5.1858 0.69067 0.87923 143.28 6.1051 2.3259 0.0017061
-186.62 3.7339e-08 2.1094e-11 -194.73 -194.73 -1.3736 732.08 0.0013660 -194.73 -194.73 -1.3736 1.3539 1.9166 2129.6 -0.0077546 10073. 0.20765 1.5780e-08 6.3371e+07 350.82 367.14 5.1200 0.69462 0.88317 144.03 5.9178 2.3534 0.0017533
-185.62 5.5322e-08 3.0850e-11 -192.81 -192.81 -1.3516 731.04 0.0013679 -192.81 -192.81 -1.3516 1.3525 1.9174 2122.9 -0.0077498 9276.1 0.20737 2.3112e-08 4.3267e+07 351.52 368.02 5.0561 0.69857 0.88713 144.77 5.7383 2.3808 0.0018007
-184.62 8.1182e-08 4.4694e-11 -190.89 -190.89 -1.3298 730.00 0.0013699 -190.89 -190.89 -1.3298 1.3513 1.9182 2116.1 -0.0077448 8557.8 0.20708 3.3533e-08 2.9821e+07 352.22 368.91 4.9939 0.70253 0.89108 145.51 5.5662 2.4083 0.0018485
-183.62 1.1803e-07 6.4163e-11 -188.97 -188.97 -1.3083 728.96 0.0013718 -188.97 -188.97 -1.3083 1.3501 1.9191 2109.3 -0.0077395 7909.8 0.20678 4.8211e-08 2.0742e+07 352.92 369.81 4.9333 0.70648 0.89504 146.24 5.4011 2.4357 0.0018965
-182.62 1.7009e-07 9.1303e-11 -187.05 -187.05 -1.2869 727.92 0.0013738 -187.05 -187.05 -1.2869 1.3490 1.9201 2102.5 -0.0077340 7324.3 0.20647 6.8704e-08 1.4555e+07 353.63 370.70 4.8744 0.71043 0.89899 146.97 5.2426 2.4632 0.0019448
-181.62 2.4299e-07 1.2882e-10 -185.13 -185.13 -1.2658 726.88 0.0013757 -185.13 -185.13 -1.2658 1.3480 1.9210 2095.7 -0.0077283 6794.5 0.20616 9.7079e-08 1.0301e+07 354.35 371.60 4.8170 0.71438 0.90294 147.69 5.0904 2.4906 0.0019934
-180.62 3.4425e-07 1.8026e-10 -183.21 -183.21 -1.2450 725.85 0.0013777 -183.21 -183.21 -1.2450 1.3470 1.9220 2088.9 -0.0077225 6314.4 0.20584 1.3605e-07 7.3504e+06 355.06 372.51 4.7612 0.71833 0.90688 148.41 4.9442 2.5181 0.0020423
-179.62 4.8378e-07 2.5025e-10 -181.29 -181.29 -1.2243 724.81 0.0013797 -181.29 -181.29 -1.2243 1.3461 1.9231 2082.0 -0.0077164 5878.8 0.20551 1.8915e-07 5.2868e+06 355.78 373.42 4.7068 0.72227 0.91082 149.13 4.8038 2.5456 0.0020915
-178.62 6.7459e-07 3.4475e-10 -179.37 -179.37 -1.2038 723.78 0.0013816 -179.37 -179.37 -1.2038 1.3453 1.9241 2075.2 -0.0077102 5482.9 0.20517 2.6096e-07 3.8320e+06 356.51 374.33 4.6538 0.72620 0.91475 149.84 4.6688 2.5731 0.0021410
-177.62 9.3358e-07 4.7140e-10 -177.44 -177.44 -1.1836 722.75 0.0013836 -177.44 -177.44 -1.1836 1.3445 1.9252 2068.4 -0.0077039 5122.6 0.20483 3.5737e-07 2.7982e+06 357.23 375.25 4.6022 0.73012 0.91867 150.54 4.5390 2.6005 0.0021907
-176.62 1.2826e-06 6.3996e-10 -175.52 -175.52 -1.1635 721.72 0.0013856 -175.52 -175.52 -1.1635 1.3437 1.9263 2061.5 -0.0076973 4794.1 0.20447 4.8588e-07 2.0581e+06 357.97 376.17 4.5519 0.73403 0.92258 151.25 4.4142 2.6280 0.0022408
-175.62 1.7496e-06 8.6275e-10 -173.59 -173.59 -1.1437 720.69 0.0013876 -173.59 -173.59 -1.1437 1.3430 1.9274 2054.7 -0.0076907 4494.3 0.20411 6.5601e-07 1.5244e+06 358.70 377.09 4.5029 0.73792 0.92648 151.95 4.2941 2.6555 0.0022912
-174.62 2.3705e-06 1.1553e-09 -171.66 -171.66 -1.1240 719.66 0.0013895 -171.66 -171.66 -1.1240 1.3423 1.9286 2047.9 -0.0076838 4220.2 0.20375 8.7976e-07 1.1367e+06 359.44 378.02 4.4551 0.74181 0.93036 152.64 4.1784 2.6830 0.0023418
-173.62 3.1903e-06 1.5369e-09 -169.73 -169.73 -1.1045 718.64 0.0013915 -169.73 -169.73 -1.1045 1.3417 1.9298 2041.0 -0.0076769 3969.3 0.20338 1.1721e-06 8.5314e+05 360.19 378.95 4.4085 0.74568 0.93423 153.33 4.0671 2.7105 0.0023928
-172.62 4.2661e-06 2.0316e-09 -167.80 -167.80 -1.0852 717.61 0.0013935 -167.80 -167.80 -1.0852 1.3411 1.9310 2034.2 -0.0076698 3739.3 0.20300 1.5518e-06 6.4441e+05 360.93 379.89 4.3631 0.74953 0.93809 154.02 3.9599 2.7379 0.0024440
-171.62 5.6692e-06 2.6691e-09 -165.87 -165.87 -1.0661 716.58 0.0013955 -165.87 -165.87 -1.0661 1.3405 1.9322 2027.3 -0.0076625 3528.0 0.20261 2.0419e-06 4.8974e+05 361.69 380.83 4.3188 0.75337 0.94193 154.71 3.8566 2.7654 0.0024955
-170.62 7.4884e-06 3.4859e-09 -163.94 -163.94 -1.0472 715.56 0.0013975 -163.94 -163.94 -1.0472 1.3400 1.9334 2020.5 -0.0076552 3333.8 0.20222 2.6708e-06 3.7442e+05 362.44 381.77 4.2755 0.75720 0.94575 155.39 3.7570 2.7929 0.0025473
-169.62 9.8334e-06 4.5264e-09 -162.00 -162.00 -1.0284 714.54 0.0013995 -162.00 -162.00 -1.0284 1.3395 1.9347 2013.6 -0.0076477 3154.9 0.20182 3.4733e-06 2.8791e+05 363.20 382.72 4.2334 0.76100 0.94956 156.07 3.6609 2.8204 0.0025994
-168.62 1.2839e-05 5.8445e-09 -160.07 -160.07 -1.0098 713.52 0.0014015 -160.07 -160.07 -1.0098 1.3390 1.9359 2006.8 -0.0076401 2989.9 0.20141 4.4917e-06 2.2263e+05 363.96 383.67 4.1922 0.76479 0.95335 156.74 3.5683 2.8479 0.0026518
-167.62 1.6672e-05 7.5056e-09 -158.13 -158.13 -0.99134 712.49 0.0014035 -158.13 -158.13 -0.99134 1.3386 1.9372 2000.0 -0.0076323 2837.5 0.20100 5.7771e-06 1.7310e+05 364.73 384.63 4.1521 0.76856 0.95712 157.41 3.4790 2.8754 0.0027045
-166.62 2.1533e-05 9.5879e-09 -156.19 -156.19 -0.97306 711.47 0.0014055 -156.19 -156.19 -0.97306 1.3382 1.9385 1993.1 -0.0076245 2696.5 0.20058 7.3914e-06 1.3529e+05 365.50 385.59 4.1129 0.77232 0.96087 158.08 3.3927 2.9029 0.0027575
-165.62 2.7666e-05 1.2185e-08 -154.25 -154.25 -0.95494 710.45 0.0014075 -154.25 -154.25 -0.95494 1.3378 1.9398 1986.3 -0.0076165 2566.0 0.20016 9.4084e-06 1.0629e+05 366.27 386.55 4.0746 0.77605 0.96460 158.75 3.3095 2.9304 0.0028108
-164.62 3.5367e-05 1.5409e-08 -152.31 -152.31 -0.93698 709.44 0.0014096 -152.31 -152.31 -0.93698 1.3375 1.9411 1979.4 -0.0076084 2444.9 0.19973 1.1916e-05 83918. 367.05 387.52 4.0372 0.77976 0.96832 159.41 3.2291 2.9579 0.0028643
-163.62 4.4989e-05 1.9393e-08 -150.37 -150.37 -0.91917 708.42 0.0014116 -150.37 -150.37 -0.91917 1.3371 1.9424 1972.6 -0.0076002 2332.3 0.19930 1.5020e-05 66577. 367.83 388.49 4.0008 0.78346 0.97201 160.07 3.1514 2.9854 0.0029182
-162.62 5.6956e-05 2.4291e-08 -148.43 -148.43 -0.90151 707.40 0.0014136 -148.43 -148.43 -0.90151 1.3368 1.9437 1965.8 -0.0075919 2227.7 0.19886 1.8844e-05 53068. 368.62 389.46 3.9651 0.78713 0.97569 160.72 3.0764 3.0129 0.0029723
-161.62 7.1773e-05 3.0288e-08 -146.48 -146.48 -0.88400 706.38 0.0014157 -146.48 -146.48 -0.88400 1.3365 1.9451 1959.0 -0.0075834 2130.2 0.19841 2.3533e-05 42494. 369.41 390.44 3.9304 0.79079 0.97935 161.38 3.0038 3.0404 0.0030268
-160.62 9.0036e-05 3.7597e-08 -144.54 -144.54 -0.86663 705.37 0.0014177 -144.54 -144.54 -0.86663 1.3363 1.9465 1952.1 -0.0075748 2039.2 0.19796 2.9258e-05 34178. 370.20 391.42 3.8964 0.79443 0.98298 162.03 2.9337 3.0679 0.0030815
-159.62 0.00011245 4.6470e-08 -142.59 -142.59 -0.84940 704.35 0.0014197 -142.59 -142.59 -0.84940 1.3360 1.9478 1945.3 -0.0075661 1954.2 0.19751 3.6221e-05 27609. 371.00 392.40 3.8632 0.79805 0.98660 162.68 2.8658 3.0955 0.0031365
-158.62 0.00013985 5.7195e-08 -140.64 -140.64 -0.83231 703.34 0.0014218 -140.64 -140.64 -0.83231 1.3358 1.9492 1938.5 -0.0075573 1874.8 0.19705 4.4652e-05 22395. 371.80 393.39 3.8307 0.80164 0.99020 163.32 2.8002 3.1230 0.0031918
-157.62 0.00017320 7.0109e-08 -138.69 -138.69 -0.81536 702.32 0.0014238 -138.69 -138.69 -0.81536 1.3356 1.9506 1931.7 -0.0075484 1800.3 0.19658 5.4822e-05 18241. 372.60 394.38 3.7990 0.80522 0.99378 163.96 2.7367 3.1505 0.0032474
-156.62 0.00021364 8.5597e-08 -136.74 -136.74 -0.79854 701.31 0.0014259 -136.74 -136.74 -0.79854 1.3354 1.9520 1924.9 -0.0075393 1730.5 0.19611 6.7040e-05 14916. 373.41 395.38 3.7680 0.80878 0.99734 164.60 2.6752 3.1780 0.0033033
-155.62 0.00026248 1.0410e-07 -134.79 -134.79 -0.78185 700.30 0.0014280 -134.79 -134.79 -0.78185 1.3352 1.9534 1918.1 -0.0075302 1664.9 0.19564 8.1666e-05 12245. 374.22 396.38 3.7377 0.81232 1.0009 165.24 2.6157 3.2055 0.0033595
-154.62 0.00032125 1.2613e-07 -132.83 -132.83 -0.76530 699.29 0.0014300 -132.83 -132.83 -0.76530 1.3350 1.9548 1911.3 -0.0075209 1603.3 0.19516 9.9109e-05 10090. 375.03 397.38 3.7081 0.81585 1.0044 165.87 2.5580 3.2330 0.0034160
-153.62 0.00039171 1.5227e-07 -130.88 -130.88 -0.74887 698.27 0.0014321 -130.88 -130.88 -0.74887 1.3349 1.9563 1904.5 -0.0075114 1545.3 0.19468 0.00011984 8344.6 375.85 398.39 3.6792 0.81935 1.0079 166.50 2.5022 3.2606 0.0034727
-152.62 0.00047590 1.8316e-07 -128.92 -128.92 -0.73256 697.26 0.0014342 -128.92 -128.92 -0.73256 1.3348 1.9577 1897.8 -0.0075019 1490.6 0.19419 0.00014439 6925.9 376.67 399.40 3.6509 0.82284 1.0114 167.13 2.4481 3.2881 0.0035298
-151.62 0.00057613 2.1955e-07 -126.96 -126.96 -0.71638 696.25 0.0014363 -126.96 -126.96 -0.71638 1.3346 1.9592 1891.0 -0.0074922 1438.9 0.19370 0.00017336 5768.4 377.49 400.41 3.6232 0.82631 1.0149 167.76 2.3957 3.3156 0.0035872
-150.62 0.00069507 2.6228e-07 -125.00 -125.00 -0.70032 695.24 0.0014384 -125.00 -125.00 -0.70032 1.3345 1.9606 1884.2 -0.0074824 1390.2 0.19320 0.00020744 4820.7 378.32 401.42 3.5962 0.82976 1.0183 168.38 2.3448 3.3431 0.0036448
-149.62 0.00083574 3.1228e-07 -123.04 -123.04 -0.68437 694.23 0.0014404 -123.04 -123.04 -0.68438 1.3345 1.9621 1877.4 -0.0074724 1344.0 0.19270 0.00024740 4042.0 379.15 402.44 3.5697 0.83319 1.0218 169.00 2.2956 3.3706 0.0037027
-148.62 0.0010016 3.7063e-07 -121.08 -121.08 -0.66855 693.22 0.0014425 -121.08 -121.08 -0.66855 1.3344 1.9636 1870.7 -0.0074623 1300.3 0.19220 0.00029412 3400.0 379.99 403.47 3.5438 0.83661 1.0252 169.62 2.2478 3.3982 0.0037610
-147.62 0.0011965 4.3850e-07 -119.11 -119.11 -0.65284 692.21 0.0014447 -119.11 -119.11 -0.65284 1.3343 1.9651 1863.9 -0.0074521 1258.9 0.19169 0.00034856 2869.0 380.83 404.49 3.5185 0.84001 1.0286 170.24 2.2014 3.4257 0.0038195
-146.62 0.0014249 5.1721e-07 -117.15 -117.15 -0.63724 691.20 0.0014468 -117.15 -117.15 -0.63724 1.3343 1.9666 1857.2 -0.0074417 1219.6 0.19117 0.00041181 2428.3 381.67 405.52 3.4938 0.84340 1.0320 170.85 2.1565 3.4532 0.0038783
-145.62 0.0016917 6.0822e-07 -115.18 -115.18 -0.62175 690.19 0.0014489 -115.18 -115.18 -0.62175 1.3343 1.9682 1850.4 -0.0074312 1182.3 0.19066 0.00048510 2061.4 382.51 406.56 3.4695 0.84677 1.0353 171.46 2.1128 3.4807 0.0039374
-144.62 0.0020026 7.1317e-07 -113.21 -113.21 -0.60637 689.18 0.0014510 -113.21 -113.21 -0.60637 1.3343 1.9697 1843.7 -0.0074206 1146.8 0.19014 0.00056976 1755.1 383.36 407.59 3.4458 0.85012 1.0387 172.07 2.0705 3.5082 0.0039967
-143.62 0.0023637 8.3385e-07 -111.24 -111.24 -0.59109 688.17 0.0014531 -111.24 -111.24 -0.59110 1.3343 1.9713 1836.9 -0.0074098 1113.0 0.18962 0.00066731 1498.6 384.21 408.63 3.4226 0.85346 1.0420 172.68 2.0294 3.5358 0.0040564
-142.62 0.0027820 9.7224e-07 -109.27 -109.27 -0.57593 687.16 0.0014553 -109.27 -109.27 -0.57593 1.3343 1.9728 1830.2 -0.0073988 1080.8 0.18909 0.00077939 1283.1 385.07 409.68 3.3999 0.85679 1.0454 173.28 1.9896 3.5633 0.0041164
-141.62 0.0032653 1.1305e-06 -107.30 -107.30 -0.56086 686.15 0.0014574 -107.30 -107.30 -0.56087 1.3343 1.9744 1823.5 -0.0073878 1050.1 0.18856 0.00090784 1101.5 385.93 410.72 3.3777 0.86011 1.0487 173.88 1.9508 3.5908 0.0041766
-140.62 0.0038222 1.3111e-06 -105.32 -105.32 -0.54590 685.14 0.0014596 -105.32 -105.32 -0.54591 1.3344 1.9760 1816.7 -0.0073765 1020.7 0.18803 0.0010547 948.16 386.79 411.77 3.3560 0.86341 1.0520 174.48 1.9133 3.6183 0.0042372
-139.62 0.0044623 1.5166e-06 -103.34 -103.34 -0.53104 684.13 0.0014617 -103.34 -103.34 -0.53105 1.3344 1.9776 1810.0 -0.0073651 992.74 0.18749 0.0012221 818.26 387.65 412.83 3.3347 0.86670 1.0553 175.08 1.8768 3.6459 0.0042980
-138.62 0.0051963 1.7499e-06 -101.37 -101.37 -0.51628 683.12 0.0014639 -101.37 -101.37 -0.51629 1.3345 1.9792 1803.3 -0.0073536 965.97 0.18695 0.0014125 707.94 388.52 413.88 3.3139 0.86998 1.0586 175.67 1.8413 3.6734 0.0043592
-137.62 0.0060358 2.0141e-06 -99.385 -99.385 -0.50161 682.11 0.0014660 -99.386 -99.386 -0.50162 1.3346 1.9808 1796.6 -0.0073419 940.35 0.18641 0.0016287 614.00 389.39 414.94 3.2935 0.87325 1.0619 176.26 1.8069 3.7009 0.0044206
-136.62 0.0069938 2.3126e-06 -97.403 -97.403 -0.48704 681.10 0.0014682 -97.404 -97.404 -0.48705 1.3347 1.9825 1789.9 -0.0073301 915.81 0.18586 0.0018733 533.80 390.26 416.00 3.2735 0.87650 1.0651 176.85 1.7734 3.7284 0.0044823
-135.62 0.0080843 2.6491e-06 -95.420 -95.420 -0.47257 680.09 0.0014704 -95.421 -95.421 -0.47258 1.3348 1.9841 1783.2 -0.0073180 892.30 0.18531 0.0021497 465.17 391.14 417.07 3.2540 0.87975 1.0684 177.44 1.7409 3.7559 0.0045443
-134.62 0.0093230 3.0277e-06 -93.435 -93.435 -0.45819 679.08 0.0014726 -93.436 -93.436 -0.45820 1.3350 1.9858 1776.5 -0.0073059 869.75 0.18476 0.0024613 406.30 392.02 418.14 3.2348 0.88299 1.0716 178.02 1.7093 3.7834 0.0046066
-133.62 0.010727 3.4525e-06 -91.448 -91.448 -0.44390 678.07 0.0014748 -91.450 -91.449 -0.44391 1.3351 1.9875 1769.8 -0.0072935 848.11 0.18421 0.0028116 355.67 392.91 419.21 3.2161 0.88622 1.0749 178.61 1.6786 3.8109 0.0046691
-132.62 0.012315 3.9283e-06 -89.459 -89.459 -0.42969 677.06 0.0014770 -89.461 -89.461 -0.42971 1.3353 1.9892 1763.1 -0.0072810 827.32 0.18365 0.0032049 312.03 393.79 420.29 3.1977 0.88944 1.0781 179.19 1.6488 3.8385 0.0047320
-131.62 0.014106 4.4600e-06 -87.469 -87.469 -0.41558 676.04 0.0014792 -87.471 -87.471 -0.41560 1.3354 1.9909 1756.4 -0.0072684 807.34 0.18309 0.0036453 274.33 394.68 421.36 3.1798 0.89266 1.0813 179.76 1.6197 3.8660 0.0047951
-130.62 0.016124 5.0532e-06 -85.477 -85.477 -0.40155 675.03 0.0014814 -85.479 -85.479 -0.40157 1.3356 1.9926 1749.7 -0.0072555 788.12 0.18253 0.0041375 241.69 395.58 422.44 3.1622 0.89586 1.0846 180.34 1.5915 3.8935 0.0048586
-129.62 0.018392 5.7134e-06 -83.483 -83.483 -0.38761 674.02 0.0014836 -83.486 -83.486 -0.38763 1.3358 1.9944 1743.0 -0.0072425 769.63 0.18196 0.0046867 213.37 396.47 423.53 3.1450 0.89906 1.0878 180.91 1.5641 3.9210 0.0049223
-128.62 0.020935 6.4470e-06 -81.488 -81.487 -0.37376 673.01 0.0014859 -81.491 -81.490 -0.37378 1.3360 1.9961 1736.3 -0.0072294 751.83 0.18140 0.0052981 188.75 397.37 424.62 3.1281 0.90226 1.0910 181.48 1.5374 3.9485 0.0049863
-127.62 0.023783 7.2604e-06 -79.490 -79.490 -0.35999 672.00 0.0014881 -79.494 -79.493 -0.36001 1.3363 1.9979 1729.6 -0.0072160 734.67 0.18083 0.0059776 167.29 398.27 425.71 3.1116 0.90545 1.0942 182.05 1.5114 3.9760 0.0050506
-126.62 0.026966 8.1608e-06 -77.491 -77.490 -0.34629 670.98 0.0014904 -77.495 -77.495 -0.34632 1.3365 1.9997 1722.9 -0.0072025 718.14 0.18025 0.0067313 148.56 399.18 426.80 3.0954 0.90863 1.0974 182.62 1.4861 4.0035 0.0051152
-125.62 0.030515 9.1556e-06 -75.490 -75.489 -0.33268 669.97 0.0014926 -75.494 -75.494 -0.33272 1.3368 2.0015 1716.2 -0.0071888 702.18 0.17968 0.0075660 132.17 400.09 427.89 3.0795 0.91181 1.1006 183.18 1.4615 4.0310 0.0051800
-124.62 0.034467 1.0253e-05 -73.487 -73.486 -0.31915 668.95 0.0014949 -73.492 -73.492 -0.31919 1.3371 2.0033 1709.5 -0.0071749 686.79 0.17910 0.0084885 117.81 401.00 428.99 3.0640 0.91499 1.1038 183.74 1.4375 4.0584 0.0052452
-123.62 0.038859 1.1461e-05 -71.482 -71.482 -0.30570 667.94 0.0014971 -71.488 -71.487 -0.30574 1.3374 2.0051 1702.8 -0.0071609 671.93 0.17852 0.0095065 105.19 401.91 430.10 3.0488 0.91816 1.1070 184.30 1.4141 4.0859 0.0053106
-122.62 0.043731 1.2789e-05 -69.476 -69.475 -0.29233 666.92 0.0014994 -69.482 -69.481 -0.29237 1.3377 2.0070 1696.2 -0.0071466 657.57 0.17794 0.010628 94.092 402.83 431.20 3.0339 0.92134 1.1102 184.86 1.3913 4.1134 0.0053764
-121.62 0.049128 1.4245e-05 -67.467 -67.466 -0.27903 665.91 0.0015017 -67.474 -67.473 -0.27907 1.3380 2.0089 1689.5 -0.0071322 643.70 0.17736 0.011861 84.309 403.75 432.31 3.0193 0.92451 1.1134 185.41 1.3691 4.1409 0.0054424
-120.62 0.055096 1.5842e-05 -65.456 -65.455 -0.26580 664.89 0.0015040 -65.464 -65.463 -0.26585 1.3384 2.0107 1682.8 -0.0071176 630.28 0.17678 0.013215 75.669 404.67 433.42 3.0050 0.92767 1.1166 185.96 1.3475 4.1683 0.0055087
-119.62 0.061684 1.7587e-05 -63.444 -63.443 -0.25265 663.87 0.0015063 -63.452 -63.452 -0.25271 1.3387 2.0126 1676.1 -0.0071028 617.30 0.17619 0.014700 68.027 405.60 434.53 2.9909 0.93084 1.1198 186.51 1.3264 4.1958 0.0055752
-118.62 0.068946 1.9494e-05 -61.430 -61.428 -0.23957 662.86 0.0015086 -61.439 -61.438 -0.23963 1.3391 2.0146 1669.4 -0.0070878 604.74 0.17560 0.016325 61.255 406.53 435.64 2.9772 0.93401 1.1231 187.06 1.3058 4.2233 0.0056421
-117.62 0.076937 2.1573e-05 -59.413 -59.412 -0.22656 661.84 0.0015109 -59.423 -59.422 -0.22663 1.3395 2.0165 1662.8 -0.0070726 592.58 0.17501 0.018101 55.245 407.46 436.76 2.9638 0.93718 1.1263 187.60 1.2857 4.2507 0.0057092
-116.62 0.085718 2.3836e-05 -57.395 -57.393 -0.21363 660.82 0.0015133 -57.406 -57.405 -0.21370 1.3400 2.0184 1656.1 -0.0070573 580.80 0.17442 0.020040 49.901 408.39 437.88 2.9506 0.94035 1.1295 188.14 1.2660 4.2782 0.0057767
-115.62 0.095353 2.6297e-05 -55.374 -55.372 -0.20076 659.80 0.0015156 -55.386 -55.385 -0.20084 1.3404 2.0204 1649.4 -0.0070417 569.38 0.17383 0.022152 45.142 409.33 439.01 2.9377 0.94352 1.1327 188.68 1.2468 4.3056 0.0058444
-114.62 0.10591 2.8969e-05 -53.351 -53.350 -0.18796 658.78 0.0015180 -53.365 -53.364 -0.18805 1.3409 2.0224 1642.7 -0.0070260 558.32 0.17323 0.024451 40.898 410.27 440.13 2.9250 0.94669 1.1360 189.22 1.2281 4.3330 0.0059123
-113.62 0.11746 3.1866e-05 -51.327 -51.325 -0.17523 657.76 0.0015203 -51.342 -51.340 -0.17533 1.3413 2.0244 1636.0 -0.0070100 547.59 0.17264 0.026949 37.107 411.21 441.26 2.9126 0.94987 1.1392 189.75 1.2097 4.3604 0.0059806
-112.62 0.13008 3.5002e-05 -49.300 -49.298 -0.16256 656.73 0.0015227 -49.316 -49.315 -0.16267 1.3418 2.0264 1629.3 -0.0069938 537.18 0.17204 0.029661 33.715 412.16 442.39 2.9005 0.95305 1.1424 190.28 1.1918 4.3879 0.0060491
-111.62 0.14384 3.8392e-05 -47.271 -47.268 -0.14996 655.71 0.0015251 -47.289 -47.287 -0.15008 1.3424 2.0285 1622.7 -0.0069774 527.08 0.17144 0.032600 30.675 413.10 443.53 2.8885 0.95623 1.1457 190.81 1.1742 4.4153 0.0061180
-110.62 0.15884 4.2054e-05 -45.240 -45.237 -0.13743 654.69 0.0015274 -45.259 -45.258 -0.13755 1.3429 2.0305 1616.0 -0.0069609 517.28 0.17084 0.035781 27.948 414.06 444.66 2.8769 0.95942 1.1490 191.34 1.1570 4.4427 0.0061871
-109.62 0.17516 4.6002e-05 -43.207 -43.203 -0.12495 653.66 0.0015298 -43.228 -43.226 -0.12509 1.3435 2.0326 1609.3 -0.0069441 507.76 0.17024 0.039220 25.497 415.01 445.80 2.8654 0.96261 1.1522 191.86 1.1402 4.4701 0.0062564
-108.62 0.19290 5.0254e-05 -41.171 -41.168 -0.11254 652.64 0.0015322 -41.194 -41.192 -0.11269 1.3441 2.0347 1602.6 -0.0069271 498.51 0.16964 0.042933 23.292 415.96 446.94 2.8542 0.96581 1.1555 192.38 1.1236 4.4974 0.0063261
-107.62 0.21215 5.4828e-05 -39.133 -39.129 -0.10020 651.61 0.0015347 -39.158 -39.156 -0.10036 1.3447 2.0369 1595.9 -0.0069098 489.52 0.16903 0.046937 21.305 416.92 448.09 2.8433 0.96901 1.1588 192.90 1.1075 4.5248 0.0063960
-106.62 0.23301 5.9743e-05 -37.093 -37.089 -0.087908 650.58 0.0015371 -37.120 -37.118 -0.088082 1.3453 2.0390 1589.2 -0.0068924 480.79 0.16843 0.051250 19.512 417.88 449.23 2.8325 0.97222 1.1621 193.41 1.0916 4.5522 0.0064662
-105.62 0.25561 6.5017e-05 -35.051 -35.046 -0.075680 649.55 0.0015395 -35.080 -35.078 -0.075868 1.3460 2.0412 1582.6 -0.0068747 472.30 0.16782 0.055891 17.892 418.85 450.38 2.8220 0.97544 1.1655 193.93 1.0760 4.5795 0.0065367
-104.62 0.28004 7.0670e-05 -33.006 -33.001 -0.063511 648.52 0.0015420 -33.038 -33.035 -0.063714 1.3467 2.0434 1575.9 -0.0068569 464.04 0.16721 0.060878 16.426 419.81 451.53 2.8116 0.97867 1.1688 194.44 1.0608 4.6069 0.0066074
-103.62 0.30643 7.6722e-05 -30.959 -30.953 -0.051400 647.49 0.0015444 -30.994 -30.991 -0.051619 1.3474 2.0456 1569.2 -0.0068387 456.00 0.16660 0.066231 15.099 420.78 452.68 2.8015 0.98191 1.1722 194.94 1.0458 4.6342 0.0066785
-102.62 0.33490 8.3195e-05 -28.910 -28.903 -0.039346 646.46 0.0015469 -28.947 -28.944 -0.039582 1.3481 2.0478 1562.5 -0.0068204 448.18 0.16600 0.071971 13.894 421.75 453.84 2.7916 0.98516 1.1755 195.44 1.0310 4.6615 0.0067498
-101.62 0.36558 9.0109e-05 -26.858 -26.851 -0.027349 645.43 0.0015494 -26.898 -26.894 -0.027602 1.3489 2.0501 1555.8 -0.0068018 440.57 0.16539 0.078120 12.801 422.73 454.99 2.7818 0.98841 1.1789 195.95 1.0166 4.6888 0.0068213
-100.62 0.39862 9.7488e-05 -24.803 -24.796 -0.015406 644.39 0.0015519 -24.847 -24.843 -0.015678 1.3497 2.0524 1549.1 -0.0067830 433.16 0.16478 0.084699 11.807 423.70 456.15 2.7723 0.99168 1.1823 196.44 1.0024 4.7161 0.0068932
-99.625 0.43414 0.00010535 -22.747 -22.739 -0.0035188 643.36 0.0015544 -22.794 -22.789 -0.0038103 1.3505 2.0547 1542.4 -0.0067639 425.95 0.16416 0.091731 10.901 424.68 457.31 2.7630 0.99496 1.1858 196.94 0.98838 4.7434 0.0069653
-98.625 0.47230 0.00011373 -20.687 -20.678 0.0083150 642.32 0.0015569 -20.738 -20.733 0.0080027 1.3514 2.0570 1535.7 -0.0067447 418.92 0.16355 0.099240 10.077 425.66 458.48 2.7538 0.99825 1.1892 197.43 0.97464 4.7707 0.0070377
-97.625 0.51325 0.00012264 -18.625 -18.616 0.020096 641.28 0.0015594 -18.680 -18.674 0.019762 1.3522 2.0594 1529.0 -0.0067251 412.07 0.16294 0.10725 9.3239 426.65 459.64 2.7448 1.0016 1.1927 197.92 0.96112 4.7979 0.0071103
-96.625 0.55714 0.00013211 -16.561 -16.550 0.031824 640.24 0.0015619 -16.620 -16.614 0.031467 1.3531 2.0618 1522.3 -0.0067053 405.39 0.16233 0.11579 8.6365 427.63 460.81 2.7360 1.0049 1.1962 198.40 0.94783 4.8251 0.0071832
-95.625 0.60416 0.00014217 -14.494 -14.482 0.043502 639.20 0.0015645 -14.557 -14.550 0.043120 1.3540 2.0642 1515.7 -0.0066853 398.88 0.16171 0.12488 8.0078 428.62 461.98 2.7274 1.0082 1.1997 198.88 0.93475 4.8524 0.0072564
-94.625 0.65446 0.00015284 -12.424 -12.412 0.055128 638.16 0.0015670 -12.491 -12.484 0.054721 1.3550 2.0667 1509.0 -0.0066650 392.53 0.16110 0.13455 7.4323 429.61 463.15 2.7189 1.0116 1.2032 199.36 0.92188 4.8796 0.0073299
-93.625 0.70822 0.00016414 -10.351 -10.338 0.066705 637.12 0.0015696 -10.424 -10.416 0.066271 1.3560 2.0691 1502.3 -0.0066444 386.34 0.16048 0.14482 6.9050 430.60 464.32 2.7107 1.0149 1.2068 199.83 0.90921 4.9068 0.0074036
-92.625 0.76564 0.00017611 -8.2760 -8.2618 0.078233 636.07 0.0015722 -8.3535 -8.3452 0.077771 1.3570 2.0716 1495.6 -0.0066236 380.31 0.15987 0.15573 6.4212 431.60 465.49 2.7025 1.0183 1.2104 200.30 0.89673 4.9340 0.0074776
-91.625 0.82689 0.00018877 -6.1980 -6.1826 0.089712 635.02 0.0015747 -6.2808 -6.2719 0.089220 1.3580 2.0742 1488.9 -0.0066025 374.41 0.15925 0.16731 5.9769 432.59 466.67 2.6946 1.0217 1.2140 200.77 0.88445 4.9611 0.0075518
-90.625 0.89218 0.00020215 -4.1171 -4.1005 0.10114 633.98 0.0015773 -4.2056 -4.1959 0.10062 1.3591 2.0767 1482.2 -0.0065811 368.66 0.15864 0.17958 5.5685 433.59 467.84 2.6868 1.0251 1.2177 201.24 0.87236 4.9883 0.0076263
-89.625 0.96172 0.00021628 -2.0334 -2.0155 0.11253 632.93 0.0015800 -2.1279 -2.1174 0.11197 1.3602 2.0793 1475.5 -0.0065595 363.05 0.15802 0.19258 5.1928 434.59 469.02 2.6791 1.0285 1.2213 201.70 0.86045 5.0154 0.0077011
-88.625 1.0357 0.00023119 0.053199 0.072498 0.12387 631.88 0.0015826 -0.047516 -0.036215 0.12328 1.3613 2.0819 1468.8 -0.0065375 357.56 0.15740 0.20633 4.8466 435.59 470.20 2.6717 1.0320 1.2250 202.15 0.84873 5.0425 0.0077761
-87.625 1.1144 0.00024690 2.1427 2.1635 0.13516 630.83 0.0015852 2.0355 2.0476 0.13454 1.3625 2.0846 1462.1 -0.0065153 352.21 0.15679 0.22087 4.5276 436.60 471.39 2.6643 1.0354 1.2288 202.61 0.83718 5.0696 0.0078514
-86.625 1.1979 0.00026346 4.2353 4.2576 0.14641 629.77 0.0015879 4.1211 4.1342 0.14575 1.3637 2.0873 1455.4 -0.0064928 346.98 0.15617 0.23623 4.2331 437.61 472.57 2.6571 1.0389 1.2325 203.06 0.82580 5.0967 0.0079270
-85.625 1.2866 0.00028088 6.3308 6.3548 0.15761 628.72 0.0015905 6.2094 6.2235 0.15691 1.3649 2.0900 1448.8 -0.0064701 341.87 0.15555 0.25245 3.9612 438.61 473.75 2.6501 1.0424 1.2363 203.50 0.81460 5.1237 0.0080028
-84.625 1.3806 0.00029920 8.4294 8.4551 0.16878 627.66 0.0015932 8.3004 8.3155 0.16803 1.3661 2.0927 1442.1 -0.0064470 336.87 0.15494 0.26956 3.7097 439.63 474.94 2.6432 1.0460 1.2402 203.95 0.80356 5.1508 0.0080789
-83.625 1.4803 0.00031846 10.531 10.559 0.17989 626.60 0.0015959 10.394 10.410 0.17911 1.3674 2.0955 1435.4 -0.0064236 331.99 0.15432 0.28760 3.4771 440.64 476.13 2.6364 1.0495 1.2440 204.38 0.79269 5.1778 0.0081553
-82.625 1.5858 0.00033868 12.636 12.666 0.19097 625.54 0.0015986 12.491 12.508 0.19014 1.3687 2.0983 1428.7 -0.0063999 327.22 0.15370 0.30659 3.2616 441.65 477.31 2.6298 1.0531 1.2479 204.82 0.78199 5.2048 0.0082319
-81.625 1.6975 0.00035989 14.744 14.776 0.20201 624.48 0.0016013 14.590 14.609 0.20113 1.3700 2.1012 1422.0 -0.0063759 322.55 0.15309 0.32659 3.0619 442.67 478.50 2.6233 1.0567 1.2519 205.25 0.77144 5.2318 0.0083088
-80.625 1.8155 0.00038213 16.855 16.889 0.21300 623.42 0.0016041 16.692 16.712 0.21208 1.3714 2.1041 1415.4 -0.0063516 317.99 0.15247 0.34763 2.8766 443.69 479.70 2.6169 1.0603 1.2558 205.67 0.76106 5.2587 0.0083860
-79.625 1.9402 0.00040544 18.970 19.006 0.22396 622.36 0.0016068 18.797 18.819 0.22299 1.3728 2.1070 1408.7 -0.0063270 313.52 0.15186 0.36974 2.7046 444.71 480.89 2.6106 1.0639 1.2598 206.10 0.75083 5.2857 0.0084634
-78.625 2.0718 0.00042984 21.088 21.126 0.23487 621.29 0.0016096 20.905 20.928 0.23385 1.3742 2.1099 1402.0 -0.0063021 309.15 0.15124 0.39296 2.5448 445.73 482.08 2.6045 1.0676 1.2639 206.51 0.74076 5.3126 0.0085411
-77.625 2.2107 0.00045537 23.209 23.250 0.24575 620.22 0.0016123 23.016 23.040 0.24468 1.3757 2.1129 1395.3 -0.0062768 304.88 0.15062 0.41735 2.3961 446.75 483.27 2.5985 1.0712 1.2680 206.93 0.73084 5.3395 0.0086190
-76.625 2.3571 0.00048206 25.333 25.377 0.25659 619.15 0.0016151 25.130 25.156 0.25546 1.3772 2.1159 1388.7 -0.0062512 300.69 0.15001 0.44292 2.2577 447.78 484.47 2.5926 1.0749 1.2721 207.34 0.72107 5.3664 0.0086972
-75.625 2.5113 0.00050996 27.461 27.508 0.26739 618.08 0.0016179 27.247 27.275 0.26620 1.3787 2.1190 1382.0 -0.0062253 296.59 0.14939 0.46974 2.1288 448.81 485.67 2.5869 1.0787 1.2762 207.74 0.71146 5.3933 0.0087757
-74.625 2.6736 0.00053908 29.593 29.643 0.27815 617.01 0.0016207 29.366 29.396 0.27691 1.3802 2.1221 1375.4 -0.0061990 292.58 0.14878 0.49783 2.0087 449.83 486.86 2.5812 1.0824 1.2804 208.14 0.70200 5.4201 0.0088544
-73.625 2.8444 0.00056947 31.728 31.781 0.28888 615.93 0.0016236 31.489 31.521 0.28758 1.3818 2.1252 1368.7 -0.0061724 288.65 0.14816 0.52725 1.8966 450.86 488.06 2.5757 1.0862 1.2847 208.54 0.69268 5.4469 0.0089334
-72.625 3.0240 0.00060117 33.867 33.923 0.29957 614.85 0.0016264 33.615 33.649 0.29821 1.3834 2.1284 1362.0 -0.0061454 284.81 0.14755 0.55804 1.7920 451.90 489.26 2.5703 1.0900 1.2889 208.93 0.68351 5.4737 0.0090126
-71.625 3.2127 0.00063420 36.009 36.069 0.31023 613.78 0.0016293 35.745 35.781 0.30880 1.3851 2.1316 1355.4 -0.0061181 281.03 0.14694 0.59024 1.6942 452.93 490.46 2.5650 1.0938 1.2932 209.32 0.67448 5.5005 0.0090922
-70.625 3.4108 0.00066861 38.155 38.219 0.32085 612.69 0.0016321 37.877 37.915 0.31935 1.3867 2.1349 1348.7 -0.0060904 277.34 0.14632 0.62390 1.6028 453.96 491.66 2.5598 1.0976 1.2976 209.70 0.66560 5.5273 0.0091720
-69.625 3.6187 0.00070442 40.305 40.372 0.33144 611.61 0.0016350 40.013 40.053 0.32987 1.3884 2.1382 1342.1 -0.0060624 273.72 0.14571 0.65906 1.5173 455.00 492.86 2.5547 1.1015 1.3020 210.08 0.65687 5.5540 0.0092520
-68.625 3.8367 0.00074168 42.458 42.530 0.34199 610.53 0.0016379 42.152 42.195 0.34036 1.3902 2.1415 1335.5 -0.0060339 270.17 0.14510 0.69577 1.4372 456.04 494.06 2.5497 1.1054 1.3064 210.45 0.64827 5.5807 0.0093324
-67.625 4.0652 0.00078043 44.616 44.692 0.35252 609.44 0.0016409 44.294 44.340 0.35080 1.3919 2.1449 1328.8 -0.0060051 266.69 0.14449 0.73408 1.3622 457.08 495.26 2.5448 1.1093 1.3109 210.82 0.63981 5.6074 0.0094130
-66.625 4.3046 0.00082069 46.777 46.857 0.36301 608.35 0.0016438 46.439 46.488 0.36122 1.3937 2.1483 1322.2 -0.0059760 263.28 0.14388 0.77404 1.2919 458.12 496.46 2.5400 1.1133 1.3154 211.18 0.63150 5.6341 0.0094939
-65.625 4.5551 0.00086250 48.942 49.027 0.37347 607.26 0.0016467 48.588 48.640 0.37160 1.3955 2.1518 1315.6 -0.0059464 259.93 0.14327 0.81570 1.2259 459.16 497.67 2.5353 1.1172 1.3200 211.54 0.62332 5.6608 0.0095750
-64.625 4.8173 0.00090590 51.111 51.201 0.38389 606.16 0.0016497 50.740 50.795 0.38195 1.3974 2.1553 1308.9 -0.0059164 256.65 0.14266 0.85910 1.1640 460.21 498.87 2.5307 1.1212 1.3246 211.89 0.61527 5.6874 0.0096564
-63.625 5.0915 0.00095093 53.284 53.379 0.39429 605.07 0.0016527 52.896 52.954 0.39226 1.3993 2.1588 1302.3 -0.0058861 253.42 0.14205 0.90429 1.1058 461.25 500.07 2.5262 1.1252 1.3293 212.24 0.60736 5.7140 0.0097382
-62.625 5.3781 0.00099762 55.462 55.562 0.40466 603.97 0.0016557 55.055 55.117 0.40254 1.4012 2.1624 1295.7 -0.0058553 250.26 0.14144 0.95134 1.0511 462.30 501.28 2.5218 1.1293 1.3340 212.58 0.59958 5.7406 0.0098201
-61.625 5.6774 0.0010460 57.643 57.749 0.41499 602.87 0.0016587 57.218 57.283 0.41279 1.4031 2.1660 1289.1 -0.0058241 247.16 0.14084 1.0003 0.99972 463.35 502.48 2.5175 1.1333 1.3387 212.92 0.59194 5.7672 0.0099024
-60.625 5.9899 0.0010961 59.828 59.940 0.42530 601.77 0.0016618 59.385 59.453 0.42301 1.4051 2.1697 1282.5 -0.0057925 244.12 0.14023 1.0512 0.95131 464.40 503.68 2.5133 1.1374 1.3435 213.26 0.58442 5.7938 0.0099850
-59.625 6.3160 0.0011480 62.018 62.136 0.43558 600.66 0.0016648 61.554 61.627 0.43320 1.4071 2.1734 1275.9 -0.0057605 241.13 0.13962 1.1041 0.90573 465.45 504.89 2.5091 1.1415 1.3483 213.58 0.57704 5.8203 0.010068
-58.625 6.6561 0.0012017 64.212 64.336 0.44583 599.55 0.0016679 63.728 63.805 0.44335 1.4091 2.1772 1269.3 -0.0057280 238.19 0.13902 1.1591 0.86277 466.50 506.09 2.5051 1.1457 1.3532 213.90 0.56978 5.8468 0.010151
-57.625 7.0107 0.0012572 66.410 66.541 0.45605 598.44 0.0016710 65.905 65.986 0.45348 1.4111 2.1810 1262.7 -0.0056951 235.31 0.13842 1.2161 0.82228 467.55 507.30 2.5011 1.1498 1.3581 214.22 0.56265 5.8733 0.010234
-56.625 7.3801 0.0013147 68.613 68.751 0.46625 597.33 0.0016741 68.086 68.172 0.46358 1.4132 2.1848 1256.1 -0.0056617 232.48 0.13781 1.2754 0.78408 468.60 508.50 2.4972 1.1540 1.3631 214.53 0.55564 5.8998 0.010318
-55.625 7.7648 0.0013740 70.820 70.965 0.47642 596.22 0.0016772 70.271 70.361 0.47364 1.4153 2.1887 1249.5 -0.0056279 229.69 0.13721 1.3369 0.74802 469.66 509.71 2.4934 1.1582 1.3681 214.84 0.54875 5.9263 0.010402
-54.625 8.1652 0.0014353 73.031 73.184 0.48656 595.10 0.0016804 72.460 72.554 0.48368 1.4174 2.1927 1242.9 -0.0055937 226.96 0.13661 1.4006 0.71396 470.72 510.91 2.4897 1.1624 1.3731 215.14 0.54199 5.9527 0.010486
-53.625 8.5819 0.0014985 75.247 75.407 0.49668 593.98 0.0016836 74.652 74.752 0.49369 1.4196 2.1967 1236.3 -0.0055589 224.27 0.13601 1.4667 0.68178 471.77 512.11 2.4860 1.1667 1.3782 215.43 0.53535 5.9792 0.010571
-52.625 9.0151 0.0015638 77.468 77.636 0.50677 592.86 0.0016867 76.849 76.954 0.50368 1.4218 2.2007 1229.8 -0.0055237 221.63 0.13541 1.5353 0.65136 472.83 513.32 2.4824 1.1710 1.3834 215.72 0.52882 6.0056 0.010656
-51.625 9.4655 0.0016311 79.693 79.869 0.51684 591.73 0.0016900 79.049 79.159 0.51363 1.4240 2.2048 1223.2 -0.0054880 219.04 0.13482 1.6062 0.62258 473.89 514.52 2.4789 1.1752 1.3886 216.00 0.52241 6.0320 0.010741
-50.625 9.9335 0.0017005 81.923 82.108 0.52688 590.60 0.0016932 81.253 81.369 0.52356 1.4262 2.2089 1216.6 -0.0054519 216.48 0.13422 1.6797 0.59534 474.95 515.73 2.4755 1.1796 1.3938 216.28 0.51612 6.0584 0.010827
-49.625 10.419 0.0017721 84.157 84.351 0.53690 589.47 0.0016964 83.462 83.584 0.53347 1.4285 2.2131 1210.1 -0.0054152 213.98 0.13363 1.7558 0.56954 476.01 516.93 2.4722 1.1839 1.3991 216.55 0.50994 6.0848 0.010913
-48.625 10.924 0.0018458 86.397 86.600 0.54690 588.34 0.0016997 85.674 85.802 0.54334 1.4308 2.2173 1203.5 -0.0053780 211.51 0.13303 1.8345 0.54510 477.07 518.13 2.4689 1.1883 1.4044 216.82 0.50387 6.1112 0.010999
-47.625 11.448 0.0019217 88.641 88.854 0.55687 587.20 0.0017030 87.891 88.025 0.55319 1.4331 2.2216 1196.9 -0.0053403 209.08 0.13244 1.9159 0.52194 478.14 519.33 2.4657 1.1927 1.4098 217.08 0.49792 6.1375 0.011085
-46.625 11.991 0.0019998 90.889 91.113 0.56682 586.06 0.0017063 90.111 90.252 0.56302 1.4354 2.2259 1190.4 -0.0053020 206.69 0.13185 2.0001 0.49997 479.20 520.53 2.4625 1.1971 1.4153 217.33 0.49207 6.1639 0.011172
-45.625 12.554 0.0020801 93.143 93.377 0.57675 584.92 0.0017096 92.336 92.484 0.57282 1.4378 2.2303 1183.8 -0.0052633 204.34 0.13126 2.0872 0.47912 480.27 521.74 2.4594 1.2015 1.4207 217.58 0.48633 6.1902 0.011259
-44.625 13.137 0.0021628 95.402 95.647 0.58665 583.77 0.0017130 94.565 94.720 0.58260 1.4402 2.2347 1177.3 -0.0052240 202.03 0.13067 2.1771 0.45933 481.33 522.94 2.4564 1.2060 1.4263 217.82 0.48069 6.2165 0.011347
-43.625 13.741 0.0022477 97.665 97.921 0.59653 582.62 0.0017164 96.799 96.961 0.59235 1.4426 2.2392 1170.7 -0.0051841 199.75 0.13008 2.2700 0.44053 482.40 524.14 2.4535 1.2104 1.4319 218.05 0.47516 6.2429 0.011435
-42.625 14.367 0.0023350 99.934 100.20 0.60640 581.47 0.0017198 99.036 99.207 0.60208 1.4450 2.2437 1164.2 -0.0051437 197.51 0.12949 2.3659 0.42267 483.46 525.33 2.4506 1.2149 1.4375 218.28 0.46973 6.2692 0.011523
-41.625 15.015 0.0024247 102.21 102.49 0.61624 580.32 0.0017232 101.28 101.46 0.61179 1.4475 2.2483 1157.7 -0.0051027 195.30 0.12891 2.4649 0.40569 484.53 526.53 2.4478 1.2195 1.4432 218.50 0.46440 6.2955 0.011612
-40.625 15.686 0.0025168 104.49 104.78 0.62606 579.16 0.0017266 103.52 103.71 0.62147 1.4500 2.2529 1151.1 -0.0050611 193.13 0.12832 2.5671 0.38954 485.60 527.73 2.4450 1.2240 1.4489 218.72 0.45917 6.3218 0.011701
-39.625 16.380 0.0026114 106.77 107.08 0.63586 578.00 0.0017301 105.78 105.97 0.63113 1.4525 2.2576 1144.6 -0.0050189 190.99 0.12774 2.6725 0.37418 486.67 528.93 2.4423 1.2286 1.4547 218.93 0.45403 6.3481 0.011790
-38.625 17.097 0.0027084 109.06 109.38 0.64564 576.83 0.0017336 108.03 108.24 0.64077 1.4550 2.2623 1138.0 -0.0049761 188.88 0.12716 2.7813 0.35955 487.74 530.12 2.4397 1.2332 1.4606 219.13 0.44900 6.3744 0.011880
-37.625 17.838 0.0028079 111.35 111.69 0.65541 575.66 0.0017371 110.29 110.51 0.65039 1.4576 2.2671 1131.5 -0.0049327 186.81 0.12658 2.8934 0.34562 488.81 531.32 2.4371 1.2378 1.4665 219.33 0.44405 6.4007 0.011970
-36.625 18.604 0.0029099 113.65 114.00 0.66515 574.49 0.0017407 112.56 112.78 0.65999 1.4602 2.2719 1125.0 -0.0048887 184.76 0.12600 3.0089 0.33235 489.88 532.51 2.4346 1.2424 1.4724 219.52 0.43920 6.4270 0.012060
-35.625 19.395 0.0030145 115.96 116.32 0.67488 573.32 0.0017442 114.83 115.06 0.66956 1.4628 2.2768 1118.5 -0.0048440 182.75 0.12542 3.1280 0.31969 490.95 533.70 2.4321 1.2471 1.4784 219.70 0.43444 6.4533 0.012151
-34.625 20.212 0.0031217 118.27 118.65 0.68458 572.14 0.0017478 117.10 117.34 0.67912 1.4654 2.2818 1111.9 -0.0047987 180.76 0.12485 3.2506 0.30763 492.02 534.89 2.4297 1.2517 1.4845 219.88 0.42977 6.4797 0.012243
-33.625 21.056 0.0032315 120.59 120.98 0.69427 570.96 0.0017514 119.38 119.63 0.68865 1.4681 2.2868 1105.4 -0.0047527 178.80 0.12427 3.3770 0.29612 493.09 536.08 2.4273 1.2564 1.4906 220.05 0.42519 6.5060 0.012334
-32.625 21.926 0.0033439 122.91 123.32 0.70394 569.77 0.0017551 121.66 121.93 0.69817 1.4708 2.2918 1098.9 -0.0047061 176.87 0.12370 3.5071 0.28514 494.17 537.27 2.4250 1.2611 1.4968 220.21 0.42070 6.5323 0.012426
-31.625 22.823 0.0034590 125.23 125.66 0.71360 568.58 0.0017588 123.95 124.23 0.70767 1.4735 2.2970 1092.3 -0.0046587 174.97 0.12313 3.6410 0.27465 495.24 538.46 2.4227 1.2659 1.5031 220.36 0.41629 6.5587 0.012519
-30.625 23.749 0.0035767 127.57 128.01 0.72324 567.39 0.0017625 126.24 126.53 0.71714 1.4762 2.3021 1085.8 -0.0046107 173.09 0.12256 3.7787 0.26464 496.31 539.64 2.4205 1.2706 1.5094 220.51 0.41196 6.5850 0.012612
-29.625 24.703 0.0036972 129.90 130.37 0.73286 566.19 0.0017662 128.54 128.84 0.72660 1.4790 2.3074 1079.3 -0.0045619 171.24 0.12200 3.9205 0.25507 497.38 540.83 2.4184 1.2754 1.5157 220.65 0.40772 6.6114 0.012706
-28.625 25.687 0.0038204 132.25 132.73 0.74246 564.99 0.0017699 130.84 131.16 0.73604 1.4818 2.3126 1072.8 -0.0045124 169.42 0.12143 4.0663 0.24592 498.46 542.01 2.4162 1.2802 1.5222 220.79 0.40356 6.6378 0.012800
-27.625 26.700 0.0039463 134.60 135.10 0.75205 563.78 0.0017737 133.15 133.48 0.74547 1.4846 2.3180 1066.2 -0.0044621 167.62 0.12087 4.2163 0.23717 499.53 543.19 2.4142 1.2850 1.5286 220.91 0.39947 6.6642 0.012894
-26.625 27.743 0.0040750 136.95 137.47 0.76162 562.57 0.0017775 135.47 135.81 0.75487 1.4874 2.3234 1059.7 -0.0044111 165.84 0.12031 4.3705 0.22881 500.60 544.37 2.4122 1.2899 1.5352 221.03 0.39547 6.6906 0.012989
-25.625 28.817 0.0042065 139.31 139.85 0.77118 561.36 0.0017814 137.78 138.14 0.76426 1.4902 2.3289 1053.2 -0.0043593 164.09 0.11975 4.5290 0.22080 501.68 545.55 2.4102 1.2947 1.5418 221.14 0.39154 6.7171 0.013084
-24.625 29.923 0.0043408 141.68 142.24 0.78072 560.14 0.0017853 140.11 140.48 0.77363 1.4931 2.3344 1046.7 -0.0043067 162.36 0.11919 4.6918 0.21314 502.75 546.72 2.4083 1.2996 1.5485 221.25 0.38768 6.7436 0.013180
-23.625 31.061 0.0044779 144.05 144.63 0.79025 558.92 0.0017892 142.44 142.82 0.78298 1.4960 2.3400 1040.1 -0.0042533 160.65 0.11863 4.8592 0.20580 503.82 547.90 2.4064 1.3045 1.5552 221.35 0.38391 6.7701 0.013277
-22.625 32.232 0.0046179 146.43 147.03 0.79977 557.69 0.0017931 144.77 145.17 0.79232 1.4990 2.3457 1033.6 -0.0041990 158.97 0.11807 5.0311 0.19877 504.90 549.07 2.4045 1.3095 1.5621 221.44 0.38020 6.7967 0.013374
-21.625 33.435 0.0047607 148.82 149.44 0.80927 556.46 0.0017971 147.11 147.52 0.80164 1.5019 2.3514 1027.1 -0.0041439 157.30 0.11752 5.2076 0.19203 505.97 550.24 2.4027 1.3144 1.5690 221.52 0.37656 6.8232 0.013471
-20.625 34.673 0.0049064 151.21 151.85 0.81875 555.23 0.0018011 149.45 149.88 0.81095 1.5049 2.3572 1020.6 -0.0040879 155.66 0.11697 5.3889 0.18557 507.04 551.40 2.4010 1.3194 1.5759 221.59 0.37300 6.8499 0.013569
-19.625 35.946 0.0050550 153.60 154.27 0.82822 553.99 0.0018051 151.80 152.25 0.82024 1.5079 2.3630 1014.0 -0.0040311 154.04 0.11642 5.5750 0.17937 508.11 552.57 2.3992 1.3244 1.5829 221.66 0.36950 6.8765 0.013668
-18.625 37.253 0.0052064 156.01 156.70 0.83768 552.74 0.0018092 154.16 154.62 0.82952 1.5109 2.3689 1007.5 -0.0039733 152.44 0.11587 5.7660 0.17343 509.19 553.73 2.3976 1.3294 1.5901 221.72 0.36608 6.9032 0.013767
-17.625 38.596 0.0053608 158.42 159.14 0.84713 551.49 0.0018133 156.52 157.00 0.83878 1.5140 2.3749 1001.0 -0.0039145 150.86 0.11532 5.9621 0.16773 510.26 554.89 2.3959 1.3345 1.5972 221.77 0.36272 6.9300 0.013867
-16.625 39.976 0.0055181 160.83 161.58 0.85656 550.24 0.0018174 158.89 159.39 0.84803 1.5171 2.3810 994.44 -0.0038549 149.29 0.11478 6.1632 0.16225 511.33 556.05 2.3943 1.3395 1.6045 221.81 0.35942 6.9568 0.013968
-15.625 41.392 0.0056783 163.25 164.02 0.86598 548.98 0.0018216 161.26 161.78 0.85726 1.5202 2.3871 987.91 -0.0037942 147.75 0.11423 6.3696 0.15700 512.40 557.20 2.3927 1.3446 1.6119 221.85 0.35619 6.9836 0.014069
-14.625 42.846 0.0058414 165.68 166.48 0.87539 547.71 0.0018258 163.64 164.18 0.86649 1.5233 2.3933 981.37 -0.0037325 146.22 0.11369 6.5812 0.15195 513.47 558.36 2.3912 1.3497 1.6193 221.87 0.35302 7.0105 0.014170
-13.625 44.338 0.0060075 168.11 168.94 0.88479 546.44 0.0018300 166.02 166.58 0.87569 1.5264 2.3996 974.83 -0.0036698 144.72 0.11315 6.7983 0.14710 514.54 559.51 2.3897 1.3549 1.6268 221.89 0.34992 7.0375 0.014273
-12.625 45.870 0.0061765 170.56 171.41 0.89417 545.17 0.0018343 168.41 168.99 0.88489 1.5296 2.4059 968.29 -0.0036061 143.23 0.11261 7.0208 0.14243 515.61 560.65 2.3883 1.3600 1.6344 221.90 0.34688 7.0646 0.014376
-11.625 47.440 0.0063485 173.00 173.89 0.90355 543.89 0.0018386 170.81 171.41 0.89407 1.5328 2.4124 961.75 -0.0035413 141.76 0.11208 7.2490 0.13795 516.68 561.80 2.3868 1.3652 1.6421 221.91 0.34389 7.0917 0.014479
-10.625 49.051 0.0065233 175.45 176.37 0.91291 542.60 0.0018430 173.21 173.83 0.90324 1.5360 2.4189 955.20 -0.0034753 140.30 0.11154 7.4829 0.13364 517.75 562.94 2.3854 1.3704 1.6498 221.90 0.34097 7.1188 0.014584
-9.6250 50.703 0.0067011 177.91 178.86 0.92226 541.31 0.0018474 175.61 176.26 0.91240 1.5393 2.4255 948.65 -0.0034082 138.86 0.11101 7.7226 0.12949 518.81 564.08 2.3841 1.3757 1.6577 221.88 0.33810 7.1461 0.014689
-8.6250 52.396 0.0068819 180.38 181.36 0.93160 540.02 0.0018518 178.03 178.70 0.92154 1.5426 2.4321 942.10 -0.0033400 137.44 0.11048 7.9683 0.12550 519.88 565.21 2.3827 1.3809 1.6657 221.86 0.33529 7.1734 0.014795
-7.6250 54.131 0.0070655 182.85 183.86 0.94093 538.72 0.0018563 180.45 181.14 0.93068 1.5459 2.4389 935.55 -0.0032705 136.03 0.10995 8.2200 0.12165 520.94 566.35 2.3814 1.3862 1.6737 221.83 0.33254 7.2008 0.014902
-6.6250 55.909 0.0072521 185.33 186.37 0.95025 537.41 0.0018608 182.87 183.59 0.93980 1.5492 2.4457 928.99 -0.0031998 134.64 0.10942 8.4779 0.11795 522.01 567.48 2.3801 1.3915 1.6819 221.79 0.32984 7.2284 0.015009
-5.6250 57.730 0.0074416 187.82 188.89 0.95956 536.10 0.0018653 185.30 186.05 0.94892 1.5525 2.4526 922.43 -0.0031279 133.27 0.10889 8.7420 0.11439 523.07 568.60 2.3789 1.3969 1.6902 221.74 0.32720 7.2560 0.015117
-4.6250 59.595 0.0076340 190.31 191.42 0.96886 534.78 0.0018699 187.74 188.51 0.95802 1.5559 2.4596 915.87 -0.0030546 131.91 0.10837 9.0126 0.11096 524.13 569.72 2.3777 1.4022 1.6985 221.68 0.32461 7.2837 0.015226
-3.6250 61.505 0.0078292 192.81 193.96 0.97815 533.45 0.0018746 190.19 190.98 0.96711 1.5593 2.4667 909.30 -0.0029800 130.56 0.10785 9.2896 0.10765 525.19 570.84 2.3765 1.4076 1.7070 221.62 0.32207 7.3115 0.015336
-2.6250 63.461 0.0080273 195.32 196.50 0.98743 532.12 0.0018793 192.64 193.46 0.97620 1.5627 2.4739 902.73 -0.0029041 129.23 0.10733 9.5733 0.10446 526.25 571.96 2.3753 1.4131 1.7156 221.54 0.31958 7.3394 0.015447
-1.6250 65.462 0.0082283 197.83 199.05 0.99670 530.78 0.0018840 195.10 195.95 0.98527 1.5662 2.4811 896.16 -0.0028267 127.91 0.10681 9.8638 0.10138 527.31 573.07 2.3742 1.4185 1.7243 221.45 0.31715 7.3674 0.015559
-0.62500 67.510 0.0084320 200.35 201.61 1.0060 529.44 0.0018888 197.56 198.44 0.99434 1.5696 2.4885 889.58 -0.0027478 126.61 0.10629 10.161 0.098414 528.37 574.18 2.3731 1.4240 1.7331 221.36 0.31476 7.3956 0.015671
0.37500 69.606 0.0086386 202.88 204.17 1.0152 528.09 0.0018936 200.03 200.94 1.0034 1.5731 2.4960 883.00 -0.0026675 125.32 0.10578 10.466 0.095552 529.42 575.28 2.3720 1.4295 1.7421 221.26 0.31242 7.4239 0.015785
1.3750 71.749 0.0088479 205.41 206.75 1.0245 526.73 0.0018985 202.51 203.45 1.0124 1.5767 2.5035 876.42 -0.0025856 124.04 0.10527 10.777 0.092790 530.48 576.38 2.3709 1.4350 1.7512 221.14 0.31013 7.4523 0.015899
2.3750 73.941 0.0090599 207.95 209.33 1.0337 525.37 0.0019034 204.99 205.96 1.0215 1.5802 2.5112 869.83 -0.0025022 122.78 0.10476 11.096 0.090123 531.53 577.47 2.3699 1.4406 1.7604 221.02 0.30789 7.4808 0.016015
3.3750 76.183 0.0092746 210.50 211.92 1.0429 523.99 0.0019084 207.48 208.48 1.0305 1.5838 2.5190 863.24 -0.0024171 121.53 0.10425 11.422 0.087549 532.58 578.56 2.3688 1.4462 1.7697 220.89 0.30569 7.5095 0.016131
4.3750 78.475 0.0094920 213.05 214.51 1.0522 522.62 0.0019134 209.98 211.01 1.0395 1.5874 2.5268 856.64 -0.0023303 120.29 0.10374 11.756 0.085062 533.63 579.65 2.3678 1.4518 1.7792 220.75 0.30354 7.5384 0.016249
5.3750 80.817 0.0097120 215.61 217.12 1.0614 521.23 0.0019185 212.48 213.55 1.0486 1.5910 2.5348 850.04 -0.0022417 119.06 0.10324 12.098 0.082660 534.67 580.73 2.3669 1.4575 1.7888 220.60 0.30144 7.5674 0.016368
6.3750 83.211 0.0099346 218.18 219.73 1.0706 519.84 0.0019237 215.00 216.10 1.0576 1.5946 2.5429 843.43 -0.0021514 117.85 0.10273 12.447 0.080340 535.72 581.81 2.3659 1.4632 1.7986 220.44 0.29938 7.5966 0.016487
7.3750 85.657 0.010160 220.76 222.35 1.0798 518.44 0.0019289 217.51 218.65 1.0666 1.5983 2.5511 836.82 -0.0020593 116.65 0.10223 12.805 0.078096 536.76 582.88 2.3650 1.4689 1.8085 220.27 0.29736 7.6259 0.016608
8.3750 88.156 0.010387 223.34 224.98 1.0890 517.03 0.0019341 220.04 221.22 1.0756 1.6020 2.5595 830.20 -0.0019652 115.46 0.10173 13.170 0.075928 537.80 583.95 2.3640 1.4746 1.8186 220.08 0.29538 7.6555 0.016730
9.3750 90.708 0.010617 225.93 227.62 1.0981 515.62 0.0019394 222.57 223.79 1.0846 1.6057 2.5679 823.58 -0.0018691 114.28 0.10124 13.545 0.073830 538.84 585.01 2.3631 1.4804 1.8288 219.89 0.29345 7.6852 0.016853
10.375 93.315 0.010849 228.53 230.27 1.1073 514.19 0.0019448 225.11 226.37 1.0936 1.6095 2.5765 816.96 -0.0017710 113.11 0.10074 13.927 0.071802 539.87 586.07 2.3622 1.4863 1.8392 219.69 0.29156 7.7151 0.016978
11.375 95.977 0.011084 231.13 232.92 1.1165 512.76 0.0019502 227.66 228.95 1.1025 1.6132 2.5852 810.32 -0.0016708 111.95 0.10025 14.319 0.069840 540.90 587.12 2.3614 1.4921 1.8498 219.48 0.28971 7.7452 0.017103
12.375 98.694 0.011321 233.75 235.59 1.1257 511.32 0.0019557 230.22 231.55 1.1115 1.6170 2.5940 803.68 -0.0015685 110.80 0.099756 14.719 0.067941 541.93 588.17 2.3605 1.4980 1.8605 219.26 0.28790 7.7756 0.017230
13.375 101.47 0.011559 236.37 238.26 1.1348 509.87 0.0019613 232.78 234.15 1.1205 1.6208 2.6030 797.04 -0.0014639 109.67 0.099267 15.128 0.066103 542.96 589.21 2.3597 1.5040 1.8715 219.03 0.28612 7.8061 0.017359
14.375 104.30 0.011800 238.99 240.94 1.1440 508.42 0.0019669 235.35 236.77 1.1295 1.6247 2.6121 790.39 -0.0013569 108.54 0.098779 15.547 0.064323 543.99 590.24 2.3588 1.5099 1.8826 218.79 0.28439 7.8369 0.017488
15.375 107.19 0.012043 241.63 243.63 1.1531 506.95 0.0019726 237.93 239.39 1.1384 1.6286 2.6214 783.73 -0.0012476 107.43 0.098294 15.974 0.062600 545.01 591.27 2.3580 1.5159 1.8940 218.53 0.28270 7.8680 0.017619
16.375 110.13 0.012288 244.27 246.32 1.1623 505.48 0.0019783 240.52 242.02 1.1474 1.6324 2.6308 777.07 -0.0011357 106.32 0.097810 16.412 0.060931 546.03 592.29 2.3572 1.5220 1.9055 218.27 0.28104 7.8993 0.017752
17.375 113.14 0.012534 246.92 249.03 1.1714 504.00 0.0019841 243.11 244.66 1.1564 1.6364 2.6403 770.40 -0.0010213 105.22 0.097328 16.859 0.059314 547.04 593.31 2.3564 1.5281 1.9172 217.99 0.27942 7.9308 0.017886
18.375 116.21 0.012782 249.58 251.75 1.1805 502.50 0.0019900 245.72 247.31 1.1653 1.6403 2.6501 763.72 -0.00090422 104.14 0.096848 17.317 0.057747 548.05 594.32 2.3557 1.5342 1.9292 217.71 0.27783 7.9626 0.018021
19.375 119.33 0.013031 252.25 254.47 1.1897 501.00 0.0019960 248.33 249.97 1.1743 1.6443 2.6599 757.04 -0.00078435 103.06 0.096371 17.785 0.056228 549.06 595.33 2.3549 1.5404 1.9414 217.41 0.27628 7.9947 0.018159
20.375 122.52 0.013282 254.92 257.20 1.1988 499.49 0.0020020 250.95 252.64 1.1832 1.6483 2.6700 750.35 -0.00066161 101.99 0.095895 18.263 0.054756 550.07 596.32 2.3541 1.5466 1.9538 217.10 0.27477 8.0272 0.018297
21.375 125.77 0.013533 257.60 259.94 1.2079 497.97 0.0020082 253.57 255.32 1.1922 1.6523 2.6802 743.64 -0.00053589 100.93 0.095420 18.752 0.053328 551.07 597.31 2.3534 1.5528 1.9665 216.78 0.27329 8.0599 0.018438
22.375 129.08 0.013786 260.29 262.69 1.2170 496.43 0.0020144 256.21 258.00 1.2012 1.6563 2.6906 736.94 -0.00040708 99.877 0.094948 19.252 0.051943 552.07 598.30 2.3526 1.5591 1.9795 216.45 0.27184 8.0929 0.018580
23.375 132.46 0.014040 262.99 265.45 1.2261 494.89 0.0020206 258.86 260.70 1.2101 1.6604 2.7012 730.22 -0.00027505 98.834 0.094478 19.763 0.050600 553.06 599.27 2.3519 1.5655 1.9927 216.11 0.27043 8.1263 0.018724
24.375 135.90 0.014295 265.69 268.22 1.2352 493.34 0.0020270 261.51 263.41 1.2191 1.6645 2.7120 723.49 -0.00013968 97.800 0.094009 20.285 0.049297 554.05 600.24 2.3512 1.5718 2.0061 215.75 0.26906 8.1600 0.018870
25.375 139.41 0.014550 268.40 271.00 1.2443 491.77 0.0020335 264.17 266.13 1.2280 1.6686 2.7230 716.76 -8.3775e-07 96.773 0.093543 20.820 0.048032 555.03 601.20 2.3504 1.5783 2.0199 215.39 0.26771 8.1941 0.019017
26.375 142.98 0.014805 271.12 273.79 1.2534 490.20 0.0020400 266.84 268.85 1.2370 1.6728 2.7342 710.01 0.00014161 95.755 0.093078 21.366 0.046804 556.01 602.15 2.3497 1.5847 2.0340 215.01 0.26640 8.2286 0.019167
27.375 146.62 0.015060 273.85 276.59 1.2625 488.61 0.0020466 269.52 271.59 1.2459 1.6770 2.7456 703.26 0.00028782 94.745 0.092615 21.924 0.045612 556.99 603.10 2.3490 1.5913 2.0484 214.62 0.26512 8.2634 0.019319
28.375 150.33 0.015315 276.59 279.39 1.2716 487.01 0.0020533 272.21 274.34 1.2549 1.6812 2.7573 696.49 0.00043793 93.742 0.092154 22.495 0.044454 557.96 604.03 2.3483 1.5978 2.0631 214.21 0.26387 8.2987 0.019472
29.375 154.10 0.015570 279.34 282.21 1.2807 485.40 0.0020601 274.91 277.10 1.2638 1.6854 2.7691 689.72 0.00059212 92.747 0.091695 23.079 0.043329 558.92 604.96 2.3476 1.6044 2.0781 213.80 0.26265 8.3344 0.019628
30.375 157.94 0.015824 282.09 285.03 1.2898 483.78 0.0020671 277.62 279.87 1.2728 1.6897 2.7813 682.93 0.00075055 91.760 0.091238 23.676 0.042237 559.88 605.88 2.3469 1.6111 2.0935 213.37 0.26147 8.3705 0.019786
31.375 161.86 0.016077 284.85 287.87 1.2989 482.15 0.0020741 280.34 282.66 1.2818 1.6939 2.7936 676.13 0.00091340 90.779 0.090782 24.287 0.041175 560.84 606.79 2.3462 1.6178 2.1092 212.93 0.26031 8.4071 0.019947
32.375 165.84 0.016329 287.62 290.71 1.3080 480.50 0.0020812 283.07 285.45 1.2908 1.6983 2.8063 669.32 0.0010809 89.806 0.090328 24.911 0.040143 561.79 607.69 2.3455 1.6246 2.1254 212.48 0.25919 8.4442 0.020110
33.375 169.90 0.016580 290.40 293.57 1.3171 478.83 0.0020884 285.81 288.26 1.2997 1.7026 2.8192 662.50 0.0012532 88.840 0.089876 25.549 0.039140 562.73 608.58 2.3448 1.6314 2.1419 212.01 0.25809 8.4818 0.020275
34.375 174.02 0.016828 293.19 296.43 1.3261 477.16 0.0020957 288.56 291.07 1.3087 1.7070 2.8324 655.67 0.0014305 87.880 0.089426 26.202 0.038164 563.67 609.46 2.3440 1.6383 2.1589 211.53 0.25702 8.5199 0.020443
35.375 178.22 0.017074 295.98 299.30 1.3352 475.47 0.0021032 291.32 293.90 1.3177 1.7114 2.8459 648.82 0.0016131 86.927 0.088977 26.870 0.037216 564.60 610.33 2.3433 1.6452 2.1763 211.04 0.25599 8.5586 0.020613
36.375 182.50 0.017318 298.79 302.19 1.3443 473.77 0.0021107 294.09 296.74 1.3267 1.7158 2.8597 641.96 0.0018012 85.980 0.088531 27.553 0.036293 565.52 611.19 2.3426 1.6522 2.1942 210.53 0.25498 8.5978 0.020786
37.375 186.84 0.017558 301.60 305.08 1.3534 472.05 0.0021184 296.87 299.60 1.3357 1.7203 2.8739 635.08 0.0019950 85.040 0.088085 28.252 0.035395 566.44 612.04 2.3419 1.6592 2.2125 210.01 0.25400 8.6376 0.020962
38.375 191.27 0.017794 304.42 307.99 1.3624 470.31 0.0021262 299.66 302.46 1.3447 1.7248 2.8884 628.19 0.0021949 84.105 0.087642 28.967 0.034522 567.35 612.88 2.3411 1.6663 2.2314 209.47 0.25305 8.6780 0.021141
39.375 195.77 0.018027 307.25 310.90 1.3715 468.56 0.0021342 302.46 305.34 1.3537 1.7293 2.9033 621.29 0.0024011 83.177 0.087200 29.699 0.033671 568.26 613.70 2.3404 1.6734 2.2508 208.92 0.25213 8.7190 0.021323
40.375 200.34 0.018255 310.09 313.83 1.3806 466.80 0.0021423 305.27 308.23 1.3627 1.7339 2.9185 614.37 0.0026140 82.254 0.086760 30.447 0.032844 569.15 614.52 2.3396 1.6806 2.2708 208.36 0.25123 8.7608 0.021508
41.375 205.00 0.018477 312.94 316.76 1.3896 465.01 0.0021505 308.10 311.14 1.3718 1.7385 2.9342 607.43 0.0028338 81.338 0.086322 31.214 0.032037 570.04 615.32 2.3389 1.6879 2.2913 207.78 0.25037 8.8032 0.021696
42.375 209.73 0.018694 315.80 319.71 1.3987 463.21 0.0021588 310.94 314.06 1.3808 1.7432 2.9502 600.47 0.0030609 80.426 0.085885 31.998 0.031252 570.92 616.11 2.3381 1.6952 2.3125 207.19 0.24953 8.8463 0.021888
43.375 214.54 0.018904 318.66 322.66 1.4078 461.40 0.0021673 313.79 316.99 1.3899 1.7478 2.9667 593.50 0.0032957 79.520 0.085449 32.800 0.030488 571.79 616.88 2.3373 1.7027 2.3344 206.58 0.24871 8.8902 0.022084
44.375 219.43 0.019107 321.54 325.63 1.4169 459.56 0.0021760 316.65 319.94 1.3989 1.7525 2.9837 586.51 0.0035386 78.619 0.085015 33.622 0.029742 572.65 617.65 2.3365 1.7101 2.3569 205.96 0.24793 8.9349 0.022283
45.375 224.41 0.019302 324.42 328.61 1.4259 457.71 0.0021848 319.52 322.90 1.4080 1.7573 3.0012 579.50 0.0037900 77.723 0.084583 34.463 0.029016 573.50 618.40 2.3357 1.7177 2.3802 205.32 0.24717 8.9805 0.022485
46.375 229.46 0.019488 327.32 331.59 1.4350 455.83 0.0021938 322.41 325.88 1.4171 1.7621 3.0192 572.46 0.0040504 76.832 0.084152 35.325 0.028308 574.34 619.13 2.3349 1.7253 2.4042 204.67 0.24644 9.0269 0.022692
47.375 234.60 0.019664 330.22 334.59 1.4441 453.94 0.0022029 325.31 328.87 1.4262 1.7669 3.0377 565.41 0.0043202 75.946 0.083723 36.208 0.027618 575.17 619.85 2.3340 1.7329 2.4291 204.00 0.24573 9.0742 0.022903
48.375 239.83 0.019829 333.13 337.60 1.4531 452.03 0.0022123 328.22 331.88 1.4353 1.7718 3.0569 558.34 0.0046000 75.064 0.083295 37.112 0.026945 576.00 620.55 2.3332 1.7407 2.4548 203.31 0.24505 9.1224 0.023119
49.375 245.13 0.019983 336.06 340.62 1.4622 450.09 0.0022218 331.15 334.90 1.4445 1.7767 3.0766 551.24 0.0048904 74.186 0.082868 38.039 0.026289 576.81 621.24 2.3323 1.7485 2.4815 202.61 0.24440 9.1716 0.023339
50.375 250.53 0.020123 338.99 343.66 1.4713 448.13 0.0022315 334.09 337.94 1.4536 1.7817 3.0970 544.13 0.0051920 73.313 0.082442 38.989 0.025648 577.61 621.91 2.3314 1.7564 2.5092 201.89 0.24377 9.2219 0.023564
51.375 256.01 0.020249 341.93 346.70 1.4804 446.15 0.0022414 337.04 341.00 1.4628 1.7867 3.1181 536.98 0.0055054 72.443 0.082018 39.962 0.025024 578.39 622.56 2.3304 1.7644 2.5379 201.16 0.24317 9.2733 0.023794
52.375 261.57 0.020359 344.88 349.76 1.4895 444.15 0.0022515 340.01 344.07 1.4720 1.7918 3.1400 529.82 0.0058313 71.577 0.081595 40.961 0.024414 579.17 623.20 2.3295 1.7724 2.5677 200.41 0.24260 9.3258 0.024029
53.375 267.23 0.020451 347.84 352.82 1.4985 442.12 0.0022618 343.00 347.17 1.4812 1.7969 3.1627 522.62 0.0061705 70.715 0.081174 41.985 0.023818 579.93 623.81 2.3285 1.7805 2.5987 199.63 0.24205 9.3795 0.024270
54.375 272.97 0.020525 350.82 355.90 1.5076 440.06 0.0022724 346.00 350.28 1.4904 1.8021 3.1862 515.40 0.0065239 69.856 0.080753 43.036 0.023237 580.68 624.41 2.3274 1.7887 2.6310 198.85 0.24154 9.4344 0.024516
55.375 278.81 0.020578 353.80 358.99 1.5167 437.98 0.0022832 349.02 353.40 1.4997 1.8073 3.2106 508.15 0.0068923 69.001 0.080334 44.114 0.022669 581.41 624.99 2.3264 1.7969 2.6646 198.04 0.24105 9.4907 0.024769
56.375 284.74 0.020608 356.79 362.10 1.5258 435.87 0.0022943 352.05 356.55 1.5090 1.8126 3.2360 500.87 0.0072767 68.148 0.079915 45.221 0.022114 582.13 625.54 2.3253 1.8052 2.6998 197.22 0.24059 9.5484 0.025028
57.375 290.76 0.020613 359.79 365.21 1.5349 433.73 0.0023056 355.10 359.72 1.5183 1.8179 3.2624 493.56 0.0076782 67.299 0.079498 46.358 0.021571 582.83 626.07 2.3241 1.8136 2.7365 196.37 0.24016 9.6075 0.025294
58.375 296.87 0.020591 362.81 368.34 1.5440 431.56 0.0023172 358.17 362.91 1.5276 1.8233 3.2900 486.22 0.0080980 66.451 0.079082 47.525 0.021041 583.52 626.58 2.3230 1.8220 2.7749 195.51 0.23976 9.6682 0.025568
59.375 303.08 0.020539 365.83 371.48 1.5531 429.36 0.0023290 361.25 366.12 1.5370 1.8288 3.3188 478.84 0.0085373 65.606 0.078666 48.726 0.020523 584.18 627.07 2.3218 1.8305 2.8152 194.63 0.23939 9.7305 0.025849
60.375 309.38 0.020453 368.87 374.63 1.5622 427.13 0.0023412 364.36 369.35 1.5464 1.8343 3.3489 471.43 0.0089976 64.763 0.078251 49.960 0.020016 584.83 627.53 2.3205 1.8391 2.8576 193.73 0.23905 9.7945 0.026138
61.375 315.78 0.020331 371.91 377.80 1.5714 424.87 0.0023537 367.48 372.60 1.5558 1.8400 3.3805 463.99 0.0094803 63.922 0.077838 51.229 0.019520 585.46 627.96 2.3192 1.8479 2.9022 192.82 0.23873 9.8603 0.026436
62.375 322.28 0.020170 374.97 380.97 1.5805 422.56 0.0023665 370.62 375.88 1.5653 1.8457 3.4136 456.50 0.0099871 63.083 0.077425 52.535 0.019035 586.07 628.37 2.3178 1.8567 2.9492 191.88 0.23845 9.9281 0.026744
63.375 328.88 0.019964 378.04 384.17 1.5896 420.22 0.0023797 373.79 379.18 1.5748 1.8514 3.4483 448.97 0.010520 62.244 0.077012 53.879 0.018560 586.66 628.74 2.3164 1.8656 2.9989 190.92 0.23819 9.9979 0.027061
64.375 335.58 0.019710 381.12 387.37 1.5987 417.85 0.0023932 376.97 382.51 1.5844 1.8573 3.4850 441.40 0.011081 61.407 0.076600 55.265 0.018095 587.22 629.09 2.3149 1.8747 3.0517 189.95 0.23796 10.070 0.027389
65.375 342.38 0.019402 384.21 390.59 1.6079 415.42 0.0024072 380.18 385.86 1.5939 1.8633 3.5236 433.79 0.011672 60.570 0.076189 56.692 0.017639 587.76 629.40 2.3133 1.8839 3.1077 188.95 0.23775 10.144 0.027729
66.375 349.28 0.019035 387.31 393.82 1.6171 412.96 0.0024215 383.41 389.25 1.6036 1.8693 3.5645 426.12 0.012296 59.733 0.075779 58.165 0.017193 588.28 629.68 2.3117 1.8933 3.1674 187.93 0.23757 10.221 0.028080
67.375 356.28 0.018602 390.43 397.07 1.6262 410.45 0.0024363 386.67 392.65 1.6133 1.8755 3.6078 418.41 0.012956 58.897 0.075368 59.684 0.016755 588.76 629.92 2.3100 1.9030 3.2311 186.89 0.23740 10.300 0.028446
68.375 363.40 0.018096 393.56 400.33 1.6354 407.89 0.0024516 389.95 396.09 1.6230 1.8818 3.6537 410.64 0.013655 58.059 0.074959 61.253 0.016326 589.22 630.13 2.3082 1.9129 3.2994 185.83 0.23724 10.382 0.028825
69.375 370.61 0.017510 396.70 403.61 1.6446 405.28 0.0024674 393.26 399.57 1.6328 1.8882 3.7027 402.81 0.014396 57.221 0.074549 62.875 0.015905 589.65 630.29 2.3064 1.9231 3.3727 184.74 0.23710 10.467 0.029221
70.375 377.94 0.016832 399.85 406.90 1.6538 402.62 0.0024838 396.60 403.07 1.6426 1.8947 3.7550 394.92 0.015183 56.381 0.074141 64.552 0.015491 590.04 630.41 2.3044 1.9336 3.4518 183.63 0.23697 10.555 0.029633
71.375 385.37 0.016054 403.02 410.20 1.6630 399.89 0.0025007 399.96 406.61 1.6525 1.9014 3.8109 386.97 0.016021 55.540 0.073732 66.288 0.015086 590.40 630.49 2.3024 1.9444 3.5371 182.50 0.23684 10.647 0.030064
72.375 392.92 0.015162 406.20 413.52 1.6722 397.11 0.0025182 403.36 410.18 1.6625 1.9083 3.8711 378.95 0.016915 54.696 0.073324 68.087 0.014687 590.73 630.51 2.3002 1.9556 3.6297 181.34 0.23671 10.743 0.030515
73.375 400.57 0.014142 409.40 416.86 1.6814 394.26 0.0025364 406.79 413.80 1.6726 1.9153 3.9359 370.85 0.017871 53.848 0.072917 69.953 0.014295 591.01 630.49 2.2979 1.9673 3.7303 180.16 0.23658 10.842 0.030989
74.375 408.34 0.012978 412.61 420.22 1.6907 391.34 0.0025553 410.26 417.45 1.6827 1.9226 4.0060 362.67 0.018894 52.997 0.072510 71.890 0.013910 591.25 630.41 2.2955 1.9793 3.8401 178.95 0.23643 10.946 0.031488
75.375 416.23 0.011649 415.83 423.59 1.7000 388.34 0.0025751 413.76 421.15 1.6930 1.9301 4.0822 354.41 0.019993 52.142 0.072104 73.904 0.013531 591.44 630.27 2.2930 1.9919 3.9604 177.71 0.23627 11.054 0.032014
76.375 424.23 0.010135 419.07 426.98 1.7092 385.26 0.0025957 417.31 424.90 1.7033 1.9378 4.1654 346.06 0.021177 51.281 0.071699 76.001 0.013158 591.59 630.07 2.2903 2.0050 4.0927 176.44 0.23609 11.168 0.032570
77.375 432.35 0.0084070 422.33 430.39 1.7185 382.09 0.0026172 420.89 428.70 1.7137 1.9459 4.2565 337.60 0.022455 50.414 0.071295 78.187 0.012790 591.68 629.80 2.2874 2.0186 4.2389 175.15 0.23588 11.287 0.033161
78.375 440.59 0.0064334 425.60 433.81 1.7279 378.83 0.0026397 424.53 432.54 1.7243 1.9543 4.3570 329.05 0.023838 49.539 0.070893 80.469 0.012427 591.71 629.46 2.2844 2.0328 4.4012 173.82 0.23563 11.412 0.033789
79.375 448.95 0.0041756 428.89 437.26 1.7372 375.46 0.0026634 428.21 436.45 1.7349 1.9631 4.4684 320.38 0.025341 48.657 0.070494 82.856 0.012069 591.68 629.04 2.2812 2.0475 4.5824 172.46 0.23535 11.544 0.034461
80.375 457.44 0.0015866 432.20 440.72 1.7466 371.97 0.0026884 431.94 440.42 1.7457 1.9723 4.5928 311.58 0.026980 47.764 0.070099 85.359 0.011715 591.58 628.53 2.2778 2.0630 4.7859 171.07 0.23501 11.684 0.035181
81.375 475.45 undefined 434.92 443.78 1.7542 370.00 0.0027027 434.92 443.78 1.7542 1.9777 4.6269 308.57 0.027576 47.279 0.069895 370.00 0.0027027 434.92 443.78 1.7542 1.9777 4.6269 308.57 0.027576 47.279 0.069895
82.375 505.12 undefined 436.89 446.31 1.7598 370.00 0.0027027 436.89 446.31 1.7598 1.9780 4.5423 312.66 0.026788 47.305 0.069927 370.00 0.0027027 436.89 446.31 1.7598 1.9780 4.5423 312.66 0.026788 47.305 0.069927
83.375 534.92 undefined 438.87 448.84 1.7654 370.00 0.0027027 438.87 448.84 1.7654 1.9785 4.4652 316.64 0.026047 47.330 0.069965 370.00 0.0027027 438.87 448.84 1.7654 1.9785 4.4652 316.64 0.026047 47.330 0.069965
84.375 564.86 undefined 440.85 451.38 1.7709 370.00 0.0027027 440.85 451.38 1.7709 1.9791 4.3946 320.50 0.025346 47.356 0.070007 370.00 0.0027027 440.85 451.38 1.7709 1.9791 4.3946 320.50 0.025346 47.356 0.070007
85.375 594.92 undefined 442.83 453.92 1.7764 370.00 0.0027027 442.83 453.92 1.7764 1.9798 4.3296 324.25 0.024683 47.381 0.070054 370.00 0.0027027 442.83 453.92 1.7764 1.9798 4.3296 324.25 0.024683 47.381 0.070054
86.375 625.11 undefined 444.81 456.46 1.7820 370.00 0.0027027 444.81 456.46 1.7820 1.9807 4.2696 327.90 0.024054 47.407 0.070105 370.00 0.0027027 444.81 456.46 1.7820 1.9807 4.2696 327.90 0.024054 47.407 0.070105
87.375 655.40 undefined 446.79 459.00 1.7875 370.00 0.0027027 446.79 459.00 1.7875 1.9817 4.2138 331.45 0.023455 47.432 0.070159 370.00 0.0027027 446.79 459.00 1.7875 1.9817 4.2138 331.45 0.023455 47.432 0.070159
88.375 685.81 undefined 448.77 461.55 1.7930 370.00 0.0027027 448.77 461.55 1.7930 1.9829 4.1620 334.91 0.022884 47.458 0.070216 370.00 0.0027027 448.77 461.55 1.7930 1.9829 4.1620 334.91 0.022884 47.458 0.070216
89.375 716.31 undefined 450.76 464.10 1.7984 370.00 0.0027027 450.76 464.10 1.7984 1.9842 4.1135 338.29 0.022338 47.483 0.070276 370.00 0.0027027 450.76 464.10 1.7984 1.9842 4.1135 338.29 0.022338 47.483 0.070276
90.375 746.92 undefined 452.74 466.66 1.8039 370.00 0.0027027 452.74 466.66 1.8039 1.9857 4.0682 341.59 0.021815 47.509 0.070339 370.00 0.0027027 452.74 466.66 1.8039 1.9857 4.0682 341.59 0.021815 47.509 0.070339
91.375 777.62 undefined 454.73 469.22 1.8094 370.00 0.0027027 454.73 469.22 1.8094 1.9873 4.0256 344.81 0.021314 47.534 0.070404 370.00 0.0027027 454.73 469.22 1.8094 1.9873 4.0256 344.81 0.021314 47.534 0.070404
92.375 808.40 undefined 456.72 471.78 1.8148 370.00 0.0027027 456.72 471.78 1.8148 1.9890 3.9856 347.96 0.020833 47.560 0.070471 370.00 0.0027027 456.72 471.78 1.8148 1.9890 3.9856 347.96 0.020833 47.560 0.070471
93.375 839.27 undefined 458.71 474.35 1.8202 370.00 0.0027027 458.71 474.35 1.8202 1.9908 3.9478 351.04 0.020370 47.585 0.070540 370.00 0.0027027 458.71 474.35 1.8202 1.9908 3.9478 351.04 0.020370 47.585 0.070540
94.375 870.22 undefined 460.70 476.91 1.8257 370.00 0.0027027 460.70 476.91 1.8257 1.9928 3.9122 354.06 0.019924 47.611 0.070611 370.00 0.0027027 460.70 476.91 1.8257 1.9928 3.9122 354.06 0.019924 47.611 0.070611
95.375 901.25 undefined 462.69 479.49 1.8311 370.00 0.0027027 462.69 479.49 1.8311 1.9948 3.8785 357.03 0.019493 47.636 0.070684 370.00 0.0027027 462.69 479.49 1.8311 1.9948 3.8785 357.03 0.019493 47.636 0.070684
96.375 932.35 undefined 464.69 482.06 1.8365 370.00 0.0027027 464.69 482.06 1.8365 1.9970 3.8466 359.93 0.019078 47.662 0.070759 370.00 0.0027027 464.69 482.06 1.8365 1.9970 3.8466 359.93 0.019078 47.662 0.070759
97.375 963.52 undefined 466.69 484.64 1.8419 370.00 0.0027027 466.69 484.64 1.8419 1.9992 3.8164 362.79 0.018676 47.687 0.070835 370.00 0.0027027 466.69 484.64 1.8419 1.9992 3.8164 362.79 0.018676 47.687 0.070835
98.375 994.76 undefined 468.69 487.22 1.8473 370.00 0.0027027 468.69 487.22 1.8473 2.0016 3.7876 365.59 0.018288 47.713 0.070912 370.00 0.0027027 468.69 487.22 1.8473 2.0016 3.7876 365.59 0.018288 47.713 0.070912
99.375 1026.1 undefined 470.69 489.81 1.8527 370.00 0.0027027 470.69 489.81 1.8527 2.0040 3.7603 368.35 0.017912 47.738 0.070991 370.00 0.0027027 470.69 489.81 1.8527 2.0040 3.7603 368.35 0.017912 47.738 0.070991
100.38 1057.4 undefined 472.69 492.40 1.8580 370.00 0.0027027 472.69 492.40 1.8580 2.0065 3.7344 371.07 0.017547 47.763 0.071071 370.00 0.0027027 472.69 492.40 1.8580 2.0065 3.7344 371.07 0.017547 47.763 0.071071
101.38 1088.9 undefined 474.70 494.99 1.8634 370.00 0.0027027 474.70 494.99 1.8634 2.0091 3.7096 373.74 0.017194 47.789 0.071152 370.00 0.0027027 474.70 494.99 1.8634 2.0091 3.7096 373.74 0.017194 47.789 0.071152
102.38 1120.3 undefined 476.71 497.59 1.8688 370.00 0.0027027 476.71 497.59 1.8688 2.0117 3.6860 376.38 0.016851 47.814 0.071234 370.00 0.0027027 476.71 497.59 1.8688 2.0117 3.6860 376.38 0.016851 47.814 0.071234
103.38 1151.9 undefined 478.73 500.19 1.8741 370.00 0.0027027 478.73 500.19 1.8741 2.0144 3.6635 378.97 0.016518 47.839 0.071318 370.00 0.0027027 478.73 500.19 1.8741 2.0144 3.6635 378.97 0.016518 47.839 0.071318
104.38 1183.5 undefined 480.74 502.79 1.8795 370.00 0.0027027 480.74 502.79 1.8795 2.0172 3.6420 381.53 0.016194 47.865 0.071402 370.00 0.0027027 480.74 502.79 1.8795 2.0172 3.6420 381.53 0.016194 47.865 0.071402
105.38 1215.1 undefined 482.76 505.40 1.8848 370.00 0.0027027 482.76 505.40 1.8848 2.0200 3.6215 384.06 0.015879 47.890 0.071488 370.00 0.0027027 482.76 505.40 1.8848 2.0200 3.6215 384.06 0.015879 47.890 0.071488
106.38 1246.8 undefined 484.78 508.01 1.8901 370.00 0.0027027 484.78 508.01 1.8901 2.0229 3.6018 386.55 0.015573 47.915 0.071574 370.00 0.0027027 484.78 508.01 1.8901 2.0229 3.6018 386.55 0.015573 47.915 0.071574
107.38 1278.5 undefined 486.81 510.63 1.8955 370.00 0.0027027 486.81 510.63 1.8955 2.0258 3.5830 389.01 0.015275 47.941 0.071661 370.00 0.0027027 486.81 510.63 1.8955 2.0258 3.5830 389.01 0.015275 47.941 0.071661
108.38 1310.3 undefined 488.83 513.25 1.9008 370.00 0.0027027 488.83 513.25 1.9008 2.0288 3.5650 391.44 0.014985 47.966 0.071750 370.00 0.0027027 488.83 513.25 1.9008 2.0288 3.5650 391.44 0.014985 47.966 0.071750
109.38 1342.1 undefined 490.86 515.87 1.9061 370.00 0.0027027 490.86 515.87 1.9061 2.0318 3.5478 393.84 0.014702 47.991 0.071839 370.00 0.0027027 490.86 515.87 1.9061 2.0318 3.5478 393.84 0.014702 47.991 0.071839
110.38 1374.0 undefined 492.90 518.50 1.9114 370.00 0.0027027 492.90 518.50 1.9114 2.0349 3.5312 396.21 0.014426 48.017 0.071929 370.00 0.0027027 492.90 518.50 1.9114 2.0349 3.5312 396.21 0.014426 48.017 0.071929
111.38 1405.9 undefined 494.93 521.13 1.9167 370.00 0.0027027 494.93 521.13 1.9167 2.0380 3.5154 398.55 0.014157 48.042 0.072019 370.00 0.0027027 494.93 521.13 1.9167 2.0380 3.5154 398.55 0.014157 48.042 0.072019
112.38 1437.8 undefined 496.97 523.76 1.9220 370.00 0.0027027 496.97 523.76 1.9220 2.0411 3.5002 400.87 0.013895 48.067 0.072111 370.00 0.0027027 496.97 523.76 1.9220 2.0411 3.5002 400.87 0.013895 48.067 0.072111
113.38 1469.8 undefined 499.01 526.40 1.9273 370.00 0.0027027 499.01 526.40 1.9273 2.0443 3.4855 403.17 0.013639 48.093 0.072203 370.00 0.0027027 499.01 526.40 1.9273 2.0443 3.4855 403.17 0.013639 48.093 0.072203
114.38 1501.8 undefined 501.06 529.05 1.9326 370.00 0.0027027 501.06 529.05 1.9326 2.0475 3.4715 405.44 0.013390 48.118 0.072296 370.00 0.0027027 501.06 529.05 1.9326 2.0475 3.4715 405.44 0.013390 48.118 0.072296
115.38 1533.8 undefined 503.11 531.69 1.9379 370.00 0.0027027 503.11 531.69 1.9379 2.0507 3.4580 407.68 0.013146 48.143 0.072389 370.00 0.0027027 503.11 531.69 1.9379 2.0507 3.4580 407.68 0.013146 48.143 0.072389
116.38 1565.9 undefined 505.16 534.34 1.9432 370.00 0.0027027 505.16 534.34 1.9432 2.0540 3.4451 409.91 0.012907 48.168 0.072484 370.00 0.0027027 505.16 534.34 1.9432 2.0540 3.4451 409.91 0.012907 48.168 0.072484
117.38 1598.0 undefined 507.22 537.00 1.9484 370.00 0.0027027 507.22 537.00 1.9484 2.0573 3.4326 412.11 0.012675 48.194 0.072579 370.00 0.0027027 507.22 537.00 1.9484 2.0573 3.4326 412.11 0.012675 48.194 0.072579
118.38 1630.2 undefined 509.28 539.65 1.9537 370.00 0.0027027 509.28 539.65 1.9537 2.0606 3.4206 414.29 0.012447 48.219 0.072674 370.00 0.0027027 509.28 539.65 1.9537 2.0606 3.4206 414.29 0.012447 48.219 0.072674
119.38 1662.4 undefined 511.34 542.32 1.9589 370.00 0.0027027 511.34 542.32 1.9589 2.0640 3.4091 416.45 0.012224 48.244 0.072771 370.00 0.0027027 511.34 542.32 1.9589 2.0640 3.4091 416.45 0.012224 48.244 0.072771
120.38 1694.6 undefined 513.40 544.98 1.9642 370.00 0.0027027 513.40 544.98 1.9642 2.0673 3.3980 418.59 0.012007 48.269 0.072867 370.00 0.0027027 513.40 544.98 1.9642 2.0673 3.3980 418.59 0.012007 48.269 0.072867
121.38 1726.8 undefined 515.47 547.65 1.9695 370.00 0.0027027 515.47 547.65 1.9695 2.0707 3.3873 420.71 0.011794 48.294 0.072965 370.00 0.0027027 515.47 547.65 1.9695 2.0707 3.3873 420.71 0.011794 48.294 0.072965
122.38 1759.1 undefined 517.55 550.33 1.9747 370.00 0.0027027 517.55 550.33 1.9747 2.0741 3.3770 422.81 0.011585 48.320 0.073063 370.00 0.0027027 517.55 550.33 1.9747 2.0741 3.3770 422.81 0.011585 48.320 0.073063
123.38 1791.3 undefined 519.62 553.00 1.9799 370.00 0.0027027 519.62 553.00 1.9799 2.0776 3.3671 424.90 0.011381 48.345 0.073161 370.00 0.0027027 519.62 553.00 1.9799 2.0776 3.3671 424.90 0.011381 48.345 0.073161
124.38 1823.7 undefined 521.70 555.68 1.9852 370.00 0.0027027 521.70 555.68 1.9852 2.0810 3.3576 426.97 0.011181 48.370 0.073261 370.00 0.0027027 521.70 555.68 1.9852 2.0810 3.3576 426.97 0.011181 48.370 0.073261
125.38 1856.0 undefined 523.78 558.37 1.9904 370.00 0.0027027 523.78 558.37 1.9904 2.0845 3.3484 429.02 0.010985 48.395 0.073360 370.00 0.0027027 523.78 558.37 1.9904 2.0845 3.3484 429.02 0.010985 48.395 0.073360
126.38 1888.3 undefined 525.87 561.06 1.9956 370.00 0.0027027 525.87 561.06 1.9956 2.0880 3.3395 431.05 0.010794 48.420 0.073460 370.00 0.0027027 525.87 561.06 1.9956 2.0880 3.3395 431.05 0.010794 48.420 0.073460
127.38 1920.7 undefined 527.96 563.75 2.0009 370.00 0.0027027 527.96 563.75 2.0009 2.0915 3.3310 433.07 0.010606 48.445 0.073561 370.00 0.0027027 527.96 563.75 2.0009 2.0915 3.3310 433.07 0.010606 48.445 0.073561
128.38 1953.1 undefined 530.05 566.45 2.0061 370.00 0.0027027 530.05 566.45 2.0061 2.0950 3.3228 435.07 0.010422 48.471 0.073662 370.00 0.0027027 530.05 566.45 2.0061 2.0950 3.3228 435.07 0.010422 48.471 0.073662
129.38 1985.6 undefined 532.15 569.15 2.0113 370.00 0.0027027 532.15 569.15 2.0113 2.0985 3.3148 437.06 0.010241 48.496 0.073764 370.00 0.0027027 532.15 569.15 2.0113 2.0985 3.3148 437.06 0.010241 48.496 0.073764
130.38 2018.0 undefined 534.25 571.86 2.0165 370.00 0.0027027 534.25 571.86 2.0165 2.1021 3.3072 439.03 0.010064 48.521 0.073867 370.00 0.0027027 534.25 571.86 2.0165 2.1021 3.3072 439.03 0.010064 48.521 0.073867
131.38 2050.5 undefined 536.35 574.56 2.0217 370.00 0.0027027 536.35 574.56 2.0217 2.1056 3.2998 440.98 0.0098909 48.546 0.073969 370.00 0.0027027 536.35 574.56 2.0217 2.1056 3.2998 440.98 0.0098909 48.546 0.073969
132.38 2083.0 undefined 538.46 577.28 2.0269 370.00 0.0027027 538.46 577.28 2.0269 2.1092 3.2927 442.93 0.0097208 48.571 0.074073 370.00 0.0027027 538.46 577.28 2.0269 2.1092 3.2927 442.93 0.0097208 48.571 0.074073
133.38 2115.5 undefined 540.57 579.99 2.0321 370.00 0.0027027 540.57 579.99 2.0321 2.1128 3.2858 444.86 0.0095538 48.596 0.074176 370.00 0.0027027 540.57 579.99 2.0321 2.1128 3.2858 444.86 0.0095538 48.596 0.074176
134.38 2148.0 undefined 542.69 582.71 2.0373 370.00 0.0027027 542.69 582.71 2.0373 2.1164 3.2792 446.77 0.0093900 48.621 0.074280 370.00 0.0027027 542.69 582.71 2.0373 2.1164 3.2792 446.77 0.0093900 48.621 0.074280
135.38 2180.6 undefined 544.81 585.44 2.0425 370.00 0.0027027 544.81 585.44 2.0425 2.1200 3.2729 448.67 0.0092293 48.646 0.074385 370.00 0.0027027 544.81 585.44 2.0425 2.1200 3.2729 448.67 0.0092293 48.646 0.074385
136.38 2213.1 undefined 546.93 588.17 2.0477 370.00 0.0027027 546.93 588.17 2.0477 2.1236 3.2667 450.56 0.0090715 48.671 0.074490 370.00 0.0027027 546.93 588.17 2.0477 2.1236 3.2667 450.56 0.0090715 48.671 0.074490
137.38 2245.7 undefined 549.05 590.90 2.0529 370.00 0.0027027 549.05 590.90 2.0529 2.1272 3.2608 452.44 0.0089166 48.696 0.074596 370.00 0.0027027 549.05 590.90 2.0529 2.1272 3.2608 452.44 0.0089166 48.696 0.074596
138.38 2278.3 undefined 551.18 593.64 2.0581 370.00 0.0027027 551.18 593.64 2.0581 2.1308 3.2551 454.30 0.0087645 48.721 0.074702 370.00 0.0027027 551.18 593.64 2.0581 2.1308 3.2551 454.30 0.0087645 48.721 0.074702
139.38 2310.9 undefined 553.31 596.38 2.0632 370.00 0.0027027 553.31 596.38 2.0632 2.1344 3.2496 456.16 0.0086152 48.746 0.074808 370.00 0.0027027 553.31 596.38 2.0632 2.1344 3.2496 456.16 0.0086152 48.746 0.074808
140.38 2343.5 undefined 555.45 599.12 2.0684 370.00 0.0027027 555.45 599.12 2.0684 2.1381 3.2443 458.00 0.0084685 48.771 0.074915 370.00 0.0027027 555.45 599.12 2.0684 2.1381 3.2443 458.00 0.0084685 48.771 0.074915
141.38 2376.2 undefined 557.59 601.87 2.0736 370.00 0.0027027 557.59 601.87 2.0736 2.1417 3.2392 459.82 0.0083244 48.796 0.075022 370.00 0.0027027 557.59 601.87 2.0736 2.1417 3.2392 459.82 0.0083244 48.796 0.075022
142.38 2408.8 undefined 559.73 604.62 2.0787 370.00 0.0027027 559.73 604.62 2.0787 2.1454 3.2342 461.64 0.0081828 48.821 0.075130 370.00 0.0027027 559.73 604.62 2.0787 2.1454 3.2342 461.64 0.0081828 48.821 0.075130
143.38 2441.5 undefined 561.88 607.38 2.0839 370.00 0.0027027 561.88 607.38 2.0839 2.1490 3.2295 463.45 0.0080437 48.846 0.075238 370.00 0.0027027 561.88 607.38 2.0839 2.1490 3.2295 463.45 0.0080437 48.846 0.075238
144.38 2474.2 undefined 564.03 610.14 2.0891 370.00 0.0027027 564.03 610.14 2.0891 2.1527 3.2249 465.24 0.0079070 48.871 0.075347 370.00 0.0027027 564.03 610.14 2.0891 2.1527 3.2249 465.24 0.0079070 48.871 0.075347
145.38 2506.9 undefined 566.19 612.90 2.0942 370.00 0.0027027 566.19 612.90 2.0942 2.1564 3.2205 467.03 0.0077727 48.896 0.075456 370.00 0.0027027 566.19 612.90 2.0942 2.1564 3.2205 467.03 0.0077727 48.896 0.075456
146.38 2539.6 undefined 568.34 615.67 2.0994 370.00 0.0027027 568.34 615.67 2.0994 2.1600 3.2162 468.80 0.0076406 48.921 0.075565 370.00 0.0027027 568.34 615.67 2.0994 2.1600 3.2162 468.80 0.0076406 48.921 0.075565
147.38 2572.3 undefined 570.51 618.44 2.1045 370.00 0.0027027 570.51 618.44 2.1045 2.1637 3.2121 470.57 0.0075107 48.946 0.075675 370.00 0.0027027 570.51 618.44 2.1045 2.1637 3.2121 470.57 0.0075107 48.946 0.075675
148.38 2605.0 undefined 572.67 621.22 2.1097 370.00 0.0027027 572.67 621.22 2.1097 2.1674 3.2082 472.32 0.0073831 48.971 0.075785 370.00 0.0027027 572.67 621.22 2.1097 2.1674 3.2082 472.32 0.0073831 48.971 0.075785
149.38 2637.8 undefined 574.84 623.99 2.1148 370.00 0.0027027 574.84 623.99 2.1148 2.1711 3.2044 474.06 0.0072575 48.995 0.075896 370.00 0.0027027 574.84 623.99 2.1148 2.1711 3.2044 474.06 0.0072575 48.995 0.075896
150.38 2670.5 undefined 577.01 626.78 2.1199 370.00 0.0027027 577.01 626.78 2.1199 2.1748 3.2007 475.80 0.0071340 49.020 0.076007 370.00 0.0027027 577.01 626.78 2.1199 2.1748 3.2007 475.80 0.0071340 49.020 0.076007
151.38 2703.3 undefined 579.19 629.57 2.1251 370.00 0.0027027 579.19 629.57 2.1251 2.1785 3.1972 477.52 0.0070125 49.045 0.076118 370.00 0.0027027 579.19 629.57 2.1251 2.1785 3.1972 477.52 0.0070125 49.045 0.076118
152.38 2736.1 undefined 581.37 632.36 2.1302 370.00 0.0027027 581.37 632.36 2.1302 2.1822 3.1938 479.23 0.0068930 49.070 0.076230 370.00 0.0027027 581.37 632.36 2.1302 2.1822 3.1938 479.23 0.0068930 49.070 0.076230
153.38 2768.8 undefined 583.56 635.15 2.1353 370.00 0.0027027 583.56 635.15 2.1353 2.1859 3.1906 480.94 0.0067755 49.095 0.076342 370.00 0.0027027 583.56 635.15 2.1353 2.1859 3.1906 480.94 0.0067755 49.095 0.076342
154.38 2801.6 undefined 585.74 637.95 2.1404 370.00 0.0027027 585.74 637.95 2.1404 2.1896 3.1875 482.64 0.0066598 49.120 0.076454 370.00 0.0027027 585.74 637.95 2.1404 2.1896 3.1875 482.64 0.0066598 49.120 0.076454
155.38 2834.4 undefined 587.93 640.75 2.1456 370.00 0.0027027 587.93 640.75 2.1456 2.1933 3.1845 484.32 0.0065459 49.144 0.076567 370.00 0.0027027 587.93 640.75 2.1456 2.1933 3.1845 484.32 0.0065459 49.144 0.076567
156.38 2867.2 undefined 590.13 643.56 2.1507 370.00 0.0027027 590.13 643.56 2.1507 2.1970 3.1816 486.00 0.0064339 49.169 0.076681 370.00 0.0027027 590.13 643.56 2.1507 2.1970 3.1816 486.00 0.0064339 49.169 0.076681
157.38 2900.1 undefined 592.33 646.37 2.1558 370.00 0.0027027 592.33 646.37 2.1558 2.2007 3.1788 487.67 0.0063236 49.194 0.076794 370.00 0.0027027 592.33 646.37 2.1558 2.2007 3.1788 487.67 0.0063236 49.194 0.076794
158.38 2932.9 undefined 594.53 649.18 2.1609 370.00 0.0027027 594.53 649.18 2.1609 2.2044 3.1762 489.33 0.0062150 49.219 0.076908 370.00 0.0027027 594.53 649.18 2.1609 2.2044 3.1762 489.33 0.0062150 49.219 0.076908
159.38 2965.7 undefined 596.74 652.00 2.1660 370.00 0.0027027 596.74 652.00 2.1660 2.2081 3.1736 490.98 0.0061081 49.244 0.077022 370.00 0.0027027 596.74 652.00 2.1660 2.2081 3.1736 490.98 0.0061081 49.244 0.077022
160.38 2998.6 undefined 598.95 654.82 2.1711 370.00 0.0027027 598.95 654.82 2.1711 2.2118 3.1712 492.63 0.0060028 49.268 0.077137 370.00 0.0027027 598.95 654.82 2.1711 2.2118 3.1712 492.63 0.0060028 49.268 0.077137
161.38 3031.4 undefined 601.16 657.65 2.1762 370.00 0.0027027 601.16 657.65 2.1762 2.2155 3.1688 494.26 0.0058992 49.293 0.077252 370.00 0.0027027 601.16 657.65 2.1762 2.2155 3.1688 494.26 0.0058992 49.293 0.077252
162.38 3064.3 undefined 603.38 660.48 2.1813 370.00 0.0027027 603.38 660.48 2.1813 2.2192 3.1666 495.89 0.0057971 49.318 0.077368 370.00 0.0027027 603.38 660.48 2.1813 2.2192 3.1666 495.89 0.0057971 49.318 0.077368
163.38 3097.1 undefined 605.60 663.31 2.1864 370.00 0.0027027 605.60 663.31 2.1864 2.2230 3.1645 497.51 0.0056966 49.342 0.077483 370.00 0.0027027 605.60 663.31 2.1864 2.2230 3.1645 497.51 0.0056966 49.342 0.077483
164.38 3130.0 undefined 607.82 666.15 2.1915 370.00 0.0027027 607.82 666.15 2.1915 2.2267 3.1624 499.12 0.0055976 49.367 0.077600 370.00 0.0027027 607.82 666.15 2.1915 2.2267 3.1624 499.12 0.0055976 49.367 0.077600
165.38 3162.9 undefined 610.05 668.99 2.1966 370.00 0.0027027 610.05 668.99 2.1966 2.2304 3.1605 500.73 0.0055000 49.392 0.077716 370.00 0.0027027 610.05 668.99 2.1966 2.2304 3.1605 500.73 0.0055000 49.392 0.077716
166.38 3195.7 undefined 612.28 671.84 2.2017 370.00 0.0027027 612.28 671.84 2.2017 2.2341 3.1586 502.32 0.0054039 49.416 0.077833 370.00 0.0027027 612.28 671.84 2.2017 2.2341 3.1586 502.32 0.0054039 49.416 0.077833
167.38 3228.6 undefined 614.52 674.68 2.2067 370.00 0.0027027 614.52 674.68 2.2067 2.2378 3.1568 503.91 0.0053092 49.441 0.077950 370.00 0.0027027 614.52 674.68 2.2067 2.2378 3.1568 503.91 0.0053092 49.441 0.077950
168.38 3261.5 undefined 616.76 677.54 2.2118 370.00 0.0027027 616.76 677.54 2.2118 2.2416 3.1552 505.50 0.0052159 49.466 0.078068 370.00 0.0027027 616.76 677.54 2.2118 2.2416 3.1552 505.50 0.0052159 49.466 0.078068
169.38 3294.4 undefined 619.00 680.39 2.2169 370.00 0.0027027 619.00 680.39 2.2169 2.2453 3.1536 507.07 0.0051239 49.490 0.078185 370.00 0.0027027 619.00 680.39 2.2169 2.2453 3.1536 507.07 0.0051239 49.490 0.078185
170.38 3327.3 undefined 621.25 683.25 2.2220 370.00 0.0027027 621.25 683.25 2.2220 2.2490 3.1520 508.64 0.0050333 49.515 0.078304 370.00 0.0027027 621.25 683.25 2.2220 2.2490 3.1520 508.64 0.0050333 49.515 0.078304
171.38 3360.2 undefined 623.50 686.12 2.2270 370.00 0.0027027 623.50 686.12 2.2270 2.2527 3.1506 510.20 0.0049439 49.540 0.078422 370.00 0.0027027 623.50 686.12 2.2270 2.2527 3.1506 510.20 0.0049439 49.540 0.078422
172.38 3393.1 undefined 625.76 688.99 2.2321 370.00 0.0027027 625.76 688.99 2.2321 2.2565 3.1492 511.75 0.0048559 49.564 0.078541 370.00 0.0027027 625.76 688.99 2.2321 2.2565 3.1492 511.75 0.0048559 49.564 0.078541
173.38 3426.0 undefined 628.01 691.86 2.2372 370.00 0.0027027 628.01 691.86 2.2372 2.2602 3.1479 513.30 0.0047691 49.589 0.078660 370.00 0.0027027 628.01 691.86 2.2372 2.2602 3.1479 513.30 0.0047691 49.589 0.078660
174.38 3458.9 undefined 630.28 694.73 2.2422 370.00 0.0027027 630.28 694.73 2.2422 2.2639 3.1467 514.83 0.0046835 49.613 0.078780 370.00 0.0027027 630.28 694.73 2.2422 2.2639 3.1467 514.83 0.0046835 49.613 0.078780
175.38 3491.8 undefined 632.54 697.61 2.2473 370.00 0.0027027 632.54 697.61 2.2473 2.2676 3.1456 516.37 0.0045991 49.638 0.078900 370.00 0.0027027 632.54 697.61 2.2473 2.2676 3.1456 516.37 0.0045991 49.638 0.078900
176.38 3524.8 undefined 634.81 700.49 2.2523 370.00 0.0027027 634.81 700.49 2.2523 2.2713 3.1445 517.89 0.0045159 49.662 0.079020 370.00 0.0027027 634.81 700.49 2.2523 2.2713 3.1445 517.89 0.0045159 49.662 0.079020
177.38 3557.7 undefined 637.09 703.38 2.2574 370.00 0.0027027 637.09 703.38 2.2574 2.2751 3.1435 519.41 0.0044339 49.687 0.079141 370.00 0.0027027 637.09 703.38 2.2574 2.2751 3.1435 519.41 0.0044339 49.687 0.079141
178.38 3590.6 undefined 639.36 706.27 2.2624 370.00 0.0027027 639.36 706.27 2.2624 2.2788 3.1425 520.92 0.0043529 49.711 0.079262 370.00 0.0027027 639.36 706.27 2.2624 2.2788 3.1425 520.92 0.0043529 49.711 0.079262
179.38 3623.5 undefined 641.64 709.17 2.2675 370.00 0.0027027 641.64 709.17 2.2675 2.2825 3.1417 522.43 0.0042731 49.736 0.079383 370.00 0.0027027 641.64 709.17 2.2675 2.2825 3.1417 522.43 0.0042731 49.736 0.079383
180.38 3656.5 undefined 643.93 712.06 2.2725 370.00 0.0027027 643.93 712.06 2.2725 2.2862 3.1408 523.93 0.0041944 49.760 0.079504 370.00 0.0027027 643.93 712.06 2.2725 2.2862 3.1408 523.93 0.0041944 49.760 0.079504
181.38 3689.4 undefined 646.22 714.96 2.2776 370.00 0.0027027 646.22 714.96 2.2776 2.2899 3.1401 525.42 0.0041168 49.785 0.079626 370.00 0.0027027 646.22 714.96 2.2776 2.2899 3.1401 525.42 0.0041168 49.785 0.079626
182.38 3722.3 undefined 648.51 717.87 2.2826 370.00 0.0027027 648.51 717.87 2.2826 2.2937 3.1394 526.91 0.0040402 49.809 0.079748 370.00 0.0027027 648.51 717.87 2.2826 2.2937 3.1394 526.91 0.0040402 49.809 0.079748
183.38 3755.2 undefined 650.80 720.78 2.2876 370.00 0.0027027 650.80 720.78 2.2876 2.2974 3.1388 528.39 0.0039646 49.834 0.079871 370.00 0.0027027 650.80 720.78 2.2876 2.2974 3.1388 528.39 0.0039646 49.834 0.079871
184.38 3788.2 undefined 653.10 723.69 2.2927 370.00 0.0027027 653.10 723.69 2.2927 2.3011 3.1382 529.87 0.0038900 49.858 0.079994 370.00 0.0027027 653.10 723.69 2.2927 2.3011 3.1382 529.87 0.0038900 49.858 0.079994
185.38 3821.1 undefined 655.40 726.61 2.2977 370.00 0.0027027 655.40 726.61 2.2977 2.3048 3.1377 531.33 0.0038165 49.882 0.080117 370.00 0.0027027 655.40 726.61 2.2977 2.3048 3.1377 531.33 0.0038165 49.882 0.080117
186.38 3854.1 undefined 657.71 729.53 2.3027 370.00 0.0027027 657.71 729.53 2.3027 2.3085 3.1372 532.80 0.0037439 49.907 0.080240 370.00 0.0027027 657.71 729.53 2.3027 2.3085 3.1372 532.80 0.0037439 49.907 0.080240
187.38 3887.0 undefined 660.02 732.45 2.3077 370.00 0.0027027 660.02 732.45 2.3077 2.3122 3.1368 534.26 0.0036722 49.931 0.080364 370.00 0.0027027 660.02 732.45 2.3077 2.3122 3.1368 534.26 0.0036722 49.931 0.080364
188.38 3919.9 undefined 662.34 735.38 2.3128 370.00 0.0027027 662.34 735.38 2.3128 2.3160 3.1364 535.71 0.0036015 49.956 0.080488 370.00 0.0027027 662.34 735.38 2.3128 2.3160 3.1364 535.71 0.0036015 49.956 0.080488
189.38 3952.9 undefined 664.65 738.31 2.3178 370.00 0.0027027 664.65 738.31 2.3178 2.3197 3.1361 537.15 0.0035318 49.980 0.080613 370.00 0.0027027 664.65 738.31 2.3178 2.3197 3.1361 537.15 0.0035318 49.980 0.080613
190.38 3985.8 undefined 666.98 741.25 2.3228 370.00 0.0027027 666.98 741.25 2.3228 2.3234 3.1359 538.59 0.0034629 50.004 0.080737 370.00 0.0027027 666.98 741.25 2.3228 2.3234 3.1359 538.59 0.0034629 50.004 0.080737
191.38 4018.7 undefined 669.30 744.19 2.3278 370.00 0.0027027 669.30 744.19 2.3278 2.3271 3.1357 540.03 0.0033949 50.029 0.080862 370.00 0.0027027 669.30 744.19 2.3278 2.3271 3.1357 540.03 0.0033949 50.029 0.080862
192.38 4051.7 undefined 671.63 747.13 2.3328 370.00 0.0027027 671.63 747.13 2.3328 2.3308 3.1355 541.46 0.0033278 50.053 0.080988 370.00 0.0027027 671.63 747.13 2.3328 2.3308 3.1355 541.46 0.0033278 50.053 0.080988
193.38 4084.6 undefined 673.96 750.08 2.3378 370.00 0.0027027 673.96 750.08 2.3378 2.3345 3.1354 542.88 0.0032615 50.077 0.081113 370.00 0.0027027 673.96 750.08 2.3378 2.3345 3.1354 542.88 0.0032615 50.077 0.081113
194.38 4117.6 undefined 676.30 753.03 2.3428 370.00 0.0027027 676.30 753.03 2.3428 2.3382 3.1353 544.30 0.0031961 50.101 0.081239 370.00 0.0027027 676.30 753.03 2.3428 2.3382 3.1353 544.30 0.0031961 50.101 0.081239
195.38 4150.5 undefined 678.64 755.98 2.3478 370.00 0.0027027 678.64 755.98 2.3478 2.3419 3.1353 545.71 0.0031315 50.126 0.081366 370.00 0.0027027 678.64 755.98 2.3478 2.3419 3.1353 545.71 0.0031315 50.126 0.081366
196.38 4183.4 undefined 680.98 758.94 2.3528 370.00 0.0027027 680.98 758.94 2.3528 2.3456 3.1353 547.12 0.0030678 50.150 0.081492 370.00 0.0027027 680.98 758.94 2.3528 2.3456 3.1353 547.12 0.0030678 50.150 0.081492
197.38 4216.4 undefined 683.33 761.90 2.3578 370.00 0.0027027 683.33 761.90 2.3578 2.3493 3.1354 548.52 0.0030048 50.174 0.081619 370.00 0.0027027 683.33 761.90 2.3578 2.3493 3.1354 548.52 0.0030048 50.174 0.081619
198.38 4249.3 undefined 685.68 764.86 2.3628 370.00 0.0027027 685.68 764.86 2.3628 2.3530 3.1355 549.92 0.0029426 50.198 0.081746 370.00 0.0027027 685.68 764.86 2.3628 2.3530 3.1355 549.92 0.0029426 50.198 0.081746
199.38 4282.2 undefined 688.04 767.83 2.3678 370.00 0.0027027 688.04 767.83 2.3678 2.3567 3.1356 551.31 0.0028812 50.223 0.081874 370.00 0.0027027 688.04 767.83 2.3678 2.3567 3.1356 551.31 0.0028812 50.223 0.081874
200.38 4315.2 undefined 690.39 770.80 2.3728 370.00 0.0027027 690.39 770.80 2.3728 2.3604 3.1358 552.69 0.0028206 50.247 0.082002 370.00 0.0027027 690.39 770.80 2.3728 2.3604 3.1358 552.69 0.0028206 50.247 0.082002
201.38 4348.1 undefined 692.76 773.78 2.3778 370.00 0.0027027 692.76 773.78 2.3778 2.3641 3.1360 554.08 0.0027607 50.271 0.082130 370.00 0.0027027 692.76 773.78 2.3778 2.3641 3.1360 554.08 0.0027607 50.271 0.082130
202.38 4381.0 undefined 695.12 776.76 2.3827 370.00 0.0027027 695.12 776.76 2.3827 2.3678 3.1363 555.45 0.0027015 50.295 0.082258 370.00 0.0027027 695.12 776.76 2.3827 2.3678 3.1363 555.45 0.0027015 50.295 0.082258
203.38 4413.9 undefined 697.49 779.74 2.3877 370.00 0.0027027 697.49 779.74 2.3877 2.3715 3.1366 556.82 0.0026430 50.319 0.082387 370.00 0.0027027 697.49 779.74 2.3877 2.3715 3.1366 556.82 0.0026430 50.319 0.082387
204.38 4446.9 undefined 699.87 782.73 2.3927 370.00 0.0027027 699.87 782.73 2.3927 2.3751 3.1370 558.19 0.0025853 50.343 0.082516 370.00 0.0027027 699.87 782.73 2.3927 2.3751 3.1370 558.19 0.0025853 50.343 0.082516
205.38 4479.8 undefined 702.24 785.72 2.3977 370.00 0.0027027 702.24 785.72 2.3977 2.3788 3.1373 559.55 0.0025283 50.367 0.082645 370.00 0.0027027 702.24 785.72 2.3977 2.3788 3.1373 559.55 0.0025283 50.367 0.082645
206.38 4512.7 undefined 704.62 788.71 2.4026 370.00 0.0027027 704.62 788.71 2.4026 2.3825 3.1377 560.91 0.0024719 50.391 0.082775 370.00 0.0027027 704.62 788.71 2.4026 2.3825 3.1377 560.91 0.0024719 50.391 0.082775
207.38 4545.6 undefined 707.01 791.71 2.4076 370.00 0.0027027 707.01 791.71 2.4076 2.3862 3.1382 562.26 0.0024163 50.416 0.082905 370.00 0.0027027 707.01 791.71 2.4076 2.3862 3.1382 562.26 0.0024163 50.416 0.082905
208.38 4578.5 undefined 709.40 794.71 2.4126 370.00 0.0027027 709.40 794.71 2.4126 2.3899 3.1387 563.61 0.0023613 50.440 0.083035 370.00 0.0027027 709.40 794.71 2.4126 2.3899 3.1387 563.61 0.0023613 50.440 0.083035
209.38 4611.4 undefined 711.79 797.72 2.4175 370.00 0.0027027 711.79 797.72 2.4175 2.3935 3.1392 564.95 0.0023069 50.464 0.083165 370.00 0.0027027 711.79 797.72 2.4175 2.3935 3.1392 564.95 0.0023069 50.464 0.083165
210.38 4644.3 undefined 714.18 800.73 2.4225 370.00 0.0027027 714.18 800.73 2.4225 2.3972 3.1397 566.29 0.0022532 50.488 0.083296 370.00 0.0027027 714.18 800.73 2.4225 2.3972 3.1397 566.29 0.0022532 50.488 0.083296
211.38 4677.2 undefined 716.58 803.74 2.4275 370.00 0.0027027 716.58 803.74 2.4275 2.4009 3.1403 567.63 0.0022002 50.512 0.083427 370.00 0.0027027 716.58 803.74 2.4275 2.4009 3.1403 567.63 0.0022002 50.512 0.083427
212.38 4710.1 undefined 718.98 806.76 2.4324 370.00 0.0027027 718.98 806.76 2.4324 2.4046 3.1409 568.96 0.0021477 50.536 0.083558 370.00 0.0027027 718.98 806.76 2.4324 2.4046 3.1409 568.96 0.0021477 50.536 0.083558
213.38 4743.0 undefined 721.39 809.77 2.4374 370.00 0.0027027 721.39 809.77 2.4374 2.4082 3.1416 570.28 0.0020959 50.560 0.083690 370.00 0.0027027 721.39 809.77 2.4374 2.4082 3.1416 570.28 0.0020959 50.560 0.083690
214.38 4775.9 undefined 723.80 812.80 2.4423 370.00 0.0027027 723.80 812.80 2.4423 2.4119 3.1422 571.60 0.0020447 50.584 0.083822 370.00 0.0027027 723.80 812.80 2.4423 2.4119 3.1422 571.60 0.0020447 50.584 0.083822
215.38 4808.8 undefined 726.21 815.82 2.4473 370.00 0.0027027 726.21 815.82 2.4473 2.4155 3.1429 572.92 0.0019941 50.608 0.083954 370.00 0.0027027 726.21 815.82 2.4473 2.4155 3.1429 572.92 0.0019941 50.608 0.083954
216.38 4841.7 undefined 728.63 818.85 2.4522 370.00 0.0027027 728.63 818.85 2.4522 2.4192 3.1437 574.23 0.0019441 50.632 0.084087 370.00 0.0027027 728.63 818.85 2.4522 2.4192 3.1437 574.23 0.0019441 50.632 0.084087
217.38 4874.6 undefined 731.05 821.89 2.4571 370.00 0.0027027 731.05 821.89 2.4571 2.4229 3.1444 575.54 0.0018946 50.655 0.084219 370.00 0.0027027 731.05 821.89 2.4571 2.4229 3.1444 575.54 0.0018946 50.655 0.084219
218.38 4907.5 undefined 733.48 824.93 2.4621 370.00 0.0027027 733.48 824.93 2.4621 2.4265 3.1452 576.84 0.0018457 50.679 0.084353 370.00 0.0027027 733.48 824.93 2.4621 2.4265 3.1452 576.84 0.0018457 50.679 0.084353
219.38 4940.4 undefined 735.91 827.97 2.4670 370.00 0.0027027 735.91 827.97 2.4670 2.4302 3.1460 578.14 0.0017974 50.703 0.084486 370.00 0.0027027 735.91 827.97 2.4670 2.4302 3.1460 578.14 0.0017974 50.703 0.084486
220.38 4973.2 undefined 738.34 831.01 2.4719 370.00 0.0027027 738.34 831.01 2.4719 2.4338 3.1469 579.44 0.0017496 50.727 0.084619 370.00 0.0027027 738.34 831.01 2.4719 2.4338 3.1469 579.44 0.0017496 50.727 0.084619
221.38 5006.1 undefined 740.77 834.06 2.4769 370.00 0.0027027 740.77 834.06 2.4769 2.4375 3.1478 580.73 0.0017024 50.751 0.084753 370.00 0.0027027 740.77 834.06 2.4769 2.4375 3.1478 580.73 0.0017024 50.751 0.084753
222.38 5039.0 undefined 743.21 837.11 2.4818 370.00 0.0027027 743.21 837.11 2.4818 2.4411 3.1486 582.02 0.0016557 50.775 0.084888 370.00 0.0027027 743.21 837.11 2.4818 2.4411 3.1486 582.02 0.0016557 50.775 0.084888
223.38 5071.8 undefined 745.66 840.17 2.4867 370.00 0.0027027 745.66 840.17 2.4867 2.4448 3.1496 583.30 0.0016095 50.799 0.085022 370.00 0.0027027 745.66 840.17 2.4867 2.4448 3.1496 583.30 0.0016095 50.799 0.085022
224.38 5104.7 undefined 748.10 843.23 2.4916 370.00 0.0027027 748.10 843.23 2.4916 2.4484 3.1505 584.58 0.0015639 50.822 0.085157 370.00 0.0027027 748.10 843.23 2.4916 2.4484 3.1505 584.58 0.0015639 50.822 0.085157
225.38 5137.5 undefined 750.55 846.29 2.4966 370.00 0.0027027 750.55 846.29 2.4966 2.4520 3.1515 585.85 0.0015188 50.846 0.085292 370.00 0.0027027 750.55 846.29 2.4966 2.4520 3.1515 585.85 0.0015188 50.846 0.085292
226.38 5170.4 undefined 753.01 849.35 2.5015 370.00 0.0027027 753.01 849.35 2.5015 2.4557 3.1525 587.12 0.0014741 50.870 0.085427 370.00 0.0027027 753.01 849.35 2.5015 2.4557 3.1525 587.12 0.0014741 50.870 0.085427
227.38 5203.2 undefined 755.46 852.42 2.5064 370.00 0.0027027 755.46 852.42 2.5064 2.4593 3.1535 588.39 0.0014300 50.894 0.085562 370.00 0.0027027 755.46 852.42 2.5064 2.4593 3.1535 588.39 0.0014300 50.894 0.085562
228.38 5236.1 undefined 757.92 855.50 2.5113 370.00 0.0027027 757.92 855.50 2.5113 2.4629 3.1545 589.65 0.0013864 50.918 0.085698 370.00 0.0027027 757.92 855.50 2.5113 2.4629 3.1545 589.65 0.0013864 50.918 0.085698
229.38 5268.9 undefined 760.39 858.57 2.5162 370.00 0.0027027 760.39 858.57 2.5162 2.4665 3.1556 590.91 0.0013432 50.941 0.085834 370.00 0.0027027 760.39 858.57 2.5162 2.4665 3.1556 590.91 0.0013432 50.941 0.085834
230.38 5301.7 undefined 762.86 861.65 2.5211 370.00 0.0027027 762.86 861.65 2.5211 2.4702 3.1567 592.17 0.0013005 50.965 0.085971 370.00 0.0027027 762.86 861.65 2.5211 2.4702 3.1567 592.17 0.0013005 50.965 0.085971
231.38 5334.5 undefined 765.33 864.74 2.5260 370.00 0.0027027 765.33 864.74 2.5260 2.4738 3.1578 593.42 0.0012583 50.989 0.086107 370.00 0.0027027 765.33 864.74 2.5260 2.4738 3.1578 593.42 0.0012583 50.989 0.086107
232.38 5367.3 undefined 767.81 867.82 2.5309 370.00 0.0027027 767.81 867.82 2.5309 2.4774 3.1589 594.67 0.0012166 51.012 0.086244 370.00 0.0027027 767.81 867.82 2.5309 2.4774 3.1589 594.67 0.0012166 51.012 0.086244
233.38 5400.2 undefined 770.28 870.91 2.5358 370.00 0.0027027 770.28 870.91 2.5358 2.4810 3.1601 595.91 0.0011753 51.036 0.086381 370.00 0.0027027 770.28 870.91 2.5358 2.4810 3.1601 595.91 0.0011753 51.036 0.086381
234.38 5433.0 undefined 772.77 874.01 2.5407 370.00 0.0027027 772.77 874.01 2.5407 2.4846 3.1613 597.15 0.0011344 51.060 0.086519 370.00 0.0027027 772.77 874.01 2.5407 2.4846 3.1613 597.15 0.0011344 51.060 0.086519
235.38 5465.8 undefined 775.25 877.11 2.5456 370.00 0.0027027 775.25 877.11 2.5456 2.4882 3.1624 598.39 0.0010940 51.083 0.086656 370.00 0.0027027 775.25 877.11 2.5456 2.4882 3.1624 598.39 0.0010940 51.083 0.086656
236.38 5498.6 undefined 777.74 880.21 2.5505 370.00 0.0027027 777.74 880.21 2.5505 2.4918 3.1637 599.62 0.0010541 51.107 0.086794 370.00 0.0027027 777.74 880.21 2.5505 2.4918 3.1637 599.62 0.0010541 51.107 0.086794
237.38 5531.3 undefined 780.24 883.31 2.5554 370.00 0.0027027 780.24 883.31 2.5554 2.4954 3.1649 600.85 0.0010145 51.131 0.086932 370.00 0.0027027 780.24 883.31 2.5554 2.4954 3.1649 600.85 0.0010145 51.131 0.086932
238.38 5564.1 undefined 782.73 886.42 2.5603 370.00 0.0027027 782.73 886.42 2.5603 2.4990 3.1661 602.08 0.00097542 51.154 0.087071 370.00 0.0027027 782.73 886.42 2.5603 2.4990 3.1661 602.08 0.00097542 51.154 0.087071
239.38 5596.9 undefined 785.24 889.53 2.5652 370.00 0.0027027 785.24 889.53 2.5652 2.5026 3.1674 603.30 0.00093674 51.178 0.087209 370.00 0.0027027 785.24 889.53 2.5652 2.5026 3.1674 603.30 0.00093674 51.178 0.087209
240.38 5629.7 undefined 787.74 892.65 2.5701 370.00 0.0027027 787.74 892.65 2.5701 2.5062 3.1687 604.52 0.00089846 51.201 0.087348 370.00 0.0027027 787.74 892.65 2.5701 2.5062 3.1687 604.52 0.00089846 51.201 0.087348
241.38 5662.4 undefined 790.25 895.76 2.5749 370.00 0.0027027 790.25 895.76 2.5749 2.5098 3.1700 605.74 0.00086059 51.225 0.087487 370.00 0.0027027 790.25 895.76 2.5749 2.5098 3.1700 605.74 0.00086059 51.225 0.087487
242.38 5695.2 undefined 792.76 898.89 2.5798 370.00 0.0027027 792.76 898.89 2.5798 2.5134 3.1713 606.95 0.00082313 51.248 0.087627 370.00 0.0027027 792.76 898.89 2.5798 2.5134 3.1713 606.95 0.00082313 51.248 0.087627
243.38 5728.0 undefined 795.28 902.01 2.5847 370.00 0.0027027 795.28 902.01 2.5847 2.5170 3.1727 608.16 0.00078606 51.272 0.087766 370.00 0.0027027 795.28 902.01 2.5847 2.5170 3.1727 608.16 0.00078606 51.272 0.087766
244.38 5760.7 undefined 797.79 905.14 2.5896 370.00 0.0027027 797.79 905.14 2.5896 2.5206 3.1740 609.36 0.00074938 51.295 0.087906 370.00 0.0027027 797.79 905.14 2.5896 2.5206 3.1740 609.36 0.00074938 51.295 0.087906
245.38 5793.5 undefined 800.32 908.27 2.5944 370.00 0.0027027 800.32 908.27 2.5944 2.5242 3.1754 610.57 0.00071309 51.319 0.088049 370.00 0.0027027 800.32 908.27 2.5944 2.5242 3.1754 610.57 0.00071309 51.319 0.088049
246.38 5826.2 undefined 802.84 911.41 2.5993 370.00 0.0027027 802.84 911.41 2.5993 2.5277 3.1768 611.77 0.00067718 51.342 0.088197 370.00 0.0027027 802.84 911.41 2.5993 2.5277 3.1768 611.77 0.00067718 51.342 0.088197
247.38 5858.9 undefined 805.37 914.55 2.6042 370.00 0.0027027 805.37 914.55 2.6042 2.5313 3.1782 612.96 0.00064164 51.366 0.088345 370.00 0.0027027 805.37 914.55 2.6042 2.5313 3.1782 612.96 0.00064164 51.366 0.088345
248.38 5891.6 undefined 807.90 917.69 2.6090 370.00 0.0027027 807.90 917.69 2.6090 2.5349 3.1796 614.15 0.00060648 51.389 0.088493 370.00 0.0027027 807.90 917.69 2.6090 2.5349 3.1796 614.15 0.00060648 51.389 0.088493
249.38 5924.4 undefined 810.44 920.84 2.6139 370.00 0.0027027 810.44 920.84 2.6139 2.5384 3.1811 615.34 0.00057168 51.412 0.088642 370.00 0.0027027 810.44 920.84 2.6139 2.5384 3.1811 615.34 0.00057168 51.412 0.088642
250.38 5957.1 undefined 812.98 923.99 2.6187 370.00 0.0027027 812.98 923.99 2.6187 2.5420 3.1825 616.53 0.00053724 51.436 0.088791 370.00 0.0027027 812.98 923.99 2.6187 2.5420 3.1825 616.53 0.00053724 51.436 0.088791
251.38 5989.8 undefined 815.53 927.14 2.6236 370.00 0.0027027 815.53 927.14 2.6236 2.5455 3.1840 617.71 0.00050316 51.459 0.088940 370.00 0.0027027 815.53 927.14 2.6236 2.5455 3.1840 617.71 0.00050316 51.459 0.088940
252.38 6022.5 undefined 818.07 930.30 2.6284 370.00 0.0027027 818.07 930.30 2.6284 2.5491 3.1855 618.89 0.00046943 51.483 0.089090 370.00 0.0027027 818.07 930.30 2.6284 2.5491 3.1855 618.89 0.00046943 51.483 0.089090
253.38 6055.2 undefined 820.62 933.46 2.6333 370.00 0.0027027 820.62 933.46 2.6333 2.5527 3.1870 620.07 0.00043605 51.506 0.089240 370.00 0.0027027 820.62 933.46 2.6333 2.5527 3.1870 620.07 0.00043605 51.506 0.089240
254.38 6087.8 undefined 823.18 936.62 2.6381 370.00 0.0027027 823.18 936.62 2.6381 2.5562 3.1885 621.24 0.00040300 51.529 0.089390 370.00 0.0027027 823.18 936.62 2.6381 2.5562 3.1885 621.24 0.00040300 51.529 0.089390
255.38 6120.5 undefined 825.74 939.79 2.6430 370.00 0.0027027 825.74 939.79 2.6430 2.5597 3.1901 622.41 0.00037030 51.553 0.089541 370.00 0.0027027 825.74 939.79 2.6430 2.5597 3.1901 622.41 0.00037030 51.553 0.089541
256.38 6153.2 undefined 828.30 942.96 2.6478 370.00 0.0027027 828.30 942.96 2.6478 2.5633 3.1916 623.58 0.00033793 51.576 0.089691 370.00 0.0027027 828.30 942.96 2.6478 2.5633 3.1916 623.58 0.00033793 51.576 0.089691
257.38 6185.9 undefined 830.86 946.13 2.6527 370.00 0.0027027 830.86 946.13 2.6527 2.5668 3.1932 624.74 0.00030589 51.599 0.089843 370.00 0.0027027 830.86 946.13 2.6527 2.5668 3.1932 624.74 0.00030589 51.599 0.089843
258.38 6218.5 undefined 833.43 949.31 2.6575 370.00 0.0027027 833.43 949.31 2.6575 2.5704 3.1947 625.90 0.00027417 51.622 0.089994 370.00 0.0027027 833.43 949.31 2.6575 2.5704 3.1947 625.90 0.00027417 51.622 0.089994
259.38 6251.2 undefined 836.00 952.49 2.6623 370.00 0.0027027 836.00 952.49 2.6623 2.5739 3.1963 627.06 0.00024278 51.646 0.090146 370.00 0.0027027 836.00 952.49 2.6623 2.5739 3.1963 627.06 0.00024278 51.646 0.090146
260.38 6283.8 undefined 838.58 955.67 2.6672 370.00 0.0027027 838.58 955.67 2.6672 2.5774 3.1979 628.21 0.00021170 51.669 0.090298 370.00 0.0027027 838.58 955.67 2.6672 2.5774 3.1979 628.21 0.00021170 51.669 0.090298
261.38 6316.4 undefined 841.16 958.86 2.6720 370.00 0.0027027 841.16 958.86 2.6720 2.5809 3.1995 629.37 0.00018094 51.692 0.090450 370.00 0.0027027 841.16 958.86 2.6720 2.5809 3.1995 629.37 0.00018094 51.692 0.090450
262.38 6349.1 undefined 843.74 962.05 2.6768 370.00 0.0027027 843.74 962.05 2.6768 2.5845 3.2012 630.51 0.00015048 51.715 0.090602 370.00 0.0027027 843.74 962.05 2.6768 2.5845 3.2012 630.51 0.00015048 51.715 0.090602
263.38 6381.7 undefined 846.33 965.25 2.6817 370.00 0.0027027 846.33 965.25 2.6817 2.5880 3.2028 631.66 0.00012033 51.738 0.090755 370.00 0.0027027 846.33 965.25 2.6817 2.5880 3.2028 631.66 0.00012033 51.738 0.090755
264.38 6414.3 undefined 848.92 968.44 2.6865 370.00 0.0027027 848.92 968.44 2.6865 2.5915 3.2044 632.80 9.0478e-05 51.762 0.090908 370.00 0.0027027 848.92 968.44 2.6865 2.5915 3.2044 632.80 9.0478e-05 51.762 0.090908
265.38 6446.9 undefined 851.51 971.64 2.6913 370.00 0.0027027 851.51 971.64 2.6913 2.5950 3.2061 633.94 6.0924e-05 51.785 0.091062 370.00 0.0027027 851.51 971.64 2.6913 2.5950 3.2061 633.94 6.0924e-05 51.785 0.091062
266.38 6479.5 undefined 854.11 974.85 2.6961 370.00 0.0027027 854.11 974.85 2.6961 2.5985 3.2078 635.08 3.1665e-05 51.808 0.091216 370.00 0.0027027 854.11 974.85 2.6961 2.5985 3.2078 635.08 3.1665e-05 51.808 0.091216
267.38 6512.1 undefined 856.71 978.06 2.7009 370.00 0.0027027 856.71 978.06 2.7009 2.6020 3.2095 636.22 2.6949e-06 51.831 0.091370 370.00 0.0027027 856.71 978.06 2.7009 2.6020 3.2095 636.22 2.6949e-06 51.831 0.091370
268.38 6544.7 undefined 859.31 981.27 2.7057 370.00 0.0027027 859.31 981.27 2.7057 2.6055 3.2112 637.35 -2.5988e-05 51.854 0.091524 370.00 0.0027027 859.31 981.27 2.7057 2.6055 3.2112 637.35 -2.5988e-05 51.854 0.091524
269.38 6577.3 undefined 861.92 984.48 2.7105 370.00 0.0027027 861.92 984.48 2.7105 2.6090 3.2129 638.48 -5.4389e-05 51.877 0.091678 370.00 0.0027027 861.92 984.48 2.7105 2.6090 3.2129 638.48 -5.4389e-05 51.877 0.091678
270.38 6609.8 undefined 864.53 987.70 2.7154 370.00 0.0027027 864.53 987.70 2.7154 2.6125 3.2146 639.60 -8.2510e-05 51.900 0.091833 370.00 0.0027027 864.53 987.70 2.7154 2.6125 3.2146 639.60 -8.2510e-05 51.900 0.091833
271.38 6642.4 undefined 867.14 990.92 2.7202 370.00 0.0027027 867.14 990.92 2.7202 2.6160 3.2163 640.73 -0.00011036 51.923 0.091989 370.00 0.0027027 867.14 990.92 2.7202 2.6160 3.2163 640.73 -0.00011036 51.923 0.091989
272.38 6675.0 undefined 869.76 994.15 2.7250 370.00 0.0027027 869.76 994.15 2.7250 2.6195 3.2180 641.85 -0.00013793 51.946 0.092144 370.00 0.0027027 869.76 994.15 2.7250 2.6195 3.2180 641.85 -0.00013793 51.946 0.092144
273.38 6707.5 undefined 872.38 997.37 2.7298 370.00 0.0027027 872.38 997.37 2.7298 2.6230 3.2198 642.97 -0.00016523 51.969 0.092300 370.00 0.0027027 872.38 997.37 2.7298 2.6230 3.2198 642.97 -0.00016523 51.969 0.092300
274.38 6740.0 undefined 875.01 1000.6 2.7346 370.00 0.0027027 875.01 1000.6 2.7346 2.6265 3.2216 644.08 -0.00019227 51.992 0.092456 370.00 0.0027027 875.01 1000.6 2.7346 2.6265 3.2216 644.08 -0.00019227 51.992 0.092456
275.38 6772.6 undefined 877.64 1003.8 2.7394 370.00 0.0027027 877.64 1003.8 2.7394 2.6299 3.2233 645.19 -0.00021904 52.015 0.092612 370.00 0.0027027 877.64 1003.8 2.7394 2.6299 3.2233 645.19 -0.00021904 52.015 0.092612
276.38 6805.1 undefined 880.27 1007.1 2.7442 370.00 0.0027027 880.27 1007.1 2.7442 2.6334 3.2251 646.30 -0.00024556 52.038 0.092769 370.00 0.0027027 880.27 1007.1 2.7442 2.6334 3.2251 646.30 -0.00024556 52.038 0.092769
277.38 6837.6 undefined 882.90 1010.3 2.7489 370.00 0.0027027 882.90 1010.3 2.7489 2.6369 3.2269 647.41 -0.00027182 52.061 0.092926 370.00 0.0027027 882.90 1010.3 2.7489 2.6369 3.2269 647.41 -0.00027182 52.061 0.092926
278.38 6870.1 undefined 885.54 1013.6 2.7537 370.00 0.0027027 885.54 1013.6 2.7537 2.6403 3.2287 648.52 -0.00029782 52.084 0.093083 370.00 0.0027027 885.54 1013.6 2.7537 2.6403 3.2287 648.52 -0.00029782 52.084 0.093083
279.38 6902.6 undefined 888.18 1016.8 2.7585 370.00 0.0027027 888.18 1016.8 2.7585 2.6438 3.2305 649.62 -0.00032358 52.107 0.093241 370.00 0.0027027 888.18 1016.8 2.7585 2.6438 3.2305 649.62 -0.00032358 52.107 0.093241
280.38 6935.1 undefined 890.83 1020.1 2.7633 370.00 0.0027027 890.83 1020.1 2.7633 2.6472 3.2323 650.72 -0.00034909 52.130 0.093399 370.00 0.0027027 890.83 1020.1 2.7633 2.6472 3.2323 650.72 -0.00034909 52.130 0.093399
281.38 6967.6 undefined 893.48 1023.3 2.7681 370.00 0.0027027 893.48 1023.3 2.7681 2.6507 3.2341 651.81 -0.00037435 52.152 0.093557 370.00 0.0027027 893.48 1023.3 2.7681 2.6507 3.2341 651.81 -0.00037435 52.152 0.093557
282.38 7000.1 undefined 896.13 1026.6 2.7729 370.00 0.0027027 896.13 1026.6 2.7729 2.6542 3.2360 652.91 -0.00039937 52.175 0.093230 370.00 0.0027027 896.13 1026.6 2.7729 2.6542 3.2360 652.91 -0.00039937 52.175 0.093230
283.38 7032.6 undefined 898.79 1029.8 2.7776 370.00 0.0027027 898.79 1029.8 2.7776 2.6576 3.2378 654.00 -0.00042415 52.198 0.093388 370.00 0.0027027 898.79 1029.8 2.7776 2.6576 3.2378 654.00 -0.00042415 52.198 0.093388
284.38 7065.0 undefined 901.44 1033.1 2.7824 370.00 0.0027027 901.44 1033.1 2.7824 2.6610 3.2397 655.09 -0.00044870 52.221 0.093546 370.00 0.0027027 901.44 1033.1 2.7824 2.6610 3.2397 655.09 -0.00044870 52.221 0.093546
285.38 7097.5 undefined 904.11 1036.4 2.7872 370.00 0.0027027 904.11 1036.4 2.7872 2.6645 3.2415 656.18 -0.00047301 52.244 0.093704 370.00 0.0027027 904.11 1036.4 2.7872 2.6645 3.2415 656.18 -0.00047301 52.244 0.093704
286.38 7129.9 undefined 906.77 1039.6 2.7920 370.00 0.0027027 906.77 1039.6 2.7920 2.6679 3.2434 657.26 -0.00049710 52.266 0.093863 370.00 0.0027027 906.77 1039.6 2.7920 2.6679 3.2434 657.26 -0.00049710 52.266 0.093863
287.38 7162.4 undefined 909.44 1042.9 2.7967 370.00 0.0027027 909.44 1042.9 2.7967 2.6713 3.2453 658.34 -0.00052095 52.289 0.094022 370.00 0.0027027 909.44 1042.9 2.7967 2.6713 3.2453 658.34 -0.00052095 52.289 0.094022
288.38 7194.8 undefined 912.12 1046.2 2.8015 370.00 0.0027027 912.12 1046.2 2.8015 2.6748 3.2472 659.42 -0.00054458 52.312 0.094181 370.00 0.0027027 912.12 1046.2 2.8015 2.6748 3.2472 659.42 -0.00054458 52.312 0.094181
289.38 7227.2 undefined 914.79 1049.5 2.8062 370.00 0.0027027 914.79 1049.5 2.8062 2.6782 3.2491 660.50 -0.00056799 52.335 0.094341 370.00 0.0027027 914.79 1049.5 2.8062 2.6782 3.2491 660.50 -0.00056799 52.335 0.094341
290.38 7259.6 undefined 917.47 1052.8 2.8110 370.00 0.0027027 917.47 1052.8 2.8110 2.6816 3.2510 661.57 -0.00059118 52.357 0.094501 370.00 0.0027027 917.47 1052.8 2.8110 2.6816 3.2510 661.57 -0.00059118 52.357 0.094501
291.38 7292.0 undefined 920.16 1056.0 2.8158 370.00 0.0027027 920.16 1056.0 2.8158 2.6850 3.2529 662.65 -0.00061415 52.380 0.094661 370.00 0.0027027 920.16 1056.0 2.8158 2.6850 3.2529 662.65 -0.00061415 52.380 0.094661
292.38 7324.4 undefined 922.84 1059.3 2.8205 370.00 0.0027027 922.84 1059.3 2.8205 2.6884 3.2548 663.72 -0.00063690 52.403 0.094821 370.00 0.0027027 922.84 1059.3 2.8205 2.6884 3.2548 663.72 -0.00063690 52.403 0.094821
293.38 7356.8 undefined 925.53 1062.6 2.8253 370.00 0.0027027 925.53 1062.6 2.8253 2.6919 3.2567 664.78 -0.00065945 52.425 0.094982 370.00 0.0027027 925.53 1062.6 2.8253 2.6919 3.2567 664.78 -0.00065945 52.425 0.094982
294.38 7389.2 undefined 928.23 1065.9 2.8300 370.00 0.0027027 928.23 1065.9 2.8300 2.6953 3.2586 665.85 -0.00068178 52.448 0.095143 370.00 0.0027027 928.23 1065.9 2.8300 2.6953 3.2586 665.85 -0.00068178 52.448 0.095143
295.38 7421.6 undefined 930.92 1069.2 2.8348 370.00 0.0027027 930.92 1069.2 2.8348 2.6987 3.2606 666.91 -0.00070390 52.470 0.095304 370.00 0.0027027 930.92 1069.2 2.8348 2.6987 3.2606 666.91 -0.00070390 52.470 0.095304
296.38 7453.9 undefined 933.62 1072.5 2.8395 370.00 0.0027027 933.62 1072.5 2.8395 2.7021 3.2625 667.97 -0.00072583 52.493 0.095466 370.00 0.0027027 933.62 1072.5 2.8395 2.7021 3.2625 667.97 -0.00072583 52.493 0.095466
297.38 7486.3 undefined 936.33 1075.8 2.8443 370.00 0.0027027 936.33 1075.8 2.8443 2.7054 3.2645 669.03 -0.00074754 52.516 0.095628 370.00 0.0027027 936.33 1075.8 2.8443 2.7054 3.2645 669.03 -0.00074754 52.516 0.095628
298.38 7518.7 undefined 939.03 1079.1 2.8490 370.00 0.0027027 939.03 1079.1 2.8490 2.7088 3.2664 670.08 -0.00076906 52.538 0.095790 370.00 0.0027027 939.03 1079.1 2.8490 2.7088 3.2664 670.08 -0.00076906 52.538 0.095790
299.38 7551.0 undefined 941.75 1082.5 2.8537 370.00 0.0027027 941.75 1082.5 2.8537 2.7122 3.2684 671.14 -0.00079038 52.561 0.095952 370.00 0.0027027 941.75 1082.5 2.8537 2.7122 3.2684 671.14 -0.00079038 52.561 0.095952
300.38 7583.3 undefined 944.46 1085.8 2.8585 370.00 0.0027027 944.46 1085.8 2.8585 2.7156 3.2704 672.19 -0.00081150 52.583 0.096115 370.00 0.0027027 944.46 1085.8 2.8585 2.7156 3.2704 672.19 -0.00081150 52.583 0.096115