Temperature (C) Pressure (psia) Quality (l+v) Internal Energy (l+v, kJ/kg) Enthalpy (l+v, kJ/kg) Entropy (l+v, J/g*K) Density (l, kg/m3) Volume (l, m3/kg) Internal Energy (l, kJ/kg) Enthalpy (l, kJ/kg) Entropy (l, J/g*K) Cv (l, J/g*K) Cp (l, J/g*K) Sound Spd. (l, m/s) Joule-Thomson (l, F/psia) Viscosity (l, uPa*s) Therm. Cond. (l, W/m*K) Density (v, kg/m3) Volume (v, m3/kg) Internal Energy (v, kJ/kg) Enthalpy (v, kJ/kg) Entropy (v, J/g*K) Cv (v, J/g*K) Cp (v, J/g*K) Sound Spd. (v, m/s) Joule-Thomson (v, F/psia) Viscosity (v, uPa*s) Therm. Cond. (v, W/m*K)
-187.62 2.4953e-08 1.3898e-11 -196.64 -196.64 -1.3959 733.13 0.0013640 -196.64 -196.64 -1.3959 1.3553 1.9158 2136.4 -0.0077592 10960. 0.20792 1.0669e-08 9.3732e+07 350.13 366.26 5.1858 0.69067 0.87923 143.28 6.1051 2.3259 0.0017061
-186.62 3.7339e-08 2.0525e-11 -194.73 -194.73 -1.3736 732.08 0.0013660 -194.73 -194.73 -1.3736 1.3539 1.9166 2129.6 -0.0077546 10073. 0.20765 1.5780e-08 6.3371e+07 350.82 367.14 5.1200 0.69462 0.88317 144.03 5.9178 2.3534 0.0017533
-185.62 5.5322e-08 3.0017e-11 -192.81 -192.81 -1.3516 731.04 0.0013679 -192.81 -192.81 -1.3516 1.3525 1.9174 2122.9 -0.0077498 9276.1 0.20737 2.3112e-08 4.3267e+07 351.52 368.02 5.0561 0.69857 0.88713 144.77 5.7383 2.3808 0.0018007
-184.62 8.1182e-08 4.3486e-11 -190.89 -190.89 -1.3298 730.00 0.0013699 -190.89 -190.89 -1.3298 1.3513 1.9182 2116.1 -0.0077448 8557.8 0.20708 3.3533e-08 2.9821e+07 352.22 368.91 4.9939 0.70253 0.89108 145.51 5.5662 2.4083 0.0018485
-183.62 1.1803e-07 6.2425e-11 -188.97 -188.97 -1.3083 728.96 0.0013718 -188.97 -188.97 -1.3083 1.3501 1.9191 2109.3 -0.0077395 7909.8 0.20678 4.8211e-08 2.0742e+07 352.92 369.81 4.9333 0.70648 0.89504 146.24 5.4011 2.4357 0.0018965
-182.62 1.7009e-07 8.8827e-11 -187.05 -187.05 -1.2869 727.92 0.0013738 -187.05 -187.05 -1.2869 1.3490 1.9201 2102.5 -0.0077340 7324.3 0.20647 6.8704e-08 1.4555e+07 353.63 370.70 4.8744 0.71043 0.89899 146.97 5.2426 2.4632 0.0019448
-181.62 2.4299e-07 1.2532e-10 -185.13 -185.13 -1.2658 726.88 0.0013757 -185.13 -185.13 -1.2658 1.3480 1.9210 2095.7 -0.0077283 6794.5 0.20616 9.7079e-08 1.0301e+07 354.35 371.60 4.8170 0.71438 0.90294 147.69 5.0904 2.4906 0.0019934
-180.62 3.4425e-07 1.7536e-10 -183.21 -183.21 -1.2450 725.85 0.0013777 -183.21 -183.21 -1.2450 1.3470 1.9220 2088.9 -0.0077225 6314.4 0.20584 1.3605e-07 7.3504e+06 355.06 372.51 4.7612 0.71833 0.90688 148.41 4.9442 2.5181 0.0020423
-179.62 4.8378e-07 2.4344e-10 -181.29 -181.29 -1.2243 724.81 0.0013797 -181.29 -181.29 -1.2243 1.3461 1.9231 2082.0 -0.0077164 5878.8 0.20551 1.8915e-07 5.2868e+06 355.78 373.42 4.7068 0.72227 0.91082 149.13 4.8038 2.5456 0.0020915
-178.62 6.7459e-07 3.3534e-10 -179.37 -179.37 -1.2038 723.78 0.0013816 -179.37 -179.37 -1.2038 1.3453 1.9241 2075.2 -0.0077102 5482.9 0.20517 2.6096e-07 3.8320e+06 356.51 374.33 4.6538 0.72620 0.91475 149.84 4.6688 2.5731 0.0021410
-177.62 9.3358e-07 4.5853e-10 -177.44 -177.44 -1.1836 722.75 0.0013836 -177.44 -177.44 -1.1836 1.3445 1.9252 2068.4 -0.0077039 5122.6 0.20483 3.5737e-07 2.7982e+06 357.23 375.25 4.6022 0.73012 0.91867 150.54 4.5390 2.6005 0.0021907
-176.62 1.2826e-06 6.2245e-10 -175.52 -175.52 -1.1635 721.72 0.0013856 -175.52 -175.52 -1.1635 1.3437 1.9263 2061.5 -0.0076973 4794.1 0.20447 4.8588e-07 2.0581e+06 357.97 376.17 4.5519 0.73403 0.92258 151.25 4.4142 2.6280 0.0022408
-175.62 1.7496e-06 8.3911e-10 -173.59 -173.59 -1.1437 720.69 0.0013876 -173.59 -173.59 -1.1437 1.3430 1.9274 2054.7 -0.0076907 4494.3 0.20411 6.5601e-07 1.5244e+06 358.70 377.09 4.5029 0.73792 0.92648 151.95 4.2941 2.6555 0.0022912
-174.62 2.3705e-06 1.1236e-09 -171.66 -171.66 -1.1240 719.66 0.0013895 -171.66 -171.66 -1.1240 1.3423 1.9286 2047.9 -0.0076838 4220.2 0.20375 8.7976e-07 1.1367e+06 359.44 378.02 4.4551 0.74181 0.93036 152.64 4.1784 2.6830 0.0023418
-173.62 3.1903e-06 1.4946e-09 -169.73 -169.73 -1.1045 718.64 0.0013915 -169.73 -169.73 -1.1045 1.3417 1.9298 2041.0 -0.0076769 3969.3 0.20338 1.1721e-06 8.5314e+05 360.19 378.95 4.4085 0.74568 0.93423 153.33 4.0671 2.7105 0.0023928
-172.62 4.2661e-06 1.9757e-09 -167.80 -167.80 -1.0852 717.61 0.0013935 -167.80 -167.80 -1.0852 1.3411 1.9310 2034.2 -0.0076698 3739.3 0.20300 1.5518e-06 6.4441e+05 360.93 379.89 4.3631 0.74953 0.93809 154.02 3.9599 2.7379 0.0024440
-171.62 5.6692e-06 2.5956e-09 -165.87 -165.87 -1.0661 716.58 0.0013955 -165.87 -165.87 -1.0661 1.3405 1.9322 2027.3 -0.0076625 3528.0 0.20261 2.0419e-06 4.8974e+05 361.69 380.83 4.3188 0.75337 0.94193 154.71 3.8566 2.7654 0.0024955
-170.62 7.4884e-06 3.3897e-09 -163.94 -163.94 -1.0472 715.56 0.0013975 -163.94 -163.94 -1.0472 1.3400 1.9334 2020.5 -0.0076552 3333.8 0.20222 2.6708e-06 3.7442e+05 362.44 381.77 4.2755 0.75720 0.94575 155.39 3.7570 2.7929 0.0025473
-169.62 9.8334e-06 4.4012e-09 -162.00 -162.00 -1.0284 714.54 0.0013995 -162.00 -162.00 -1.0284 1.3395 1.9347 2013.6 -0.0076477 3154.9 0.20182 3.4733e-06 2.8791e+05 363.20 382.72 4.2334 0.76100 0.94956 156.07 3.6609 2.8204 0.0025994
-168.62 1.2839e-05 5.6827e-09 -160.07 -160.07 -1.0098 713.52 0.0014015 -160.07 -160.07 -1.0098 1.3390 1.9359 2006.8 -0.0076401 2989.9 0.20141 4.4917e-06 2.2263e+05 363.96 383.67 4.1922 0.76479 0.95335 156.74 3.5683 2.8479 0.0026518
-167.62 1.6672e-05 7.2974e-09 -158.13 -158.13 -0.99134 712.49 0.0014035 -158.13 -158.13 -0.99134 1.3386 1.9372 2000.0 -0.0076323 2837.5 0.20100 5.7771e-06 1.7310e+05 364.73 384.63 4.1521 0.76856 0.95712 157.41 3.4790 2.8754 0.0027045
-166.62 2.1533e-05 9.3216e-09 -156.19 -156.19 -0.97306 711.47 0.0014055 -156.19 -156.19 -0.97306 1.3382 1.9385 1993.1 -0.0076245 2696.5 0.20058 7.3914e-06 1.3529e+05 365.50 385.59 4.1129 0.77232 0.96087 158.08 3.3927 2.9029 0.0027575
-165.62 2.7666e-05 1.1846e-08 -154.25 -154.25 -0.95494 710.45 0.0014075 -154.25 -154.25 -0.95494 1.3378 1.9398 1986.3 -0.0076165 2566.0 0.20016 9.4084e-06 1.0629e+05 366.27 386.55 4.0746 0.77605 0.96460 158.75 3.3095 2.9304 0.0028108
-164.62 3.5367e-05 1.4980e-08 -152.31 -152.31 -0.93698 709.44 0.0014096 -152.31 -152.31 -0.93698 1.3375 1.9411 1979.4 -0.0076084 2444.9 0.19973 1.1916e-05 83918. 367.05 387.52 4.0372 0.77976 0.96832 159.41 3.2291 2.9579 0.0028643
-163.62 4.4989e-05 1.8851e-08 -150.37 -150.37 -0.91917 708.42 0.0014116 -150.37 -150.37 -0.91917 1.3371 1.9424 1972.6 -0.0076002 2332.3 0.19930 1.5020e-05 66577. 367.83 388.49 4.0008 0.78346 0.97201 160.07 3.1514 2.9854 0.0029182
-162.62 5.6956e-05 2.3612e-08 -148.43 -148.43 -0.90151 707.40 0.0014136 -148.43 -148.43 -0.90151 1.3368 1.9437 1965.8 -0.0075919 2227.7 0.19886 1.8844e-05 53068. 368.62 389.46 3.9651 0.78713 0.97569 160.72 3.0764 3.0129 0.0029723
-161.62 7.1773e-05 2.9439e-08 -146.48 -146.48 -0.88400 706.38 0.0014157 -146.48 -146.48 -0.88400 1.3365 1.9451 1959.0 -0.0075834 2130.2 0.19841 2.3533e-05 42494. 369.41 390.44 3.9304 0.79079 0.97935 161.38 3.0038 3.0404 0.0030268
-160.62 9.0036e-05 3.6543e-08 -144.54 -144.54 -0.86663 705.37 0.0014177 -144.54 -144.54 -0.86663 1.3363 1.9465 1952.1 -0.0075748 2039.2 0.19796 2.9258e-05 34178. 370.20 391.42 3.8964 0.79443 0.98298 162.03 2.9337 3.0679 0.0030815
-159.62 0.00011245 4.5165e-08 -142.59 -142.59 -0.84940 704.35 0.0014197 -142.59 -142.59 -0.84940 1.3360 1.9478 1945.3 -0.0075661 1954.2 0.19751 3.6221e-05 27609. 371.00 392.40 3.8632 0.79805 0.98660 162.68 2.8658 3.0955 0.0031365
-158.62 0.00013985 5.5586e-08 -140.64 -140.64 -0.83231 703.34 0.0014218 -140.64 -140.64 -0.83231 1.3358 1.9492 1938.5 -0.0075573 1874.8 0.19705 4.4652e-05 22395. 371.80 393.39 3.8307 0.80164 0.99020 163.32 2.8002 3.1230 0.0031918
-157.62 0.00017320 6.8134e-08 -138.69 -138.69 -0.81536 702.32 0.0014238 -138.69 -138.69 -0.81536 1.3356 1.9506 1931.7 -0.0075484 1800.3 0.19658 5.4822e-05 18241. 372.60 394.38 3.7990 0.80522 0.99378 163.96 2.7367 3.1505 0.0032474
-156.62 0.00021364 8.3182e-08 -136.74 -136.74 -0.79854 701.31 0.0014259 -136.74 -136.74 -0.79854 1.3354 1.9520 1924.9 -0.0075393 1730.5 0.19611 6.7040e-05 14916. 373.41 395.38 3.7680 0.80878 0.99734 164.60 2.6752 3.1780 0.0033033
-155.62 0.00026248 1.0116e-07 -134.79 -134.79 -0.78185 700.30 0.0014280 -134.79 -134.79 -0.78185 1.3352 1.9534 1918.1 -0.0075302 1664.9 0.19564 8.1666e-05 12245. 374.22 396.38 3.7377 0.81232 1.0009 165.24 2.6157 3.2055 0.0033595
-154.62 0.00032125 1.2256e-07 -132.83 -132.83 -0.76530 699.29 0.0014300 -132.83 -132.83 -0.76530 1.3350 1.9548 1911.3 -0.0075209 1603.3 0.19516 9.9109e-05 10090. 375.03 397.38 3.7081 0.81585 1.0044 165.87 2.5580 3.2330 0.0034160
-153.62 0.00039171 1.4795e-07 -130.88 -130.88 -0.74887 698.27 0.0014321 -130.88 -130.88 -0.74887 1.3349 1.9563 1904.5 -0.0075114 1545.3 0.19468 0.00011984 8344.6 375.85 398.39 3.6792 0.81935 1.0079 166.50 2.5022 3.2606 0.0034727
-152.62 0.00047590 1.7795e-07 -128.92 -128.92 -0.73256 697.26 0.0014342 -128.92 -128.92 -0.73256 1.3348 1.9577 1897.8 -0.0075019 1490.6 0.19419 0.00014439 6925.9 376.67 399.40 3.6509 0.82284 1.0114 167.13 2.4481 3.2881 0.0035298
-151.62 0.00057613 2.1330e-07 -126.96 -126.96 -0.71638 696.25 0.0014363 -126.96 -126.96 -0.71638 1.3346 1.9592 1891.0 -0.0074922 1438.9 0.19370 0.00017336 5768.4 377.49 400.41 3.6232 0.82631 1.0149 167.76 2.3957 3.3156 0.0035872
-150.62 0.00069507 2.5480e-07 -125.00 -125.00 -0.70032 695.24 0.0014384 -125.00 -125.00 -0.70032 1.3345 1.9606 1884.2 -0.0074824 1390.2 0.19320 0.00020744 4820.7 378.32 401.42 3.5962 0.82976 1.0183 168.38 2.3448 3.3431 0.0036448
-149.62 0.00083574 3.0337e-07 -123.04 -123.04 -0.68437 694.23 0.0014404 -123.04 -123.04 -0.68438 1.3345 1.9621 1877.4 -0.0074724 1344.0 0.19270 0.00024740 4042.0 379.15 402.44 3.5697 0.83319 1.0218 169.00 2.2956 3.3706 0.0037027
-148.62 0.0010016 3.6003e-07 -121.08 -121.08 -0.66855 693.22 0.0014425 -121.08 -121.08 -0.66855 1.3344 1.9636 1870.7 -0.0074623 1300.3 0.19220 0.00029412 3400.0 379.99 403.47 3.5438 0.83661 1.0252 169.62 2.2478 3.3982 0.0037610
-147.62 0.0011965 4.2594e-07 -119.11 -119.11 -0.65284 692.21 0.0014447 -119.11 -119.11 -0.65284 1.3343 1.9651 1863.9 -0.0074521 1258.9 0.19169 0.00034856 2869.0 380.83 404.49 3.5185 0.84001 1.0286 170.24 2.2014 3.4257 0.0038195
-146.62 0.0014249 5.0237e-07 -117.15 -117.15 -0.63724 691.20 0.0014468 -117.15 -117.15 -0.63724 1.3343 1.9666 1857.2 -0.0074417 1219.6 0.19117 0.00041181 2428.3 381.67 405.52 3.4938 0.84340 1.0320 170.85 2.1565 3.4532 0.0038783
-145.62 0.0016917 5.9074e-07 -115.18 -115.18 -0.62175 690.19 0.0014489 -115.18 -115.18 -0.62175 1.3343 1.9682 1850.4 -0.0074312 1182.3 0.19066 0.00048510 2061.4 382.51 406.56 3.4695 0.84677 1.0353 171.46 2.1128 3.4807 0.0039374
-144.62 0.0020026 6.9264e-07 -113.21 -113.21 -0.60637 689.18 0.0014510 -113.21 -113.21 -0.60637 1.3343 1.9697 1843.7 -0.0074206 1146.8 0.19014 0.00056976 1755.1 383.36 407.59 3.4458 0.85012 1.0387 172.07 2.0705 3.5082 0.0039967
-143.62 0.0023637 8.0980e-07 -111.24 -111.24 -0.59110 688.17 0.0014531 -111.24 -111.24 -0.59110 1.3343 1.9713 1836.9 -0.0074098 1113.0 0.18962 0.00066731 1498.6 384.21 408.63 3.4226 0.85346 1.0420 172.68 2.0294 3.5358 0.0040564
-142.62 0.0027820 9.4415e-07 -109.27 -109.27 -0.57593 687.16 0.0014553 -109.27 -109.27 -0.57593 1.3343 1.9728 1830.2 -0.0073988 1080.8 0.18909 0.00077939 1283.1 385.07 409.68 3.3999 0.85679 1.0454 173.28 1.9896 3.5633 0.0041164
-141.62 0.0032653 1.0978e-06 -107.30 -107.30 -0.56086 686.15 0.0014574 -107.30 -107.30 -0.56087 1.3343 1.9744 1823.5 -0.0073878 1050.1 0.18856 0.00090784 1101.5 385.93 410.72 3.3777 0.86011 1.0487 173.88 1.9508 3.5908 0.0041766
-140.62 0.0038222 1.2731e-06 -105.32 -105.32 -0.54590 685.14 0.0014596 -105.32 -105.32 -0.54591 1.3344 1.9760 1816.7 -0.0073765 1020.7 0.18803 0.0010547 948.16 386.79 411.77 3.3560 0.86341 1.0520 174.48 1.9133 3.6183 0.0042372
-139.62 0.0044623 1.4726e-06 -103.34 -103.34 -0.53104 684.13 0.0014617 -103.34 -103.34 -0.53105 1.3344 1.9776 1810.0 -0.0073651 992.74 0.18749 0.0012221 818.26 387.65 412.83 3.3347 0.86670 1.0553 175.08 1.8768 3.6459 0.0042980
-138.62 0.0051963 1.6990e-06 -101.37 -101.37 -0.51628 683.12 0.0014639 -101.37 -101.37 -0.51629 1.3345 1.9792 1803.3 -0.0073536 965.97 0.18695 0.0014125 707.94 388.52 413.88 3.3139 0.86998 1.0586 175.67 1.8413 3.6734 0.0043592
-137.62 0.0060358 1.9554e-06 -99.385 -99.385 -0.50161 682.11 0.0014660 -99.386 -99.386 -0.50162 1.3346 1.9808 1796.6 -0.0073419 940.35 0.18641 0.0016287 614.00 389.39 414.94 3.2935 0.87325 1.0619 176.26 1.8069 3.7009 0.0044206
-136.62 0.0069938 2.2451e-06 -97.403 -97.403 -0.48705 681.10 0.0014682 -97.404 -97.404 -0.48705 1.3347 1.9825 1789.9 -0.0073301 915.81 0.18586 0.0018733 533.80 390.26 416.00 3.2735 0.87650 1.0651 176.85 1.7734 3.7284 0.0044823
-135.62 0.0080843 2.5717e-06 -95.420 -95.420 -0.47257 680.09 0.0014704 -95.421 -95.421 -0.47258 1.3348 1.9841 1783.2 -0.0073180 892.30 0.18531 0.0021497 465.17 391.14 417.07 3.2540 0.87975 1.0684 177.44 1.7409 3.7559 0.0045443
-134.62 0.0093230 2.9390e-06 -93.435 -93.435 -0.45819 679.08 0.0014726 -93.436 -93.436 -0.45820 1.3350 1.9858 1776.5 -0.0073059 869.75 0.18476 0.0024613 406.30 392.02 418.14 3.2348 0.88299 1.0716 178.02 1.7093 3.7834 0.0046066
-133.62 0.010727 3.3512e-06 -91.448 -91.448 -0.44390 678.07 0.0014748 -91.450 -91.449 -0.44391 1.3351 1.9875 1769.8 -0.0072935 848.11 0.18421 0.0028116 355.67 392.91 419.21 3.2161 0.88622 1.0749 178.61 1.6786 3.8109 0.0046691
-132.62 0.012315 3.8128e-06 -89.459 -89.459 -0.42969 677.06 0.0014770 -89.461 -89.461 -0.42971 1.3353 1.9892 1763.1 -0.0072810 827.32 0.18365 0.0032049 312.03 393.79 420.29 3.1977 0.88944 1.0781 179.19 1.6488 3.8385 0.0047320
-131.62 0.014106 4.3287e-06 -87.469 -87.469 -0.41558 676.04 0.0014792 -87.471 -87.471 -0.41560 1.3354 1.9909 1756.4 -0.0072684 807.34 0.18309 0.0036453 274.33 394.68 421.36 3.1798 0.89266 1.0813 179.76 1.6197 3.8660 0.0047951
-130.62 0.016124 4.9041e-06 -85.477 -85.477 -0.40156 675.03 0.0014814 -85.479 -85.479 -0.40157 1.3356 1.9926 1749.7 -0.0072555 788.12 0.18253 0.0041375 241.69 395.58 422.44 3.1622 0.89586 1.0846 180.34 1.5915 3.8935 0.0048586
-129.62 0.018392 5.5445e-06 -83.483 -83.483 -0.38762 674.02 0.0014836 -83.486 -83.486 -0.38763 1.3358 1.9944 1743.0 -0.0072425 769.63 0.18196 0.0046867 213.37 396.47 423.53 3.1450 0.89906 1.0878 180.91 1.5641 3.9210 0.0049223
-128.62 0.020935 6.2561e-06 -81.488 -81.487 -0.37376 673.01 0.0014859 -81.491 -81.490 -0.37378 1.3360 1.9961 1736.3 -0.0072294 751.83 0.18140 0.0052981 188.75 397.37 424.62 3.1281 0.90226 1.0910 181.48 1.5374 3.9485 0.0049863
-127.62 0.023783 7.0450e-06 -79.490 -79.490 -0.35999 672.00 0.0014881 -79.494 -79.493 -0.36001 1.3363 1.9979 1729.6 -0.0072160 734.67 0.18083 0.0059776 167.29 398.27 425.71 3.1116 0.90545 1.0942 182.05 1.5114 3.9760 0.0050506
-126.62 0.026966 7.9183e-06 -77.491 -77.491 -0.34630 670.98 0.0014904 -77.495 -77.495 -0.34632 1.3365 1.9997 1722.9 -0.0072025 718.14 0.18025 0.0067313 148.56 399.18 426.80 3.0954 0.90863 1.0974 182.62 1.4861 4.0035 0.0051152
-125.62 0.030515 8.8830e-06 -75.490 -75.489 -0.33269 669.97 0.0014926 -75.494 -75.494 -0.33272 1.3368 2.0015 1716.2 -0.0071888 702.18 0.17968 0.0075660 132.17 400.09 427.89 3.0795 0.91181 1.1006 183.18 1.4615 4.0310 0.0051800
-124.62 0.034467 9.9469e-06 -73.487 -73.487 -0.31915 668.95 0.0014949 -73.492 -73.492 -0.31919 1.3371 2.0033 1709.5 -0.0071749 686.79 0.17910 0.0084885 117.81 401.00 428.99 3.0640 0.91499 1.1038 183.74 1.4375 4.0584 0.0052452
-123.62 0.038859 1.1118e-05 -71.482 -71.482 -0.30570 667.94 0.0014971 -71.488 -71.487 -0.30574 1.3374 2.0051 1702.8 -0.0071609 671.93 0.17852 0.0095065 105.19 401.91 430.10 3.0488 0.91816 1.1070 184.30 1.4141 4.0859 0.0053106
-122.62 0.043731 1.2406e-05 -69.476 -69.475 -0.29233 666.92 0.0014994 -69.482 -69.481 -0.29237 1.3377 2.0070 1696.2 -0.0071466 657.57 0.17794 0.010628 94.092 402.83 431.20 3.0339 0.92134 1.1102 184.86 1.3913 4.1134 0.0053764
-121.62 0.049128 1.3818e-05 -67.467 -67.466 -0.27903 665.91 0.0015017 -67.474 -67.473 -0.27907 1.3380 2.0089 1689.5 -0.0071322 643.70 0.17736 0.011861 84.309 403.75 432.31 3.0193 0.92451 1.1134 185.41 1.3691 4.1409 0.0054424
-120.62 0.055096 1.5365e-05 -65.457 -65.456 -0.26580 664.89 0.0015040 -65.464 -65.463 -0.26585 1.3384 2.0107 1682.8 -0.0071176 630.28 0.17678 0.013215 75.669 404.67 433.42 3.0050 0.92767 1.1166 185.96 1.3475 4.1683 0.0055087
-119.62 0.061684 1.7058e-05 -63.444 -63.443 -0.25265 663.87 0.0015063 -63.452 -63.452 -0.25271 1.3387 2.0126 1676.1 -0.0071028 617.30 0.17619 0.014700 68.027 405.60 434.53 2.9909 0.93084 1.1198 186.51 1.3264 4.1958 0.0055752
-118.62 0.068946 1.8906e-05 -61.430 -61.429 -0.23957 662.86 0.0015086 -61.439 -61.438 -0.23963 1.3391 2.0146 1669.4 -0.0070878 604.74 0.17560 0.016325 61.255 406.53 435.64 2.9772 0.93401 1.1231 187.06 1.3058 4.2233 0.0056421
-117.62 0.076937 2.0921e-05 -59.413 -59.412 -0.22657 661.84 0.0015109 -59.423 -59.422 -0.22663 1.3395 2.0165 1662.8 -0.0070726 592.58 0.17501 0.018101 55.245 407.46 436.76 2.9638 0.93718 1.1263 187.60 1.2857 4.2507 0.0057092
-116.62 0.085718 2.3114e-05 -57.395 -57.393 -0.21363 660.82 0.0015133 -57.406 -57.405 -0.21370 1.3400 2.0184 1656.1 -0.0070573 580.80 0.17442 0.020040 49.901 408.39 437.88 2.9506 0.94035 1.1295 188.14 1.2660 4.2782 0.0057767
-115.62 0.095353 2.5499e-05 -55.374 -55.373 -0.20076 659.80 0.0015156 -55.386 -55.385 -0.20084 1.3404 2.0204 1649.4 -0.0070417 569.38 0.17383 0.022152 45.142 409.33 439.01 2.9377 0.94352 1.1327 188.68 1.2468 4.3056 0.0058444
-114.62 0.10591 2.8088e-05 -53.352 -53.350 -0.18796 658.78 0.0015180 -53.365 -53.364 -0.18805 1.3409 2.0224 1642.7 -0.0070260 558.32 0.17323 0.024451 40.898 410.27 440.13 2.9250 0.94669 1.1360 189.22 1.2281 4.3330 0.0059123
-113.62 0.11746 3.0895e-05 -51.327 -51.325 -0.17523 657.76 0.0015203 -51.342 -51.340 -0.17533 1.3413 2.0244 1636.0 -0.0070100 547.59 0.17264 0.026949 37.107 411.21 441.26 2.9126 0.94987 1.1392 189.75 1.2097 4.3604 0.0059806
-112.62 0.13008 3.3933e-05 -49.301 -49.298 -0.16257 656.73 0.0015227 -49.316 -49.315 -0.16267 1.3418 2.0264 1629.3 -0.0069938 537.18 0.17204 0.029661 33.715 412.16 442.39 2.9005 0.95305 1.1424 190.28 1.1918 4.3879 0.0060491
-111.62 0.14384 3.7218e-05 -47.272 -47.269 -0.14997 655.71 0.0015251 -47.289 -47.287 -0.15008 1.3424 2.0285 1622.7 -0.0069774 527.08 0.17144 0.032600 30.675 413.10 443.53 2.8885 0.95623 1.1457 190.81 1.1742 4.4153 0.0061180
-110.62 0.15884 4.0764e-05 -45.241 -45.238 -0.13743 654.69 0.0015274 -45.259 -45.258 -0.13755 1.3429 2.0305 1616.0 -0.0069609 517.28 0.17084 0.035781 27.948 414.06 444.66 2.8769 0.95942 1.1490 191.34 1.1570 4.4427 0.0061871
-109.62 0.17516 4.4588e-05 -43.207 -43.204 -0.12496 653.66 0.0015298 -43.228 -43.226 -0.12509 1.3435 2.0326 1609.3 -0.0069441 507.76 0.17024 0.039220 25.497 415.01 445.80 2.8654 0.96261 1.1522 191.86 1.1402 4.4701 0.0062564
-108.62 0.19290 4.8707e-05 -41.172 -41.168 -0.11255 652.64 0.0015322 -41.194 -41.192 -0.11269 1.3441 2.0347 1602.6 -0.0069271 498.51 0.16964 0.042933 23.292 415.96 446.94 2.8542 0.96581 1.1555 192.38 1.1236 4.4974 0.0063261
-107.62 0.21215 5.3137e-05 -39.134 -39.130 -0.10020 651.61 0.0015347 -39.158 -39.156 -0.10036 1.3447 2.0369 1595.9 -0.0069098 489.52 0.16903 0.046937 21.305 416.92 448.09 2.8433 0.96901 1.1588 192.90 1.1075 4.5248 0.0063960
-106.62 0.23301 5.7896e-05 -37.094 -37.090 -0.087913 650.58 0.0015371 -37.120 -37.118 -0.088082 1.3453 2.0390 1589.2 -0.0068924 480.79 0.16843 0.051250 19.512 417.88 449.23 2.8325 0.97222 1.1621 193.41 1.0916 4.5522 0.0064662
-105.62 0.25561 6.3002e-05 -35.052 -35.047 -0.075686 649.55 0.0015395 -35.080 -35.078 -0.075868 1.3460 2.0412 1582.6 -0.0068747 472.30 0.16782 0.055891 17.892 418.85 450.38 2.8220 0.97544 1.1655 193.93 1.0760 4.5795 0.0065367
-104.62 0.28004 6.8476e-05 -33.007 -33.002 -0.063517 648.52 0.0015420 -33.038 -33.035 -0.063714 1.3467 2.0434 1575.9 -0.0068569 464.04 0.16721 0.060878 16.426 419.81 451.53 2.8116 0.97867 1.1688 194.44 1.0608 4.6069 0.0066074
-103.62 0.30643 7.4335e-05 -30.960 -30.955 -0.051407 647.49 0.0015444 -30.994 -30.991 -0.051619 1.3474 2.0456 1569.2 -0.0068387 456.00 0.16660 0.066231 15.099 420.78 452.68 2.8015 0.98191 1.1722 194.94 1.0458 4.6342 0.0066785
-102.62 0.33490 8.0601e-05 -28.911 -28.905 -0.039353 646.46 0.0015469 -28.947 -28.944 -0.039582 1.3481 2.0478 1562.5 -0.0068204 448.18 0.16600 0.071971 13.894 421.75 453.84 2.7916 0.98516 1.1755 195.44 1.0310 4.6615 0.0067498
-101.62 0.36558 8.7294e-05 -26.859 -26.852 -0.027356 645.43 0.0015494 -26.898 -26.894 -0.027602 1.3489 2.0501 1555.8 -0.0068018 440.57 0.16539 0.078120 12.801 422.73 454.99 2.7818 0.98841 1.1789 195.95 1.0166 4.6888 0.0068213
-100.62 0.39862 9.4436e-05 -24.805 -24.798 -0.015415 644.39 0.0015519 -24.847 -24.843 -0.015678 1.3497 2.0524 1549.1 -0.0067830 433.16 0.16478 0.084699 11.807 423.70 456.15 2.7723 0.99168 1.1823 196.44 1.0024 4.7161 0.0068932
-99.625 0.43414 0.00010205 -22.748 -22.740 -0.0035279 643.36 0.0015544 -22.794 -22.789 -0.0038103 1.3505 2.0547 1542.4 -0.0067639 425.95 0.16416 0.091731 10.901 424.68 457.31 2.7630 0.99496 1.1858 196.94 0.98838 4.7434 0.0069653
-98.625 0.47230 0.00011015 -20.689 -20.680 0.0083052 642.32 0.0015569 -20.738 -20.733 0.0080027 1.3514 2.0570 1535.7 -0.0067447 418.92 0.16355 0.099240 10.077 425.66 458.48 2.7538 0.99825 1.1892 197.43 0.97464 4.7707 0.0070377
-97.625 0.51325 0.00011878 -18.627 -18.618 0.020085 641.28 0.0015594 -18.680 -18.674 0.019762 1.3522 2.0594 1529.0 -0.0067251 412.07 0.16294 0.10725 9.3239 426.65 459.64 2.7448 1.0016 1.1927 197.92 0.96112 4.7979 0.0071103
-96.625 0.55714 0.00012794 -16.563 -16.552 0.031813 640.24 0.0015619 -16.620 -16.614 0.031467 1.3531 2.0618 1522.3 -0.0067053 405.39 0.16233 0.11579 8.6365 427.63 460.81 2.7360 1.0049 1.1962 198.40 0.94783 4.8251 0.0071832
-95.625 0.60416 0.00013767 -14.496 -14.485 0.043490 639.20 0.0015645 -14.557 -14.550 0.043120 1.3540 2.0642 1515.7 -0.0066853 398.88 0.16171 0.12488 8.0078 428.62 461.98 2.7274 1.0082 1.1997 198.88 0.93475 4.8524 0.0072564
-94.625 0.65446 0.00014799 -12.426 -12.414 0.055115 638.16 0.0015670 -12.491 -12.484 0.054721 1.3550 2.0667 1509.0 -0.0066650 392.53 0.16110 0.13455 7.4323 429.61 463.15 2.7189 1.0116 1.2032 199.36 0.92188 4.8796 0.0073299
-93.625 0.70822 0.00015892 -10.354 -10.341 0.066691 637.12 0.0015696 -10.424 -10.416 0.066271 1.3560 2.0691 1502.3 -0.0066444 386.34 0.16048 0.14482 6.9050 430.60 464.32 2.7107 1.0149 1.2068 199.83 0.90921 4.9068 0.0074036
-92.625 0.76564 0.00017050 -8.2785 -8.2644 0.078218 636.07 0.0015722 -8.3535 -8.3452 0.077771 1.3570 2.0716 1495.6 -0.0066236 380.31 0.15987 0.15573 6.4212 431.60 465.49 2.7025 1.0183 1.2104 200.30 0.89673 4.9340 0.0074776
-91.625 0.82689 0.00018274 -6.2006 -6.1854 0.089696 635.02 0.0015747 -6.2808 -6.2719 0.089220 1.3580 2.0742 1488.9 -0.0066025 374.41 0.15925 0.16731 5.9769 432.59 466.67 2.6946 1.0217 1.2140 200.77 0.88445 4.9611 0.0075518
-90.625 0.89218 0.00019568 -4.1200 -4.1036 0.10113 633.98 0.0015773 -4.2056 -4.1959 0.10062 1.3591 2.0767 1482.2 -0.0065811 368.66 0.15864 0.17958 5.5685 433.59 467.84 2.6868 1.0251 1.2177 201.24 0.87236 4.9883 0.0076263
-89.625 0.96172 0.00020934 -2.0364 -2.0188 0.11251 632.93 0.0015800 -2.1279 -2.1174 0.11197 1.3602 2.0793 1475.5 -0.0065595 363.05 0.15802 0.19258 5.1928 434.59 469.02 2.6791 1.0285 1.2213 201.70 0.86045 5.0154 0.0077011
-88.625 1.0357 0.00022375 0.049958 0.069001 0.12385 631.88 0.0015826 -0.047516 -0.036215 0.12328 1.3613 2.0819 1468.8 -0.0065375 357.56 0.15740 0.20633 4.8466 435.59 470.20 2.6717 1.0320 1.2250 202.15 0.84873 5.0425 0.0077761
-87.625 1.1144 0.00023894 2.1393 2.1598 0.13514 630.83 0.0015852 2.0355 2.0476 0.13454 1.3625 2.0846 1462.1 -0.0065153 352.21 0.15679 0.22087 4.5276 436.60 471.39 2.6643 1.0354 1.2288 202.61 0.83718 5.0696 0.0078514
-86.625 1.1979 0.00025494 4.2316 4.2536 0.14639 629.77 0.0015879 4.1211 4.1342 0.14575 1.3637 2.0873 1455.4 -0.0064928 346.98 0.15617 0.23623 4.2331 437.61 472.57 2.6571 1.0389 1.2325 203.06 0.82580 5.0967 0.0079270
-85.625 1.2866 0.00027178 6.3269 6.3505 0.15759 628.72 0.0015905 6.2094 6.2235 0.15691 1.3649 2.0900 1448.8 -0.0064701 341.87 0.15555 0.25245 3.9612 438.61 473.75 2.6501 1.0424 1.2363 203.50 0.81460 5.1237 0.0080028
-84.625 1.3806 0.00028948 8.4252 8.4506 0.16875 627.66 0.0015932 8.3004 8.3155 0.16803 1.3661 2.0927 1442.1 -0.0064470 336.87 0.15494 0.26956 3.7097 439.63 474.94 2.6432 1.0460 1.2402 203.95 0.80356 5.1508 0.0080789
-83.625 1.4803 0.00030809 10.527 10.554 0.17987 626.60 0.0015959 10.394 10.410 0.17911 1.3674 2.0955 1435.4 -0.0064236 331.99 0.15432 0.28760 3.4771 440.64 476.13 2.6364 1.0495 1.2440 204.38 0.79269 5.1778 0.0081553
-82.625 1.5858 0.00032762 12.631 12.660 0.19094 625.54 0.0015986 12.491 12.508 0.19014 1.3687 2.0983 1428.7 -0.0063999 327.22 0.15370 0.30659 3.2616 441.65 477.31 2.6298 1.0531 1.2479 204.82 0.78199 5.2048 0.0082319
-81.625 1.6975 0.00034811 14.739 14.770 0.20198 624.48 0.0016013 14.590 14.609 0.20113 1.3700 2.1012 1422.0 -0.0063759 322.55 0.15309 0.32659 3.0619 442.67 478.50 2.6233 1.0567 1.2519 205.25 0.77144 5.2318 0.0083088
-80.625 1.8155 0.00036960 16.850 16.883 0.21297 623.42 0.0016041 16.692 16.712 0.21208 1.3714 2.1041 1415.4 -0.0063516 317.99 0.15247 0.34763 2.8766 443.69 479.70 2.6169 1.0603 1.2558 205.67 0.76106 5.2587 0.0083860
-79.625 1.9402 0.00039211 18.964 19.000 0.22392 622.36 0.0016068 18.797 18.819 0.22299 1.3728 2.1070 1408.7 -0.0063270 313.52 0.15186 0.36974 2.7046 444.71 480.89 2.6106 1.0639 1.2598 206.10 0.75083 5.2857 0.0084634
-78.625 2.0718 0.00041567 21.082 21.120 0.23484 621.29 0.0016096 20.905 20.928 0.23385 1.3742 2.1099 1402.0 -0.0063021 309.15 0.15124 0.39296 2.5448 445.73 482.08 2.6045 1.0676 1.2639 206.51 0.74076 5.3126 0.0085411
-77.625 2.2107 0.00044032 23.202 23.243 0.24571 620.22 0.0016123 23.016 23.040 0.24468 1.3757 2.1129 1395.3 -0.0062768 304.88 0.15062 0.41735 2.3961 446.75 483.27 2.5985 1.0712 1.2680 206.93 0.73084 5.3395 0.0086190
-76.625 2.3571 0.00046609 25.327 25.370 0.25655 619.15 0.0016151 25.130 25.156 0.25546 1.3772 2.1159 1388.7 -0.0062512 300.69 0.15001 0.44292 2.2577 447.78 484.47 2.5926 1.0749 1.2721 207.34 0.72107 5.3664 0.0086972
-75.625 2.5113 0.00049302 27.454 27.501 0.26735 618.08 0.0016179 27.247 27.275 0.26620 1.3787 2.1190 1382.0 -0.0062253 296.59 0.14939 0.46974 2.1288 448.81 485.67 2.5869 1.0787 1.2762 207.74 0.71146 5.3933 0.0087757
-74.625 2.6736 0.00052113 29.586 29.635 0.27811 617.01 0.0016207 29.366 29.396 0.27691 1.3802 2.1221 1375.4 -0.0061990 292.58 0.14878 0.49783 2.0087 449.83 486.86 2.5812 1.0824 1.2804 208.14 0.70200 5.4201 0.0088544
-73.625 2.8444 0.00055046 31.720 31.772 0.28884 615.93 0.0016236 31.489 31.521 0.28758 1.3818 2.1252 1368.7 -0.0061724 288.65 0.14816 0.52725 1.8966 450.86 488.06 2.5757 1.0862 1.2847 208.54 0.69268 5.4469 0.0089334
-72.625 3.0240 0.00058104 33.858 33.914 0.29953 614.85 0.0016264 33.615 33.649 0.29821 1.3834 2.1284 1362.0 -0.0061454 284.81 0.14755 0.55804 1.7920 451.90 489.26 2.5703 1.0900 1.2889 208.93 0.68351 5.4737 0.0090126
-71.625 3.2127 0.00061291 36.000 36.059 0.31018 613.78 0.0016293 35.745 35.781 0.30880 1.3851 2.1316 1355.4 -0.0061181 281.03 0.14694 0.59024 1.6942 452.93 490.46 2.5650 1.0938 1.2932 209.32 0.67448 5.5005 0.0090922
-70.625 3.4108 0.00064610 38.146 38.209 0.32080 612.69 0.0016321 37.877 37.915 0.31935 1.3867 2.1349 1348.7 -0.0060904 277.34 0.14632 0.62390 1.6028 453.96 491.66 2.5598 1.0976 1.2976 209.70 0.66560 5.5273 0.0091720
-69.625 3.6187 0.00068065 40.295 40.362 0.33139 611.61 0.0016350 40.013 40.053 0.32987 1.3884 2.1382 1342.1 -0.0060624 273.72 0.14571 0.65906 1.5173 455.00 492.86 2.5547 1.1015 1.3020 210.08 0.65687 5.5540 0.0092520
-68.625 3.8367 0.00071658 42.448 42.519 0.34194 610.53 0.0016379 42.152 42.195 0.34036 1.3902 2.1415 1335.5 -0.0060339 270.17 0.14510 0.69577 1.4372 456.04 494.06 2.5497 1.1054 1.3064 210.45 0.64827 5.5807 0.0093324
-67.625 4.0652 0.00075394 44.605 44.680 0.35246 609.44 0.0016409 44.294 44.340 0.35080 1.3919 2.1449 1328.8 -0.0060051 266.69 0.14449 0.73408 1.3622 457.08 495.26 2.5448 1.1093 1.3109 210.82 0.63981 5.6074 0.0094130
-66.625 4.3046 0.00079276 46.766 46.845 0.36295 608.35 0.0016438 46.439 46.488 0.36122 1.3937 2.1483 1322.2 -0.0059760 263.28 0.14388 0.77404 1.2919 458.12 496.46 2.5400 1.1133 1.3154 211.18 0.63150 5.6341 0.0094939
-65.625 4.5551 0.00083306 48.930 49.014 0.37340 607.26 0.0016467 48.588 48.640 0.37160 1.3955 2.1518 1315.6 -0.0059464 259.93 0.14327 0.81570 1.2259 459.16 497.67 2.5353 1.1172 1.3200 211.54 0.62332 5.6608 0.0095750
-64.625 4.8173 0.00087490 51.099 51.187 0.38383 606.16 0.0016497 50.740 50.795 0.38195 1.3974 2.1553 1308.9 -0.0059164 256.65 0.14266 0.85910 1.1640 460.21 498.87 2.5307 1.1212 1.3246 211.89 0.61527 5.6874 0.0096564
-63.625 5.0915 0.00091829 53.271 53.365 0.39422 605.07 0.0016527 52.896 52.954 0.39226 1.3993 2.1588 1302.3 -0.0058861 253.42 0.14205 0.90429 1.1058 461.25 500.07 2.5262 1.1252 1.3293 212.24 0.60736 5.7140 0.0097382
-62.625 5.3781 0.00096328 55.448 55.547 0.40458 603.97 0.0016557 55.055 55.117 0.40254 1.4012 2.1624 1295.7 -0.0058553 250.26 0.14144 0.95134 1.0511 462.30 501.28 2.5218 1.1293 1.3340 212.58 0.59958 5.7406 0.0098201
-61.625 5.6774 0.0010099 57.628 57.733 0.41492 602.87 0.0016587 57.218 57.283 0.41279 1.4031 2.1660 1289.1 -0.0058241 247.16 0.14084 1.0003 0.99972 463.35 502.48 2.5175 1.1333 1.3387 212.92 0.59194 5.7672 0.0099024
-60.625 5.9899 0.0010582 59.813 59.923 0.42522 601.77 0.0016618 59.385 59.453 0.42301 1.4051 2.1697 1282.5 -0.0057925 244.12 0.14023 1.0512 0.95131 464.40 503.68 2.5133 1.1374 1.3435 213.26 0.58442 5.7938 0.0099850
-59.625 6.3160 0.0011082 62.002 62.118 0.43550 600.66 0.0016648 61.554 61.627 0.43320 1.4071 2.1734 1275.9 -0.0057605 241.13 0.13962 1.1041 0.90573 465.45 504.89 2.5091 1.1415 1.3483 213.58 0.57704 5.8203 0.010068
-58.625 6.6561 0.0011599 64.195 64.318 0.44574 599.55 0.0016679 63.728 63.805 0.44335 1.4091 2.1772 1269.3 -0.0057280 238.19 0.13902 1.1591 0.86277 466.50 506.09 2.5051 1.1457 1.3532 213.90 0.56978 5.8468 0.010151
-57.625 7.0107 0.0012133 66.393 66.522 0.45596 598.44 0.0016710 65.905 65.986 0.45348 1.4111 2.1810 1262.7 -0.0056951 235.31 0.13842 1.2161 0.82228 467.55 507.30 2.5011 1.1498 1.3581 214.22 0.56265 5.8733 0.010234
-56.625 7.3801 0.0012686 68.595 68.730 0.46616 597.33 0.0016741 68.086 68.172 0.46358 1.4132 2.1848 1256.1 -0.0056617 232.48 0.13781 1.2754 0.78408 468.60 508.50 2.4972 1.1540 1.3631 214.53 0.55564 5.8998 0.010318
-55.625 7.7648 0.0013257 70.801 70.943 0.47632 596.22 0.0016772 70.271 70.361 0.47364 1.4153 2.1887 1249.5 -0.0056279 229.69 0.13721 1.3369 0.74802 469.66 509.71 2.4934 1.1582 1.3681 214.84 0.54875 5.9263 0.010402
-54.625 8.1652 0.0013847 73.011 73.161 0.48646 595.10 0.0016804 72.460 72.554 0.48368 1.4174 2.1927 1242.9 -0.0055937 226.96 0.13661 1.4006 0.71396 470.72 510.91 2.4897 1.1624 1.3731 215.14 0.54199 5.9527 0.010486
-53.625 8.5819 0.0014455 75.226 75.384 0.49657 593.98 0.0016836 74.652 74.752 0.49369 1.4196 2.1967 1236.3 -0.0055589 224.27 0.13601 1.4667 0.68178 471.77 512.11 2.4860 1.1667 1.3782 215.43 0.53535 5.9792 0.010571
-52.625 9.0151 0.0015083 77.446 77.612 0.50666 592.86 0.0016867 76.849 76.954 0.50368 1.4218 2.2007 1229.8 -0.0055237 221.63 0.13541 1.5353 0.65136 472.83 513.32 2.4824 1.1710 1.3834 215.72 0.52882 6.0056 0.010656
-51.625 9.4655 0.0015731 79.670 79.844 0.51673 591.73 0.0016900 79.049 79.159 0.51363 1.4240 2.2048 1223.2 -0.0054880 219.04 0.13482 1.6062 0.62258 473.89 514.52 2.4789 1.1752 1.3886 216.00 0.52241 6.0320 0.010741
-50.625 9.9335 0.0016398 81.899 82.082 0.52676 590.60 0.0016932 81.253 81.369 0.52356 1.4262 2.2089 1216.6 -0.0054519 216.48 0.13422 1.6797 0.59534 474.95 515.73 2.4755 1.1796 1.3938 216.28 0.51612 6.0584 0.010827
-49.625 10.419 0.0017086 84.132 84.324 0.53678 589.47 0.0016964 83.462 83.584 0.53347 1.4285 2.2131 1210.1 -0.0054152 213.98 0.13363 1.7558 0.56954 476.01 516.93 2.4722 1.1839 1.3991 216.55 0.50994 6.0848 0.010913
-48.625 10.924 0.0017795 86.371 86.571 0.54677 588.34 0.0016997 85.674 85.802 0.54334 1.4308 2.2173 1203.5 -0.0053780 211.51 0.13303 1.8345 0.54510 477.07 518.13 2.4689 1.1883 1.4044 216.82 0.50387 6.1112 0.010999
-47.625 11.448 0.0018524 88.614 88.824 0.55674 587.20 0.0017030 87.891 88.025 0.55319 1.4331 2.2216 1196.9 -0.0053403 209.08 0.13244 1.9159 0.52194 478.14 519.33 2.4657 1.1927 1.4098 217.08 0.49792 6.1375 0.011085
-46.625 11.991 0.0019274 90.861 91.082 0.56668 586.06 0.0017063 90.111 90.252 0.56302 1.4354 2.2259 1190.4 -0.0053020 206.69 0.13185 2.0001 0.49997 479.20 520.53 2.4625 1.1971 1.4153 217.33 0.49207 6.1639 0.011172
-45.625 12.554 0.0020046 93.114 93.345 0.57660 584.92 0.0017096 92.336 92.484 0.57282 1.4378 2.2303 1183.8 -0.0052633 204.34 0.13126 2.0872 0.47912 480.27 521.74 2.4594 1.2015 1.4207 217.58 0.48633 6.1902 0.011259
-44.625 13.137 0.0020840 95.371 95.613 0.58650 583.77 0.0017130 94.565 94.720 0.58260 1.4402 2.2347 1177.3 -0.0052240 202.03 0.13067 2.1771 0.45933 481.33 522.94 2.4564 1.2060 1.4263 217.82 0.48069 6.2165 0.011347
-43.625 13.741 0.0021656 97.634 97.886 0.59638 582.62 0.0017164 96.799 96.961 0.59235 1.4426 2.2392 1170.7 -0.0051841 199.75 0.13008 2.2700 0.44053 482.40 524.14 2.4535 1.2104 1.4319 218.05 0.47516 6.2429 0.011435
-42.625 14.367 0.0022494 99.901 100.17 0.60624 581.47 0.0017198 99.036 99.207 0.60208 1.4450 2.2437 1164.2 -0.0051437 197.51 0.12949 2.3659 0.42267 483.46 525.33 2.4506 1.2149 1.4375 218.28 0.46973 6.2692 0.011523
-41.625 15.015 0.0023355 102.17 102.45 0.61607 580.32 0.0017232 101.28 101.46 0.61179 1.4475 2.2483 1157.7 -0.0051027 195.30 0.12891 2.4649 0.40569 484.53 526.53 2.4478 1.2195 1.4432 218.50 0.46440 6.2955 0.011612
-40.625 15.686 0.0024239 104.45 104.74 0.62589 579.16 0.0017266 103.52 103.71 0.62147 1.4500 2.2529 1151.1 -0.0050611 193.13 0.12832 2.5671 0.38954 485.60 527.73 2.4450 1.2240 1.4489 218.72 0.45917 6.3218 0.011701
-39.625 16.380 0.0025146 106.73 107.03 0.63569 578.00 0.0017301 105.78 105.97 0.63113 1.4525 2.2576 1144.6 -0.0050189 190.99 0.12774 2.6725 0.37418 486.67 528.93 2.4423 1.2286 1.4547 218.93 0.45403 6.3481 0.011790
-38.625 17.097 0.0026077 109.02 109.34 0.64546 576.83 0.0017336 108.03 108.24 0.64077 1.4550 2.2623 1138.0 -0.0049761 188.88 0.12716 2.7813 0.35955 487.74 530.12 2.4397 1.2332 1.4606 219.13 0.44900 6.3744 0.011880
-37.625 17.838 0.0027031 111.31 111.64 0.65522 575.66 0.0017371 110.29 110.51 0.65039 1.4576 2.2671 1131.5 -0.0049327 186.81 0.12658 2.8934 0.34562 488.81 531.32 2.4371 1.2378 1.4665 219.33 0.44405 6.4007 0.011970
-36.625 18.604 0.0028009 113.61 113.96 0.66496 574.49 0.0017407 112.56 112.78 0.65999 1.4602 2.2719 1125.0 -0.0048887 184.76 0.12600 3.0089 0.33235 489.88 532.51 2.4346 1.2424 1.4724 219.52 0.43920 6.4270 0.012060
-35.625 19.395 0.0029012 115.92 116.27 0.67468 573.32 0.0017442 114.83 115.06 0.66956 1.4628 2.2768 1118.5 -0.0048440 182.75 0.12542 3.1280 0.31969 490.95 533.70 2.4321 1.2471 1.4784 219.70 0.43444 6.4533 0.012151
-34.625 20.212 0.0030039 118.23 118.60 0.68438 572.14 0.0017478 117.10 117.34 0.67912 1.4654 2.2818 1111.9 -0.0047987 180.76 0.12485 3.2506 0.30763 492.02 534.89 2.4297 1.2517 1.4845 219.88 0.42977 6.4797 0.012243
-33.625 21.056 0.0031091 120.54 120.93 0.69406 570.96 0.0017514 119.38 119.63 0.68865 1.4681 2.2868 1105.4 -0.0047527 178.80 0.12427 3.3770 0.29612 493.09 536.08 2.4273 1.2564 1.4906 220.05 0.42519 6.5060 0.012334
-32.625 21.926 0.0032167 122.86 123.26 0.70372 569.77 0.0017551 121.66 121.93 0.69817 1.4708 2.2918 1098.9 -0.0047061 176.87 0.12370 3.5071 0.28514 494.17 537.27 2.4250 1.2611 1.4968 220.21 0.42070 6.5323 0.012426
-31.625 22.823 0.0033269 125.19 125.60 0.71337 568.58 0.0017588 123.95 124.23 0.70767 1.4735 2.2970 1092.3 -0.0046587 174.97 0.12313 3.6410 0.27465 495.24 538.46 2.4227 1.2659 1.5031 220.36 0.41629 6.5587 0.012519
-30.625 23.749 0.0034397 127.52 127.95 0.72300 567.39 0.0017625 126.24 126.53 0.71714 1.4762 2.3021 1085.8 -0.0046107 173.09 0.12256 3.7787 0.26464 496.31 539.64 2.4205 1.2706 1.5094 220.51 0.41196 6.5850 0.012612
-29.625 24.703 0.0035549 129.85 130.31 0.73262 566.19 0.0017662 128.54 128.84 0.72660 1.4790 2.3074 1079.3 -0.0045619 171.24 0.12200 3.9205 0.25507 497.38 540.83 2.4184 1.2754 1.5157 220.65 0.40772 6.6114 0.012706
-28.625 25.687 0.0036728 132.19 132.67 0.74221 564.99 0.0017699 130.84 131.16 0.73604 1.4818 2.3126 1072.8 -0.0045124 169.42 0.12143 4.0663 0.24592 498.46 542.01 2.4162 1.2802 1.5222 220.79 0.40356 6.6378 0.012800
-27.625 26.700 0.0037932 134.54 135.03 0.75180 563.78 0.0017737 133.15 133.48 0.74547 1.4846 2.3180 1066.2 -0.0044621 167.62 0.12087 4.2163 0.23717 499.53 543.19 2.4142 1.2850 1.5286 220.91 0.39947 6.6642 0.012894
-26.625 27.743 0.0039163 136.90 137.41 0.76136 562.57 0.0017775 135.47 135.81 0.75487 1.4874 2.3234 1059.7 -0.0044111 165.84 0.12031 4.3705 0.22881 500.60 544.37 2.4122 1.2899 1.5352 221.03 0.39547 6.6906 0.012989
-25.625 28.817 0.0040420 139.25 139.78 0.77091 561.36 0.0017814 137.78 138.14 0.76426 1.4902 2.3289 1053.2 -0.0043593 164.09 0.11975 4.5290 0.22080 501.68 545.55 2.4102 1.2947 1.5418 221.14 0.39154 6.7171 0.013084
-24.625 29.923 0.0041703 141.62 142.17 0.78045 560.14 0.0017853 140.11 140.48 0.77363 1.4931 2.3344 1046.7 -0.0043067 162.36 0.11919 4.6918 0.21314 502.75 546.72 2.4083 1.2996 1.5485 221.25 0.38768 6.7436 0.013180
-23.625 31.061 0.0043013 143.99 144.56 0.78997 558.92 0.0017892 142.44 142.82 0.78298 1.4960 2.3400 1040.1 -0.0042533 160.65 0.11863 4.8592 0.20580 503.82 547.90 2.4064 1.3045 1.5552 221.35 0.38391 6.7701 0.013277
-22.625 32.232 0.0044350 146.37 146.96 0.79947 557.69 0.0017931 144.77 145.17 0.79232 1.4990 2.3457 1033.6 -0.0041990 158.97 0.11807 5.0311 0.19877 504.90 549.07 2.4045 1.3095 1.5621 221.44 0.38020 6.7967 0.013374
-21.625 33.435 0.0045713 148.75 149.36 0.80896 556.46 0.0017971 147.11 147.52 0.80164 1.5019 2.3514 1027.1 -0.0041439 157.30 0.11752 5.2076 0.19203 505.97 550.24 2.4027 1.3144 1.5690 221.52 0.37656 6.8232 0.013471
-20.625 34.673 0.0047103 151.14 151.78 0.81844 555.23 0.0018011 149.45 149.88 0.81095 1.5049 2.3572 1020.6 -0.0040879 155.66 0.11697 5.3889 0.18557 507.04 551.40 2.4010 1.3194 1.5759 221.59 0.37300 6.8499 0.013569
-19.625 35.946 0.0048520 153.53 154.19 0.82790 553.99 0.0018051 151.80 152.25 0.82024 1.5079 2.3630 1014.0 -0.0040311 154.04 0.11642 5.5750 0.17937 508.11 552.57 2.3992 1.3244 1.5829 221.66 0.36950 6.8765 0.013668
-18.625 37.253 0.0049965 155.93 156.62 0.83735 552.74 0.0018092 154.16 154.62 0.82952 1.5109 2.3689 1007.5 -0.0039733 152.44 0.11587 5.7660 0.17343 509.19 553.73 2.3976 1.3294 1.5901 221.72 0.36608 6.9032 0.013767
-17.625 38.596 0.0051436 158.34 159.05 0.84679 551.49 0.0018133 156.52 157.00 0.83878 1.5140 2.3749 1001.0 -0.0039145 150.86 0.11532 5.9621 0.16773 510.26 554.89 2.3959 1.3345 1.5972 221.77 0.36272 6.9300 0.013867
-16.625 39.976 0.0052935 160.75 161.49 0.85622 550.24 0.0018174 158.89 159.39 0.84803 1.5171 2.3810 994.44 -0.0038549 149.29 0.11478 6.1632 0.16225 511.33 556.05 2.3943 1.3395 1.6045 221.81 0.35942 6.9568 0.013968
-15.625 41.392 0.0054461 163.17 163.93 0.86563 548.98 0.0018216 161.26 161.78 0.85726 1.5202 2.3871 987.91 -0.0037942 147.75 0.11423 6.3696 0.15700 512.40 557.20 2.3927 1.3446 1.6119 221.85 0.35619 6.9836 0.014069
-14.625 42.846 0.0056014 165.60 166.38 0.87503 547.71 0.0018258 163.64 164.18 0.86649 1.5233 2.3933 981.37 -0.0037325 146.22 0.11369 6.5812 0.15195 513.47 558.36 2.3912 1.3497 1.6193 221.87 0.35302 7.0105 0.014170
-13.625 44.338 0.0057594 168.03 168.84 0.88441 546.44 0.0018300 166.02 166.58 0.87569 1.5264 2.3996 974.83 -0.0036698 144.72 0.11315 6.7983 0.14710 514.54 559.51 2.3897 1.3549 1.6268 221.89 0.34992 7.0375 0.014273
-12.625 45.870 0.0059202 170.47 171.31 0.89379 545.17 0.0018343 168.41 168.99 0.88489 1.5296 2.4059 968.29 -0.0036061 143.23 0.11261 7.0208 0.14243 515.61 560.65 2.3883 1.3600 1.6344 221.90 0.34688 7.0646 0.014376
-11.625 47.440 0.0060837 172.91 173.78 0.90315 543.89 0.0018386 170.81 171.41 0.89407 1.5328 2.4124 961.75 -0.0035413 141.76 0.11208 7.2490 0.13795 516.68 561.80 2.3868 1.3652 1.6421 221.91 0.34389 7.0917 0.014479
-10.625 49.051 0.0062499 175.36 176.26 0.91250 542.60 0.0018430 173.21 173.83 0.90324 1.5360 2.4189 955.20 -0.0034753 140.30 0.11154 7.4829 0.13364 517.75 562.94 2.3854 1.3704 1.6498 221.90 0.34097 7.1188 0.014584
-9.6250 50.703 0.0064188 177.82 178.75 0.92184 541.31 0.0018474 175.61 176.26 0.91240 1.5393 2.4255 948.65 -0.0034082 138.86 0.11101 7.7226 0.12949 518.81 564.08 2.3841 1.3757 1.6577 221.88 0.33810 7.1461 0.014689
-8.6250 52.396 0.0065904 180.28 181.24 0.93117 540.02 0.0018518 178.03 178.70 0.92154 1.5426 2.4321 942.10 -0.0033400 137.44 0.11048 7.9683 0.12550 519.88 565.21 2.3827 1.3809 1.6657 221.86 0.33529 7.1734 0.014795
-7.6250 54.131 0.0067647 182.75 183.75 0.94049 538.72 0.0018563 180.45 181.14 0.93068 1.5459 2.4389 935.55 -0.0032705 136.03 0.10995 8.2200 0.12165 520.94 566.35 2.3814 1.3862 1.6737 221.83 0.33254 7.2008 0.014902
-6.6250 55.909 0.0069417 185.23 186.25 0.94980 537.41 0.0018608 182.87 183.59 0.93980 1.5492 2.4457 928.99 -0.0031998 134.64 0.10942 8.4779 0.11795 522.01 567.48 2.3801 1.3915 1.6819 221.79 0.32984 7.2284 0.015009
-5.6250 57.730 0.0071213 187.71 188.77 0.95910 536.10 0.0018653 185.30 186.05 0.94892 1.5525 2.4526 922.43 -0.0031279 133.27 0.10889 8.7420 0.11439 523.07 568.60 2.3789 1.3969 1.6902 221.74 0.32720 7.2560 0.015117
-4.6250 59.595 0.0073036 190.20 191.30 0.96839 534.78 0.0018699 187.74 188.51 0.95802 1.5559 2.4596 915.87 -0.0030546 131.91 0.10837 9.0126 0.11096 524.13 569.72 2.3777 1.4022 1.6985 221.68 0.32461 7.2837 0.015226
-3.6250 61.505 0.0074885 192.70 193.83 0.97767 533.45 0.0018746 190.19 190.98 0.96711 1.5593 2.4667 909.30 -0.0029800 130.56 0.10785 9.2896 0.10765 525.19 570.84 2.3765 1.4076 1.7070 221.62 0.32207 7.3115 0.015336
-2.6250 63.461 0.0076760 195.20 196.37 0.98694 532.12 0.0018793 192.64 193.46 0.97620 1.5627 2.4739 902.73 -0.0029041 129.23 0.10733 9.5733 0.10446 526.25 571.96 2.3753 1.4131 1.7156 221.54 0.31958 7.3394 0.015447
-1.6250 65.462 0.0078661 197.71 198.91 0.99620 530.78 0.0018840 195.10 195.95 0.98527 1.5662 2.4811 896.16 -0.0028267 127.91 0.10681 9.8638 0.10138 527.31 573.07 2.3742 1.4185 1.7243 221.45 0.31715 7.3674 0.015559
-0.62500 67.510 0.0080587 200.23 201.47 1.0054 529.44 0.0018888 197.56 198.44 0.99434 1.5696 2.4885 889.58 -0.0027478 126.61 0.10629 10.161 0.098414 528.37 574.18 2.3731 1.4240 1.7331 221.36 0.31476 7.3956 0.015671
0.37500 69.606 0.0082538 202.75 204.03 1.0147 528.09 0.0018936 200.03 200.94 1.0034 1.5731 2.4960 883.00 -0.0026675 125.32 0.10578 10.466 0.095552 529.42 575.28 2.3720 1.4295 1.7421 221.26 0.31242 7.4239 0.015785
1.3750 71.749 0.0084514 205.28 206.60 1.0239 526.73 0.0018985 202.51 203.45 1.0124 1.5767 2.5035 876.42 -0.0025856 124.04 0.10527 10.777 0.092790 530.48 576.38 2.3709 1.4350 1.7512 221.14 0.31013 7.4523 0.015899
2.3750 73.941 0.0086514 207.82 209.18 1.0331 525.37 0.0019034 204.99 205.96 1.0215 1.5802 2.5112 869.83 -0.0025022 122.78 0.10476 11.096 0.090123 531.53 577.47 2.3699 1.4406 1.7604 221.02 0.30789 7.4808 0.016015
3.3750 76.183 0.0088539 210.36 211.76 1.0424 523.99 0.0019084 207.48 208.48 1.0305 1.5838 2.5190 863.24 -0.0024171 121.53 0.10425 11.422 0.087549 532.58 578.56 2.3688 1.4462 1.7697 220.89 0.30569 7.5095 0.016131
4.3750 78.475 0.0090586 212.91 214.35 1.0516 522.62 0.0019134 209.98 211.01 1.0395 1.5874 2.5268 856.64 -0.0023303 120.29 0.10374 11.756 0.085062 533.63 579.65 2.3678 1.4518 1.7792 220.75 0.30354 7.5384 0.016249
5.3750 80.817 0.0092657 215.47 216.95 1.0608 521.23 0.0019185 212.48 213.55 1.0486 1.5910 2.5348 850.04 -0.0022417 119.06 0.10324 12.098 0.082660 534.67 580.73 2.3669 1.4575 1.7888 220.60 0.30144 7.5674 0.016368
6.3750 83.211 0.0094750 218.03 219.56 1.0700 519.84 0.0019237 215.00 216.10 1.0576 1.5946 2.5429 843.43 -0.0021514 117.85 0.10273 12.447 0.080340 535.72 581.81 2.3659 1.4632 1.7986 220.44 0.29938 7.5966 0.016487
7.3750 85.657 0.0096865 220.61 222.18 1.0792 518.44 0.0019289 217.51 218.65 1.0666 1.5983 2.5511 836.82 -0.0020593 116.65 0.10223 12.805 0.078096 536.76 582.88 2.3650 1.4689 1.8085 220.27 0.29736 7.6259 0.016608
8.3750 88.156 0.0099002 223.19 224.81 1.0883 517.03 0.0019341 220.04 221.22 1.0756 1.6020 2.5595 830.20 -0.0019652 115.46 0.10173 13.170 0.075928 537.80 583.95 2.3640 1.4746 1.8186 220.08 0.29538 7.6555 0.016730
9.3750 90.708 0.010116 225.77 227.44 1.0975 515.62 0.0019394 222.57 223.79 1.0846 1.6057 2.5679 823.58 -0.0018691 114.28 0.10124 13.545 0.073830 538.84 585.01 2.3631 1.4804 1.8288 219.89 0.29345 7.6852 0.016853
10.375 93.315 0.010334 228.37 230.08 1.1067 514.19 0.0019448 225.11 226.37 1.0936 1.6095 2.5765 816.96 -0.0017710 113.11 0.10074 13.927 0.071802 539.87 586.07 2.3622 1.4863 1.8392 219.69 0.29156 7.7151 0.016978
11.375 95.977 0.010553 230.97 232.73 1.1158 512.76 0.0019502 227.66 228.95 1.1025 1.6132 2.5852 810.32 -0.0016708 111.95 0.10025 14.319 0.069840 540.90 587.12 2.3614 1.4921 1.8498 219.48 0.28971 7.7452 0.017103
12.375 98.694 0.010774 233.58 235.39 1.1250 511.32 0.0019557 230.22 231.55 1.1115 1.6170 2.5940 803.68 -0.0015685 110.80 0.099756 14.719 0.067941 541.93 588.17 2.3605 1.4980 1.8605 219.26 0.28790 7.7756 0.017230
13.375 101.47 0.010998 236.19 238.06 1.1341 509.87 0.0019613 232.78 234.15 1.1205 1.6208 2.6030 797.04 -0.0014639 109.67 0.099267 15.128 0.066103 542.96 589.21 2.3597 1.5040 1.8715 219.03 0.28612 7.8061 0.017359
14.375 104.30 0.011222 238.82 240.73 1.1433 508.42 0.0019669 235.35 236.77 1.1295 1.6247 2.6121 790.39 -0.0013569 108.54 0.098779 15.547 0.064323 543.99 590.24 2.3588 1.5099 1.8826 218.79 0.28439 7.8369 0.017488
15.375 107.19 0.011449 241.45 243.42 1.1524 506.95 0.0019726 237.93 239.39 1.1384 1.6286 2.6214 783.73 -0.0012476 107.43 0.098294 15.974 0.062600 545.01 591.27 2.3580 1.5159 1.8940 218.53 0.28270 7.8680 0.017619
16.375 110.13 0.011676 244.08 246.11 1.1615 505.48 0.0019783 240.52 242.02 1.1474 1.6324 2.6308 777.07 -0.0011357 106.32 0.097810 16.412 0.060931 546.03 592.29 2.3572 1.5220 1.9055 218.27 0.28104 7.8993 0.017752
17.375 113.14 0.011905 246.73 248.81 1.1707 504.00 0.0019841 243.11 244.66 1.1564 1.6364 2.6403 770.40 -0.0010213 105.22 0.097328 16.859 0.059314 547.04 593.31 2.3564 1.5281 1.9172 217.99 0.27942 7.9308 0.017886
18.375 116.21 0.012135 249.38 251.52 1.1798 502.50 0.0019900 245.72 247.31 1.1653 1.6403 2.6501 763.72 -0.00090422 104.14 0.096848 17.317 0.057747 548.05 594.32 2.3557 1.5342 1.9292 217.71 0.27783 7.9626 0.018021
19.375 119.33 0.012366 252.05 254.24 1.1889 501.00 0.0019960 248.33 249.97 1.1743 1.6443 2.6599 757.04 -0.00078435 103.06 0.096371 17.785 0.056228 549.06 595.33 2.3549 1.5404 1.9414 217.41 0.27628 7.9947 0.018159
20.375 122.52 0.012599 254.71 256.97 1.1980 499.49 0.0020020 250.95 252.64 1.1832 1.6483 2.6700 750.35 -0.00066161 101.99 0.095895 18.263 0.054756 550.07 596.32 2.3541 1.5466 1.9538 217.10 0.27477 8.0272 0.018297
21.375 125.77 0.012831 257.39 259.70 1.2071 497.97 0.0020082 253.57 255.32 1.1922 1.6523 2.6802 743.64 -0.00053589 100.93 0.095420 18.752 0.053328 551.07 597.31 2.3534 1.5528 1.9665 216.78 0.27329 8.0599 0.018438
22.375 129.08 0.013065 260.08 262.45 1.2162 496.43 0.0020144 256.21 258.00 1.2012 1.6563 2.6906 736.94 -0.00040708 99.877 0.094948 19.252 0.051943 552.07 598.30 2.3526 1.5591 1.9795 216.45 0.27184 8.0929 0.018580
23.375 132.46 0.013298 262.77 265.20 1.2253 494.89 0.0020206 258.86 260.70 1.2101 1.6604 2.7012 730.22 -0.00027505 98.834 0.094478 19.763 0.050600 553.06 599.27 2.3519 1.5655 1.9927 216.11 0.27043 8.1263 0.018724
24.375 135.90 0.013532 265.47 267.97 1.2344 493.34 0.0020270 261.51 263.41 1.2191 1.6645 2.7120 723.49 -0.00013968 97.800 0.094009 20.285 0.049297 554.05 600.24 2.3512 1.5718 2.0061 215.75 0.26906 8.1600 0.018870
25.375 139.41 0.013766 268.18 270.74 1.2435 491.77 0.0020335 264.17 266.13 1.2280 1.6686 2.7230 716.76 -8.3775e-07 96.773 0.093543 20.820 0.048032 555.03 601.20 2.3504 1.5783 2.0199 215.39 0.26771 8.1941 0.019017
26.375 142.98 0.014000 270.89 273.52 1.2525 490.20 0.0020400 266.84 268.85 1.2370 1.6728 2.7342 710.01 0.00014161 95.755 0.093078 21.366 0.046804 556.01 602.15 2.3497 1.5847 2.0340 215.01 0.26640 8.2286 0.019167
27.375 146.62 0.014233 273.62 276.31 1.2616 488.61 0.0020466 269.52 271.59 1.2459 1.6770 2.7456 703.26 0.00028782 94.745 0.092615 21.924 0.045612 556.99 603.10 2.3490 1.5913 2.0484 214.62 0.26512 8.2634 0.019319
28.375 150.33 0.014465 276.35 279.11 1.2707 487.01 0.0020533 272.21 274.34 1.2549 1.6812 2.7573 696.49 0.00043793 93.742 0.092154 22.495 0.044454 557.96 604.03 2.3483 1.5978 2.0631 214.21 0.26387 8.2987 0.019472
29.375 154.10 0.014697 279.09 281.92 1.2798 485.40 0.0020601 274.91 277.10 1.2638 1.6854 2.7691 689.72 0.00059212 92.747 0.091695 23.079 0.043329 558.92 604.96 2.3476 1.6044 2.0781 213.80 0.26265 8.3344 0.019628
30.375 157.94 0.014927 281.84 284.74 1.2888 483.78 0.0020671 277.62 279.87 1.2728 1.6897 2.7813 682.93 0.00075055 91.760 0.091238 23.676 0.042237 559.88 605.88 2.3469 1.6111 2.0935 213.37 0.26147 8.3705 0.019786
31.375 161.86 0.015156 284.59 287.57 1.2979 482.15 0.0020741 280.34 282.66 1.2818 1.6939 2.7936 676.13 0.00091340 90.779 0.090782 24.287 0.041175 560.84 606.79 2.3462 1.6178 2.1092 212.93 0.26031 8.4071 0.019947
32.375 165.84 0.015383 287.36 290.41 1.3070 480.50 0.0020812 283.07 285.45 1.2908 1.6983 2.8063 669.32 0.0010809 89.806 0.090328 24.911 0.040143 561.79 607.69 2.3455 1.6246 2.1254 212.48 0.25919 8.4442 0.020110
33.375 169.90 0.015607 290.13 293.25 1.3160 478.83 0.0020884 285.81 288.26 1.2997 1.7026 2.8192 662.50 0.0012532 88.840 0.089876 25.549 0.039140 562.73 608.58 2.3448 1.6314 2.1419 212.01 0.25809 8.4818 0.020275
34.375 174.02 0.015829 292.91 296.11 1.3251 477.16 0.0020957 288.56 291.07 1.3087 1.7070 2.8324 655.67 0.0014305 87.880 0.089426 26.202 0.038164 563.67 609.46 2.3440 1.6383 2.1589 211.53 0.25702 8.5199 0.020443
35.375 178.22 0.016048 295.70 298.98 1.3342 475.47 0.0021032 291.32 293.90 1.3177 1.7114 2.8459 648.82 0.0016131 86.927 0.088977 26.870 0.037216 564.60 610.33 2.3433 1.6452 2.1763 211.04 0.25599 8.5586 0.020613
36.375 182.50 0.016263 298.50 301.86 1.3432 473.77 0.0021107 294.09 296.74 1.3267 1.7158 2.8597 641.96 0.0018012 85.980 0.088531 27.553 0.036293 565.52 611.19 2.3426 1.6522 2.1942 210.53 0.25498 8.5978 0.020786
37.375 186.84 0.016475 301.31 304.74 1.3523 472.05 0.0021184 296.87 299.60 1.3357 1.7203 2.8739 635.08 0.0019950 85.040 0.088085 28.252 0.035395 566.44 612.04 2.3419 1.6592 2.2125 210.01 0.25400 8.6376 0.020962
38.375 191.27 0.016682 304.12 307.64 1.3613 470.31 0.0021262 299.66 302.46 1.3447 1.7248 2.8884 628.19 0.0021949 84.105 0.087642 28.967 0.034522 567.35 612.88 2.3411 1.6663 2.2314 209.47 0.25305 8.6780 0.021141
39.375 195.77 0.016884 306.95 310.55 1.3704 468.56 0.0021342 302.46 305.34 1.3537 1.7293 2.9033 621.29 0.0024011 83.177 0.087200 29.699 0.033671 568.26 613.70 2.3404 1.6734 2.2508 208.92 0.25213 8.7190 0.021323
40.375 200.34 0.017081 309.78 313.47 1.3794 466.80 0.0021423 305.27 308.23 1.3627 1.7339 2.9185 614.37 0.0026140 82.254 0.086760 30.447 0.032844 569.15 614.52 2.3396 1.6806 2.2708 208.36 0.25123 8.7608 0.021508
41.375 205.00 0.017272 312.62 316.39 1.3885 465.01 0.0021505 308.10 311.14 1.3718 1.7385 2.9342 607.43 0.0028338 81.338 0.086322 31.214 0.032037 570.04 615.32 2.3389 1.6879 2.2913 207.78 0.25037 8.8032 0.021696
42.375 209.73 0.017455 315.48 319.33 1.3975 463.21 0.0021588 310.94 314.06 1.3808 1.7432 2.9502 600.47 0.0030609 80.426 0.085885 31.998 0.031252 570.92 616.11 2.3381 1.6952 2.3125 207.19 0.24953 8.8463 0.021888
43.375 214.54 0.017632 318.34 322.28 1.4066 461.40 0.0021673 313.79 316.99 1.3899 1.7478 2.9667 593.50 0.0032957 79.520 0.085449 32.800 0.030488 571.79 616.88 2.3373 1.7027 2.3344 206.58 0.24871 8.8902 0.022084
44.375 219.43 0.017800 321.20 325.24 1.4156 459.56 0.0021760 316.65 319.94 1.3989 1.7525 2.9837 586.51 0.0035386 78.619 0.085015 33.622 0.029742 572.65 617.65 2.3365 1.7101 2.3569 205.96 0.24793 8.9349 0.022283
45.375 224.41 0.017959 324.08 328.21 1.4247 457.71 0.0021848 319.52 322.90 1.4080 1.7573 3.0012 579.50 0.0037900 77.723 0.084583 34.463 0.029016 573.50 618.40 2.3357 1.7177 2.3802 205.32 0.24717 8.9805 0.022485
46.375 229.46 0.018108 326.97 331.19 1.4337 455.83 0.0021938 322.41 325.88 1.4171 1.7621 3.0192 572.46 0.0040504 76.832 0.084152 35.325 0.028308 574.34 619.13 2.3349 1.7253 2.4042 204.67 0.24644 9.0269 0.022692
47.375 234.60 0.018246 329.87 334.18 1.4428 453.94 0.0022029 325.31 328.87 1.4262 1.7669 3.0377 565.41 0.0043202 75.946 0.083723 36.208 0.027618 575.17 619.85 2.3340 1.7329 2.4291 204.00 0.24573 9.0742 0.022903
48.375 239.83 0.018372 332.77 337.18 1.4518 452.03 0.0022123 328.22 331.88 1.4353 1.7718 3.0569 558.34 0.0046000 75.064 0.083295 37.112 0.026945 576.00 620.55 2.3332 1.7407 2.4548 203.31 0.24505 9.1224 0.023119
49.375 245.13 0.018485 335.69 340.20 1.4609 450.09 0.0022218 331.15 334.90 1.4445 1.7767 3.0766 551.24 0.0048904 74.186 0.082868 38.039 0.026289 576.81 621.24 2.3323 1.7485 2.4815 202.61 0.24440 9.1716 0.023339
50.375 250.53 0.018584 338.61 343.22 1.4699 448.13 0.0022315 334.09 337.94 1.4536 1.7817 3.0970 544.13 0.0051920 73.313 0.082442 38.989 0.025648 577.61 621.91 2.3314 1.7564 2.5092 201.89 0.24377 9.2219 0.023564
51.375 256.01 0.018667 341.55 346.26 1.4790 446.15 0.0022414 337.04 341.00 1.4628 1.7867 3.1181 536.98 0.0055054 72.443 0.082018 39.962 0.025024 578.39 622.56 2.3304 1.7644 2.5379 201.16 0.24317 9.2733 0.023794
52.375 261.57 0.018733 344.49 349.30 1.4881 444.15 0.0022515 340.01 344.07 1.4720 1.7918 3.1400 529.82 0.0058313 71.577 0.081595 40.961 0.024414 579.17 623.20 2.3295 1.7724 2.5677 200.41 0.24260 9.3258 0.024029
53.375 267.23 0.018780 347.45 352.36 1.4971 442.12 0.0022618 343.00 347.17 1.4812 1.7969 3.1627 522.62 0.0061705 70.715 0.081174 41.985 0.023818 579.93 623.81 2.3285 1.7805 2.5987 199.63 0.24205 9.3795 0.024270
54.375 272.97 0.018806 350.41 355.43 1.5062 440.06 0.0022724 346.00 350.28 1.4904 1.8021 3.1862 515.40 0.0065239 69.856 0.080753 43.036 0.023237 580.68 624.41 2.3274 1.7887 2.6310 198.85 0.24154 9.4344 0.024516
55.375 278.81 0.018810 353.39 358.51 1.5153 437.98 0.0022832 349.02 353.40 1.4997 1.8073 3.2106 508.15 0.0068923 69.001 0.080334 44.114 0.022669 581.41 624.99 2.3264 1.7969 2.6646 198.04 0.24105 9.4907 0.024769
56.375 284.74 0.018790 356.37 361.61 1.5243 435.87 0.0022943 352.05 356.55 1.5090 1.8126 3.2360 500.87 0.0072767 68.148 0.079915 45.221 0.022114 582.13 625.54 2.3253 1.8052 2.6998 197.22 0.24059 9.5484 0.025028
57.375 290.76 0.018743 359.37 364.71 1.5334 433.73 0.0023056 355.10 359.72 1.5183 1.8179 3.2624 493.56 0.0076782 67.299 0.079498 46.358 0.021571 582.83 626.07 2.3241 1.8136 2.7365 196.37 0.24016 9.6075 0.025294
58.375 296.87 0.018666 362.37 367.83 1.5425 431.56 0.0023172 358.17 362.91 1.5276 1.8233 3.2900 486.22 0.0080980 66.451 0.079082 47.525 0.021041 583.52 626.58 2.3230 1.8220 2.7749 195.51 0.23976 9.6682 0.025568
59.375 303.08 0.018558 365.39 370.96 1.5516 429.36 0.0023290 361.25 366.12 1.5370 1.8288 3.3188 478.84 0.0085373 65.606 0.078666 48.726 0.020523 584.18 627.07 2.3218 1.8305 2.8152 194.63 0.23939 9.7305 0.025849
60.375 309.38 0.018414 368.42 374.10 1.5607 427.13 0.0023412 364.36 369.35 1.5464 1.8343 3.3489 471.43 0.0089976 64.763 0.078251 49.960 0.020016 584.83 627.53 2.3205 1.8391 2.8576 193.73 0.23905 9.7945 0.026138
61.375 315.78 0.018232 371.45 377.26 1.5697 424.87 0.0023537 367.48 372.60 1.5558 1.8400 3.3805 463.99 0.0094803 63.922 0.077838 51.229 0.019520 585.46 627.96 2.3192 1.8479 2.9022 192.82 0.23873 9.8603 0.026436
62.375 322.28 0.018008 374.50 380.43 1.5789 422.56 0.0023665 370.62 375.88 1.5653 1.8457 3.4136 456.50 0.0099871 63.083 0.077425 52.535 0.019035 586.07 628.37 2.3178 1.8567 2.9492 191.88 0.23845 9.9281 0.026744
63.375 328.88 0.017737 377.56 383.61 1.5880 420.22 0.0023797 373.79 379.18 1.5748 1.8514 3.4483 448.97 0.010520 62.244 0.077012 53.879 0.018560 586.66 628.74 2.3164 1.8656 2.9989 190.92 0.23819 9.9979 0.027061
64.375 335.58 0.017415 380.63 386.80 1.5971 417.85 0.0023932 376.97 382.51 1.5844 1.8573 3.4850 441.40 0.011081 61.407 0.076600 55.265 0.018095 587.22 629.09 2.3149 1.8747 3.0517 189.95 0.23796 10.070 0.027389
65.375 342.38 0.017036 383.72 390.01 1.6062 415.42 0.0024072 380.18 385.86 1.5939 1.8633 3.5236 433.79 0.011672 60.570 0.076189 56.692 0.017639 587.76 629.40 2.3133 1.8839 3.1077 188.95 0.23775 10.144 0.027729
66.375 349.28 0.016595 386.81 393.24 1.6153 412.96 0.0024215 383.41 389.25 1.6036 1.8693 3.5645 426.12 0.012296 59.733 0.075779 58.165 0.017193 588.28 629.68 2.3117 1.8933 3.1674 187.93 0.23757 10.221 0.028080
67.375 356.28 0.016085 389.92 396.47 1.6245 410.45 0.0024363 386.67 392.65 1.6133 1.8755 3.6078 418.41 0.012956 58.897 0.075368 59.684 0.016755 588.76 629.92 2.3100 1.9030 3.2311 186.89 0.23740 10.300 0.028446
68.375 363.40 0.015499 393.04 399.72 1.6336 407.89 0.0024516 389.95 396.09 1.6230 1.8818 3.6537 410.64 0.013655 58.059 0.074959 61.253 0.016326 589.22 630.13 2.3082 1.9129 3.2994 185.83 0.23724 10.382 0.028825
69.375 370.61 0.014828 396.17 402.99 1.6428 405.28 0.0024674 393.26 399.57 1.6328 1.8882 3.7027 402.81 0.014396 57.221 0.074549 62.875 0.015905 589.65 630.29 2.3064 1.9231 3.3727 184.74 0.23710 10.467 0.029221
70.375 377.94 0.014062 399.32 406.27 1.6519 402.62 0.0024838 396.60 403.07 1.6426 1.8947 3.7550 394.92 0.015183 56.381 0.074141 64.552 0.015491 590.04 630.41 2.3044 1.9336 3.4518 183.63 0.23697 10.555 0.029633
71.375 385.37 0.013190 402.48 409.56 1.6611 399.89 0.0025007 399.96 406.61 1.6525 1.9014 3.8109 386.97 0.016021 55.540 0.073732 66.288 0.015086 590.40 630.49 2.3024 1.9444 3.5371 182.50 0.23684 10.647 0.030064
72.375 392.92 0.012200 405.65 412.87 1.6703 397.11 0.0025182 403.36 410.18 1.6625 1.9083 3.8711 378.95 0.016915 54.696 0.073324 68.087 0.014687 590.73 630.51 2.3002 1.9556 3.6297 181.34 0.23671 10.743 0.030515
73.375 400.57 0.011077 408.83 416.20 1.6795 394.26 0.0025364 406.79 413.80 1.6726 1.9153 3.9359 370.85 0.017871 53.848 0.072917 69.953 0.014295 591.01 630.49 2.2979 1.9673 3.7303 180.16 0.23658 10.842 0.030989
74.375 408.34 0.0098039 412.03 419.54 1.6887 391.34 0.0025553 410.26 417.45 1.6827 1.9226 4.0060 362.67 0.018894 52.997 0.072510 71.890 0.013910 591.25 630.41 2.2955 1.9793 3.8401 178.95 0.23643 10.946 0.031488
75.375 416.23 0.0083603 415.25 422.90 1.6980 388.34 0.0025751 413.76 421.15 1.6930 1.9301 4.0822 354.41 0.019993 52.142 0.072104 73.904 0.013531 591.44 630.27 2.2930 1.9919 3.9604 177.71 0.23627 11.054 0.032014
76.375 424.23 0.0067231 418.48 426.28 1.7072 385.26 0.0025957 417.31 424.90 1.7033 1.9378 4.1654 346.06 0.021177 51.281 0.071699 76.001 0.013158 591.59 630.07 2.2903 2.0050 4.0927 176.44 0.23609 11.168 0.032570
77.375 432.35 0.0048645 421.72 429.67 1.7165 382.09 0.0026172 420.89 428.70 1.7137 1.9459 4.2565 337.60 0.022455 50.414 0.071295 78.187 0.012790 591.68 629.80 2.2874 2.0186 4.2389 175.15 0.23588 11.287 0.033161
78.375 440.59 0.0027515 424.99 433.09 1.7258 378.83 0.0026397 424.53 432.54 1.7243 1.9543 4.3570 329.05 0.023838 49.539 0.070893 80.469 0.012427 591.71 629.46 2.2844 2.0328 4.4012 173.82 0.23563 11.412 0.033789
79.375 448.95 0.00034431 428.26 436.52 1.7351 375.46 0.0026634 428.21 436.45 1.7349 1.9631 4.4684 320.38 0.025341 48.657 0.070494 82.856 0.012069 591.68 629.04 2.2812 2.0475 4.5824 172.46 0.23535 11.544 0.034461
80.375 476.76 undefined 430.41 439.17 1.7412 375.00 0.0026667 430.41 439.17 1.7412 1.9648 4.4181 322.75 0.024921 48.560 0.070476 375.00 0.0026667 430.41 439.17 1.7412 1.9648 4.4181 322.75 0.024921 48.560 0.070476
81.375 507.67 undefined 432.37 441.70 1.7467 375.00 0.0026667 432.37 441.70 1.7467 1.9655 4.3480 326.72 0.024233 48.586 0.070520 375.00 0.0026667 432.37 441.70 1.7467 1.9655 4.3480 326.72 0.024233 48.586 0.070520
82.375 538.70 undefined 434.34 444.24 1.7523 375.00 0.0026667 434.34 444.24 1.7523 1.9663 4.2836 330.59 0.023583 48.611 0.070568 375.00 0.0026667 434.34 444.24 1.7523 1.9663 4.2836 330.59 0.023583 48.611 0.070568
83.375 569.87 undefined 436.30 446.78 1.7578 375.00 0.0026667 436.30 446.78 1.7578 1.9673 4.2242 334.35 0.022965 48.636 0.070620 375.00 0.0026667 436.30 446.78 1.7578 1.9673 4.2242 334.35 0.022965 48.636 0.070620
84.375 601.15 undefined 438.27 449.32 1.7633 375.00 0.0026667 438.27 449.32 1.7633 1.9684 4.1692 338.02 0.022379 48.661 0.070676 375.00 0.0026667 438.27 449.32 1.7633 1.9684 4.1692 338.02 0.022379 48.661 0.070676
85.375 632.55 undefined 440.24 451.87 1.7688 375.00 0.0026667 440.24 451.87 1.7688 1.9696 4.1181 341.59 0.021820 48.686 0.070734 375.00 0.0026667 440.24 451.87 1.7688 1.9696 4.1181 341.59 0.021820 48.686 0.070734
86.375 664.06 undefined 442.21 454.42 1.7743 375.00 0.0026667 442.21 454.42 1.7743 1.9710 4.0704 345.07 0.021287 48.712 0.070796 375.00 0.0026667 442.21 454.42 1.7743 1.9710 4.0704 345.07 0.021287 48.712 0.070796
87.375 695.67 undefined 444.18 456.97 1.7798 375.00 0.0026667 444.18 456.97 1.7798 1.9725 4.0258 348.47 0.020777 48.737 0.070859 375.00 0.0026667 444.18 456.97 1.7798 1.9725 4.0258 348.47 0.020777 48.737 0.070859
88.375 727.38 undefined 446.15 459.53 1.7852 375.00 0.0026667 446.15 459.53 1.7852 1.9741 3.9840 351.79 0.020288 48.762 0.070925 375.00 0.0026667 446.15 459.53 1.7852 1.9741 3.9840 351.79 0.020288 48.762 0.070925
89.375 759.18 undefined 448.13 462.09 1.7907 375.00 0.0026667 448.13 462.09 1.7907 1.9758 3.9447 355.04 0.019819 48.787 0.070993 375.00 0.0026667 448.13 462.09 1.7907 1.9758 3.9447 355.04 0.019819 48.787 0.070993
90.375 791.07 undefined 450.11 464.65 1.7961 375.00 0.0026667 450.11 464.65 1.7961 1.9776 3.9077 358.22 0.019369 48.812 0.071063 375.00 0.0026667 450.11 464.65 1.7961 1.9776 3.9077 358.22 0.019369 48.812 0.071063
91.375 823.05 undefined 452.09 467.22 1.8016 375.00 0.0026667 452.09 467.22 1.8016 1.9796 3.8728 361.33 0.018935 48.837 0.071135 375.00 0.0026667 452.09 467.22 1.8016 1.9796 3.8728 361.33 0.018935 48.837 0.071135
92.375 855.11 undefined 454.07 469.79 1.8070 375.00 0.0026667 454.07 469.79 1.8070 1.9816 3.8398 364.38 0.018517 48.863 0.071209 375.00 0.0026667 454.07 469.79 1.8070 1.9816 3.8398 364.38 0.018517 48.863 0.071209
93.375 887.25 undefined 456.05 472.36 1.8124 375.00 0.0026667 456.05 472.36 1.8124 1.9838 3.8086 367.37 0.018114 48.888 0.071284 375.00 0.0026667 456.05 472.36 1.8124 1.9838 3.8086 367.37 0.018114 48.888 0.071284
94.375 919.46 undefined 458.03 474.94 1.8178 375.00 0.0026667 458.03 474.94 1.8178 1.9860 3.7790 370.31 0.017725 48.913 0.071361 375.00 0.0026667 458.03 474.94 1.8178 1.9860 3.7790 370.31 0.017725 48.913 0.071361
95.375 951.75 undefined 460.02 477.52 1.8232 375.00 0.0026667 460.02 477.52 1.8232 1.9883 3.7509 373.19 0.017348 48.938 0.071439 375.00 0.0026667 460.02 477.52 1.8232 1.9883 3.7509 373.19 0.017348 48.938 0.071439
96.375 984.10 undefined 462.01 480.10 1.8286 375.00 0.0026667 462.01 480.10 1.8286 1.9908 3.7243 376.02 0.016984 48.963 0.071518 375.00 0.0026667 462.01 480.10 1.8286 1.9908 3.7243 376.02 0.016984 48.963 0.071518
97.375 1016.5 undefined 464.00 482.69 1.8340 375.00 0.0026667 464.00 482.69 1.8340 1.9933 3.6989 378.81 0.016631 48.988 0.071599 375.00 0.0026667 464.00 482.69 1.8340 1.9933 3.6989 378.81 0.016631 48.988 0.071599
98.375 1049.0 undefined 466.00 485.28 1.8394 375.00 0.0026667 466.00 485.28 1.8394 1.9958 3.6747 381.55 0.016289 49.013 0.071680 375.00 0.0026667 466.00 485.28 1.8394 1.9958 3.6747 381.55 0.016289 49.013 0.071680
99.375 1081.5 undefined 467.99 487.88 1.8447 375.00 0.0026667 467.99 487.88 1.8447 1.9985 3.6517 384.25 0.015958 49.038 0.071763 375.00 0.0026667 467.99 487.88 1.8447 1.9985 3.6517 384.25 0.015958 49.038 0.071763
100.38 1114.1 undefined 469.99 490.48 1.8501 375.00 0.0026667 469.99 490.48 1.8501 2.0012 3.6297 386.90 0.015635 49.063 0.071847 375.00 0.0026667 469.99 490.48 1.8501 2.0012 3.6297 386.90 0.015635 49.063 0.071847
101.38 1146.8 undefined 472.00 493.08 1.8554 375.00 0.0026667 472.00 493.08 1.8554 2.0040 3.6087 389.52 0.015323 49.089 0.071932 375.00 0.0026667 472.00 493.08 1.8554 2.0040 3.6087 389.52 0.015323 49.089 0.071932
102.38 1179.5 undefined 474.00 495.69 1.8608 375.00 0.0026667 474.00 495.69 1.8608 2.0068 3.5887 392.11 0.015019 49.114 0.072018 375.00 0.0026667 474.00 495.69 1.8608 2.0068 3.5887 392.11 0.015019 49.114 0.072018
103.38 1212.3 undefined 476.01 498.30 1.8661 375.00 0.0026667 476.01 498.30 1.8661 2.0097 3.5695 394.65 0.014723 49.139 0.072105 375.00 0.0026667 476.01 498.30 1.8661 2.0097 3.5695 394.65 0.014723 49.139 0.072105
104.38 1245.1 undefined 478.02 500.91 1.8715 375.00 0.0026667 478.02 500.91 1.8715 2.0126 3.5511 397.17 0.014435 49.164 0.072193 375.00 0.0026667 478.02 500.91 1.8715 2.0126 3.5511 397.17 0.014435 49.164 0.072193
105.38 1277.9 undefined 480.03 503.53 1.8768 375.00 0.0026667 480.03 503.53 1.8768 2.0156 3.5336 399.65 0.014155 49.189 0.072281 375.00 0.0026667 480.03 503.53 1.8768 2.0156 3.5336 399.65 0.014155 49.189 0.072281
106.38 1310.8 undefined 482.05 506.15 1.8821 375.00 0.0026667 482.05 506.15 1.8821 2.0186 3.5168 402.10 0.013882 49.214 0.072371 375.00 0.0026667 482.05 506.15 1.8821 2.0186 3.5168 402.10 0.013882 49.214 0.072371
107.38 1343.8 undefined 484.07 508.78 1.8874 375.00 0.0026667 484.07 508.78 1.8874 2.0217 3.5007 404.53 0.013616 49.239 0.072461 375.00 0.0026667 484.07 508.78 1.8874 2.0217 3.5007 404.53 0.013616 49.239 0.072461
108.38 1376.7 undefined 486.10 511.41 1.8927 375.00 0.0026667 486.10 511.41 1.8927 2.0248 3.4852 406.92 0.013357 49.264 0.072552 375.00 0.0026667 486.10 511.41 1.8927 2.0248 3.4852 406.92 0.013357 49.264 0.072552
109.38 1409.8 undefined 488.12 514.04 1.8980 375.00 0.0026667 488.12 514.04 1.8980 2.0280 3.4704 409.29 0.013104 49.289 0.072644 375.00 0.0026667 488.12 514.04 1.8980 2.0280 3.4704 409.29 0.013104 49.289 0.072644
110.38 1442.8 undefined 490.15 516.68 1.9033 375.00 0.0026667 490.15 516.68 1.9033 2.0312 3.4561 411.63 0.012857 49.314 0.072736 375.00 0.0026667 490.15 516.68 1.9033 2.0312 3.4561 411.63 0.012857 49.314 0.072736
111.38 1475.9 undefined 492.18 519.32 1.9086 375.00 0.0026667 492.18 519.32 1.9086 2.0344 3.4425 413.94 0.012617 49.339 0.072829 375.00 0.0026667 492.18 519.32 1.9086 2.0344 3.4425 413.94 0.012617 49.339 0.072829
112.38 1509.1 undefined 494.22 521.97 1.9139 375.00 0.0026667 494.22 521.97 1.9139 2.0376 3.4294 416.23 0.012382 49.364 0.072923 375.00 0.0026667 494.22 521.97 1.9139 2.0376 3.4294 416.23 0.012382 49.364 0.072923
113.38 1542.2 undefined 496.26 524.61 1.9192 375.00 0.0026667 496.26 524.61 1.9192 2.0409 3.4167 418.50 0.012152 49.389 0.073017 375.00 0.0026667 496.26 524.61 1.9192 2.0409 3.4167 418.50 0.012152 49.389 0.073017
114.38 1575.4 undefined 498.30 527.27 1.9245 375.00 0.0026667 498.30 527.27 1.9245 2.0442 3.4046 420.74 0.011928 49.414 0.073113 375.00 0.0026667 498.30 527.27 1.9245 2.0442 3.4046 420.74 0.011928 49.414 0.073113
115.38 1608.7 undefined 500.35 529.93 1.9298 375.00 0.0026667 500.35 529.93 1.9298 2.0476 3.3930 422.96 0.011708 49.439 0.073208 375.00 0.0026667 500.35 529.93 1.9298 2.0476 3.3930 422.96 0.011708 49.439 0.073208
116.38 1642.0 undefined 502.40 532.59 1.9350 375.00 0.0026667 502.40 532.59 1.9350 2.0510 3.3817 425.16 0.011494 49.464 0.073305 375.00 0.0026667 502.40 532.59 1.9350 2.0510 3.3817 425.16 0.011494 49.464 0.073305
117.38 1675.3 undefined 504.45 535.25 1.9403 375.00 0.0026667 504.45 535.25 1.9403 2.0543 3.3710 427.34 0.011284 49.489 0.073402 375.00 0.0026667 504.45 535.25 1.9403 2.0543 3.3710 427.34 0.011284 49.489 0.073402
118.38 1708.6 undefined 506.51 537.92 1.9456 375.00 0.0026667 506.51 537.92 1.9456 2.0578 3.3606 429.50 0.011079 49.514 0.073499 375.00 0.0026667 506.51 537.92 1.9456 2.0578 3.3606 429.50 0.011079 49.514 0.073499
119.38 1741.9 undefined 508.57 540.59 1.9508 375.00 0.0026667 508.57 540.59 1.9508 2.0612 3.3506 431.64 0.010879 49.539 0.073597 375.00 0.0026667 508.57 540.59 1.9508 2.0612 3.3506 431.64 0.010879 49.539 0.073597
120.38 1775.3 undefined 510.63 543.27 1.9561 375.00 0.0026667 510.63 543.27 1.9561 2.0647 3.3410 433.76 0.010682 49.563 0.073696 375.00 0.0026667 510.63 543.27 1.9561 2.0647 3.3410 433.76 0.010682 49.563 0.073696
121.38 1808.7 undefined 512.69 545.95 1.9613 375.00 0.0026667 512.69 545.95 1.9613 2.0681 3.3317 435.87 0.010490 49.588 0.073795 375.00 0.0026667 512.69 545.95 1.9613 2.0681 3.3317 435.87 0.010490 49.588 0.073795
122.38 1842.2 undefined 514.76 548.63 1.9665 375.00 0.0026667 514.76 548.63 1.9665 2.0716 3.3228 437.95 0.010301 49.613 0.073895 375.00 0.0026667 514.76 548.63 1.9665 2.0716 3.3228 437.95 0.010301 49.613 0.073895
123.38 1875.6 undefined 516.84 551.32 1.9718 375.00 0.0026667 516.84 551.32 1.9718 2.0751 3.3142 440.02 0.010117 49.638 0.073995 375.00 0.0026667 516.84 551.32 1.9718 2.0751 3.3142 440.02 0.010117 49.638 0.073995
124.38 1909.1 undefined 518.91 554.02 1.9770 375.00 0.0026667 518.91 554.02 1.9770 2.0787 3.3059 442.07 0.0099362 49.663 0.074096 375.00 0.0026667 518.91 554.02 1.9770 2.0787 3.3059 442.07 0.0099362 49.663 0.074096
125.38 1942.6 undefined 521.00 556.71 1.9822 375.00 0.0026667 521.00 556.71 1.9822 2.0822 3.2979 444.11 0.0097591 49.688 0.074197 375.00 0.0026667 521.00 556.71 1.9822 2.0822 3.2979 444.11 0.0097591 49.688 0.074197
126.38 1976.2 undefined 523.08 559.41 1.9875 375.00 0.0026667 523.08 559.41 1.9875 2.0857 3.2902 446.13 0.0095856 49.713 0.074299 375.00 0.0026667 523.08 559.41 1.9875 2.0857 3.2902 446.13 0.0095856 49.713 0.074299
127.38 2009.7 undefined 525.17 562.12 1.9927 375.00 0.0026667 525.17 562.12 1.9927 2.0893 3.2828 448.13 0.0094154 49.738 0.074401 375.00 0.0026667 525.17 562.12 1.9927 2.0893 3.2828 448.13 0.0094154 49.738 0.074401
128.38 2043.3 undefined 527.26 564.83 1.9979 375.00 0.0026667 527.26 564.83 1.9979 2.0929 3.2757 450.12 0.0092485 49.762 0.074504 375.00 0.0026667 527.26 564.83 1.9979 2.0929 3.2757 450.12 0.0092485 49.762 0.074504
129.38 2076.9 undefined 529.35 567.54 2.0031 375.00 0.0026667 529.35 567.54 2.0031 2.0965 3.2688 452.09 0.0090849 49.787 0.074607 375.00 0.0026667 529.35 567.54 2.0031 2.0965 3.2688 452.09 0.0090849 49.787 0.074607
130.38 2110.5 undefined 531.45 570.25 2.0083 375.00 0.0026667 531.45 570.25 2.0083 2.1001 3.2622 454.05 0.0089244 49.812 0.074711 375.00 0.0026667 531.45 570.25 2.0083 2.1001 3.2622 454.05 0.0089244 49.812 0.074711
131.38 2144.2 undefined 533.55 572.98 2.0135 375.00 0.0026667 533.55 572.98 2.0135 2.1037 3.2558 456.00 0.0087669 49.837 0.074815 375.00 0.0026667 533.55 572.98 2.0135 2.1037 3.2558 456.00 0.0087669 49.837 0.074815
132.38 2177.8 undefined 535.66 575.70 2.0187 375.00 0.0026667 535.66 575.70 2.0187 2.1073 3.2497 457.93 0.0086123 49.862 0.074920 375.00 0.0026667 535.66 575.70 2.0187 2.1073 3.2497 457.93 0.0086123 49.862 0.074920
133.38 2211.5 undefined 537.77 578.43 2.0239 375.00 0.0026667 537.77 578.43 2.0239 2.1110 3.2437 459.85 0.0084607 49.887 0.075025 375.00 0.0026667 537.77 578.43 2.0239 2.1110 3.2437 459.85 0.0084607 49.887 0.075025
134.38 2245.2 undefined 539.88 581.16 2.0291 375.00 0.0026667 539.88 581.16 2.0291 2.1146 3.2380 461.76 0.0083118 49.911 0.075130 375.00 0.0026667 539.88 581.16 2.0291 2.1146 3.2380 461.76 0.0083118 49.911 0.075130
135.38 2278.9 undefined 542.00 583.90 2.0343 375.00 0.0026667 542.00 583.90 2.0343 2.1183 3.2325 463.65 0.0081656 49.936 0.075236 375.00 0.0026667 542.00 583.90 2.0343 2.1183 3.2325 463.65 0.0081656 49.936 0.075236
136.38 2312.6 undefined 544.12 586.64 2.0395 375.00 0.0026667 544.12 586.64 2.0395 2.1219 3.2272 465.53 0.0080221 49.961 0.075343 375.00 0.0026667 544.12 586.64 2.0395 2.1219 3.2272 465.53 0.0080221 49.961 0.075343
137.38 2346.3 undefined 546.24 589.38 2.0446 375.00 0.0026667 546.24 589.38 2.0446 2.1256 3.2221 467.40 0.0078812 49.986 0.075449 375.00 0.0026667 546.24 589.38 2.0446 2.1256 3.2221 467.40 0.0078812 49.986 0.075449
138.38 2380.1 undefined 548.37 592.13 2.0498 375.00 0.0026667 548.37 592.13 2.0498 2.1293 3.2171 469.25 0.0077427 50.010 0.075557 375.00 0.0026667 548.37 592.13 2.0498 2.1293 3.2171 469.25 0.0077427 50.010 0.075557
139.38 2413.8 undefined 550.50 594.88 2.0550 375.00 0.0026667 550.50 594.88 2.0550 2.1329 3.2124 471.10 0.0076067 50.035 0.075664 375.00 0.0026667 550.50 594.88 2.0550 2.1329 3.2124 471.10 0.0076067 50.035 0.075664
140.38 2447.6 undefined 552.63 597.64 2.0602 375.00 0.0026667 552.63 597.64 2.0602 2.1366 3.2078 472.93 0.0074731 50.060 0.075772 375.00 0.0026667 552.63 597.64 2.0602 2.1366 3.2078 472.93 0.0074731 50.060 0.075772
141.38 2481.4 undefined 554.77 600.40 2.0653 375.00 0.0026667 554.77 600.40 2.0653 2.1403 3.2034 474.75 0.0073418 50.084 0.075881 375.00 0.0026667 554.77 600.40 2.0653 2.1403 3.2034 474.75 0.0073418 50.084 0.075881
142.38 2515.2 undefined 556.91 603.16 2.0705 375.00 0.0026667 556.91 603.16 2.0705 2.1440 3.1992 476.56 0.0072127 50.109 0.075990 375.00 0.0026667 556.91 603.16 2.0705 2.1440 3.1992 476.56 0.0072127 50.109 0.075990
143.38 2549.0 undefined 559.06 605.93 2.0756 375.00 0.0026667 559.06 605.93 2.0756 2.1477 3.1951 478.36 0.0070858 50.134 0.076099 375.00 0.0026667 559.06 605.93 2.0756 2.1477 3.1951 478.36 0.0070858 50.134 0.076099
144.38 2582.9 undefined 561.21 608.70 2.0808 375.00 0.0026667 561.21 608.70 2.0808 2.1514 3.1911 480.15 0.0069611 50.159 0.076209 375.00 0.0026667 561.21 608.70 2.0808 2.1514 3.1911 480.15 0.0069611 50.159 0.076209
145.38 2616.7 undefined 563.36 611.47 2.0859 375.00 0.0026667 563.36 611.47 2.0859 2.1551 3.1874 481.93 0.0068385 50.183 0.076319 375.00 0.0026667 563.36 611.47 2.0859 2.1551 3.1874 481.93 0.0068385 50.183 0.076319
146.38 2650.6 undefined 565.52 614.25 2.0911 375.00 0.0026667 565.52 614.25 2.0911 2.1588 3.1837 483.70 0.0067180 50.208 0.076429 375.00 0.0026667 565.52 614.25 2.0911 2.1588 3.1837 483.70 0.0067180 50.208 0.076429
147.38 2684.4 undefined 567.68 617.04 2.0962 375.00 0.0026667 567.68 617.04 2.0962 2.1626 3.1802 485.46 0.0065994 50.233 0.076540 375.00 0.0026667 567.68 617.04 2.0962 2.1626 3.1802 485.46 0.0065994 50.233 0.076540
148.38 2718.3 undefined 569.85 619.82 2.1014 375.00 0.0026667 569.85 619.82 2.1014 2.1663 3.1769 487.21 0.0064828 50.257 0.076651 375.00 0.0026667 569.85 619.82 2.1014 2.1663 3.1769 487.21 0.0064828 50.257 0.076651
149.38 2752.2 undefined 572.01 622.62 2.1065 375.00 0.0026667 572.01 622.62 2.1065 2.1700 3.1736 488.95 0.0063680 50.282 0.076763 375.00 0.0026667 572.01 622.62 2.1065 2.1700 3.1736 488.95 0.0063680 50.282 0.076763
150.38 2786.1 undefined 574.19 625.41 2.1117 375.00 0.0026667 574.19 625.41 2.1117 2.1737 3.1705 490.67 0.0062552 50.306 0.076875 375.00 0.0026667 574.19 625.41 2.1117 2.1737 3.1705 490.67 0.0062552 50.306 0.076875
151.38 2820.0 undefined 576.36 628.21 2.1168 375.00 0.0026667 576.36 628.21 2.1168 2.1775 3.1676 492.39 0.0061441 50.331 0.076987 375.00 0.0026667 576.36 628.21 2.1168 2.1775 3.1676 492.39 0.0061441 50.331 0.076987
152.38 2853.9 undefined 578.54 631.01 2.1219 375.00 0.0026667 578.54 631.01 2.1219 2.1812 3.1647 494.10 0.0060349 50.356 0.077100 375.00 0.0026667 578.54 631.01 2.1219 2.1812 3.1647 494.10 0.0060349 50.356 0.077100
153.38 2887.8 undefined 580.72 633.82 2.1270 375.00 0.0026667 580.72 633.82 2.1270 2.1849 3.1620 495.81 0.0059273 50.380 0.077213 375.00 0.0026667 580.72 633.82 2.1270 2.1849 3.1620 495.81 0.0059273 50.380 0.077213
154.38 2921.8 undefined 582.91 636.63 2.1322 375.00 0.0026667 582.91 636.63 2.1322 2.1887 3.1593 497.50 0.0058215 50.405 0.077326 375.00 0.0026667 582.91 636.63 2.1322 2.1887 3.1593 497.50 0.0058215 50.405 0.077326
155.38 2955.7 undefined 585.10 639.44 2.1373 375.00 0.0026667 585.10 639.44 2.1373 2.1924 3.1568 499.18 0.0057173 50.429 0.077440 375.00 0.0026667 585.10 639.44 2.1373 2.1924 3.1568 499.18 0.0057173 50.429 0.077440
156.38 2989.7 undefined 587.29 642.26 2.1424 375.00 0.0026667 587.29 642.26 2.1424 2.1961 3.1544 500.86 0.0056147 50.454 0.077554 375.00 0.0026667 587.29 642.26 2.1424 2.1961 3.1544 500.86 0.0056147 50.454 0.077554
157.38 3023.6 undefined 589.49 645.09 2.1475 375.00 0.0026667 589.49 645.09 2.1475 2.1999 3.1521 502.52 0.0055137 50.478 0.077669 375.00 0.0026667 589.49 645.09 2.1475 2.1999 3.1521 502.52 0.0055137 50.478 0.077669
158.38 3057.6 undefined 591.69 647.91 2.1526 375.00 0.0026667 591.69 647.91 2.1526 2.2036 3.1499 504.18 0.0054143 50.503 0.077784 375.00 0.0026667 591.69 647.91 2.1526 2.2036 3.1499 504.18 0.0054143 50.503 0.077784
159.38 3091.5 undefined 593.90 650.74 2.1577 375.00 0.0026667 593.90 650.74 2.1577 2.2074 3.1478 505.83 0.0053164 50.527 0.077899 375.00 0.0026667 593.90 650.74 2.1577 2.2074 3.1478 505.83 0.0053164 50.527 0.077899
160.38 3125.5 undefined 596.11 653.58 2.1628 375.00 0.0026667 596.11 653.58 2.1628 2.2111 3.1458 507.47 0.0052199 50.552 0.078014 375.00 0.0026667 596.11 653.58 2.1628 2.2111 3.1458 507.47 0.0052199 50.552 0.078014
161.38 3159.5 undefined 598.32 656.41 2.1679 375.00 0.0026667 598.32 656.41 2.1679 2.2149 3.1439 509.11 0.0051250 50.576 0.078130 375.00 0.0026667 598.32 656.41 2.1679 2.2149 3.1439 509.11 0.0051250 50.576 0.078130
162.38 3193.5 undefined 600.54 659.25 2.1730 375.00 0.0026667 600.54 659.25 2.1730 2.2186 3.1420 510.73 0.0050314 50.601 0.078247 375.00 0.0026667 600.54 659.25 2.1730 2.2186 3.1420 510.73 0.0050314 50.601 0.078247
163.38 3227.5 undefined 602.76 662.10 2.1781 375.00 0.0026667 602.76 662.10 2.1781 2.2224 3.1403 512.35 0.0049392 50.625 0.078363 375.00 0.0026667 602.76 662.10 2.1781 2.2224 3.1403 512.35 0.0049392 50.625 0.078363
164.38 3261.5 undefined 604.98 664.95 2.1832 375.00 0.0026667 604.98 664.95 2.1832 2.2261 3.1386 513.96 0.0048484 50.650 0.078480 375.00 0.0026667 604.98 664.95 2.1832 2.2261 3.1386 513.96 0.0048484 50.650 0.078480
165.38 3295.5 undefined 607.21 667.80 2.1883 375.00 0.0026667 607.21 667.80 2.1883 2.2299 3.1371 515.56 0.0047589 50.674 0.078598 375.00 0.0026667 607.21 667.80 2.1883 2.2299 3.1371 515.56 0.0047589 50.674 0.078598
166.38 3329.5 undefined 609.44 670.66 2.1934 375.00 0.0026667 609.44 670.66 2.1934 2.2336 3.1356 517.16 0.0046707 50.699 0.078715 375.00 0.0026667 609.44 670.66 2.1934 2.2336 3.1356 517.16 0.0046707 50.699 0.078715
167.38 3363.5 undefined 611.68 673.52 2.1984 375.00 0.0026667 611.68 673.52 2.1984 2.2374 3.1342 518.74 0.0045838 50.723 0.078833 375.00 0.0026667 611.68 673.52 2.1984 2.2374 3.1342 518.74 0.0045838 50.723 0.078833
168.38 3397.5 undefined 613.92 676.38 2.2035 375.00 0.0026667 613.92 676.38 2.2035 2.2411 3.1328 520.32 0.0044982 50.747 0.078952 375.00 0.0026667 613.92 676.38 2.2035 2.2411 3.1328 520.32 0.0044982 50.747 0.078952
169.38 3431.5 undefined 616.16 679.25 2.2086 375.00 0.0026667 616.16 679.25 2.2086 2.2448 3.1316 521.90 0.0044138 50.772 0.079070 375.00 0.0026667 616.16 679.25 2.2086 2.2448 3.1316 521.90 0.0044138 50.772 0.079070
170.38 3465.5 undefined 618.41 682.13 2.2137 375.00 0.0026667 618.41 682.13 2.2137 2.2486 3.1304 523.46 0.0043306 50.796 0.079189 375.00 0.0026667 618.41 682.13 2.2137 2.2486 3.1304 523.46 0.0043306 50.796 0.079189
171.38 3499.6 undefined 620.66 685.00 2.2187 375.00 0.0026667 620.66 685.00 2.2187 2.2523 3.1293 525.02 0.0042485 50.820 0.079309 375.00 0.0026667 620.66 685.00 2.2187 2.2523 3.1293 525.02 0.0042485 50.820 0.079309
172.38 3533.6 undefined 622.91 687.88 2.2238 375.00 0.0026667 622.91 687.88 2.2238 2.2561 3.1282 526.57 0.0041677 50.845 0.079428 375.00 0.0026667 622.91 687.88 2.2238 2.2561 3.1282 526.57 0.0041677 50.845 0.079428
173.38 3567.6 undefined 625.17 690.77 2.2289 375.00 0.0026667 625.17 690.77 2.2289 2.2598 3.1273 528.12 0.0040879 50.869 0.079548 375.00 0.0026667 625.17 690.77 2.2289 2.2598 3.1273 528.12 0.0040879 50.869 0.079548
174.38 3601.7 undefined 627.43 693.65 2.2339 375.00 0.0026667 627.43 693.65 2.2339 2.2636 3.1264 529.66 0.0040093 50.893 0.079669 375.00 0.0026667 627.43 693.65 2.2339 2.2636 3.1264 529.66 0.0040093 50.893 0.079669
175.38 3635.7 undefined 629.70 696.54 2.2390 375.00 0.0026667 629.70 696.54 2.2390 2.2673 3.1255 531.19 0.0039317 50.918 0.079789 375.00 0.0026667 629.70 696.54 2.2390 2.2673 3.1255 531.19 0.0039317 50.918 0.079789
176.38 3669.7 undefined 631.97 699.44 2.2440 375.00 0.0026667 631.97 699.44 2.2440 2.2711 3.1247 532.71 0.0038553 50.942 0.079910 375.00 0.0026667 631.97 699.44 2.2440 2.2711 3.1247 532.71 0.0038553 50.942 0.079910
177.38 3703.8 undefined 634.24 702.34 2.2491 375.00 0.0026667 634.24 702.34 2.2491 2.2748 3.1240 534.23 0.0037798 50.966 0.080032 375.00 0.0026667 634.24 702.34 2.2491 2.2748 3.1240 534.23 0.0037798 50.966 0.080032
178.38 3737.8 undefined 636.52 705.24 2.2541 375.00 0.0026667 636.52 705.24 2.2541 2.2786 3.1234 535.75 0.0037055 50.991 0.080153 375.00 0.0026667 636.52 705.24 2.2541 2.2786 3.1234 535.75 0.0037055 50.991 0.080153
179.38 3771.9 undefined 638.80 708.15 2.2592 375.00 0.0026667 638.80 708.15 2.2592 2.2823 3.1228 537.25 0.0036321 51.015 0.080275 375.00 0.0026667 638.80 708.15 2.2592 2.2823 3.1228 537.25 0.0036321 51.015 0.080275
180.38 3805.9 undefined 641.08 711.06 2.2642 375.00 0.0026667 641.08 711.06 2.2642 2.2861 3.1222 538.75 0.0035597 51.039 0.080398 375.00 0.0026667 641.08 711.06 2.2642 2.2861 3.1222 538.75 0.0035597 51.039 0.080398
181.38 3840.0 undefined 643.37 713.97 2.2693 375.00 0.0026667 643.37 713.97 2.2693 2.2898 3.1218 540.24 0.0034883 51.063 0.080520 375.00 0.0026667 643.37 713.97 2.2693 2.2898 3.1218 540.24 0.0034883 51.063 0.080520
182.38 3874.0 undefined 645.66 716.89 2.2743 375.00 0.0026667 645.66 716.89 2.2743 2.2935 3.1213 541.73 0.0034178 51.088 0.080643 375.00 0.0026667 645.66 716.89 2.2743 2.2935 3.1213 541.73 0.0034178 51.088 0.080643
183.38 3908.1 undefined 647.96 719.81 2.2793 375.00 0.0026667 647.96 719.81 2.2793 2.2973 3.1210 543.21 0.0033483 51.112 0.080767 375.00 0.0026667 647.96 719.81 2.2793 2.2973 3.1210 543.21 0.0033483 51.112 0.080767
184.38 3942.1 undefined 650.26 722.73 2.2844 375.00 0.0026667 650.26 722.73 2.2844 2.3010 3.1206 544.69 0.0032796 51.136 0.080890 375.00 0.0026667 650.26 722.73 2.2844 2.3010 3.1206 544.69 0.0032796 51.136 0.080890
185.38 3976.2 undefined 652.56 725.66 2.2894 375.00 0.0026667 652.56 725.66 2.2894 2.3048 3.1204 546.16 0.0032119 51.160 0.081014 375.00 0.0026667 652.56 725.66 2.2894 2.3048 3.1204 546.16 0.0032119 51.160 0.081014
186.38 4010.2 undefined 654.86 728.60 2.2944 375.00 0.0026667 654.86 728.60 2.2944 2.3085 3.1201 547.62 0.0031451 51.184 0.081138 375.00 0.0026667 654.86 728.60 2.2944 2.3085 3.1201 547.62 0.0031451 51.184 0.081138
187.38 4044.2 undefined 657.18 731.53 2.2994 375.00 0.0026667 657.18 731.53 2.2994 2.3122 3.1200 549.08 0.0030792 51.208 0.081263 375.00 0.0026667 657.18 731.53 2.2994 2.3122 3.1200 549.08 0.0030792 51.208 0.081263
188.38 4078.3 undefined 659.49 734.47 2.3044 375.00 0.0026667 659.49 734.47 2.3044 2.3160 3.1198 550.53 0.0030141 51.233 0.081387 375.00 0.0026667 659.49 734.47 2.3044 2.3160 3.1198 550.53 0.0030141 51.233 0.081387
189.38 4112.3 undefined 661.81 737.42 2.3095 375.00 0.0026667 661.81 737.42 2.3095 2.3197 3.1198 551.98 0.0029498 51.257 0.081513 375.00 0.0026667 661.81 737.42 2.3095 2.3197 3.1198 551.98 0.0029498 51.257 0.081513
190.38 4146.4 undefined 664.13 740.36 2.3145 375.00 0.0026667 664.13 740.36 2.3145 2.3234 3.1197 553.42 0.0028864 51.281 0.081638 375.00 0.0026667 664.13 740.36 2.3145 2.3234 3.1197 553.42 0.0028864 51.281 0.081638
191.38 4180.4 undefined 666.45 743.32 2.3195 375.00 0.0026667 666.45 743.32 2.3195 2.3271 3.1197 554.85 0.0028238 51.305 0.081764 375.00 0.0026667 666.45 743.32 2.3195 2.3271 3.1197 554.85 0.0028238 51.305 0.081764
192.38 4214.5 undefined 668.78 746.27 2.3245 375.00 0.0026667 668.78 746.27 2.3245 2.3309 3.1198 556.28 0.0027620 51.329 0.081890 375.00 0.0026667 668.78 746.27 2.3245 2.3309 3.1198 556.28 0.0027620 51.329 0.081890
193.38 4248.5 undefined 671.12 749.23 2.3295 375.00 0.0026667 671.12 749.23 2.3295 2.3346 3.1199 557.71 0.0027009 51.353 0.082016 375.00 0.0026667 671.12 749.23 2.3295 2.3346 3.1199 557.71 0.0027009 51.353 0.082016
194.38 4282.6 undefined 673.45 752.19 2.3345 375.00 0.0026667 673.45 752.19 2.3345 2.3383 3.1200 559.13 0.0026407 51.377 0.082143 375.00 0.0026667 673.45 752.19 2.3345 2.3383 3.1200 559.13 0.0026407 51.377 0.082143
195.38 4316.6 undefined 675.79 755.16 2.3395 375.00 0.0026667 675.79 755.16 2.3395 2.3420 3.1202 560.54 0.0025811 51.401 0.082270 375.00 0.0026667 675.79 755.16 2.3395 2.3420 3.1202 560.54 0.0025811 51.401 0.082270
196.38 4350.7 undefined 678.14 758.13 2.3445 375.00 0.0026667 678.14 758.13 2.3445 2.3458 3.1205 561.95 0.0025224 51.425 0.082397 375.00 0.0026667 678.14 758.13 2.3445 2.3458 3.1205 561.95 0.0025224 51.425 0.082397
197.38 4384.7 undefined 680.48 761.10 2.3495 375.00 0.0026667 680.48 761.10 2.3495 2.3495 3.1207 563.35 0.0024643 51.449 0.082525 375.00 0.0026667 680.48 761.10 2.3495 2.3495 3.1207 563.35 0.0024643 51.449 0.082525
198.38 4418.7 undefined 682.84 764.08 2.3545 375.00 0.0026667 682.84 764.08 2.3545 2.3532 3.1210 564.75 0.0024070 51.473 0.082653 375.00 0.0026667 682.84 764.08 2.3545 2.3532 3.1210 564.75 0.0024070 51.473 0.082653
199.38 4452.8 undefined 685.19 767.06 2.3595 375.00 0.0026667 685.19 767.06 2.3595 2.3569 3.1214 566.15 0.0023504 51.497 0.082781 375.00 0.0026667 685.19 767.06 2.3595 2.3569 3.1214 566.15 0.0023504 51.497 0.082781
200.38 4486.8 undefined 687.55 770.04 2.3645 375.00 0.0026667 687.55 770.04 2.3645 2.3606 3.1217 567.53 0.0022945 51.521 0.082909 375.00 0.0026667 687.55 770.04 2.3645 2.3606 3.1217 567.53 0.0022945 51.521 0.082909
201.38 4520.8 undefined 689.91 773.03 2.3695 375.00 0.0026667 689.91 773.03 2.3695 2.3643 3.1221 568.92 0.0022393 51.545 0.083038 375.00 0.0026667 689.91 773.03 2.3695 2.3643 3.1221 568.92 0.0022393 51.545 0.083038
202.38 4554.8 undefined 692.28 776.02 2.3744 375.00 0.0026667 692.28 776.02 2.3744 2.3680 3.1226 570.30 0.0021847 51.569 0.083167 375.00 0.0026667 692.28 776.02 2.3744 2.3680 3.1226 570.30 0.0021847 51.569 0.083167
203.38 4588.9 undefined 694.65 779.02 2.3794 375.00 0.0026667 694.65 779.02 2.3794 2.3717 3.1231 571.67 0.0021308 51.593 0.083296 375.00 0.0026667 694.65 779.02 2.3794 2.3717 3.1231 571.67 0.0021308 51.593 0.083296
204.38 4622.9 undefined 697.02 782.02 2.3844 375.00 0.0026667 697.02 782.02 2.3844 2.3754 3.1236 573.04 0.0020776 51.617 0.083426 375.00 0.0026667 697.02 782.02 2.3844 2.3754 3.1236 573.04 0.0020776 51.617 0.083426
205.38 4656.9 undefined 699.40 785.02 2.3894 375.00 0.0026667 699.40 785.02 2.3894 2.3791 3.1241 574.40 0.0020250 51.641 0.083556 375.00 0.0026667 699.40 785.02 2.3894 2.3791 3.1241 574.40 0.0020250 51.641 0.083556
206.38 4690.9 undefined 701.78 788.03 2.3943 375.00 0.0026667 701.78 788.03 2.3943 2.3828 3.1247 575.76 0.0019730 51.665 0.083686 375.00 0.0026667 701.78 788.03 2.3943 2.3828 3.1247 575.76 0.0019730 51.665 0.083686
207.38 4724.9 undefined 704.16 791.04 2.3993 375.00 0.0026667 704.16 791.04 2.3993 2.3865 3.1253 577.12 0.0019217 51.688 0.083817 375.00 0.0026667 704.16 791.04 2.3993 2.3865 3.1253 577.12 0.0019217 51.688 0.083817
208.38 4758.9 undefined 706.55 794.05 2.4043 375.00 0.0026667 706.55 794.05 2.4043 2.3902 3.1260 578.47 0.0018709 51.712 0.083948 375.00 0.0026667 706.55 794.05 2.4043 2.3902 3.1260 578.47 0.0018709 51.712 0.083948
209.38 4793.0 undefined 708.94 797.07 2.4092 375.00 0.0026667 708.94 797.07 2.4092 2.3939 3.1267 579.81 0.0018208 51.736 0.084079 375.00 0.0026667 708.94 797.07 2.4092 2.3939 3.1267 579.81 0.0018208 51.736 0.084079
210.38 4827.0 undefined 711.34 800.09 2.4142 375.00 0.0026667 711.34 800.09 2.4142 2.3976 3.1274 581.15 0.0017712 51.760 0.084210 375.00 0.0026667 711.34 800.09 2.4142 2.3976 3.1274 581.15 0.0017712 51.760 0.084210
211.38 4861.0 undefined 713.74 803.11 2.4191 375.00 0.0026667 713.74 803.11 2.4191 2.4013 3.1281 582.49 0.0017222 51.784 0.084342 375.00 0.0026667 713.74 803.11 2.4191 2.4013 3.1281 582.49 0.0017222 51.784 0.084342
212.38 4895.0 undefined 716.14 806.14 2.4241 375.00 0.0026667 716.14 806.14 2.4241 2.4050 3.1289 583.82 0.0016739 51.808 0.084474 375.00 0.0026667 716.14 806.14 2.4241 2.4050 3.1289 583.82 0.0016739 51.808 0.084474
213.38 4928.9 undefined 718.55 809.17 2.4290 375.00 0.0026667 718.55 809.17 2.4290 2.4087 3.1297 585.15 0.0016260 51.831 0.084606 375.00 0.0026667 718.55 809.17 2.4290 2.4087 3.1297 585.15 0.0016260 51.831 0.084606
214.38 4962.9 undefined 720.96 812.21 2.4340 375.00 0.0026667 720.96 812.21 2.4340 2.4123 3.1305 586.47 0.0015787 51.855 0.084739 375.00 0.0026667 720.96 812.21 2.4340 2.4123 3.1305 586.47 0.0015787 51.855 0.084739
215.38 4996.9 undefined 723.37 815.25 2.4389 375.00 0.0026667 723.37 815.25 2.4389 2.4160 3.1313 587.79 0.0015320 51.879 0.084872 375.00 0.0026667 723.37 815.25 2.4389 2.4160 3.1313 587.79 0.0015320 51.879 0.084872
216.38 5030.9 undefined 725.79 818.29 2.4439 375.00 0.0026667 725.79 818.29 2.4439 2.4197 3.1322 589.10 0.0014858 51.903 0.085005 375.00 0.0026667 725.79 818.29 2.4439 2.4197 3.1322 589.10 0.0014858 51.903 0.085005
217.38 5064.9 undefined 728.21 821.34 2.4488 375.00 0.0026667 728.21 821.34 2.4488 2.4234 3.1331 590.41 0.0014402 51.926 0.085138 375.00 0.0026667 728.21 821.34 2.4488 2.4234 3.1331 590.41 0.0014402 51.926 0.085138
218.38 5098.8 undefined 730.64 824.39 2.4538 375.00 0.0026667 730.64 824.39 2.4538 2.4270 3.1341 591.72 0.0013950 51.950 0.085272 375.00 0.0026667 730.64 824.39 2.4538 2.4270 3.1341 591.72 0.0013950 51.950 0.085272
219.38 5132.8 undefined 733.07 827.44 2.4587 375.00 0.0026667 733.07 827.44 2.4587 2.4307 3.1350 593.02 0.0013504 51.974 0.085406 375.00 0.0026667 733.07 827.44 2.4587 2.4307 3.1350 593.02 0.0013504 51.974 0.085406
220.38 5166.8 undefined 735.50 830.50 2.4636 375.00 0.0026667 735.50 830.50 2.4636 2.4344 3.1360 594.32 0.0013063 51.997 0.085540 375.00 0.0026667 735.50 830.50 2.4636 2.4344 3.1360 594.32 0.0013063 51.997 0.085540
221.38 5200.7 undefined 737.94 833.56 2.4686 375.00 0.0026667 737.94 833.56 2.4686 2.4380 3.1370 595.61 0.0012627 52.021 0.085675 375.00 0.0026667 737.94 833.56 2.4686 2.4380 3.1370 595.61 0.0012627 52.021 0.085675
222.38 5234.7 undefined 740.38 836.62 2.4735 375.00 0.0026667 740.38 836.62 2.4735 2.4417 3.1380 596.90 0.0012196 52.045 0.085809 375.00 0.0026667 740.38 836.62 2.4735 2.4417 3.1380 596.90 0.0012196 52.045 0.085809
223.38 5268.6 undefined 742.82 839.69 2.4784 375.00 0.0026667 742.82 839.69 2.4784 2.4453 3.1391 598.19 0.0011769 52.068 0.085944 375.00 0.0026667 742.82 839.69 2.4784 2.4453 3.1391 598.19 0.0011769 52.068 0.085944
224.38 5302.5 undefined 745.27 842.76 2.4834 375.00 0.0026667 745.27 842.76 2.4834 2.4490 3.1402 599.47 0.0011348 52.092 0.086080 375.00 0.0026667 745.27 842.76 2.4834 2.4490 3.1402 599.47 0.0011348 52.092 0.086080
225.38 5336.5 undefined 747.72 845.83 2.4883 375.00 0.0026667 747.72 845.83 2.4883 2.4526 3.1412 600.75 0.0010931 52.116 0.086215 375.00 0.0026667 747.72 845.83 2.4883 2.4526 3.1412 600.75 0.0010931 52.116 0.086215
226.38 5370.4 undefined 750.17 848.91 2.4932 375.00 0.0026667 750.17 848.91 2.4932 2.4563 3.1424 602.02 0.0010518 52.139 0.086351 375.00 0.0026667 750.17 848.91 2.4932 2.4563 3.1424 602.02 0.0010518 52.139 0.086351
227.38 5404.3 undefined 752.63 851.99 2.4981 375.00 0.0026667 752.63 851.99 2.4981 2.4599 3.1435 603.29 0.0010111 52.163 0.086488 375.00 0.0026667 752.63 851.99 2.4981 2.4599 3.1435 603.29 0.0010111 52.163 0.086488
228.38 5438.3 undefined 755.09 855.08 2.5030 375.00 0.0026667 755.09 855.08 2.5030 2.4636 3.1447 604.56 0.00097076 52.186 0.086624 375.00 0.0026667 755.09 855.08 2.5030 2.4636 3.1447 604.56 0.00097076 52.186 0.086624
229.38 5472.2 undefined 757.56 858.17 2.5079 375.00 0.0026667 757.56 858.17 2.5079 2.4672 3.1459 605.82 0.00093088 52.210 0.086761 375.00 0.0026667 757.56 858.17 2.5079 2.4672 3.1459 605.82 0.00093088 52.210 0.086761
230.38 5506.1 undefined 760.03 861.26 2.5128 375.00 0.0026667 760.03 861.26 2.5128 2.4708 3.1471 607.08 0.00089145 52.233 0.086898 375.00 0.0026667 760.03 861.26 2.5128 2.4708 3.1471 607.08 0.00089145 52.233 0.086898
231.38 5540.0 undefined 762.50 864.36 2.5177 375.00 0.0026667 762.50 864.36 2.5177 2.4745 3.1483 608.33 0.00085244 52.257 0.087035 375.00 0.0026667 762.50 864.36 2.5177 2.4745 3.1483 608.33 0.00085244 52.257 0.087035
232.38 5573.9 undefined 764.98 867.46 2.5226 375.00 0.0026667 764.98 867.46 2.5226 2.4781 3.1495 609.59 0.00081386 52.280 0.087172 375.00 0.0026667 764.98 867.46 2.5226 2.4781 3.1495 609.59 0.00081386 52.280 0.087172
233.38 5607.8 undefined 767.46 870.56 2.5275 375.00 0.0026667 767.46 870.56 2.5275 2.4817 3.1508 610.83 0.00077570 52.304 0.087310 375.00 0.0026667 767.46 870.56 2.5275 2.4817 3.1508 610.83 0.00077570 52.304 0.087310
234.38 5641.6 undefined 769.94 873.67 2.5324 375.00 0.0026667 769.94 873.67 2.5324 2.4854 3.1521 612.08 0.00073796 52.327 0.087448 375.00 0.0026667 769.94 873.67 2.5324 2.4854 3.1521 612.08 0.00073796 52.327 0.087448
235.38 5675.5 undefined 772.43 876.78 2.5373 375.00 0.0026667 772.43 876.78 2.5373 2.4890 3.1534 613.32 0.00070062 52.351 0.087586 375.00 0.0026667 772.43 876.78 2.5373 2.4890 3.1534 613.32 0.00070062 52.351 0.087586
236.38 5709.4 undefined 774.92 879.89 2.5422 375.00 0.0026667 774.92 879.89 2.5422 2.4926 3.1547 614.55 0.00066368 52.374 0.087725 375.00 0.0026667 774.92 879.89 2.5422 2.4926 3.1547 614.55 0.00066368 52.374 0.087725
237.38 5743.3 undefined 777.41 883.01 2.5471 375.00 0.0026667 777.41 883.01 2.5471 2.4962 3.1560 615.79 0.00062715 52.398 0.087864 375.00 0.0026667 777.41 883.01 2.5471 2.4962 3.1560 615.79 0.00062715 52.398 0.087864
238.38 5777.1 undefined 779.91 886.13 2.5520 375.00 0.0026667 779.91 886.13 2.5520 2.4998 3.1574 617.02 0.00059100 52.421 0.088003 375.00 0.0026667 779.91 886.13 2.5520 2.4998 3.1574 617.02 0.00059100 52.421 0.088003
239.38 5811.0 undefined 782.41 889.25 2.5569 375.00 0.0026667 782.41 889.25 2.5569 2.5034 3.1588 618.24 0.00055524 52.444 0.088142 375.00 0.0026667 782.41 889.25 2.5569 2.5034 3.1588 618.24 0.00055524 52.444 0.088142
240.38 5844.8 undefined 784.92 892.38 2.5618 375.00 0.0026667 784.92 892.38 2.5618 2.5070 3.1602 619.46 0.00051986 52.468 0.088281 375.00 0.0026667 784.92 892.38 2.5618 2.5070 3.1602 619.46 0.00051986 52.468 0.088281
241.38 5878.7 undefined 787.43 895.51 2.5667 375.00 0.0026667 787.43 895.51 2.5667 2.5106 3.1616 620.68 0.00048485 52.491 0.088421 375.00 0.0026667 787.43 895.51 2.5667 2.5106 3.1616 620.68 0.00048485 52.491 0.088421
242.38 5912.5 undefined 789.94 898.64 2.5715 375.00 0.0026667 789.94 898.64 2.5715 2.5142 3.1630 621.90 0.00045021 52.514 0.088561 375.00 0.0026667 789.94 898.64 2.5715 2.5142 3.1630 621.90 0.00045021 52.514 0.088561
243.38 5946.3 undefined 792.45 901.78 2.5764 375.00 0.0026667 792.45 901.78 2.5764 2.5178 3.1644 623.11 0.00041594 52.538 0.088705 375.00 0.0026667 792.45 901.78 2.5764 2.5178 3.1644 623.11 0.00041594 52.538 0.088705
244.38 5980.1 undefined 794.97 904.92 2.5813 375.00 0.0026667 794.97 904.92 2.5813 2.5214 3.1659 624.32 0.00038204 52.561 0.088853 375.00 0.0026667 794.97 904.92 2.5813 2.5214 3.1659 624.32 0.00038204 52.561 0.088853
245.38 6014.0 undefined 797.50 908.07 2.5862 375.00 0.0026667 797.50 908.07 2.5862 2.5250 3.1674 625.53 0.00034848 52.584 0.089001 375.00 0.0026667 797.50 908.07 2.5862 2.5250 3.1674 625.53 0.00034848 52.584 0.089001
246.38 6047.8 undefined 800.02 911.22 2.5910 375.00 0.0026667 800.02 911.22 2.5910 2.5286 3.1688 626.73 0.00031528 52.608 0.089149 375.00 0.0026667 800.02 911.22 2.5910 2.5286 3.1688 626.73 0.00031528 52.608 0.089149
247.38 6081.6 undefined 802.55 914.37 2.5959 375.00 0.0026667 802.55 914.37 2.5959 2.5322 3.1703 627.93 0.00028242 52.631 0.089297 375.00 0.0026667 802.55 914.37 2.5959 2.5322 3.1703 627.93 0.00028242 52.631 0.089297
248.38 6115.4 undefined 805.09 917.52 2.6008 375.00 0.0026667 805.09 917.52 2.6008 2.5357 3.1719 629.12 0.00024991 52.654 0.089446 375.00 0.0026667 805.09 917.52 2.6008 2.5357 3.1719 629.12 0.00024991 52.654 0.089446
249.38 6149.1 undefined 807.63 920.68 2.6056 375.00 0.0026667 807.63 920.68 2.6056 2.5393 3.1734 630.32 0.00021773 52.677 0.089595 375.00 0.0026667 807.63 920.68 2.6056 2.5393 3.1734 630.32 0.00021773 52.677 0.089595
250.38 6182.9 undefined 810.17 923.85 2.6105 375.00 0.0026667 810.17 923.85 2.6105 2.5429 3.1749 631.51 0.00018588 52.701 0.089745 375.00 0.0026667 810.17 923.85 2.6105 2.5429 3.1749 631.51 0.00018588 52.701 0.089745
251.38 6216.7 undefined 812.71 927.01 2.6153 375.00 0.0026667 812.71 927.01 2.6153 2.5464 3.1765 632.69 0.00015437 52.724 0.089894 375.00 0.0026667 812.71 927.01 2.6153 2.5464 3.1765 632.69 0.00015437 52.724 0.089894
252.38 6250.5 undefined 815.26 930.18 2.6202 375.00 0.0026667 815.26 930.18 2.6202 2.5500 3.1781 633.88 0.00012318 52.747 0.090044 375.00 0.0026667 815.26 930.18 2.6202 2.5500 3.1781 633.88 0.00012318 52.747 0.090044
253.38 6284.2 undefined 817.81 933.35 2.6250 375.00 0.0026667 817.81 933.35 2.6250 2.5536 3.1797 635.06 9.2304e-05 52.770 0.090194 375.00 0.0026667 817.81 933.35 2.6250 2.5536 3.1797 635.06 9.2304e-05 52.770 0.090194
254.38 6318.0 undefined 820.37 936.53 2.6299 375.00 0.0026667 820.37 936.53 2.6299 2.5571 3.1813 636.23 6.1747e-05 52.793 0.090345 375.00 0.0026667 820.37 936.53 2.6299 2.5571 3.1813 636.23 6.1747e-05 52.793 0.090345
255.38 6351.7 undefined 822.93 939.71 2.6347 375.00 0.0026667 822.93 939.71 2.6347 2.5607 3.1829 637.41 3.1503e-05 52.816 0.090496 375.00 0.0026667 822.93 939.71 2.6347 2.5607 3.1829 637.41 3.1503e-05 52.816 0.090496
256.38 6385.4 undefined 825.49 942.89 2.6396 375.00 0.0026667 825.49 942.89 2.6396 2.5642 3.1845 638.58 1.5655e-06 52.840 0.090647 375.00 0.0026667 825.49 942.89 2.6396 2.5642 3.1845 638.58 1.5655e-06 52.840 0.090647
257.38 6419.2 undefined 828.05 946.08 2.6444 375.00 0.0026667 828.05 946.08 2.6444 2.5678 3.1861 639.74 -2.8068e-05 52.863 0.090798 375.00 0.0026667 828.05 946.08 2.6444 2.5678 3.1861 639.74 -2.8068e-05 52.863 0.090798
258.38 6452.9 undefined 830.62 949.27 2.6493 375.00 0.0026667 830.62 949.27 2.6493 2.5713 3.1878 640.91 -5.7401e-05 52.886 0.090950 375.00 0.0026667 830.62 949.27 2.6493 2.5713 3.1878 640.91 -5.7401e-05 52.886 0.090950
259.38 6486.6 undefined 833.20 952.46 2.6541 375.00 0.0026667 833.20 952.46 2.6541 2.5749 3.1895 642.07 -8.6438e-05 52.909 0.091102 375.00 0.0026667 833.20 952.46 2.6541 2.5749 3.1895 642.07 -8.6438e-05 52.909 0.091102
260.38 6520.3 undefined 835.77 955.66 2.6589 375.00 0.0026667 835.77 955.66 2.6589 2.5784 3.1911 643.23 -0.00011518 52.932 0.091254 375.00 0.0026667 835.77 955.66 2.6589 2.5784 3.1911 643.23 -0.00011518 52.932 0.091254
261.38 6554.0 undefined 838.35 958.85 2.6638 375.00 0.0026667 838.35 958.85 2.6638 2.5819 3.1928 644.39 -0.00014364 52.955 0.091407 375.00 0.0026667 838.35 958.85 2.6638 2.5819 3.1928 644.39 -0.00014364 52.955 0.091407
262.38 6587.7 undefined 840.94 962.06 2.6686 375.00 0.0026667 840.94 962.06 2.6686 2.5855 3.1945 645.54 -0.00017181 52.978 0.091560 375.00 0.0026667 840.94 962.06 2.6686 2.5855 3.1945 645.54 -0.00017181 52.978 0.091560
263.38 6621.4 undefined 843.52 965.26 2.6734 375.00 0.0026667 843.52 965.26 2.6734 2.5890 3.1962 646.69 -0.00019970 53.001 0.091713 375.00 0.0026667 843.52 965.26 2.6734 2.5890 3.1962 646.69 -0.00019970 53.001 0.091713
264.38 6655.0 undefined 846.11 968.47 2.6782 375.00 0.0026667 846.11 968.47 2.6782 2.5925 3.1980 647.84 -0.00022731 53.024 0.091866 375.00 0.0026667 846.11 968.47 2.6782 2.5925 3.1980 647.84 -0.00022731 53.024 0.091866
265.38 6688.7 undefined 848.71 971.69 2.6831 375.00 0.0026667 848.71 971.69 2.6831 2.5960 3.1997 648.98 -0.00025465 53.047 0.092020 375.00 0.0026667 848.71 971.69 2.6831 2.5960 3.1997 648.98 -0.00025465 53.047 0.092020
266.38 6722.4 undefined 851.31 974.90 2.6879 375.00 0.0026667 851.31 974.90 2.6879 2.5995 3.2014 650.12 -0.00028171 53.070 0.092174 375.00 0.0026667 851.31 974.90 2.6879 2.5995 3.2014 650.12 -0.00028171 53.070 0.092174
267.38 6756.0 undefined 853.91 978.12 2.6927 375.00 0.0026667 853.91 978.12 2.6927 2.6031 3.2032 651.26 -0.00030851 53.093 0.092328 375.00 0.0026667 853.91 978.12 2.6927 2.6031 3.2032 651.26 -0.00030851 53.093 0.092328
268.38 6789.7 undefined 856.51 981.35 2.6975 375.00 0.0026667 856.51 981.35 2.6975 2.6066 3.2050 652.40 -0.00033504 53.116 0.092483 375.00 0.0026667 856.51 981.35 2.6975 2.6066 3.2050 652.40 -0.00033504 53.116 0.092483
269.38 6823.3 undefined 859.12 984.57 2.7023 375.00 0.0026667 859.12 984.57 2.7023 2.6101 3.2067 653.53 -0.00036131 53.138 0.092638 375.00 0.0026667 859.12 984.57 2.7023 2.6101 3.2067 653.53 -0.00036131 53.138 0.092638
270.38 6856.9 undefined 861.73 987.80 2.7071 375.00 0.0026667 861.73 987.80 2.7071 2.6136 3.2085 654.66 -0.00038733 53.161 0.092793 375.00 0.0026667 861.73 987.80 2.7071 2.6136 3.2085 654.66 -0.00038733 53.161 0.092793
271.38 6890.5 undefined 864.35 991.04 2.7119 375.00 0.0026667 864.35 991.04 2.7119 2.6171 3.2103 655.79 -0.00041309 53.184 0.092949 375.00 0.0026667 864.35 991.04 2.7119 2.6171 3.2103 655.79 -0.00041309 53.184 0.092949
272.38 6924.2 undefined 866.97 994.27 2.7167 375.00 0.0026667 866.97 994.27 2.7167 2.6206 3.2121 656.91 -0.00043859 53.207 0.093105 375.00 0.0026667 866.97 994.27 2.7167 2.6206 3.2121 656.91 -0.00043859 53.207 0.093105
273.38 6957.8 undefined 869.59 997.51 2.7216 375.00 0.0026667 869.59 997.51 2.7216 2.6240 3.2139 658.03 -0.00046385 53.230 0.093261 375.00 0.0026667 869.59 997.51 2.7216 2.6240 3.2139 658.03 -0.00046385 53.230 0.093261
274.38 6991.3 undefined 872.22 1000.8 2.7264 375.00 0.0026667 872.22 1000.8 2.7264 2.6275 3.2158 659.15 -0.00048886 53.253 0.093417 375.00 0.0026667 872.22 1000.8 2.7264 2.6275 3.2158 659.15 -0.00048886 53.253 0.093417
275.38 7024.9 undefined 874.84 1004.0 2.7311 375.00 0.0026667 874.84 1004.0 2.7311 2.6310 3.2176 660.27 -0.00051363 53.276 0.093574 375.00 0.0026667 874.84 1004.0 2.7311 2.6310 3.2176 660.27 -0.00051363 53.276 0.093574
276.38 7058.5 undefined 877.48 1007.3 2.7359 375.00 0.0026667 877.48 1007.3 2.7359 2.6345 3.2195 661.38 -0.00053816 53.298 0.093731 375.00 0.0026667 877.48 1007.3 2.7359 2.6345 3.2195 661.38 -0.00053816 53.298 0.093731
277.38 7092.1 undefined 880.11 1010.5 2.7407 375.00 0.0026667 880.11 1010.5 2.7407 2.6380 3.2213 662.50 -0.00056245 53.321 0.093888 375.00 0.0026667 880.11 1010.5 2.7407 2.6380 3.2213 662.50 -0.00056245 53.321 0.093888
278.38 7125.6 undefined 882.75 1013.8 2.7455 375.00 0.0026667 882.75 1013.8 2.7455 2.6414 3.2232 663.61 -0.00058651 53.344 0.094046 375.00 0.0026667 882.75 1013.8 2.7455 2.6414 3.2232 663.61 -0.00058651 53.344 0.094046
279.38 7159.2 undefined 885.40 1017.0 2.7503 375.00 0.0026667 885.40 1017.0 2.7503 2.6449 3.2250 664.71 -0.00061033 53.367 0.094203 375.00 0.0026667 885.40 1017.0 2.7503 2.6449 3.2250 664.71 -0.00061033 53.367 0.094203
280.38 7192.7 undefined 888.04 1020.3 2.7551 375.00 0.0026667 888.04 1020.3 2.7551 2.6484 3.2269 665.82 -0.00063393 53.389 0.094362 375.00 0.0026667 888.04 1020.3 2.7551 2.6484 3.2269 665.82 -0.00063393 53.389 0.094362
281.38 7226.3 undefined 890.69 1023.6 2.7599 375.00 0.0026667 890.69 1023.6 2.7599 2.6518 3.2288 666.92 -0.00065730 53.412 0.094520 375.00 0.0026667 890.69 1023.6 2.7599 2.6518 3.2288 666.92 -0.00065730 53.412 0.094520
282.38 7259.8 undefined 893.35 1026.8 2.7647 375.00 0.0026667 893.35 1026.8 2.7647 2.6553 3.2307 668.02 -0.00068045 53.435 0.094200 375.00 0.0026667 893.35 1026.8 2.7647 2.6553 3.2307 668.02 -0.00068045 53.435 0.094200
283.38 7293.3 undefined 896.00 1030.1 2.7694 375.00 0.0026667 896.00 1030.1 2.7694 2.6587 3.2326 669.11 -0.00070338 53.457 0.094358 375.00 0.0026667 896.00 1030.1 2.7694 2.6587 3.2326 669.11 -0.00070338 53.457 0.094358
284.38 7326.8 undefined 898.66 1033.4 2.7742 375.00 0.0026667 898.66 1033.4 2.7742 2.6622 3.2345 670.21 -0.00072608 53.480 0.094516 375.00 0.0026667 898.66 1033.4 2.7742 2.6622 3.2345 670.21 -0.00072608 53.480 0.094516
285.38 7360.3 undefined 901.33 1036.7 2.7790 375.00 0.0026667 901.33 1036.7 2.7790 2.6656 3.2364 671.30 -0.00074858 53.503 0.094675 375.00 0.0026667 901.33 1036.7 2.7790 2.6656 3.2364 671.30 -0.00074858 53.503 0.094675
286.38 7393.8 undefined 904.00 1039.9 2.7838 375.00 0.0026667 904.00 1039.9 2.7838 2.6691 3.2383 672.39 -0.00077086 53.525 0.094834 375.00 0.0026667 904.00 1039.9 2.7838 2.6691 3.2383 672.39 -0.00077086 53.525 0.094834
287.38 7427.3 undefined 906.67 1043.2 2.7885 375.00 0.0026667 906.67 1043.2 2.7885 2.6725 3.2403 673.47 -0.00079292 53.548 0.094993 375.00 0.0026667 906.67 1043.2 2.7885 2.6725 3.2403 673.47 -0.00079292 53.548 0.094993
288.38 7460.8 undefined 909.34 1046.5 2.7933 375.00 0.0026667 909.34 1046.5 2.7933 2.6759 3.2422 674.56 -0.00081478 53.570 0.095153 375.00 0.0026667 909.34 1046.5 2.7933 2.6759 3.2422 674.56 -0.00081478 53.570 0.095153
289.38 7494.3 undefined 912.02 1049.8 2.7981 375.00 0.0026667 912.02 1049.8 2.7981 2.6794 3.2442 675.64 -0.00083644 53.593 0.095312 375.00 0.0026667 912.02 1049.8 2.7981 2.6794 3.2442 675.64 -0.00083644 53.593 0.095312
290.38 7527.7 undefined 914.70 1053.1 2.8028 375.00 0.0026667 914.70 1053.1 2.8028 2.6828 3.2461 676.72 -0.00085789 53.615 0.095473 375.00 0.0026667 914.70 1053.1 2.8028 2.6828 3.2461 676.72 -0.00085789 53.615 0.095473
291.38 7561.2 undefined 917.38 1056.4 2.8076 375.00 0.0026667 917.38 1056.4 2.8076 2.6862 3.2481 677.79 -0.00087914 53.638 0.095633 375.00 0.0026667 917.38 1056.4 2.8076 2.6862 3.2481 677.79 -0.00087914 53.638 0.095633
292.38 7594.6 undefined 920.07 1059.7 2.8123 375.00 0.0026667 920.07 1059.7 2.8123 2.6896 3.2501 678.87 -0.00090019 53.660 0.095794 375.00 0.0026667 920.07 1059.7 2.8123 2.6896 3.2501 678.87 -0.00090019 53.660 0.095794
293.38 7628.0 undefined 922.76 1063.0 2.8171 375.00 0.0026667 922.76 1063.0 2.8171 2.6930 3.2520 679.94 -0.00092104 53.683 0.095955 375.00 0.0026667 922.76 1063.0 2.8171 2.6930 3.2520 679.94 -0.00092104 53.683 0.095955
294.38 7661.5 undefined 925.46 1066.3 2.8219 375.00 0.0026667 925.46 1066.3 2.8219 2.6964 3.2540 681.01 -0.00094170 53.705 0.096116 375.00 0.0026667 925.46 1066.3 2.8219 2.6964 3.2540 681.01 -0.00094170 53.705 0.096116
295.38 7694.9 undefined 928.16 1069.6 2.8266 375.00 0.0026667 928.16 1069.6 2.8266 2.6999 3.2560 682.07 -0.00096217 53.728 0.096278 375.00 0.0026667 928.16 1069.6 2.8266 2.6999 3.2560 682.07 -0.00096217 53.728 0.096278
296.38 7728.3 undefined 930.86 1072.9 2.8313 375.00 0.0026667 930.86 1072.9 2.8313 2.7033 3.2580 683.14 -0.00098245 53.750 0.096440 375.00 0.0026667 930.86 1072.9 2.8313 2.7033 3.2580 683.14 -0.00098245 53.750 0.096440
297.38 7761.7 undefined 933.56 1076.3 2.8361 375.00 0.0026667 933.56 1076.3 2.8361 2.7067 3.2600 684.20 -0.0010025 53.773 0.096602 375.00 0.0026667 933.56 1076.3 2.8361 2.7067 3.2600 684.20 -0.0010025 53.773 0.096602
298.38 7795.1 undefined 936.27 1079.6 2.8408 375.00 0.0026667 936.27 1079.6 2.8408 2.7100 3.2620 685.26 -0.0010224 53.795 0.096764 375.00 0.0026667 936.27 1079.6 2.8408 2.7100 3.2620 685.26 -0.0010224 53.795 0.096764
299.38 7828.5 undefined 938.98 1082.9 2.8456 375.00 0.0026667 938.98 1082.9 2.8456 2.7134 3.2640 686.32 -0.0010422 53.817 0.096927 375.00 0.0026667 938.98 1082.9 2.8456 2.7134 3.2640 686.32 -0.0010422 53.817 0.096927
300.38 7861.8 undefined 941.70 1086.2 2.8503 375.00 0.0026667 941.70 1086.2 2.8503 2.7168 3.2660 687.38 -0.0010617 53.840 0.097090 375.00 0.0026667 941.70 1086.2 2.8503 2.7168 3.2660 687.38 -0.0010617 53.840 0.097090