Temperature (C) Pressure (psia) Quality (l+v) Internal Energy (l+v, kJ/kg) Enthalpy (l+v, kJ/kg) Entropy (l+v, J/g*K) Density (l, kg/m3) Volume (l, m3/kg) Internal Energy (l, kJ/kg) Enthalpy (l, kJ/kg) Entropy (l, J/g*K) Cv (l, J/g*K) Cp (l, J/g*K) Sound Spd. (l, m/s) Joule-Thomson (l, F/psia) Viscosity (l, uPa*s) Therm. Cond. (l, W/m*K) Density (v, kg/m3) Volume (v, m3/kg) Internal Energy (v, kJ/kg) Enthalpy (v, kJ/kg) Entropy (v, J/g*K) Cv (v, J/g*K) Cp (v, J/g*K) Sound Spd. (v, m/s) Joule-Thomson (v, F/psia) Viscosity (v, uPa*s) Therm. Cond. (v, W/m*K)
-187.62 2.4953e-08 1.3159e-11 -196.64 -196.64 -1.3959 733.13 0.0013640 -196.64 -196.64 -1.3959 1.3553 1.9158 2136.4 -0.0077592 10960. 0.20792 1.0669e-08 9.3732e+07 350.13 366.26 5.1858 0.69067 0.87923 143.28 6.1051 2.3259 0.0017061
-186.62 3.7339e-08 1.9432e-11 -194.73 -194.73 -1.3736 732.08 0.0013660 -194.73 -194.73 -1.3736 1.3539 1.9166 2129.6 -0.0077546 10073. 0.20765 1.5780e-08 6.3371e+07 350.82 367.14 5.1200 0.69462 0.88317 144.03 5.9178 2.3534 0.0017533
-185.62 5.5322e-08 2.8416e-11 -192.81 -192.81 -1.3516 731.04 0.0013679 -192.81 -192.81 -1.3516 1.3525 1.9174 2122.9 -0.0077498 9276.1 0.20737 2.3112e-08 4.3267e+07 351.52 368.02 5.0561 0.69857 0.88713 144.77 5.7383 2.3808 0.0018007
-184.62 8.1182e-08 4.1163e-11 -190.89 -190.89 -1.3298 730.00 0.0013699 -190.89 -190.89 -1.3298 1.3513 1.9182 2116.1 -0.0077448 8557.8 0.20708 3.3533e-08 2.9821e+07 352.22 368.91 4.9939 0.70253 0.89108 145.51 5.5662 2.4083 0.0018485
-183.62 1.1803e-07 5.9086e-11 -188.97 -188.97 -1.3083 728.96 0.0013718 -188.97 -188.97 -1.3083 1.3501 1.9191 2109.3 -0.0077395 7909.8 0.20678 4.8211e-08 2.0742e+07 352.92 369.81 4.9333 0.70648 0.89504 146.24 5.4011 2.4357 0.0018965
-182.62 1.7009e-07 8.4068e-11 -187.05 -187.05 -1.2869 727.92 0.0013738 -187.05 -187.05 -1.2869 1.3490 1.9201 2102.5 -0.0077340 7324.3 0.20647 6.8704e-08 1.4555e+07 353.63 370.70 4.8744 0.71043 0.89899 146.97 5.2426 2.4632 0.0019448
-181.62 2.4299e-07 1.1860e-10 -185.13 -185.13 -1.2658 726.88 0.0013757 -185.13 -185.13 -1.2658 1.3480 1.9210 2095.7 -0.0077283 6794.5 0.20616 9.7079e-08 1.0301e+07 354.35 371.60 4.8170 0.71438 0.90294 147.69 5.0904 2.4906 0.0019934
-180.62 3.4425e-07 1.6594e-10 -183.21 -183.21 -1.2450 725.85 0.0013777 -183.21 -183.21 -1.2450 1.3470 1.9220 2088.9 -0.0077225 6314.4 0.20584 1.3605e-07 7.3504e+06 355.06 372.51 4.7612 0.71833 0.90688 148.41 4.9442 2.5181 0.0020423
-179.62 4.8378e-07 2.3033e-10 -181.29 -181.29 -1.2243 724.81 0.0013797 -181.29 -181.29 -1.2243 1.3461 1.9231 2082.0 -0.0077164 5878.8 0.20551 1.8915e-07 5.2868e+06 355.78 373.42 4.7068 0.72227 0.91082 149.13 4.8038 2.5456 0.0020915
-178.62 6.7459e-07 3.1727e-10 -179.37 -179.37 -1.2038 723.78 0.0013816 -179.37 -179.37 -1.2038 1.3453 1.9241 2075.2 -0.0077102 5482.9 0.20517 2.6096e-07 3.8320e+06 356.51 374.33 4.6538 0.72620 0.91475 149.84 4.6688 2.5731 0.0021410
-177.62 9.3358e-07 4.3377e-10 -177.44 -177.44 -1.1836 722.75 0.0013836 -177.44 -177.44 -1.1836 1.3445 1.9252 2068.4 -0.0077039 5122.6 0.20483 3.5737e-07 2.7982e+06 357.23 375.25 4.6022 0.73012 0.91867 150.54 4.5390 2.6005 0.0021907
-176.62 1.2826e-06 5.8880e-10 -175.52 -175.52 -1.1635 721.72 0.0013856 -175.52 -175.52 -1.1635 1.3437 1.9263 2061.5 -0.0076973 4794.1 0.20447 4.8588e-07 2.0581e+06 357.97 376.17 4.5519 0.73403 0.92258 151.25 4.4142 2.6280 0.0022408
-175.62 1.7496e-06 7.9367e-10 -173.59 -173.59 -1.1437 720.69 0.0013876 -173.59 -173.59 -1.1437 1.3430 1.9274 2054.7 -0.0076907 4494.3 0.20411 6.5601e-07 1.5244e+06 358.70 377.09 4.5029 0.73792 0.92648 151.95 4.2941 2.6555 0.0022912
-174.62 2.3705e-06 1.0626e-09 -171.66 -171.66 -1.1240 719.66 0.0013895 -171.66 -171.66 -1.1240 1.3423 1.9286 2047.9 -0.0076838 4220.2 0.20375 8.7976e-07 1.1367e+06 359.44 378.02 4.4551 0.74181 0.93036 152.64 4.1784 2.6830 0.0023418
-173.62 3.1903e-06 1.4135e-09 -169.73 -169.73 -1.1045 718.64 0.0013915 -169.73 -169.73 -1.1045 1.3417 1.9298 2041.0 -0.0076769 3969.3 0.20338 1.1721e-06 8.5314e+05 360.19 378.95 4.4085 0.74568 0.93423 153.33 4.0671 2.7105 0.0023928
-172.62 4.2661e-06 1.8682e-09 -167.80 -167.80 -1.0852 717.61 0.0013935 -167.80 -167.80 -1.0852 1.3411 1.9310 2034.2 -0.0076698 3739.3 0.20300 1.5518e-06 6.4441e+05 360.93 379.89 4.3631 0.74953 0.93809 154.02 3.9599 2.7379 0.0024440
-171.62 5.6692e-06 2.4541e-09 -165.87 -165.87 -1.0661 716.58 0.0013955 -165.87 -165.87 -1.0661 1.3405 1.9322 2027.3 -0.0076625 3528.0 0.20261 2.0419e-06 4.8974e+05 361.69 380.83 4.3188 0.75337 0.94193 154.71 3.8566 2.7654 0.0024955
-170.62 7.4884e-06 3.2047e-09 -163.94 -163.94 -1.0472 715.56 0.0013975 -163.94 -163.94 -1.0472 1.3400 1.9334 2020.5 -0.0076552 3333.8 0.20222 2.6708e-06 3.7442e+05 362.44 381.77 4.2755 0.75720 0.94575 155.39 3.7570 2.7929 0.0025473
-169.62 9.8334e-06 4.1606e-09 -162.00 -162.00 -1.0284 714.54 0.0013995 -162.00 -162.00 -1.0284 1.3395 1.9347 2013.6 -0.0076477 3154.9 0.20182 3.4733e-06 2.8791e+05 363.20 382.72 4.2334 0.76100 0.94956 156.07 3.6609 2.8204 0.0025994
-168.62 1.2839e-05 5.3715e-09 -160.07 -160.07 -1.0098 713.52 0.0014015 -160.07 -160.07 -1.0098 1.3390 1.9359 2006.8 -0.0076401 2989.9 0.20141 4.4917e-06 2.2263e+05 363.96 383.67 4.1922 0.76479 0.95335 156.74 3.5683 2.8479 0.0026518
-167.62 1.6672e-05 6.8972e-09 -158.13 -158.13 -0.99134 712.49 0.0014035 -158.13 -158.13 -0.99134 1.3386 1.9372 2000.0 -0.0076323 2837.5 0.20100 5.7771e-06 1.7310e+05 364.73 384.63 4.1521 0.76856 0.95712 157.41 3.4790 2.8754 0.0027045
-166.62 2.1533e-05 8.8096e-09 -156.19 -156.19 -0.97306 711.47 0.0014055 -156.19 -156.19 -0.97306 1.3382 1.9385 1993.1 -0.0076245 2696.5 0.20058 7.3914e-06 1.3529e+05 365.50 385.59 4.1129 0.77232 0.96087 158.08 3.3927 2.9029 0.0027575
-165.62 2.7666e-05 1.1195e-08 -154.25 -154.25 -0.95494 710.45 0.0014075 -154.25 -154.25 -0.95494 1.3378 1.9398 1986.3 -0.0076165 2566.0 0.20016 9.4084e-06 1.0629e+05 366.27 386.55 4.0746 0.77605 0.96460 158.75 3.3095 2.9304 0.0028108
-164.62 3.5367e-05 1.4155e-08 -152.31 -152.31 -0.93698 709.44 0.0014096 -152.31 -152.31 -0.93698 1.3375 1.9411 1979.4 -0.0076084 2444.9 0.19973 1.1916e-05 83918. 367.05 387.52 4.0372 0.77976 0.96832 159.41 3.2291 2.9579 0.0028643
-163.62 4.4989e-05 1.7811e-08 -150.37 -150.37 -0.91917 708.42 0.0014116 -150.37 -150.37 -0.91917 1.3371 1.9424 1972.6 -0.0076002 2332.3 0.19930 1.5020e-05 66577. 367.83 388.49 4.0008 0.78346 0.97201 160.07 3.1514 2.9854 0.0029182
-162.62 5.6956e-05 2.2307e-08 -148.43 -148.43 -0.90151 707.40 0.0014136 -148.43 -148.43 -0.90151 1.3368 1.9437 1965.8 -0.0075919 2227.7 0.19886 1.8844e-05 53068. 368.62 389.46 3.9651 0.78713 0.97569 160.72 3.0764 3.0129 0.0029723
-161.62 7.1773e-05 2.7810e-08 -146.48 -146.48 -0.88400 706.38 0.0014157 -146.48 -146.48 -0.88400 1.3365 1.9451 1959.0 -0.0075834 2130.2 0.19841 2.3533e-05 42494. 369.41 390.44 3.9304 0.79079 0.97935 161.38 3.0038 3.0404 0.0030268
-160.62 9.0036e-05 3.4516e-08 -144.54 -144.54 -0.86663 705.37 0.0014177 -144.54 -144.54 -0.86663 1.3363 1.9465 1952.1 -0.0075748 2039.2 0.19796 2.9258e-05 34178. 370.20 391.42 3.8964 0.79443 0.98298 162.03 2.9337 3.0679 0.0030815
-159.62 0.00011245 4.2656e-08 -142.59 -142.59 -0.84940 704.35 0.0014197 -142.59 -142.59 -0.84940 1.3360 1.9478 1945.3 -0.0075661 1954.2 0.19751 3.6221e-05 27609. 371.00 392.40 3.8632 0.79805 0.98660 162.68 2.8658 3.0955 0.0031365
-158.62 0.00013985 5.2493e-08 -140.64 -140.64 -0.83231 703.34 0.0014218 -140.64 -140.64 -0.83231 1.3358 1.9492 1938.5 -0.0075573 1874.8 0.19705 4.4652e-05 22395. 371.80 393.39 3.8307 0.80164 0.99020 163.32 2.8002 3.1230 0.0031918
-157.62 0.00017320 6.4336e-08 -138.69 -138.69 -0.81536 702.32 0.0014238 -138.69 -138.69 -0.81536 1.3356 1.9506 1931.7 -0.0075484 1800.3 0.19658 5.4822e-05 18241. 372.60 394.38 3.7990 0.80522 0.99378 163.96 2.7367 3.1505 0.0032474
-156.62 0.00021364 7.8538e-08 -136.74 -136.74 -0.79854 701.31 0.0014259 -136.74 -136.74 -0.79854 1.3354 1.9520 1924.9 -0.0075393 1730.5 0.19611 6.7040e-05 14916. 373.41 395.38 3.7680 0.80878 0.99734 164.60 2.6752 3.1780 0.0033033
-155.62 0.00026248 9.5504e-08 -134.79 -134.79 -0.78185 700.30 0.0014280 -134.79 -134.79 -0.78185 1.3352 1.9534 1918.1 -0.0075302 1664.9 0.19564 8.1666e-05 12245. 374.22 396.38 3.7377 0.81232 1.0009 165.24 2.6157 3.2055 0.0033595
-154.62 0.00032125 1.1570e-07 -132.83 -132.83 -0.76530 699.29 0.0014300 -132.83 -132.83 -0.76530 1.3350 1.9548 1911.3 -0.0075209 1603.3 0.19516 9.9109e-05 10090. 375.03 397.38 3.7081 0.81585 1.0044 165.87 2.5580 3.2330 0.0034160
-153.62 0.00039171 1.3965e-07 -130.88 -130.88 -0.74887 698.27 0.0014321 -130.88 -130.88 -0.74887 1.3349 1.9563 1904.5 -0.0075114 1545.3 0.19468 0.00011984 8344.6 375.85 398.39 3.6792 0.81935 1.0079 166.50 2.5022 3.2606 0.0034727
-152.62 0.00047590 1.6795e-07 -128.92 -128.92 -0.73256 697.26 0.0014342 -128.92 -128.92 -0.73256 1.3348 1.9577 1897.8 -0.0075019 1490.6 0.19419 0.00014439 6925.9 376.67 399.40 3.6509 0.82284 1.0114 167.13 2.4481 3.2881 0.0035298
-151.62 0.00057613 2.0129e-07 -126.96 -126.96 -0.71638 696.25 0.0014363 -126.96 -126.96 -0.71638 1.3346 1.9592 1891.0 -0.0074922 1438.9 0.19370 0.00017336 5768.4 377.49 400.41 3.6232 0.82631 1.0149 167.76 2.3957 3.3156 0.0035872
-150.62 0.00069507 2.4043e-07 -125.00 -125.00 -0.70032 695.24 0.0014384 -125.00 -125.00 -0.70032 1.3345 1.9606 1884.2 -0.0074824 1390.2 0.19320 0.00020744 4820.7 378.32 401.42 3.5962 0.82976 1.0183 168.38 2.3448 3.3431 0.0036448
-149.62 0.00083574 2.8623e-07 -123.04 -123.04 -0.68437 694.23 0.0014404 -123.04 -123.04 -0.68438 1.3345 1.9621 1877.4 -0.0074724 1344.0 0.19270 0.00024740 4042.0 379.15 402.44 3.5697 0.83319 1.0218 169.00 2.2956 3.3706 0.0037027
-148.62 0.0010016 3.3966e-07 -121.08 -121.08 -0.66855 693.22 0.0014425 -121.08 -121.08 -0.66855 1.3344 1.9636 1870.7 -0.0074623 1300.3 0.19220 0.00029412 3400.0 379.99 403.47 3.5438 0.83661 1.0252 169.62 2.2478 3.3982 0.0037610
-147.62 0.0011965 4.0180e-07 -119.11 -119.11 -0.65284 692.21 0.0014447 -119.11 -119.11 -0.65284 1.3343 1.9651 1863.9 -0.0074521 1258.9 0.19169 0.00034856 2869.0 380.83 404.49 3.5185 0.84001 1.0286 170.24 2.2014 3.4257 0.0038195
-146.62 0.0014249 4.7385e-07 -117.15 -117.15 -0.63724 691.20 0.0014468 -117.15 -117.15 -0.63724 1.3343 1.9666 1857.2 -0.0074417 1219.6 0.19117 0.00041181 2428.3 381.67 405.52 3.4938 0.84340 1.0320 170.85 2.1565 3.4532 0.0038783
-145.62 0.0016917 5.5714e-07 -115.18 -115.18 -0.62175 690.19 0.0014489 -115.18 -115.18 -0.62175 1.3343 1.9682 1850.4 -0.0074312 1182.3 0.19066 0.00048510 2061.4 382.51 406.56 3.4695 0.84677 1.0353 171.46 2.1128 3.4807 0.0039374
-144.62 0.0020026 6.5317e-07 -113.21 -113.21 -0.60637 689.18 0.0014510 -113.21 -113.21 -0.60637 1.3343 1.9697 1843.7 -0.0074206 1146.8 0.19014 0.00056976 1755.1 383.36 407.59 3.4458 0.85012 1.0387 172.07 2.0705 3.5082 0.0039967
-143.62 0.0023637 7.6358e-07 -111.24 -111.24 -0.59110 688.17 0.0014531 -111.24 -111.24 -0.59110 1.3343 1.9713 1836.9 -0.0074098 1113.0 0.18962 0.00066731 1498.6 384.21 408.63 3.4226 0.85346 1.0420 172.68 2.0294 3.5358 0.0040564
-142.62 0.0027820 8.9017e-07 -109.27 -109.27 -0.57593 687.16 0.0014553 -109.27 -109.27 -0.57593 1.3343 1.9728 1830.2 -0.0073988 1080.8 0.18909 0.00077939 1283.1 385.07 409.68 3.3999 0.85679 1.0454 173.28 1.9896 3.5633 0.0041164
-141.62 0.0032653 1.0349e-06 -107.30 -107.30 -0.56086 686.15 0.0014574 -107.30 -107.30 -0.56087 1.3343 1.9744 1823.5 -0.0073878 1050.1 0.18856 0.00090784 1101.5 385.93 410.72 3.3777 0.86011 1.0487 173.88 1.9508 3.5908 0.0041766
-140.62 0.0038222 1.2001e-06 -105.32 -105.32 -0.54590 685.14 0.0014596 -105.32 -105.32 -0.54591 1.3344 1.9760 1816.7 -0.0073765 1020.7 0.18803 0.0010547 948.16 386.79 411.77 3.3560 0.86341 1.0520 174.48 1.9133 3.6183 0.0042372
-139.62 0.0044623 1.3879e-06 -103.34 -103.34 -0.53104 684.13 0.0014617 -103.34 -103.34 -0.53105 1.3344 1.9776 1810.0 -0.0073651 992.74 0.18749 0.0012221 818.26 387.65 412.83 3.3347 0.86670 1.0553 175.08 1.8768 3.6459 0.0042980
-138.62 0.0051963 1.6012e-06 -101.37 -101.37 -0.51628 683.12 0.0014639 -101.37 -101.37 -0.51629 1.3345 1.9792 1803.3 -0.0073536 965.97 0.18695 0.0014125 707.94 388.52 413.88 3.3139 0.86998 1.0586 175.67 1.8413 3.6734 0.0043592
-137.62 0.0060358 1.8426e-06 -99.385 -99.385 -0.50161 682.11 0.0014660 -99.386 -99.386 -0.50162 1.3346 1.9808 1796.6 -0.0073419 940.35 0.18641 0.0016287 614.00 389.39 414.94 3.2935 0.87325 1.0619 176.26 1.8069 3.7009 0.0044206
-136.62 0.0069938 2.1154e-06 -97.403 -97.403 -0.48705 681.10 0.0014682 -97.404 -97.404 -0.48705 1.3347 1.9825 1789.9 -0.0073301 915.81 0.18586 0.0018733 533.80 390.26 416.00 3.2735 0.87650 1.0651 176.85 1.7734 3.7284 0.0044823
-135.62 0.0080843 2.4228e-06 -95.420 -95.420 -0.47257 680.09 0.0014704 -95.421 -95.421 -0.47258 1.3348 1.9841 1783.2 -0.0073180 892.30 0.18531 0.0021497 465.17 391.14 417.07 3.2540 0.87975 1.0684 177.44 1.7409 3.7559 0.0045443
-134.62 0.0093230 2.7685e-06 -93.435 -93.435 -0.45819 679.08 0.0014726 -93.436 -93.436 -0.45820 1.3350 1.9858 1776.5 -0.0073059 869.75 0.18476 0.0024613 406.30 392.02 418.14 3.2348 0.88299 1.0716 178.02 1.7093 3.7834 0.0046066
-133.62 0.010727 3.1564e-06 -91.448 -91.448 -0.44390 678.07 0.0014748 -91.450 -91.449 -0.44391 1.3351 1.9875 1769.8 -0.0072935 848.11 0.18421 0.0028116 355.67 392.91 419.21 3.2161 0.88622 1.0749 178.61 1.6786 3.8109 0.0046691
-132.62 0.012315 3.5908e-06 -89.459 -89.459 -0.42970 677.06 0.0014770 -89.461 -89.461 -0.42971 1.3353 1.9892 1763.1 -0.0072810 827.32 0.18365 0.0032049 312.03 393.79 420.29 3.1977 0.88944 1.0781 179.19 1.6488 3.8385 0.0047320
-131.62 0.014106 4.0762e-06 -87.469 -87.469 -0.41558 676.04 0.0014792 -87.471 -87.471 -0.41560 1.3354 1.9909 1756.4 -0.0072684 807.34 0.18309 0.0036453 274.33 394.68 421.36 3.1798 0.89266 1.0813 179.76 1.6197 3.8660 0.0047951
-130.62 0.016124 4.6175e-06 -85.477 -85.477 -0.40156 675.03 0.0014814 -85.479 -85.479 -0.40157 1.3356 1.9926 1749.7 -0.0072555 788.12 0.18253 0.0041375 241.69 395.58 422.44 3.1622 0.89586 1.0846 180.34 1.5915 3.8935 0.0048586
-129.62 0.018392 5.2199e-06 -83.483 -83.483 -0.38762 674.02 0.0014836 -83.486 -83.486 -0.38763 1.3358 1.9944 1743.0 -0.0072425 769.63 0.18196 0.0046867 213.37 396.47 423.53 3.1450 0.89906 1.0878 180.91 1.5641 3.9210 0.0049223
-128.62 0.020935 5.8891e-06 -81.488 -81.487 -0.37376 673.01 0.0014859 -81.491 -81.490 -0.37378 1.3360 1.9961 1736.3 -0.0072294 751.83 0.18140 0.0052981 188.75 397.37 424.62 3.1281 0.90226 1.0910 181.48 1.5374 3.9485 0.0049863
-127.62 0.023783 6.6310e-06 -79.490 -79.490 -0.35999 672.00 0.0014881 -79.494 -79.493 -0.36001 1.3363 1.9979 1729.6 -0.0072160 734.67 0.18083 0.0059776 167.29 398.27 425.71 3.1116 0.90545 1.0942 182.05 1.5114 3.9760 0.0050506
-126.62 0.026966 7.4520e-06 -77.491 -77.491 -0.34630 670.98 0.0014904 -77.495 -77.495 -0.34632 1.3365 1.9997 1722.9 -0.0072025 718.14 0.18025 0.0067313 148.56 399.18 426.80 3.0954 0.90863 1.0974 182.62 1.4861 4.0035 0.0051152
-125.62 0.030515 8.3589e-06 -75.490 -75.490 -0.33269 669.97 0.0014926 -75.494 -75.494 -0.33272 1.3368 2.0015 1716.2 -0.0071888 702.18 0.17968 0.0075660 132.17 400.09 427.89 3.0795 0.91181 1.1006 183.18 1.4615 4.0310 0.0051800
-124.62 0.034467 9.3590e-06 -73.487 -73.487 -0.31916 668.95 0.0014949 -73.492 -73.492 -0.31919 1.3371 2.0033 1709.5 -0.0071749 686.79 0.17910 0.0084885 117.81 401.00 428.99 3.0640 0.91499 1.1038 183.74 1.4375 4.0584 0.0052452
-123.62 0.038859 1.0460e-05 -71.483 -71.482 -0.30570 667.94 0.0014971 -71.488 -71.487 -0.30574 1.3374 2.0051 1702.8 -0.0071609 671.93 0.17852 0.0095065 105.19 401.91 430.10 3.0488 0.91816 1.1070 184.30 1.4141 4.0859 0.0053106
-122.62 0.043731 1.1669e-05 -69.476 -69.475 -0.29233 666.92 0.0014994 -69.482 -69.481 -0.29237 1.3377 2.0070 1696.2 -0.0071466 657.57 0.17794 0.010628 94.092 402.83 431.20 3.0339 0.92134 1.1102 184.86 1.3913 4.1134 0.0053764
-121.62 0.049128 1.2996e-05 -67.468 -67.467 -0.27903 665.91 0.0015017 -67.474 -67.473 -0.27907 1.3380 2.0089 1689.5 -0.0071322 643.70 0.17736 0.011861 84.309 403.75 432.31 3.0193 0.92451 1.1134 185.41 1.3691 4.1409 0.0054424
-120.62 0.055096 1.4450e-05 -65.457 -65.456 -0.26581 664.89 0.0015040 -65.464 -65.463 -0.26585 1.3384 2.0107 1682.8 -0.0071176 630.28 0.17678 0.013215 75.669 404.67 433.42 3.0050 0.92767 1.1166 185.96 1.3475 4.1683 0.0055087
-119.62 0.061684 1.6039e-05 -63.445 -63.444 -0.25265 663.87 0.0015063 -63.452 -63.452 -0.25271 1.3387 2.0126 1676.1 -0.0071028 617.30 0.17619 0.014700 68.027 405.60 434.53 2.9909 0.93084 1.1198 186.51 1.3264 4.1958 0.0055752
-118.62 0.068946 1.7775e-05 -61.430 -61.429 -0.23958 662.86 0.0015086 -61.439 -61.438 -0.23963 1.3391 2.0146 1669.4 -0.0070878 604.74 0.17560 0.016325 61.255 406.53 435.64 2.9772 0.93401 1.1231 187.06 1.3058 4.2233 0.0056421
-117.62 0.076937 1.9667e-05 -59.414 -59.413 -0.22657 661.84 0.0015109 -59.423 -59.422 -0.22663 1.3395 2.0165 1662.8 -0.0070726 592.58 0.17501 0.018101 55.245 407.46 436.76 2.9638 0.93718 1.1263 187.60 1.2857 4.2507 0.0057092
-116.62 0.085718 2.1726e-05 -57.396 -57.394 -0.21363 660.82 0.0015133 -57.406 -57.405 -0.21370 1.3400 2.0184 1656.1 -0.0070573 580.80 0.17442 0.020040 49.901 408.39 437.88 2.9506 0.94035 1.1295 188.14 1.2660 4.2782 0.0057767
-115.62 0.095353 2.3965e-05 -55.375 -55.373 -0.20077 659.80 0.0015156 -55.386 -55.385 -0.20084 1.3404 2.0204 1649.4 -0.0070417 569.38 0.17383 0.022152 45.142 409.33 439.01 2.9377 0.94352 1.1327 188.68 1.2468 4.3056 0.0058444
-114.62 0.10591 2.6394e-05 -53.353 -53.351 -0.18797 658.78 0.0015180 -53.365 -53.364 -0.18805 1.3409 2.0224 1642.7 -0.0070260 558.32 0.17323 0.024451 40.898 410.27 440.13 2.9250 0.94669 1.1360 189.22 1.2281 4.3330 0.0059123
-113.62 0.11746 2.9028e-05 -51.328 -51.326 -0.17524 657.76 0.0015203 -51.342 -51.340 -0.17533 1.3413 2.0244 1636.0 -0.0070100 547.59 0.17264 0.026949 37.107 411.21 441.26 2.9126 0.94987 1.1392 189.75 1.2097 4.3604 0.0059806
-112.62 0.13008 3.1878e-05 -49.301 -49.299 -0.16257 656.73 0.0015227 -49.316 -49.315 -0.16267 1.3418 2.0264 1629.3 -0.0069938 537.18 0.17204 0.029661 33.715 412.16 442.39 2.9005 0.95305 1.1424 190.28 1.1918 4.3879 0.0060491
-111.62 0.14384 3.4960e-05 -47.273 -47.270 -0.14997 655.71 0.0015251 -47.289 -47.287 -0.15008 1.3424 2.0285 1622.7 -0.0069774 527.08 0.17144 0.032600 30.675 413.10 443.53 2.8885 0.95623 1.1457 190.81 1.1742 4.4153 0.0061180
-110.62 0.15884 3.8286e-05 -45.242 -45.239 -0.13744 654.69 0.0015274 -45.259 -45.258 -0.13755 1.3429 2.0305 1616.0 -0.0069609 517.28 0.17084 0.035781 27.948 414.06 444.66 2.8769 0.95942 1.1490 191.34 1.1570 4.4427 0.0061871
-109.62 0.17516 4.1872e-05 -43.209 -43.205 -0.12497 653.66 0.0015298 -43.228 -43.226 -0.12509 1.3435 2.0326 1609.3 -0.0069441 507.76 0.17024 0.039220 25.497 415.01 445.80 2.8654 0.96261 1.1522 191.86 1.1402 4.4701 0.0062564
-108.62 0.19290 4.5733e-05 -41.173 -41.170 -0.11256 652.64 0.0015322 -41.194 -41.192 -0.11269 1.3441 2.0347 1602.6 -0.0069271 498.51 0.16964 0.042933 23.292 415.96 446.94 2.8542 0.96581 1.1555 192.38 1.1236 4.4974 0.0063261
-107.62 0.21215 4.9885e-05 -39.136 -39.132 -0.10021 651.61 0.0015347 -39.158 -39.156 -0.10036 1.3447 2.0369 1595.9 -0.0069098 489.52 0.16903 0.046937 21.305 416.92 448.09 2.8433 0.96901 1.1588 192.90 1.1075 4.5248 0.0063960
-106.62 0.23301 5.4346e-05 -37.096 -37.092 -0.087924 650.58 0.0015371 -37.120 -37.118 -0.088082 1.3453 2.0390 1589.2 -0.0068924 480.79 0.16843 0.051250 19.512 417.88 449.23 2.8325 0.97222 1.1621 193.41 1.0916 4.5522 0.0064662
-105.62 0.25561 5.9131e-05 -35.054 -35.049 -0.075697 649.55 0.0015395 -35.080 -35.078 -0.075868 1.3460 2.0412 1582.6 -0.0068747 472.30 0.16782 0.055891 17.892 418.85 450.38 2.8220 0.97544 1.1655 193.93 1.0760 4.5795 0.0065367
-104.62 0.28004 6.4259e-05 -33.009 -33.004 -0.063529 648.52 0.0015420 -33.038 -33.035 -0.063714 1.3467 2.0434 1575.9 -0.0068569 464.04 0.16721 0.060878 16.426 419.81 451.53 2.8116 0.97867 1.1688 194.44 1.0608 4.6069 0.0066074
-103.62 0.30643 6.9747e-05 -30.962 -30.957 -0.051420 647.49 0.0015444 -30.994 -30.991 -0.051619 1.3474 2.0456 1569.2 -0.0068387 456.00 0.16660 0.066231 15.099 420.78 452.68 2.8015 0.98191 1.1722 194.94 1.0458 4.6342 0.0066785
-102.62 0.33490 7.5615e-05 -28.913 -28.907 -0.039368 646.46 0.0015469 -28.947 -28.944 -0.039582 1.3481 2.0478 1562.5 -0.0068204 448.18 0.16600 0.071971 13.894 421.75 453.84 2.7916 0.98516 1.1755 195.44 1.0310 4.6615 0.0067498
-101.62 0.36558 8.1882e-05 -26.862 -26.855 -0.027372 645.43 0.0015494 -26.898 -26.894 -0.027602 1.3489 2.0501 1555.8 -0.0068018 440.57 0.16539 0.078120 12.801 422.73 454.99 2.7818 0.98841 1.1789 195.95 1.0166 4.6888 0.0068213
-100.62 0.39862 8.8568e-05 -24.807 -24.800 -0.015431 644.39 0.0015519 -24.847 -24.843 -0.015678 1.3497 2.0524 1549.1 -0.0067830 433.16 0.16478 0.084699 11.807 423.70 456.15 2.7723 0.99168 1.1823 196.44 1.0024 4.7161 0.0068932
-99.625 0.43414 9.5694e-05 -22.751 -22.743 -0.0035455 643.36 0.0015544 -22.794 -22.789 -0.0038103 1.3505 2.0547 1542.4 -0.0067639 425.95 0.16416 0.091731 10.901 424.68 457.31 2.7630 0.99496 1.1858 196.94 0.98838 4.7434 0.0069653
-98.625 0.47230 0.00010328 -20.692 -20.683 0.0082863 642.32 0.0015569 -20.738 -20.733 0.0080027 1.3514 2.0570 1535.7 -0.0067447 418.92 0.16355 0.099240 10.077 425.66 458.48 2.7538 0.99825 1.1892 197.43 0.97464 4.7707 0.0070377
-97.625 0.51325 0.00011135 -18.630 -18.621 0.020065 641.28 0.0015594 -18.680 -18.674 0.019762 1.3522 2.0594 1529.0 -0.0067251 412.07 0.16294 0.10725 9.3239 426.65 459.64 2.7448 1.0016 1.1927 197.92 0.96112 4.7979 0.0071103
-96.625 0.55714 0.00011992 -16.566 -16.556 0.031791 640.24 0.0015619 -16.620 -16.614 0.031467 1.3531 2.0618 1522.3 -0.0067053 405.39 0.16233 0.11579 8.6365 427.63 460.81 2.7360 1.0049 1.1962 198.40 0.94783 4.8251 0.0071832
-95.625 0.60416 0.00012902 -14.499 -14.489 0.043466 639.20 0.0015645 -14.557 -14.550 0.043120 1.3540 2.0642 1515.7 -0.0066853 398.88 0.16171 0.12488 8.0078 428.62 461.98 2.7274 1.0082 1.1997 198.88 0.93475 4.8524 0.0072564
-94.625 0.65446 0.00013867 -12.430 -12.418 0.055091 638.16 0.0015670 -12.491 -12.484 0.054721 1.3550 2.0667 1509.0 -0.0066650 392.53 0.16110 0.13455 7.4323 429.61 463.15 2.7189 1.0116 1.2032 199.36 0.92188 4.8796 0.0073299
-93.625 0.70822 0.00014889 -10.358 -10.345 0.066665 637.12 0.0015696 -10.424 -10.416 0.066271 1.3560 2.0691 1502.3 -0.0066444 386.34 0.16048 0.14482 6.9050 430.60 464.32 2.7107 1.0149 1.2068 199.83 0.90921 4.9068 0.0074036
-92.625 0.76564 0.00015971 -8.2833 -8.2695 0.078190 636.07 0.0015722 -8.3535 -8.3452 0.077771 1.3570 2.0716 1495.6 -0.0066236 380.31 0.15987 0.15573 6.4212 431.60 465.49 2.7025 1.0183 1.2104 200.30 0.89673 4.9340 0.0074776
-91.625 0.82689 0.00017115 -6.2057 -6.1909 0.089666 635.02 0.0015747 -6.2808 -6.2719 0.089220 1.3580 2.0742 1488.9 -0.0066025 374.41 0.15925 0.16731 5.9769 432.59 466.67 2.6946 1.0217 1.2140 200.77 0.88445 4.9611 0.0075518
-90.625 0.89218 0.00018323 -4.1254 -4.1094 0.10109 633.98 0.0015773 -4.2056 -4.1959 0.10062 1.3591 2.0767 1482.2 -0.0065811 368.66 0.15864 0.17958 5.5685 433.59 467.84 2.6868 1.0251 1.2177 201.24 0.87236 4.9883 0.0076263
-89.625 0.96172 0.00019600 -2.0423 -2.0251 0.11248 632.93 0.0015800 -2.1279 -2.1174 0.11197 1.3602 2.0793 1475.5 -0.0065595 363.05 0.15802 0.19258 5.1928 434.59 469.02 2.6791 1.0285 1.2213 201.70 0.86045 5.0154 0.0077011
-88.625 1.0357 0.00020945 0.043731 0.062278 0.12381 631.88 0.0015826 -0.047516 -0.036215 0.12328 1.3613 2.0819 1468.8 -0.0065375 357.56 0.15740 0.20633 4.8466 435.59 470.20 2.6717 1.0320 1.2250 202.15 0.84873 5.0425 0.0077761
-87.625 1.1144 0.00022364 2.1326 2.1526 0.13510 630.83 0.0015852 2.0355 2.0476 0.13454 1.3625 2.0846 1462.1 -0.0065153 352.21 0.15679 0.22087 4.5276 436.60 471.39 2.6643 1.0354 1.2288 202.61 0.83718 5.0696 0.0078514
-86.625 1.1979 0.00023857 4.2245 4.2459 0.14635 629.77 0.0015879 4.1211 4.1342 0.14575 1.3637 2.0873 1455.4 -0.0064928 346.98 0.15617 0.23623 4.2331 437.61 472.57 2.6571 1.0389 1.2325 203.06 0.82580 5.0967 0.0079270
-85.625 1.2866 0.00025429 6.3193 6.3424 0.15755 628.72 0.0015905 6.2094 6.2235 0.15691 1.3649 2.0900 1448.8 -0.0064701 341.87 0.15555 0.25245 3.9612 438.61 473.75 2.6501 1.0424 1.2363 203.50 0.81460 5.1237 0.0080028
-84.625 1.3806 0.00027081 8.4172 8.4419 0.16871 627.66 0.0015932 8.3004 8.3155 0.16803 1.3661 2.0927 1442.1 -0.0064470 336.87 0.15494 0.26956 3.7097 439.63 474.94 2.6432 1.0460 1.2402 203.95 0.80356 5.1508 0.0080789
-83.625 1.4803 0.00028816 10.518 10.545 0.17982 626.60 0.0015959 10.394 10.410 0.17911 1.3674 2.0955 1435.4 -0.0064236 331.99 0.15432 0.28760 3.4771 440.64 476.13 2.6364 1.0495 1.2440 204.38 0.79269 5.1778 0.0081553
-82.625 1.5858 0.00030638 12.622 12.650 0.19089 625.54 0.0015986 12.491 12.508 0.19014 1.3687 2.0983 1428.7 -0.0063999 327.22 0.15370 0.30659 3.2616 441.65 477.31 2.6298 1.0531 1.2479 204.82 0.78199 5.2048 0.0082319
-81.625 1.6975 0.00032548 14.729 14.760 0.20192 624.48 0.0016013 14.590 14.609 0.20113 1.3700 2.1012 1422.0 -0.0063759 322.55 0.15309 0.32659 3.0619 442.67 478.50 2.6233 1.0567 1.2519 205.25 0.77144 5.2318 0.0083088
-80.625 1.8155 0.00034551 16.840 16.872 0.21291 623.42 0.0016041 16.692 16.712 0.21208 1.3714 2.1041 1415.4 -0.0063516 317.99 0.15247 0.34763 2.8766 443.69 479.70 2.6169 1.0603 1.2558 205.67 0.76106 5.2587 0.0083860
-79.625 1.9402 0.00036648 18.953 18.988 0.22386 622.36 0.0016068 18.797 18.819 0.22299 1.3728 2.1070 1408.7 -0.0063270 313.52 0.15186 0.36974 2.7046 444.71 480.89 2.6106 1.0639 1.2598 206.10 0.75083 5.2857 0.0084634
-78.625 2.0718 0.00038843 21.070 21.107 0.23477 621.29 0.0016096 20.905 20.928 0.23385 1.3742 2.1099 1402.0 -0.0063021 309.15 0.15124 0.39296 2.5448 445.73 482.08 2.6045 1.0676 1.2639 206.51 0.74076 5.3126 0.0085411
-77.625 2.2107 0.00041139 23.190 23.230 0.24564 620.22 0.0016123 23.016 23.040 0.24468 1.3757 2.1129 1395.3 -0.0062768 304.88 0.15062 0.41735 2.3961 446.75 483.27 2.5985 1.0712 1.2680 206.93 0.73084 5.3395 0.0086190
-76.625 2.3571 0.00043539 25.314 25.356 0.25648 619.15 0.0016151 25.130 25.156 0.25546 1.3772 2.1159 1388.7 -0.0062512 300.69 0.15001 0.44292 2.2577 447.78 484.47 2.5926 1.0749 1.2721 207.34 0.72107 5.3664 0.0086972
-75.625 2.5113 0.00046045 27.441 27.486 0.26727 618.08 0.0016179 27.247 27.275 0.26620 1.3787 2.1190 1382.0 -0.0062253 296.59 0.14939 0.46974 2.1288 448.81 485.67 2.5869 1.0787 1.2762 207.74 0.71146 5.3933 0.0087757
-74.625 2.6736 0.00048662 29.571 29.619 0.27803 617.01 0.0016207 29.366 29.396 0.27691 1.3802 2.1221 1375.4 -0.0061990 292.58 0.14878 0.49783 2.0087 449.83 486.86 2.5812 1.0824 1.2804 208.14 0.70200 5.4201 0.0088544
-73.625 2.8444 0.00051391 31.705 31.756 0.28875 615.93 0.0016236 31.489 31.521 0.28758 1.3818 2.1252 1368.7 -0.0061724 288.65 0.14816 0.52725 1.8966 450.86 488.06 2.5757 1.0862 1.2847 208.54 0.69268 5.4469 0.0089334
-72.625 3.0240 0.00054235 33.842 33.896 0.29944 614.85 0.0016264 33.615 33.649 0.29821 1.3834 2.1284 1362.0 -0.0061454 284.81 0.14755 0.55804 1.7920 451.90 489.26 2.5703 1.0900 1.2889 208.93 0.68351 5.4737 0.0090126
-71.625 3.2127 0.00057199 35.983 36.041 0.31009 613.78 0.0016293 35.745 35.781 0.30880 1.3851 2.1316 1355.4 -0.0061181 281.03 0.14694 0.59024 1.6942 452.93 490.46 2.5650 1.0938 1.2932 209.32 0.67448 5.5005 0.0090922
-70.625 3.4108 0.00060284 38.128 38.189 0.32070 612.69 0.0016321 37.877 37.915 0.31935 1.3867 2.1349 1348.7 -0.0060904 277.34 0.14632 0.62390 1.6028 453.96 491.66 2.5598 1.0976 1.2976 209.70 0.66560 5.5273 0.0091720
-69.625 3.6187 0.00063495 40.276 40.341 0.33128 611.61 0.0016350 40.013 40.053 0.32987 1.3884 2.1382 1342.1 -0.0060624 273.72 0.14571 0.65906 1.5173 455.00 492.86 2.5547 1.1015 1.3020 210.08 0.65687 5.5540 0.0092520
-68.625 3.8367 0.00066834 42.428 42.497 0.34183 610.53 0.0016379 42.152 42.195 0.34036 1.3902 2.1415 1335.5 -0.0060339 270.17 0.14510 0.69577 1.4372 456.04 494.06 2.5497 1.1054 1.3064 210.45 0.64827 5.5807 0.0093324
-67.625 4.0652 0.00070303 44.584 44.657 0.35235 609.44 0.0016409 44.294 44.340 0.35080 1.3919 2.1449 1328.8 -0.0060051 266.69 0.14449 0.73408 1.3622 457.08 495.26 2.5448 1.1093 1.3109 210.82 0.63981 5.6074 0.0094130
-66.625 4.3046 0.00073908 46.743 46.821 0.36283 608.35 0.0016438 46.439 46.488 0.36122 1.3937 2.1483 1322.2 -0.0059760 263.28 0.14388 0.77404 1.2919 458.12 496.46 2.5400 1.1133 1.3154 211.18 0.63150 5.6341 0.0094939
-65.625 4.5551 0.00077649 48.907 48.988 0.37328 607.26 0.0016467 48.588 48.640 0.37160 1.3955 2.1518 1315.6 -0.0059464 259.93 0.14327 0.81570 1.2259 459.16 497.67 2.5353 1.1172 1.3200 211.54 0.62332 5.6608 0.0095750
-64.625 4.8173 0.00081531 51.074 51.161 0.38370 606.16 0.0016497 50.740 50.795 0.38195 1.3974 2.1553 1308.9 -0.0059164 256.65 0.14266 0.85910 1.1640 460.21 498.87 2.5307 1.1212 1.3246 211.89 0.61527 5.6874 0.0096564
-63.625 5.0915 0.00085556 53.246 53.337 0.39409 605.07 0.0016527 52.896 52.954 0.39226 1.3993 2.1588 1302.3 -0.0058861 253.42 0.14205 0.90429 1.1058 461.25 500.07 2.5262 1.1252 1.3293 212.24 0.60736 5.7140 0.0097382
-62.625 5.3781 0.00089728 55.421 55.517 0.40444 603.97 0.0016557 55.055 55.117 0.40254 1.4012 2.1624 1295.7 -0.0058553 250.26 0.14144 0.95134 1.0511 462.30 501.28 2.5218 1.1293 1.3340 212.58 0.59958 5.7406 0.0098201
-61.625 5.6774 0.00094050 57.600 57.702 0.41477 602.87 0.0016587 57.218 57.283 0.41279 1.4031 2.1660 1289.1 -0.0058241 247.16 0.14084 1.0003 0.99972 463.35 502.48 2.5175 1.1333 1.3387 212.92 0.59194 5.7672 0.0099024
-60.625 5.9899 0.00098524 59.784 59.891 0.42507 601.77 0.0016618 59.385 59.453 0.42301 1.4051 2.1697 1282.5 -0.0057925 244.12 0.14023 1.0512 0.95131 464.40 503.68 2.5133 1.1374 1.3435 213.26 0.58442 5.7938 0.0099850
-59.625 6.3160 0.0010315 61.971 62.084 0.43534 600.66 0.0016648 61.554 61.627 0.43320 1.4071 2.1734 1275.9 -0.0057605 241.13 0.13962 1.1041 0.90573 465.45 504.89 2.5091 1.1415 1.3483 213.58 0.57704 5.8203 0.010068
-58.625 6.6561 0.0010794 64.163 64.282 0.44558 599.55 0.0016679 63.728 63.805 0.44335 1.4091 2.1772 1269.3 -0.0057280 238.19 0.13902 1.1591 0.86277 466.50 506.09 2.5051 1.1457 1.3532 213.90 0.56978 5.8468 0.010151
-57.625 7.0107 0.0011289 66.359 66.484 0.45579 598.44 0.0016710 65.905 65.986 0.45348 1.4111 2.1810 1262.7 -0.0056951 235.31 0.13842 1.2161 0.82228 467.55 507.30 2.5011 1.1498 1.3581 214.22 0.56265 5.8733 0.010234
-56.625 7.3801 0.0011801 68.559 68.691 0.46598 597.33 0.0016741 68.086 68.172 0.46358 1.4132 2.1848 1256.1 -0.0056617 232.48 0.13781 1.2754 0.78408 468.60 508.50 2.4972 1.1540 1.3631 214.53 0.55564 5.8998 0.010318
-55.625 7.7648 0.0012329 70.764 70.903 0.47613 596.22 0.0016772 70.271 70.361 0.47364 1.4153 2.1887 1249.5 -0.0056279 229.69 0.13721 1.3369 0.74802 469.66 509.71 2.4934 1.1582 1.3681 214.84 0.54875 5.9263 0.010402
-54.625 8.1652 0.0012874 72.973 73.119 0.48627 595.10 0.0016804 72.460 72.554 0.48368 1.4174 2.1927 1242.9 -0.0055937 226.96 0.13661 1.4006 0.71396 470.72 510.91 2.4897 1.1624 1.3731 215.14 0.54199 5.9527 0.010486
-53.625 8.5819 0.0013437 75.186 75.340 0.49637 593.98 0.0016836 74.652 74.752 0.49369 1.4196 2.1967 1236.3 -0.0055589 224.27 0.13601 1.4667 0.68178 471.77 512.11 2.4860 1.1667 1.3782 215.43 0.53535 5.9792 0.010571
-52.625 9.0151 0.0014017 77.404 77.565 0.50645 592.86 0.0016867 76.849 76.954 0.50368 1.4218 2.2007 1229.8 -0.0055237 221.63 0.13541 1.5353 0.65136 472.83 513.32 2.4824 1.1710 1.3834 215.72 0.52882 6.0056 0.010656
-51.625 9.4655 0.0014615 79.626 79.796 0.51651 591.73 0.0016900 79.049 79.159 0.51363 1.4240 2.2048 1223.2 -0.0054880 219.04 0.13482 1.6062 0.62258 473.89 514.52 2.4789 1.1752 1.3886 216.00 0.52241 6.0320 0.010741
-50.625 9.9335 0.0015232 81.853 82.031 0.52654 590.60 0.0016932 81.253 81.369 0.52356 1.4262 2.2089 1216.6 -0.0054519 216.48 0.13422 1.6797 0.59534 474.95 515.73 2.4755 1.1796 1.3938 216.28 0.51612 6.0584 0.010827
-49.625 10.419 0.0015866 84.085 84.271 0.53654 589.47 0.0016964 83.462 83.584 0.53347 1.4285 2.2131 1210.1 -0.0054152 213.98 0.13363 1.7558 0.56954 476.01 516.93 2.4722 1.1839 1.3991 216.55 0.50994 6.0848 0.010913
-48.625 10.924 0.0016520 86.321 86.516 0.54652 588.34 0.0016997 85.674 85.802 0.54334 1.4308 2.2173 1203.5 -0.0053780 211.51 0.13303 1.8345 0.54510 477.07 518.13 2.4689 1.1883 1.4044 216.82 0.50387 6.1112 0.010999
-47.625 11.448 0.0017192 88.562 88.767 0.55648 587.20 0.0017030 87.891 88.025 0.55319 1.4331 2.2216 1196.9 -0.0053403 209.08 0.13244 1.9159 0.52194 478.14 519.33 2.4657 1.1927 1.4098 217.08 0.49792 6.1375 0.011085
-46.625 11.991 0.0017884 90.807 91.022 0.56642 586.06 0.0017063 90.111 90.252 0.56302 1.4354 2.2259 1190.4 -0.0053020 206.69 0.13185 2.0001 0.49997 479.20 520.53 2.4625 1.1971 1.4153 217.33 0.49207 6.1639 0.011172
-45.625 12.554 0.0018595 93.058 93.282 0.57633 584.92 0.0017096 92.336 92.484 0.57282 1.4378 2.2303 1183.8 -0.0052633 204.34 0.13126 2.0872 0.47912 480.27 521.74 2.4594 1.2015 1.4207 217.58 0.48633 6.1902 0.011259
-44.625 13.137 0.0019326 95.313 95.548 0.58622 583.77 0.0017130 94.565 94.720 0.58260 1.4402 2.2347 1177.3 -0.0052240 202.03 0.13067 2.1771 0.45933 481.33 522.94 2.4564 1.2060 1.4263 217.82 0.48069 6.2165 0.011347
-43.625 13.741 0.0020078 97.573 97.819 0.59609 582.62 0.0017164 96.799 96.961 0.59235 1.4426 2.2392 1170.7 -0.0051841 199.75 0.13008 2.2700 0.44053 482.40 524.14 2.4535 1.2104 1.4319 218.05 0.47516 6.2429 0.011435
-42.625 14.367 0.0020849 99.838 100.10 0.60593 581.47 0.0017198 99.036 99.207 0.60208 1.4450 2.2437 1164.2 -0.0051437 197.51 0.12949 2.3659 0.42267 483.46 525.33 2.4506 1.2149 1.4375 218.28 0.46973 6.2692 0.011523
-41.625 15.015 0.0021641 102.11 102.38 0.61576 580.32 0.0017232 101.28 101.46 0.61179 1.4475 2.2483 1157.7 -0.0051027 195.30 0.12891 2.4649 0.40569 484.53 526.53 2.4478 1.2195 1.4432 218.50 0.46440 6.2955 0.011612
-40.625 15.686 0.0022453 104.38 104.66 0.62557 579.16 0.0017266 103.52 103.71 0.62147 1.4500 2.2529 1151.1 -0.0050611 193.13 0.12832 2.5671 0.38954 485.60 527.73 2.4450 1.2240 1.4489 218.72 0.45917 6.3218 0.011701
-39.625 16.380 0.0023286 106.66 106.96 0.63535 578.00 0.0017301 105.78 105.97 0.63113 1.4525 2.2576 1144.6 -0.0050189 190.99 0.12774 2.6725 0.37418 486.67 528.93 2.4423 1.2286 1.4547 218.93 0.45403 6.3481 0.011790
-38.625 17.097 0.0024141 108.95 109.25 0.64511 576.83 0.0017336 108.03 108.24 0.64077 1.4550 2.2623 1138.0 -0.0049761 188.88 0.12716 2.7813 0.35955 487.74 530.12 2.4397 1.2332 1.4606 219.13 0.44900 6.3744 0.011880
-37.625 17.838 0.0025017 111.24 111.56 0.65486 575.66 0.0017371 110.29 110.51 0.65039 1.4576 2.2671 1131.5 -0.0049327 186.81 0.12658 2.8934 0.34562 488.81 531.32 2.4371 1.2378 1.4665 219.33 0.44405 6.4007 0.011970
-36.625 18.604 0.0025914 113.53 113.87 0.66459 574.49 0.0017407 112.56 112.78 0.65999 1.4602 2.2719 1125.0 -0.0048887 184.76 0.12600 3.0089 0.33235 489.88 532.51 2.4346 1.2424 1.4724 219.52 0.43920 6.4270 0.012060
-35.625 19.395 0.0026833 115.83 116.18 0.67429 573.32 0.0017442 114.83 115.06 0.66956 1.4628 2.2768 1118.5 -0.0048440 182.75 0.12542 3.1280 0.31969 490.95 533.70 2.4321 1.2471 1.4784 219.70 0.43444 6.4533 0.012151
-34.625 20.212 0.0027775 118.14 118.50 0.68398 572.14 0.0017478 117.10 117.34 0.67912 1.4654 2.2818 1111.9 -0.0047987 180.76 0.12485 3.2506 0.30763 492.02 534.89 2.4297 1.2517 1.4845 219.88 0.42977 6.4797 0.012243
-33.625 21.056 0.0028738 120.45 120.83 0.69365 570.96 0.0017514 119.38 119.63 0.68865 1.4681 2.2868 1105.4 -0.0047527 178.80 0.12427 3.3770 0.29612 493.09 536.08 2.4273 1.2564 1.4906 220.05 0.42519 6.5060 0.012334
-32.625 21.926 0.0029723 122.77 123.16 0.70330 569.77 0.0017551 121.66 121.93 0.69817 1.4708 2.2918 1098.9 -0.0047061 176.87 0.12370 3.5071 0.28514 494.17 537.27 2.4250 1.2611 1.4968 220.21 0.42070 6.5323 0.012426
-31.625 22.823 0.0030731 125.09 125.50 0.71294 568.58 0.0017588 123.95 124.23 0.70767 1.4735 2.2970 1092.3 -0.0046587 174.97 0.12313 3.6410 0.27465 495.24 538.46 2.4227 1.2659 1.5031 220.36 0.41629 6.5587 0.012519
-30.625 23.749 0.0031762 127.42 127.84 0.72255 567.39 0.0017625 126.24 126.53 0.71714 1.4762 2.3021 1085.8 -0.0046107 173.09 0.12256 3.7787 0.26464 496.31 539.64 2.4205 1.2706 1.5094 220.51 0.41196 6.5850 0.012612
-29.625 24.703 0.0032815 129.75 130.19 0.73215 566.19 0.0017662 128.54 128.84 0.72660 1.4790 2.3074 1079.3 -0.0045619 171.24 0.12200 3.9205 0.25507 497.38 540.83 2.4184 1.2754 1.5157 220.65 0.40772 6.6114 0.012706
-28.625 25.687 0.0033891 132.09 132.55 0.74174 564.99 0.0017699 130.84 131.16 0.73604 1.4818 2.3126 1072.8 -0.0045124 169.42 0.12143 4.0663 0.24592 498.46 542.01 2.4162 1.2802 1.5222 220.79 0.40356 6.6378 0.012800
-27.625 26.700 0.0034990 134.43 134.91 0.75130 563.78 0.0017737 133.15 133.48 0.74547 1.4846 2.3180 1066.2 -0.0044621 167.62 0.12087 4.2163 0.23717 499.53 543.19 2.4142 1.2850 1.5286 220.91 0.39947 6.6642 0.012894
-26.625 27.743 0.0036112 136.78 137.28 0.76086 562.57 0.0017775 135.47 135.81 0.75487 1.4874 2.3234 1059.7 -0.0044111 165.84 0.12031 4.3705 0.22881 500.60 544.37 2.4122 1.2899 1.5352 221.03 0.39547 6.6906 0.012989
-25.625 28.817 0.0037257 139.14 139.66 0.77039 561.36 0.0017814 137.78 138.14 0.76426 1.4902 2.3289 1053.2 -0.0043593 164.09 0.11975 4.5290 0.22080 501.68 545.55 2.4102 1.2947 1.5418 221.14 0.39154 6.7171 0.013084
-24.625 29.923 0.0038426 141.50 142.04 0.77991 560.14 0.0017853 140.11 140.48 0.77363 1.4931 2.3344 1046.7 -0.0043067 162.36 0.11919 4.6918 0.21314 502.75 546.72 2.4083 1.2996 1.5485 221.25 0.38768 6.7436 0.013180
-23.625 31.061 0.0039618 143.87 144.42 0.78942 558.92 0.0017892 142.44 142.82 0.78298 1.4960 2.3400 1040.1 -0.0042533 160.65 0.11863 4.8592 0.20580 503.82 547.90 2.4064 1.3045 1.5552 221.35 0.38391 6.7701 0.013277
-22.625 32.232 0.0040833 146.24 146.82 0.79891 557.69 0.0017931 144.77 145.17 0.79232 1.4990 2.3457 1033.6 -0.0041990 158.97 0.11807 5.0311 0.19877 504.90 549.07 2.4045 1.3095 1.5621 221.44 0.38020 6.7967 0.013374
-21.625 33.435 0.0042072 148.62 149.22 0.80838 556.46 0.0017971 147.11 147.52 0.80164 1.5019 2.3514 1027.1 -0.0041439 157.30 0.11752 5.2076 0.19203 505.97 550.24 2.4027 1.3144 1.5690 221.52 0.37656 6.8232 0.013471
-20.625 34.673 0.0043334 151.00 151.62 0.81784 555.23 0.0018011 149.45 149.88 0.81095 1.5049 2.3572 1020.6 -0.0040879 155.66 0.11697 5.3889 0.18557 507.04 551.40 2.4010 1.3194 1.5759 221.59 0.37300 6.8499 0.013569
-19.625 35.946 0.0044620 153.39 154.04 0.82729 553.99 0.0018051 151.80 152.25 0.82024 1.5079 2.3630 1014.0 -0.0040311 154.04 0.11642 5.5750 0.17937 508.11 552.57 2.3992 1.3244 1.5829 221.66 0.36950 6.8765 0.013668
-18.625 37.253 0.0045929 155.79 156.46 0.83672 552.74 0.0018092 154.16 154.62 0.82952 1.5109 2.3689 1007.5 -0.0039733 152.44 0.11587 5.7660 0.17343 509.19 553.73 2.3976 1.3294 1.5901 221.72 0.36608 6.9032 0.013767
-17.625 38.596 0.0047262 158.19 158.88 0.84614 551.49 0.0018133 156.52 157.00 0.83878 1.5140 2.3749 1001.0 -0.0039145 150.86 0.11532 5.9621 0.16773 510.26 554.89 2.3959 1.3345 1.5972 221.77 0.36272 6.9300 0.013867
-16.625 39.976 0.0048618 160.60 161.32 0.85555 550.24 0.0018174 158.89 159.39 0.84803 1.5171 2.3810 994.44 -0.0038549 149.29 0.11478 6.1632 0.16225 511.33 556.05 2.3943 1.3395 1.6045 221.81 0.35942 6.9568 0.013968
-15.625 41.392 0.0049997 163.01 163.76 0.86494 548.98 0.0018216 161.26 161.78 0.85726 1.5202 2.3871 987.91 -0.0037942 147.75 0.11423 6.3696 0.15700 512.40 557.20 2.3927 1.3446 1.6119 221.85 0.35619 6.9836 0.014069
-14.625 42.846 0.0051400 165.44 166.20 0.87432 547.71 0.0018258 163.64 164.18 0.86649 1.5233 2.3933 981.37 -0.0037325 146.22 0.11369 6.5812 0.15195 513.47 558.36 2.3912 1.3497 1.6193 221.87 0.35302 7.0105 0.014170
-13.625 44.338 0.0052826 167.86 168.66 0.88369 546.44 0.0018300 166.02 166.58 0.87569 1.5264 2.3996 974.83 -0.0036698 144.72 0.11315 6.7983 0.14710 514.54 559.51 2.3897 1.3549 1.6268 221.89 0.34992 7.0375 0.014273
-12.625 45.870 0.0054276 170.30 171.12 0.89305 545.17 0.0018343 168.41 168.99 0.88489 1.5296 2.4059 968.29 -0.0036061 143.23 0.11261 7.0208 0.14243 515.61 560.65 2.3883 1.3600 1.6344 221.90 0.34688 7.0646 0.014376
-11.625 47.440 0.0055748 172.73 173.58 0.90239 543.89 0.0018386 170.81 171.41 0.89407 1.5328 2.4124 961.75 -0.0035413 141.76 0.11208 7.2490 0.13795 516.68 561.80 2.3868 1.3652 1.6421 221.91 0.34389 7.0917 0.014479
-10.625 49.051 0.0057244 175.18 176.06 0.91172 542.60 0.0018430 173.21 173.83 0.90324 1.5360 2.4189 955.20 -0.0034753 140.30 0.11154 7.4829 0.13364 517.75 562.94 2.3854 1.3704 1.6498 221.90 0.34097 7.1188 0.014584
-9.6250 50.703 0.0058762 177.63 178.54 0.92105 541.31 0.0018474 175.61 176.26 0.91240 1.5393 2.4255 948.65 -0.0034082 138.86 0.11101 7.7226 0.12949 518.81 564.08 2.3841 1.3757 1.6577 221.88 0.33810 7.1461 0.014689
-8.6250 52.396 0.0060302 180.09 181.03 0.93036 540.02 0.0018518 178.03 178.70 0.92154 1.5426 2.4321 942.10 -0.0033400 137.44 0.11048 7.9683 0.12550 519.88 565.21 2.3827 1.3809 1.6657 221.86 0.33529 7.1734 0.014795
-7.6250 54.131 0.0061865 182.55 183.52 0.93965 538.72 0.0018563 180.45 181.14 0.93068 1.5459 2.4389 935.55 -0.0032705 136.03 0.10995 8.2200 0.12165 520.94 566.35 2.3814 1.3862 1.6737 221.83 0.33254 7.2008 0.014902
-6.6250 55.909 0.0063451 185.02 186.03 0.94894 537.41 0.0018608 182.87 183.59 0.93980 1.5492 2.4457 928.99 -0.0031998 134.64 0.10942 8.4779 0.11795 522.01 567.48 2.3801 1.3915 1.6819 221.79 0.32984 7.2284 0.015009
-5.6250 57.730 0.0065058 187.50 188.54 0.95822 536.10 0.0018653 185.30 186.05 0.94892 1.5525 2.4526 922.43 -0.0031279 133.27 0.10889 8.7420 0.11439 523.07 568.60 2.3789 1.3969 1.6902 221.74 0.32720 7.2560 0.015117
-4.6250 59.595 0.0066687 189.99 191.05 0.96749 534.78 0.0018699 187.74 188.51 0.95802 1.5559 2.4596 915.87 -0.0030546 131.91 0.10837 9.0126 0.11096 524.13 569.72 2.3777 1.4022 1.6985 221.68 0.32461 7.2837 0.015226
-3.6250 61.505 0.0068337 192.48 193.58 0.97675 533.45 0.0018746 190.19 190.98 0.96711 1.5593 2.4667 909.30 -0.0029800 130.56 0.10785 9.2896 0.10765 525.19 570.84 2.3765 1.4076 1.7070 221.62 0.32207 7.3115 0.015336
-2.6250 63.461 0.0070008 194.97 196.11 0.98599 532.12 0.0018793 192.64 193.46 0.97620 1.5627 2.4739 902.73 -0.0029041 129.23 0.10733 9.5733 0.10446 526.25 571.96 2.3753 1.4131 1.7156 221.54 0.31958 7.3394 0.015447
-1.6250 65.462 0.0071699 197.48 198.65 0.99523 530.78 0.0018840 195.10 195.95 0.98527 1.5662 2.4811 896.16 -0.0028267 127.91 0.10681 9.8638 0.10138 527.31 573.07 2.3742 1.4185 1.7243 221.45 0.31715 7.3674 0.015559
-0.62500 67.510 0.0073411 199.99 201.20 1.0045 529.44 0.0018888 197.56 198.44 0.99434 1.5696 2.4885 889.58 -0.0027478 126.61 0.10629 10.161 0.098414 528.37 574.18 2.3731 1.4240 1.7331 221.36 0.31476 7.3956 0.015671
0.37500 69.606 0.0075143 202.50 203.75 1.0137 528.09 0.0018936 200.03 200.94 1.0034 1.5731 2.4960 883.00 -0.0026675 125.32 0.10578 10.466 0.095552 529.42 575.28 2.3720 1.4295 1.7421 221.26 0.31242 7.4239 0.015785
1.3750 71.749 0.0076893 205.03 206.31 1.0229 526.73 0.0018985 202.51 203.45 1.0124 1.5767 2.5035 876.42 -0.0025856 124.04 0.10527 10.777 0.092790 530.48 576.38 2.3709 1.4350 1.7512 221.14 0.31013 7.4523 0.015899
2.3750 73.941 0.0078663 207.56 208.88 1.0321 525.37 0.0019034 204.99 205.96 1.0215 1.5802 2.5112 869.83 -0.0025022 122.78 0.10476 11.096 0.090123 531.53 577.47 2.3699 1.4406 1.7604 221.02 0.30789 7.4808 0.016015
3.3750 76.183 0.0080451 210.10 211.46 1.0413 523.99 0.0019084 207.48 208.48 1.0305 1.5838 2.5190 863.24 -0.0024171 121.53 0.10425 11.422 0.087549 532.58 578.56 2.3688 1.4462 1.7697 220.89 0.30569 7.5095 0.016131
4.3750 78.475 0.0082256 212.64 214.05 1.0505 522.62 0.0019134 209.98 211.01 1.0395 1.5874 2.5268 856.64 -0.0023303 120.29 0.10374 11.756 0.085062 533.63 579.65 2.3678 1.4518 1.7792 220.75 0.30354 7.5384 0.016249
5.3750 80.817 0.0084079 215.19 216.64 1.0596 521.23 0.0019185 212.48 213.55 1.0486 1.5910 2.5348 850.04 -0.0022417 119.06 0.10324 12.098 0.082660 534.67 580.73 2.3669 1.4575 1.7888 220.60 0.30144 7.5674 0.016368
6.3750 83.211 0.0085917 217.75 219.24 1.0688 519.84 0.0019237 215.00 216.10 1.0576 1.5946 2.5429 843.43 -0.0021514 117.85 0.10273 12.447 0.080340 535.72 581.81 2.3659 1.4632 1.7986 220.44 0.29938 7.5966 0.016487
7.3750 85.657 0.0087772 220.32 221.85 1.0780 518.44 0.0019289 217.51 218.65 1.0666 1.5983 2.5511 836.82 -0.0020593 116.65 0.10223 12.805 0.078096 536.76 582.88 2.3650 1.4689 1.8085 220.27 0.29736 7.6259 0.016608
8.3750 88.156 0.0089641 222.89 224.47 1.0871 517.03 0.0019341 220.04 221.22 1.0756 1.6020 2.5595 830.20 -0.0019652 115.46 0.10173 13.170 0.075928 537.80 583.95 2.3640 1.4746 1.8186 220.08 0.29538 7.6555 0.016730
9.3750 90.708 0.0091524 225.47 227.09 1.0963 515.62 0.0019394 222.57 223.79 1.0846 1.6057 2.5679 823.58 -0.0018691 114.28 0.10124 13.545 0.073830 538.84 585.01 2.3631 1.4804 1.8288 219.89 0.29345 7.6852 0.016853
10.375 93.315 0.0093420 228.05 229.73 1.1054 514.19 0.0019448 225.11 226.37 1.0936 1.6095 2.5765 816.96 -0.0017710 113.11 0.10074 13.927 0.071802 539.87 586.07 2.3622 1.4863 1.8392 219.69 0.29156 7.7151 0.016978
11.375 95.977 0.0095328 230.65 232.37 1.1145 512.76 0.0019502 227.66 228.95 1.1025 1.6132 2.5852 810.32 -0.0016708 111.95 0.10025 14.319 0.069840 540.90 587.12 2.3614 1.4921 1.8498 219.48 0.28971 7.7452 0.017103
12.375 98.694 0.0097248 233.25 235.02 1.1237 511.32 0.0019557 230.22 231.55 1.1115 1.6170 2.5940 803.68 -0.0015685 110.80 0.099756 14.719 0.067941 541.93 588.17 2.3605 1.4980 1.8605 219.26 0.28790 7.7756 0.017230
13.375 101.47 0.0099177 235.86 237.67 1.1328 509.87 0.0019613 232.78 234.15 1.1205 1.6208 2.6030 797.04 -0.0014639 109.67 0.099267 15.128 0.066103 542.96 589.21 2.3597 1.5040 1.8715 219.03 0.28612 7.8061 0.017359
14.375 104.30 0.010112 238.47 240.34 1.1419 508.42 0.0019669 235.35 236.77 1.1295 1.6247 2.6121 790.39 -0.0013569 108.54 0.098779 15.547 0.064323 543.99 590.24 2.3588 1.5099 1.8826 218.79 0.28439 7.8369 0.017488
15.375 107.19 0.010306 241.10 243.02 1.1510 506.95 0.0019726 237.93 239.39 1.1384 1.6286 2.6214 783.73 -0.0012476 107.43 0.098294 15.974 0.062600 545.01 591.27 2.3580 1.5159 1.8940 218.53 0.28270 7.8680 0.017619
16.375 110.13 0.010501 243.73 245.70 1.1601 505.48 0.0019783 240.52 242.02 1.1474 1.6324 2.6308 777.07 -0.0011357 106.32 0.097810 16.412 0.060931 546.03 592.29 2.3572 1.5220 1.9055 218.27 0.28104 7.8993 0.017752
17.375 113.14 0.010697 246.36 248.39 1.1692 504.00 0.0019841 243.11 244.66 1.1564 1.6364 2.6403 770.40 -0.0010213 105.22 0.097328 16.859 0.059314 547.04 593.31 2.3564 1.5281 1.9172 217.99 0.27942 7.9308 0.017886
18.375 116.21 0.010893 249.01 251.09 1.1783 502.50 0.0019900 245.72 247.31 1.1653 1.6403 2.6501 763.72 -0.00090422 104.14 0.096848 17.317 0.057747 548.05 594.32 2.3557 1.5342 1.9292 217.71 0.27783 7.9626 0.018021
19.375 119.33 0.011089 251.66 253.80 1.1874 501.00 0.0019960 248.33 249.97 1.1743 1.6443 2.6599 757.04 -0.00078435 103.06 0.096371 17.785 0.056228 549.06 595.33 2.3549 1.5404 1.9414 217.41 0.27628 7.9947 0.018159
20.375 122.52 0.011286 254.32 256.52 1.1965 499.49 0.0020020 250.95 252.64 1.1832 1.6483 2.6700 750.35 -0.00066161 101.99 0.095895 18.263 0.054756 550.07 596.32 2.3541 1.5466 1.9538 217.10 0.27477 8.0272 0.018297
21.375 125.77 0.011482 256.99 259.24 1.2055 497.97 0.0020082 253.57 255.32 1.1922 1.6523 2.6802 743.64 -0.00053589 100.93 0.095420 18.752 0.053328 551.07 597.31 2.3534 1.5528 1.9665 216.78 0.27329 8.0599 0.018438
22.375 129.08 0.011677 259.66 261.98 1.2146 496.43 0.0020144 256.21 258.00 1.2012 1.6563 2.6906 736.94 -0.00040708 99.877 0.094948 19.252 0.051943 552.07 598.30 2.3526 1.5591 1.9795 216.45 0.27184 8.0929 0.018580
23.375 132.46 0.011873 262.35 264.72 1.2237 494.89 0.0020206 258.86 260.70 1.2101 1.6604 2.7012 730.22 -0.00027505 98.834 0.094478 19.763 0.050600 553.06 599.27 2.3519 1.5655 1.9927 216.11 0.27043 8.1263 0.018724
24.375 135.90 0.012067 265.04 267.47 1.2327 493.34 0.0020270 261.51 263.41 1.2191 1.6645 2.7120 723.49 -0.00013968 97.800 0.094009 20.285 0.049297 554.05 600.24 2.3512 1.5718 2.0061 215.75 0.26906 8.1600 0.018870
25.375 139.41 0.012260 267.74 270.23 1.2418 491.77 0.0020335 264.17 266.13 1.2280 1.6686 2.7230 716.76 -8.3775e-07 96.773 0.093543 20.820 0.048032 555.03 601.20 2.3504 1.5783 2.0199 215.39 0.26771 8.1941 0.019017
26.375 142.98 0.012452 270.44 273.00 1.2508 490.20 0.0020400 266.84 268.85 1.2370 1.6728 2.7342 710.01 0.00014161 95.755 0.093078 21.366 0.046804 556.01 602.15 2.3497 1.5847 2.0340 215.01 0.26640 8.2286 0.019167
27.375 146.62 0.012643 273.16 275.78 1.2599 488.61 0.0020466 269.52 271.59 1.2459 1.6770 2.7456 703.26 0.00028782 94.745 0.092615 21.924 0.045612 556.99 603.10 2.3490 1.5913 2.0484 214.62 0.26512 8.2634 0.019319
28.375 150.33 0.012832 275.88 278.57 1.2689 487.01 0.0020533 272.21 274.34 1.2549 1.6812 2.7573 696.49 0.00043793 93.742 0.092154 22.495 0.044454 557.96 604.03 2.3483 1.5978 2.0631 214.21 0.26387 8.2987 0.019472
29.375 154.10 0.013019 278.61 281.37 1.2780 485.40 0.0020601 274.91 277.10 1.2638 1.6854 2.7691 689.72 0.00059212 92.747 0.091695 23.079 0.043329 558.92 604.96 2.3476 1.6044 2.0781 213.80 0.26265 8.3344 0.019628
30.375 157.94 0.013203 281.35 284.18 1.2870 483.78 0.0020671 277.62 279.87 1.2728 1.6897 2.7813 682.93 0.00075055 91.760 0.091238 23.676 0.042237 559.88 605.88 2.3469 1.6111 2.0935 213.37 0.26147 8.3705 0.019786
31.375 161.86 0.013384 284.10 286.99 1.2960 482.15 0.0020741 280.34 282.66 1.2818 1.6939 2.7936 676.13 0.00091340 90.779 0.090782 24.287 0.041175 560.84 606.79 2.3462 1.6178 2.1092 212.93 0.26031 8.4071 0.019947
32.375 165.84 0.013563 286.85 289.82 1.3051 480.50 0.0020812 283.07 285.45 1.2908 1.6983 2.8063 669.32 0.0010809 89.806 0.090328 24.911 0.040143 561.79 607.69 2.3455 1.6246 2.1254 212.48 0.25919 8.4442 0.020110
33.375 169.90 0.013738 289.61 292.66 1.3141 478.83 0.0020884 285.81 288.26 1.2997 1.7026 2.8192 662.50 0.0012532 88.840 0.089876 25.549 0.039140 562.73 608.58 2.3448 1.6314 2.1419 212.01 0.25809 8.4818 0.020275
34.375 174.02 0.013909 292.38 295.50 1.3231 477.16 0.0020957 288.56 291.07 1.3087 1.7070 2.8324 655.67 0.0014305 87.880 0.089426 26.202 0.038164 563.67 609.46 2.3440 1.6383 2.1589 211.53 0.25702 8.5199 0.020443
35.375 178.22 0.014075 295.16 298.36 1.3321 475.47 0.0021032 291.32 293.90 1.3177 1.7114 2.8459 648.82 0.0016131 86.927 0.088977 26.870 0.037216 564.60 610.33 2.3433 1.6452 2.1763 211.04 0.25599 8.5586 0.020613
36.375 182.50 0.014237 297.95 301.22 1.3412 473.77 0.0021107 294.09 296.74 1.3267 1.7158 2.8597 641.96 0.0018012 85.980 0.088531 27.553 0.036293 565.52 611.19 2.3426 1.6522 2.1942 210.53 0.25498 8.5978 0.020786
37.375 186.84 0.014393 300.75 304.09 1.3502 472.05 0.0021184 296.87 299.60 1.3357 1.7203 2.8739 635.08 0.0019950 85.040 0.088085 28.252 0.035395 566.44 612.04 2.3419 1.6592 2.2125 210.01 0.25400 8.6376 0.020962
38.375 191.27 0.014544 303.55 306.98 1.3592 470.31 0.0021262 299.66 302.46 1.3447 1.7248 2.8884 628.19 0.0021949 84.105 0.087642 28.967 0.034522 567.35 612.88 2.3411 1.6663 2.2314 209.47 0.25305 8.6780 0.021141
39.375 195.77 0.014688 306.37 309.87 1.3682 468.56 0.0021342 302.46 305.34 1.3537 1.7293 2.9033 621.29 0.0024011 83.177 0.087200 29.699 0.033671 568.26 613.70 2.3404 1.6734 2.2508 208.92 0.25213 8.7190 0.021323
40.375 200.34 0.014825 309.19 312.77 1.3772 466.80 0.0021423 305.27 308.23 1.3627 1.7339 2.9185 614.37 0.0026140 82.254 0.086760 30.447 0.032844 569.15 614.52 2.3396 1.6806 2.2708 208.36 0.25123 8.7608 0.021508
41.375 205.00 0.014954 312.02 315.69 1.3862 465.01 0.0021505 308.10 311.14 1.3718 1.7385 2.9342 607.43 0.0028338 81.338 0.086322 31.214 0.032037 570.04 615.32 2.3389 1.6879 2.2913 207.78 0.25037 8.8032 0.021696
42.375 209.73 0.015075 314.86 318.61 1.3952 463.21 0.0021588 310.94 314.06 1.3808 1.7432 2.9502 600.47 0.0030609 80.426 0.085885 31.998 0.031252 570.92 616.11 2.3381 1.6952 2.3125 207.19 0.24953 8.8463 0.021888
43.375 214.54 0.015186 317.70 321.55 1.4043 461.40 0.0021673 313.79 316.99 1.3899 1.7478 2.9667 593.50 0.0032957 79.520 0.085449 32.800 0.030488 571.79 616.88 2.3373 1.7027 2.3344 206.58 0.24871 8.8902 0.022084
44.375 219.43 0.015287 320.56 324.49 1.4133 459.56 0.0021760 316.65 319.94 1.3989 1.7525 2.9837 586.51 0.0035386 78.619 0.085015 33.622 0.029742 572.65 617.65 2.3365 1.7101 2.3569 205.96 0.24793 8.9349 0.022283
45.375 224.41 0.015377 323.43 327.45 1.4223 457.71 0.0021848 319.52 322.90 1.4080 1.7573 3.0012 579.50 0.0037900 77.723 0.084583 34.463 0.029016 573.50 618.40 2.3357 1.7177 2.3802 205.32 0.24717 8.9805 0.022485
46.375 229.46 0.015456 326.30 330.41 1.4313 455.83 0.0021938 322.41 325.88 1.4171 1.7621 3.0192 572.46 0.0040504 76.832 0.084152 35.325 0.028308 574.34 619.13 2.3349 1.7253 2.4042 204.67 0.24644 9.0269 0.022692
47.375 234.60 0.015521 329.19 333.39 1.4403 453.94 0.0022029 325.31 328.87 1.4262 1.7669 3.0377 565.41 0.0043202 75.946 0.083723 36.208 0.027618 575.17 619.85 2.3340 1.7329 2.4291 204.00 0.24573 9.0742 0.022903
48.375 239.83 0.015572 332.08 336.37 1.4493 452.03 0.0022123 328.22 331.88 1.4353 1.7718 3.0569 558.34 0.0046000 75.064 0.083295 37.112 0.026945 576.00 620.55 2.3332 1.7407 2.4548 203.31 0.24505 9.1224 0.023119
49.375 245.13 0.015607 334.98 339.37 1.4583 450.09 0.0022218 331.15 334.90 1.4445 1.7767 3.0766 551.24 0.0048904 74.186 0.082868 38.039 0.026289 576.81 621.24 2.3323 1.7485 2.4815 202.61 0.24440 9.1716 0.023339
50.375 250.53 0.015626 337.89 342.38 1.4673 448.13 0.0022315 334.09 337.94 1.4536 1.7817 3.0970 544.13 0.0051920 73.313 0.082442 38.989 0.025648 577.61 621.91 2.3314 1.7564 2.5092 201.89 0.24377 9.2219 0.023564
51.375 256.01 0.015627 340.82 345.40 1.4764 446.15 0.0022414 337.04 341.00 1.4628 1.7867 3.1181 536.98 0.0055054 72.443 0.082018 39.962 0.025024 578.39 622.56 2.3304 1.7644 2.5379 201.16 0.24317 9.2733 0.023794
52.375 261.57 0.015607 343.75 348.43 1.4854 444.15 0.0022515 340.01 344.07 1.4720 1.7918 3.1400 529.82 0.0058313 71.577 0.081595 40.961 0.024414 579.17 623.20 2.3295 1.7724 2.5677 200.41 0.24260 9.3258 0.024029
53.375 267.23 0.015566 346.69 351.47 1.4944 442.12 0.0022618 343.00 347.17 1.4812 1.7969 3.1627 522.62 0.0061705 70.715 0.081174 41.985 0.023818 579.93 623.81 2.3285 1.7805 2.5987 199.63 0.24205 9.3795 0.024270
54.375 272.97 0.015502 349.64 354.53 1.5034 440.06 0.0022724 346.00 350.28 1.4904 1.8021 3.1862 515.40 0.0065239 69.856 0.080753 43.036 0.023237 580.68 624.41 2.3274 1.7887 2.6310 198.85 0.24154 9.4344 0.024516
55.375 278.81 0.015413 352.60 357.59 1.5124 437.98 0.0022832 349.02 353.40 1.4997 1.8073 3.2106 508.15 0.0068923 69.001 0.080334 44.114 0.022669 581.41 624.99 2.3264 1.7969 2.6646 198.04 0.24105 9.4907 0.024769
56.375 284.74 0.015295 355.57 360.67 1.5215 435.87 0.0022943 352.05 356.55 1.5090 1.8126 3.2360 500.87 0.0072767 68.148 0.079915 45.221 0.022114 582.13 625.54 2.3253 1.8052 2.6998 197.22 0.24059 9.5484 0.025028
57.375 290.76 0.015148 358.55 363.76 1.5305 433.73 0.0023056 355.10 359.72 1.5183 1.8179 3.2624 493.56 0.0076782 67.299 0.079498 46.358 0.021571 582.83 626.07 2.3241 1.8136 2.7365 196.37 0.24016 9.6075 0.025294
58.375 296.87 0.014967 361.54 366.86 1.5395 431.56 0.0023172 358.17 362.91 1.5276 1.8233 3.2900 486.22 0.0080980 66.451 0.079082 47.525 0.021041 583.52 626.58 2.3230 1.8220 2.7749 195.51 0.23976 9.6682 0.025568
59.375 303.08 0.014751 364.54 369.97 1.5486 429.36 0.0023290 361.25 366.12 1.5370 1.8288 3.3188 478.84 0.0085373 65.606 0.078666 48.726 0.020523 584.18 627.07 2.3218 1.8305 2.8152 194.63 0.23939 9.7305 0.025849
60.375 309.38 0.014496 367.55 373.09 1.5576 427.13 0.0023412 364.36 369.35 1.5464 1.8343 3.3489 471.43 0.0089976 64.763 0.078251 49.960 0.020016 584.83 627.53 2.3205 1.8391 2.8576 193.73 0.23905 9.7945 0.026138
61.375 315.78 0.014197 370.57 376.23 1.5667 424.87 0.0023537 367.48 372.60 1.5558 1.8400 3.3805 463.99 0.0094803 63.922 0.077838 51.229 0.019520 585.46 627.96 2.3192 1.8479 2.9022 192.82 0.23873 9.8603 0.026436
62.375 322.28 0.013852 373.61 379.38 1.5757 422.56 0.0023665 370.62 375.88 1.5653 1.8457 3.4136 456.50 0.0099871 63.083 0.077425 52.535 0.019035 586.07 628.37 2.3178 1.8567 2.9492 191.88 0.23845 9.9281 0.026744
63.375 328.88 0.013456 376.65 382.54 1.5848 420.22 0.0023797 373.79 379.18 1.5748 1.8514 3.4483 448.97 0.010520 62.244 0.077012 53.879 0.018560 586.66 628.74 2.3164 1.8656 2.9989 190.92 0.23819 9.9979 0.027061
64.375 335.58 0.013003 379.71 385.72 1.5938 417.85 0.0023932 376.97 382.51 1.5844 1.8573 3.4850 441.40 0.011081 61.407 0.076600 55.265 0.018095 587.22 629.09 2.3149 1.8747 3.0517 189.95 0.23796 10.070 0.027389
65.375 342.38 0.012489 382.77 388.91 1.6029 415.42 0.0024072 380.18 385.86 1.5939 1.8633 3.5236 433.79 0.011672 60.570 0.076189 56.692 0.017639 587.76 629.40 2.3133 1.8839 3.1077 188.95 0.23775 10.144 0.027729
66.375 349.28 0.011906 385.85 392.11 1.6120 412.96 0.0024215 383.41 389.25 1.6036 1.8693 3.5645 426.12 0.012296 59.733 0.075779 58.165 0.017193 588.28 629.68 2.3117 1.8933 3.1674 187.93 0.23757 10.221 0.028080
67.375 356.28 0.011248 388.94 395.32 1.6211 410.45 0.0024363 386.67 392.65 1.6133 1.8755 3.6078 418.41 0.012956 58.897 0.075368 59.684 0.016755 588.76 629.92 2.3100 1.9030 3.2311 186.89 0.23740 10.300 0.028446
68.375 363.40 0.010507 392.05 398.55 1.6302 407.89 0.0024516 389.95 396.09 1.6230 1.8818 3.6537 410.64 0.013655 58.059 0.074959 61.253 0.016326 589.22 630.13 2.3082 1.9129 3.2994 185.83 0.23724 10.382 0.028825
69.375 370.61 0.0096732 395.16 401.80 1.6393 405.28 0.0024674 393.26 399.57 1.6328 1.8882 3.7027 402.81 0.014396 57.221 0.074549 62.875 0.015905 589.65 630.29 2.3064 1.9231 3.3727 184.74 0.23710 10.467 0.029221
70.375 377.94 0.0087372 398.29 405.06 1.6484 402.62 0.0024838 396.60 403.07 1.6426 1.8947 3.7550 394.92 0.015183 56.381 0.074141 64.552 0.015491 590.04 630.41 2.3044 1.9336 3.4518 183.63 0.23697 10.555 0.029633
71.375 385.37 0.0076868 401.43 408.33 1.6575 399.89 0.0025007 399.96 406.61 1.6525 1.9014 3.8109 386.97 0.016021 55.540 0.073732 66.288 0.015086 590.40 630.49 2.3024 1.9444 3.5371 182.50 0.23684 10.647 0.030064
72.375 392.92 0.0065086 404.58 411.62 1.6667 397.11 0.0025182 403.36 410.18 1.6625 1.9083 3.8711 378.95 0.016915 54.696 0.073324 68.087 0.014687 590.73 630.51 2.3002 1.9556 3.6297 181.34 0.23671 10.743 0.030515
73.375 400.57 0.0051870 407.75 414.92 1.6758 394.26 0.0025364 406.79 413.80 1.6726 1.9153 3.9359 370.85 0.017871 53.848 0.072917 69.953 0.014295 591.01 630.49 2.2979 1.9673 3.7303 180.16 0.23658 10.842 0.030989
74.375 408.34 0.0037039 410.93 418.24 1.6850 391.34 0.0025553 410.26 417.45 1.6827 1.9226 4.0060 362.67 0.018894 52.997 0.072510 71.890 0.013910 591.25 630.41 2.2955 1.9793 3.8401 178.95 0.23643 10.946 0.031488
75.375 416.23 0.0020383 414.13 421.58 1.6942 388.34 0.0025751 413.76 421.15 1.6930 1.9301 4.0822 354.41 0.019993 52.142 0.072104 73.904 0.013531 591.44 630.27 2.2930 1.9919 3.9604 177.71 0.23627 11.054 0.032014
76.375 424.23 0.00016530 417.34 424.93 1.7034 385.26 0.0025957 417.31 424.90 1.7033 1.9378 4.1654 346.06 0.021177 51.281 0.071699 76.001 0.013158 591.59 630.07 2.2903 2.0050 4.0927 176.44 0.23609 11.168 0.032570
77.375 455.43 undefined 419.38 427.54 1.7092 385.00 0.0025974 419.38 427.54 1.7092 1.9395 4.1206 348.98 0.020746 51.232 0.071717 385.00 0.0025974 419.38 427.54 1.7092 1.9395 4.1206 348.98 0.020746 51.232 0.071717
78.375 488.84 undefined 421.32 430.08 1.7148 385.00 0.0025974 421.32 430.08 1.7148 1.9408 4.0680 352.83 0.020193 51.256 0.071775 385.00 0.0025974 421.32 430.08 1.7148 1.9408 4.0680 352.83 0.020193 51.256 0.071775
79.375 522.38 undefined 423.26 432.62 1.7203 385.00 0.0025974 423.26 432.62 1.7203 1.9421 4.0192 356.58 0.019667 51.281 0.071837 385.00 0.0025974 423.26 432.62 1.7203 1.9421 4.0192 356.58 0.019667 51.281 0.071837
80.375 556.03 undefined 425.21 435.16 1.7258 385.00 0.0025974 425.21 435.16 1.7258 1.9436 3.9737 360.25 0.019165 51.306 0.071901 385.00 0.0025974 425.21 435.16 1.7258 1.9436 3.9737 360.25 0.019165 51.306 0.071901
81.375 589.80 undefined 427.15 437.71 1.7313 385.00 0.0025974 427.15 437.71 1.7313 1.9452 3.9313 363.83 0.018685 51.330 0.071967 385.00 0.0025974 427.15 437.71 1.7313 1.9452 3.9313 363.83 0.018685 51.330 0.071967
82.375 623.68 undefined 429.10 440.26 1.7367 385.00 0.0025974 429.10 440.26 1.7367 1.9469 3.8915 367.32 0.018226 51.355 0.072036 385.00 0.0025974 429.10 440.26 1.7367 1.9469 3.8915 367.32 0.018226 51.355 0.072036
83.375 657.66 undefined 431.04 442.82 1.7422 385.00 0.0025974 431.04 442.82 1.7422 1.9487 3.8542 370.74 0.017786 51.379 0.072106 385.00 0.0025974 431.04 442.82 1.7422 1.9487 3.8542 370.74 0.017786 51.379 0.072106
84.375 691.74 undefined 432.99 445.38 1.7477 385.00 0.0025974 432.99 445.38 1.7477 1.9506 3.8192 374.09 0.017364 51.404 0.072178 385.00 0.0025974 432.99 445.38 1.7477 1.9506 3.8192 374.09 0.017364 51.404 0.072178
85.375 725.92 undefined 434.94 447.94 1.7531 385.00 0.0025974 434.94 447.94 1.7531 1.9526 3.7861 377.36 0.016959 51.428 0.072252 385.00 0.0025974 434.94 447.94 1.7531 1.9526 3.7861 377.36 0.016959 51.428 0.072252
86.375 760.18 undefined 436.90 450.51 1.7586 385.00 0.0025974 436.90 450.51 1.7586 1.9547 3.7549 380.57 0.016568 51.453 0.072328 385.00 0.0025974 436.90 450.51 1.7586 1.9547 3.7549 380.57 0.016568 51.453 0.072328
87.375 794.53 undefined 438.85 453.08 1.7640 385.00 0.0025974 438.85 453.08 1.7640 1.9569 3.7254 383.71 0.016192 51.477 0.072404 385.00 0.0025974 438.85 453.08 1.7640 1.9569 3.7254 383.71 0.016192 51.477 0.072404
88.375 828.97 undefined 440.81 455.66 1.7694 385.00 0.0025974 440.81 455.66 1.7694 1.9591 3.6975 386.80 0.015829 51.502 0.072483 385.00 0.0025974 440.81 455.66 1.7694 1.9591 3.6975 386.80 0.015829 51.502 0.072483
89.375 863.48 undefined 442.77 458.24 1.7748 385.00 0.0025974 442.77 458.24 1.7748 1.9615 3.6710 389.82 0.015478 51.526 0.072562 385.00 0.0025974 442.77 458.24 1.7748 1.9615 3.6710 389.82 0.015478 51.526 0.072562
90.375 898.07 undefined 444.74 460.82 1.7802 385.00 0.0025974 444.74 460.82 1.7802 1.9639 3.6458 392.79 0.015140 51.551 0.072643 385.00 0.0025974 444.74 460.82 1.7802 1.9639 3.6458 392.79 0.015140 51.551 0.072643
91.375 932.73 undefined 446.70 463.40 1.7856 385.00 0.0025974 446.70 463.40 1.7856 1.9664 3.6219 395.71 0.014812 51.575 0.072725 385.00 0.0025974 446.70 463.40 1.7856 1.9664 3.6219 395.71 0.014812 51.575 0.072725
92.375 967.47 undefined 448.67 465.99 1.7910 385.00 0.0025974 448.67 465.99 1.7910 1.9690 3.5991 398.58 0.014494 51.600 0.072808 385.00 0.0025974 448.67 465.99 1.7910 1.9690 3.5991 398.58 0.014494 51.600 0.072808
93.375 1002.3 undefined 450.64 468.59 1.7964 385.00 0.0025974 450.64 468.59 1.7964 1.9717 3.5774 401.41 0.014186 51.624 0.072892 385.00 0.0025974 450.64 468.59 1.7964 1.9717 3.5774 401.41 0.014186 51.624 0.072892
94.375 1037.1 undefined 452.61 471.18 1.8018 385.00 0.0025974 452.61 471.18 1.8018 1.9744 3.5567 404.18 0.013887 51.649 0.072977 385.00 0.0025974 452.61 471.18 1.8018 1.9744 3.5567 404.18 0.013887 51.649 0.072977
95.375 1072.0 undefined 454.59 473.79 1.8072 385.00 0.0025974 454.59 473.79 1.8072 1.9772 3.5370 406.92 0.013598 51.673 0.073063 385.00 0.0025974 454.59 473.79 1.8072 1.9772 3.5370 406.92 0.013598 51.673 0.073063
96.375 1107.0 undefined 456.57 476.39 1.8125 385.00 0.0025974 456.57 476.39 1.8125 1.9801 3.5181 409.61 0.013316 51.697 0.073150 385.00 0.0025974 456.57 476.39 1.8125 1.9801 3.5181 409.61 0.013316 51.697 0.073150
97.375 1142.1 undefined 458.55 479.00 1.8179 385.00 0.0025974 458.55 479.00 1.8179 1.9830 3.5001 412.27 0.013042 51.722 0.073238 385.00 0.0025974 458.55 479.00 1.8179 1.9830 3.5001 412.27 0.013042 51.722 0.073238
98.375 1177.1 undefined 460.53 481.61 1.8232 385.00 0.0025974 460.53 481.61 1.8232 1.9859 3.4829 414.89 0.012776 51.746 0.073326 385.00 0.0025974 460.53 481.61 1.8232 1.9859 3.4829 414.89 0.012776 51.746 0.073326
99.375 1212.3 undefined 462.52 484.23 1.8286 385.00 0.0025974 462.52 484.23 1.8286 1.9890 3.4664 417.47 0.012517 51.771 0.073416 385.00 0.0025974 462.52 484.23 1.8286 1.9890 3.4664 417.47 0.012517 51.771 0.073416
100.38 1247.5 undefined 464.51 486.85 1.8339 385.00 0.0025974 464.51 486.85 1.8339 1.9920 3.4506 420.02 0.012264 51.795 0.073506 385.00 0.0025974 464.51 486.85 1.8339 1.9920 3.4506 420.02 0.012264 51.795 0.073506
101.38 1282.7 undefined 466.50 489.47 1.8392 385.00 0.0025974 466.50 489.47 1.8392 1.9951 3.4354 422.54 0.012019 51.820 0.073597 385.00 0.0025974 466.50 489.47 1.8392 1.9951 3.4354 422.54 0.012019 51.820 0.073597
102.38 1318.0 undefined 468.50 492.10 1.8446 385.00 0.0025974 468.50 492.10 1.8446 1.9983 3.4209 425.03 0.011779 51.844 0.073688 385.00 0.0025974 468.50 492.10 1.8446 1.9983 3.4209 425.03 0.011779 51.844 0.073688
103.38 1353.3 undefined 470.50 494.74 1.8499 385.00 0.0025974 470.50 494.74 1.8499 2.0015 3.4070 427.48 0.011546 51.869 0.073781 385.00 0.0025974 470.50 494.74 1.8499 2.0015 3.4070 427.48 0.011546 51.869 0.073781
104.38 1388.7 undefined 472.50 497.37 1.8552 385.00 0.0025974 472.50 497.37 1.8552 2.0047 3.3936 429.91 0.011318 51.893 0.073874 385.00 0.0025974 472.50 497.37 1.8552 2.0047 3.3936 429.91 0.011318 51.893 0.073874
105.38 1424.1 undefined 474.51 500.01 1.8605 385.00 0.0025974 474.51 500.01 1.8605 2.0079 3.3808 432.31 0.011096 51.917 0.073967 385.00 0.0025974 474.51 500.01 1.8605 2.0079 3.3808 432.31 0.011096 51.917 0.073967
106.38 1459.6 undefined 476.52 502.66 1.8658 385.00 0.0025974 476.52 502.66 1.8658 2.0112 3.3685 434.69 0.010879 51.942 0.074061 385.00 0.0025974 476.52 502.66 1.8658 2.0112 3.3685 434.69 0.010879 51.942 0.074061
107.38 1495.0 undefined 478.53 505.31 1.8711 385.00 0.0025974 478.53 505.31 1.8711 2.0146 3.3567 437.03 0.010667 51.966 0.074156 385.00 0.0025974 478.53 505.31 1.8711 2.0146 3.3567 437.03 0.010667 51.966 0.074156
108.38 1530.6 undefined 480.55 507.96 1.8764 385.00 0.0025974 480.55 507.96 1.8764 2.0179 3.3454 439.36 0.010460 51.991 0.074252 385.00 0.0025974 480.55 507.96 1.8764 2.0179 3.3454 439.36 0.010460 51.991 0.074252
109.38 1566.1 undefined 482.57 510.61 1.8817 385.00 0.0025974 482.57 510.61 1.8817 2.0213 3.3344 441.66 0.010258 52.015 0.074348 385.00 0.0025974 482.57 510.61 1.8817 2.0213 3.3344 441.66 0.010258 52.015 0.074348
110.38 1601.7 undefined 484.59 513.28 1.8870 385.00 0.0025974 484.59 513.28 1.8870 2.0247 3.3240 443.93 0.010060 52.039 0.074445 385.00 0.0025974 484.59 513.28 1.8870 2.0247 3.3240 443.93 0.010060 52.039 0.074445
111.38 1637.3 undefined 486.62 515.94 1.8922 385.00 0.0025974 486.62 515.94 1.8922 2.0282 3.3139 446.19 0.0098670 52.064 0.074542 385.00 0.0025974 486.62 515.94 1.8922 2.0282 3.3139 446.19 0.0098670 52.064 0.074542
112.38 1673.0 undefined 488.65 518.61 1.8975 385.00 0.0025974 488.65 518.61 1.8975 2.0316 3.3042 448.42 0.0096779 52.088 0.074640 385.00 0.0025974 488.65 518.61 1.8975 2.0316 3.3042 448.42 0.0096779 52.088 0.074640
113.38 1708.7 undefined 490.68 521.28 1.9028 385.00 0.0025974 490.68 521.28 1.9028 2.0351 3.2948 450.63 0.0094930 52.113 0.074738 385.00 0.0025974 490.68 521.28 1.9028 2.0351 3.2948 450.63 0.0094930 52.113 0.074738
114.38 1744.4 undefined 492.72 523.96 1.9080 385.00 0.0025974 492.72 523.96 1.9080 2.0386 3.2859 452.82 0.0093121 52.137 0.074837 385.00 0.0025974 492.72 523.96 1.9080 2.0386 3.2859 452.82 0.0093121 52.137 0.074837
115.38 1780.1 undefined 494.76 526.64 1.9133 385.00 0.0025974 494.76 526.64 1.9133 2.0421 3.2772 454.99 0.0091349 52.161 0.074936 385.00 0.0025974 494.76 526.64 1.9133 2.0421 3.2772 454.99 0.0091349 52.161 0.074936
116.38 1815.9 undefined 496.80 529.32 1.9185 385.00 0.0025974 496.80 529.32 1.9185 2.0457 3.2689 457.14 0.0089615 52.186 0.075036 385.00 0.0025974 496.80 529.32 1.9185 2.0457 3.2689 457.14 0.0089615 52.186 0.075036
117.38 1851.7 undefined 498.85 532.01 1.9238 385.00 0.0025974 498.85 532.01 1.9238 2.0492 3.2609 459.28 0.0087916 52.210 0.075137 385.00 0.0025974 498.85 532.01 1.9238 2.0492 3.2609 459.28 0.0087916 52.210 0.075137
118.38 1887.5 undefined 500.90 534.70 1.9290 385.00 0.0025974 500.90 534.70 1.9290 2.0528 3.2532 461.39 0.0086253 52.234 0.075238 385.00 0.0025974 500.90 534.70 1.9290 2.0528 3.2532 461.39 0.0086253 52.234 0.075238
119.38 1923.4 undefined 502.95 537.40 1.9343 385.00 0.0025974 502.95 537.40 1.9343 2.0564 3.2458 463.49 0.0084623 52.259 0.075339 385.00 0.0025974 502.95 537.40 1.9343 2.0564 3.2458 463.49 0.0084623 52.259 0.075339
120.38 1959.3 undefined 505.01 540.10 1.9395 385.00 0.0025974 505.01 540.10 1.9395 2.0600 3.2386 465.57 0.0083025 52.283 0.075441 385.00 0.0025974 505.01 540.10 1.9395 2.0600 3.2386 465.57 0.0083025 52.283 0.075441
121.38 1995.2 undefined 507.07 542.80 1.9448 385.00 0.0025974 507.07 542.80 1.9448 2.0636 3.2318 467.64 0.0081459 52.307 0.075543 385.00 0.0025974 507.07 542.80 1.9448 2.0636 3.2318 467.64 0.0081459 52.307 0.075543
122.38 2031.1 undefined 509.14 545.51 1.9500 385.00 0.0025974 509.14 545.51 1.9500 2.0673 3.2251 469.69 0.0079924 52.332 0.075646 385.00 0.0025974 509.14 545.51 1.9500 2.0673 3.2251 469.69 0.0079924 52.332 0.075646
123.38 2067.0 undefined 511.21 548.23 1.9552 385.00 0.0025974 511.21 548.23 1.9552 2.0709 3.2188 471.72 0.0078419 52.356 0.075749 385.00 0.0025974 511.21 548.23 1.9552 2.0709 3.2188 471.72 0.0078419 52.356 0.075749
124.38 2103.0 undefined 513.28 550.94 1.9604 385.00 0.0025974 513.28 550.94 1.9604 2.0746 3.2126 473.74 0.0076943 52.380 0.075853 385.00 0.0025974 513.28 550.94 1.9604 2.0746 3.2126 473.74 0.0076943 52.380 0.075853
125.38 2138.9 undefined 515.36 553.66 1.9656 385.00 0.0025974 515.36 553.66 1.9656 2.0782 3.2067 475.74 0.0075494 52.405 0.075957 385.00 0.0025974 515.36 553.66 1.9656 2.0782 3.2067 475.74 0.0075494 52.405 0.075957
126.38 2174.9 undefined 517.44 556.39 1.9709 385.00 0.0025974 517.44 556.39 1.9709 2.0819 3.2010 477.73 0.0074073 52.429 0.076062 385.00 0.0025974 517.44 556.39 1.9709 2.0819 3.2010 477.73 0.0074073 52.429 0.076062
127.38 2211.0 undefined 519.52 559.12 1.9761 385.00 0.0025974 519.52 559.12 1.9761 2.0856 3.1955 479.71 0.0072679 52.453 0.076167 385.00 0.0025974 519.52 559.12 1.9761 2.0856 3.1955 479.71 0.0072679 52.453 0.076167
128.38 2247.0 undefined 521.61 561.85 1.9813 385.00 0.0025974 521.61 561.85 1.9813 2.0893 3.1903 481.67 0.0071310 52.477 0.076272 385.00 0.0025974 521.61 561.85 1.9813 2.0893 3.1903 481.67 0.0071310 52.477 0.076272
129.38 2283.0 undefined 523.70 564.59 1.9865 385.00 0.0025974 523.70 564.59 1.9865 2.0930 3.1852 483.61 0.0069967 52.502 0.076378 385.00 0.0025974 523.70 564.59 1.9865 2.0930 3.1852 483.61 0.0069967 52.502 0.076378
130.38 2319.1 undefined 525.80 567.33 1.9917 385.00 0.0025974 525.80 567.33 1.9917 2.0967 3.1803 485.55 0.0068648 52.526 0.076484 385.00 0.0025974 525.80 567.33 1.9917 2.0967 3.1803 485.55 0.0068648 52.526 0.076484
131.38 2355.2 undefined 527.89 570.07 1.9969 385.00 0.0025974 527.89 570.07 1.9969 2.1004 3.1756 487.47 0.0067353 52.550 0.076591 385.00 0.0025974 527.89 570.07 1.9969 2.1004 3.1756 487.47 0.0067353 52.550 0.076591
132.38 2391.3 undefined 530.00 572.82 2.0021 385.00 0.0025974 530.00 572.82 2.0021 2.1042 3.1711 489.38 0.0066081 52.574 0.076698 385.00 0.0025974 530.00 572.82 2.0021 2.1042 3.1711 489.38 0.0066081 52.574 0.076698
133.38 2427.4 undefined 532.10 575.57 2.0072 385.00 0.0025974 532.10 575.57 2.0072 2.1079 3.1667 491.27 0.0064831 52.599 0.076806 385.00 0.0025974 532.10 575.57 2.0072 2.1079 3.1667 491.27 0.0064831 52.599 0.076806
134.38 2463.5 undefined 534.21 578.33 2.0124 385.00 0.0025974 534.21 578.33 2.0124 2.1116 3.1626 493.15 0.0063604 52.623 0.076914 385.00 0.0025974 534.21 578.33 2.0124 2.1116 3.1626 493.15 0.0063604 52.623 0.076914
135.38 2499.7 undefined 536.33 581.09 2.0176 385.00 0.0025974 536.33 581.09 2.0176 2.1154 3.1585 495.03 0.0062398 52.647 0.077022 385.00 0.0025974 536.33 581.09 2.0176 2.1154 3.1585 495.03 0.0062398 52.647 0.077022
136.38 2535.8 undefined 538.44 583.86 2.0228 385.00 0.0025974 538.44 583.86 2.0228 2.1191 3.1547 496.89 0.0061213 52.671 0.077131 385.00 0.0025974 538.44 583.86 2.0228 2.1191 3.1547 496.89 0.0061213 52.671 0.077131
137.38 2572.0 undefined 540.56 586.62 2.0280 385.00 0.0025974 540.56 586.62 2.0280 2.1229 3.1510 498.73 0.0060048 52.695 0.077240 385.00 0.0025974 540.56 586.62 2.0280 2.1229 3.1510 498.73 0.0060048 52.695 0.077240
138.38 2608.2 undefined 542.69 589.40 2.0331 385.00 0.0025974 542.69 589.40 2.0331 2.1267 3.1474 500.57 0.0058903 52.720 0.077349 385.00 0.0025974 542.69 589.40 2.0331 2.1267 3.1474 500.57 0.0058903 52.720 0.077349
139.38 2644.4 undefined 544.82 592.17 2.0383 385.00 0.0025974 544.82 592.17 2.0383 2.1304 3.1440 502.40 0.0057778 52.744 0.077459 385.00 0.0025974 544.82 592.17 2.0383 2.1304 3.1440 502.40 0.0057778 52.744 0.077459
140.38 2680.6 undefined 546.95 594.95 2.0435 385.00 0.0025974 546.95 594.95 2.0435 2.1342 3.1407 504.21 0.0056671 52.768 0.077569 385.00 0.0025974 546.95 594.95 2.0435 2.1342 3.1407 504.21 0.0056671 52.768 0.077569
141.38 2716.8 undefined 549.09 597.74 2.0486 385.00 0.0025974 549.09 597.74 2.0486 2.1380 3.1375 506.02 0.0055583 52.792 0.077680 385.00 0.0025974 549.09 597.74 2.0486 2.1380 3.1375 506.02 0.0055583 52.792 0.077680
142.38 2753.0 undefined 551.23 600.53 2.0538 385.00 0.0025974 551.23 600.53 2.0538 2.1417 3.1345 507.81 0.0054513 52.816 0.077791 385.00 0.0025974 551.23 600.53 2.0538 2.1417 3.1345 507.81 0.0054513 52.816 0.077791
143.38 2789.2 undefined 553.37 603.32 2.0589 385.00 0.0025974 553.37 603.32 2.0589 2.1455 3.1316 509.60 0.0053460 52.840 0.077902 385.00 0.0025974 553.37 603.32 2.0589 2.1455 3.1316 509.60 0.0053460 52.840 0.077902
144.38 2825.5 undefined 555.52 606.12 2.0641 385.00 0.0025974 555.52 606.12 2.0641 2.1493 3.1288 511.37 0.0052425 52.865 0.078014 385.00 0.0025974 555.52 606.12 2.0641 2.1493 3.1288 511.37 0.0052425 52.865 0.078014
145.38 2861.7 undefined 557.67 608.92 2.0692 385.00 0.0025974 557.67 608.92 2.0692 2.1531 3.1261 513.14 0.0051406 52.889 0.078126 385.00 0.0025974 557.67 608.92 2.0692 2.1531 3.1261 513.14 0.0051406 52.889 0.078126
146.38 2898.0 undefined 559.82 611.72 2.0744 385.00 0.0025974 559.82 611.72 2.0744 2.1569 3.1236 514.89 0.0050404 52.913 0.078238 385.00 0.0025974 559.82 611.72 2.0744 2.1569 3.1236 514.89 0.0050404 52.913 0.078238
147.38 2934.3 undefined 561.98 614.53 2.0795 385.00 0.0025974 561.98 614.53 2.0795 2.1607 3.1212 516.64 0.0049418 52.937 0.078351 385.00 0.0025974 561.98 614.53 2.0795 2.1607 3.1212 516.64 0.0049418 52.937 0.078351
148.38 2970.6 undefined 564.14 617.34 2.0846 385.00 0.0025974 564.14 617.34 2.0846 2.1645 3.1188 518.37 0.0048448 52.961 0.078464 385.00 0.0025974 564.14 617.34 2.0846 2.1645 3.1188 518.37 0.0048448 52.961 0.078464
149.38 3006.8 undefined 566.31 620.16 2.0898 385.00 0.0025974 566.31 620.16 2.0898 2.1683 3.1166 520.10 0.0047492 52.985 0.078578 385.00 0.0025974 566.31 620.16 2.0898 2.1683 3.1166 520.10 0.0047492 52.985 0.078578
150.38 3043.1 undefined 568.48 622.98 2.0949 385.00 0.0025974 568.48 622.98 2.0949 2.1721 3.1145 521.82 0.0046552 53.009 0.078692 385.00 0.0025974 568.48 622.98 2.0949 2.1721 3.1145 521.82 0.0046552 53.009 0.078692
151.38 3079.4 undefined 570.65 625.80 2.1000 385.00 0.0025974 570.65 625.80 2.1000 2.1759 3.1125 523.53 0.0045627 53.033 0.078806 385.00 0.0025974 570.65 625.80 2.1000 2.1759 3.1125 523.53 0.0045627 53.033 0.078806
152.38 3115.7 undefined 572.83 628.63 2.1052 385.00 0.0025974 572.83 628.63 2.1052 2.1797 3.1105 525.23 0.0044715 53.057 0.078921 385.00 0.0025974 572.83 628.63 2.1052 2.1797 3.1105 525.23 0.0044715 53.057 0.078921
153.38 3152.1 undefined 575.01 631.46 2.1103 385.00 0.0025974 575.01 631.46 2.1103 2.1835 3.1087 526.92 0.0043818 53.082 0.079035 385.00 0.0025974 575.01 631.46 2.1103 2.1835 3.1087 526.92 0.0043818 53.082 0.079035
154.38 3188.4 undefined 577.20 634.30 2.1154 385.00 0.0025974 577.20 634.30 2.1154 2.1873 3.1070 528.60 0.0042934 53.106 0.079151 385.00 0.0025974 577.20 634.30 2.1154 2.1873 3.1070 528.60 0.0042934 53.106 0.079151
155.38 3224.7 undefined 579.39 637.14 2.1205 385.00 0.0025974 579.39 637.14 2.1205 2.1911 3.1053 530.28 0.0042064 53.130 0.079266 385.00 0.0025974 579.39 637.14 2.1205 2.1911 3.1053 530.28 0.0042064 53.130 0.079266
156.38 3261.0 undefined 581.58 639.98 2.1256 385.00 0.0025974 581.58 639.98 2.1256 2.1949 3.1037 531.94 0.0041207 53.154 0.079382 385.00 0.0025974 581.58 639.98 2.1256 2.1949 3.1037 531.94 0.0041207 53.154 0.079382
157.38 3297.4 undefined 583.78 642.83 2.1307 385.00 0.0025974 583.78 642.83 2.1307 2.1987 3.1022 533.60 0.0040363 53.178 0.079499 385.00 0.0025974 583.78 642.83 2.1307 2.1987 3.1022 533.60 0.0040363 53.178 0.079499
158.38 3333.7 undefined 585.98 645.68 2.1358 385.00 0.0025974 585.98 645.68 2.1358 2.2025 3.1008 535.25 0.0039531 53.202 0.079615 385.00 0.0025974 585.98 645.68 2.1358 2.2025 3.1008 535.25 0.0039531 53.202 0.079615
159.38 3370.1 undefined 588.18 648.54 2.1409 385.00 0.0025974 588.18 648.54 2.1409 2.2063 3.0995 536.89 0.0038712 53.226 0.079732 385.00 0.0025974 588.18 648.54 2.1409 2.2063 3.0995 536.89 0.0038712 53.226 0.079732
160.38 3406.4 undefined 590.39 651.39 2.1460 385.00 0.0025974 590.39 651.39 2.1460 2.2101 3.0983 538.53 0.0037905 53.250 0.079850 385.00 0.0025974 590.39 651.39 2.1460 2.2101 3.0983 538.53 0.0037905 53.250 0.079850
161.38 3442.8 undefined 592.60 654.26 2.1511 385.00 0.0025974 592.60 654.26 2.1511 2.2139 3.0971 540.15 0.0037109 53.274 0.079967 385.00 0.0025974 592.60 654.26 2.1511 2.2139 3.0971 540.15 0.0037109 53.274 0.079967
162.38 3479.1 undefined 594.82 657.12 2.1562 385.00 0.0025974 594.82 657.12 2.1562 2.2177 3.0960 541.77 0.0036325 53.298 0.080085 385.00 0.0025974 594.82 657.12 2.1562 2.2177 3.0960 541.77 0.0036325 53.298 0.080085
163.38 3515.5 undefined 597.04 660.00 2.1613 385.00 0.0025974 597.04 660.00 2.1613 2.2215 3.0950 543.38 0.0035553 53.322 0.080204 385.00 0.0025974 597.04 660.00 2.1613 2.2215 3.0950 543.38 0.0035553 53.322 0.080204
164.38 3551.9 undefined 599.26 662.87 2.1664 385.00 0.0025974 599.26 662.87 2.1664 2.2253 3.0940 544.99 0.0034791 53.346 0.080322 385.00 0.0025974 599.26 662.87 2.1664 2.2253 3.0940 544.99 0.0034791 53.346 0.080322
165.38 3588.2 undefined 601.49 665.75 2.1715 385.00 0.0025974 601.49 665.75 2.1715 2.2291 3.0932 546.58 0.0034041 53.369 0.080441 385.00 0.0025974 601.49 665.75 2.1715 2.2291 3.0932 546.58 0.0034041 53.369 0.080441
166.38 3624.6 undefined 603.72 668.63 2.1766 385.00 0.0025974 603.72 668.63 2.1766 2.2329 3.0923 548.17 0.0033301 53.393 0.080561 385.00 0.0025974 603.72 668.63 2.1766 2.2329 3.0923 548.17 0.0033301 53.393 0.080561
167.38 3661.0 undefined 605.95 671.52 2.1816 385.00 0.0025974 605.95 671.52 2.1816 2.2367 3.0916 549.76 0.0032571 53.417 0.080680 385.00 0.0025974 605.95 671.52 2.1816 2.2367 3.0916 549.76 0.0032571 53.417 0.080680
168.38 3697.3 undefined 608.19 674.41 2.1867 385.00 0.0025974 608.19 674.41 2.1867 2.2405 3.0909 551.33 0.0031852 53.441 0.080800 385.00 0.0025974 608.19 674.41 2.1867 2.2405 3.0909 551.33 0.0031852 53.441 0.080800
169.38 3733.7 undefined 610.44 677.30 2.1918 385.00 0.0025974 610.44 677.30 2.1918 2.2443 3.0903 552.90 0.0031143 53.465 0.080920 385.00 0.0025974 610.44 677.30 2.1918 2.2443 3.0903 552.90 0.0031143 53.465 0.080920
170.38 3770.1 undefined 612.68 680.20 2.1969 385.00 0.0025974 612.68 680.20 2.1969 2.2481 3.0897 554.46 0.0030444 53.489 0.081041 385.00 0.0025974 612.68 680.20 2.1969 2.2481 3.0897 554.46 0.0030444 53.489 0.081041
171.38 3806.5 undefined 614.93 683.10 2.2019 385.00 0.0025974 614.93 683.10 2.2019 2.2519 3.0892 556.02 0.0029754 53.513 0.081162 385.00 0.0025974 614.93 683.10 2.2019 2.2519 3.0892 556.02 0.0029754 53.513 0.081162
172.38 3842.9 undefined 617.19 686.01 2.2070 385.00 0.0025974 617.19 686.01 2.2070 2.2557 3.0887 557.57 0.0029074 53.537 0.081283 385.00 0.0025974 617.19 686.01 2.2070 2.2557 3.0887 557.57 0.0029074 53.537 0.081283
173.38 3879.2 undefined 619.44 688.91 2.2121 385.00 0.0025974 619.44 688.91 2.2121 2.2595 3.0883 559.11 0.0028403 53.561 0.081405 385.00 0.0025974 619.44 688.91 2.2121 2.2595 3.0883 559.11 0.0028403 53.561 0.081405
174.38 3915.6 undefined 621.70 691.83 2.2171 385.00 0.0025974 621.70 691.83 2.2171 2.2633 3.0880 560.64 0.0027742 53.584 0.081527 385.00 0.0025974 621.70 691.83 2.2171 2.2633 3.0880 560.64 0.0027742 53.584 0.081527
175.38 3952.0 undefined 623.97 694.74 2.2222 385.00 0.0025974 623.97 694.74 2.2222 2.2671 3.0877 562.17 0.0027089 53.608 0.081649 385.00 0.0025974 623.97 694.74 2.2222 2.2671 3.0877 562.17 0.0027089 53.608 0.081649
176.38 3988.4 undefined 626.24 697.66 2.2272 385.00 0.0025974 626.24 697.66 2.2272 2.2709 3.0875 563.69 0.0026445 53.632 0.081771 385.00 0.0025974 626.24 697.66 2.2272 2.2709 3.0875 563.69 0.0026445 53.632 0.081771
177.38 4024.8 undefined 628.51 700.59 2.2323 385.00 0.0025974 628.51 700.59 2.2323 2.2746 3.0873 565.21 0.0025810 53.656 0.081894 385.00 0.0025974 628.51 700.59 2.2323 2.2746 3.0873 565.21 0.0025810 53.656 0.081894
178.38 4061.2 undefined 630.79 703.52 2.2373 385.00 0.0025974 630.79 703.52 2.2373 2.2784 3.0872 566.72 0.0025183 53.680 0.082017 385.00 0.0025974 630.79 703.52 2.2373 2.2784 3.0872 566.72 0.0025183 53.680 0.082017
179.38 4097.6 undefined 633.07 706.45 2.2424 385.00 0.0025974 633.07 706.45 2.2424 2.2822 3.0871 568.22 0.0024565 53.704 0.082141 385.00 0.0025974 633.07 706.45 2.2424 2.2822 3.0871 568.22 0.0024565 53.704 0.082141
180.38 4133.9 undefined 635.35 709.38 2.2474 385.00 0.0025974 635.35 709.38 2.2474 2.2860 3.0870 569.72 0.0023955 53.727 0.082265 385.00 0.0025974 635.35 709.38 2.2474 2.2860 3.0870 569.72 0.0023955 53.727 0.082265
181.38 4170.3 undefined 637.64 712.32 2.2524 385.00 0.0025974 637.64 712.32 2.2524 2.2898 3.0871 571.21 0.0023353 53.751 0.082389 385.00 0.0025974 637.64 712.32 2.2524 2.2898 3.0871 571.21 0.0023353 53.751 0.082389
182.38 4206.7 undefined 639.93 715.27 2.2575 385.00 0.0025974 639.93 715.27 2.2575 2.2936 3.0871 572.70 0.0022758 53.775 0.082513 385.00 0.0025974 639.93 715.27 2.2575 2.2936 3.0871 572.70 0.0022758 53.775 0.082513
183.38 4243.1 undefined 642.23 718.21 2.2625 385.00 0.0025974 642.23 718.21 2.2625 2.2974 3.0872 574.18 0.0022172 53.799 0.082638 385.00 0.0025974 642.23 718.21 2.2625 2.2974 3.0872 574.18 0.0022172 53.799 0.082638
184.38 4279.5 undefined 644.53 721.17 2.2675 385.00 0.0025974 644.53 721.17 2.2675 2.3011 3.0874 575.65 0.0021593 53.822 0.082763 385.00 0.0025974 644.53 721.17 2.2675 2.3011 3.0874 575.65 0.0021593 53.822 0.082763
185.38 4315.8 undefined 646.83 724.12 2.2726 385.00 0.0025974 646.83 724.12 2.2726 2.3049 3.0875 577.12 0.0021021 53.846 0.082888 385.00 0.0025974 646.83 724.12 2.2726 2.3049 3.0875 577.12 0.0021021 53.846 0.082888
186.38 4352.2 undefined 649.14 727.08 2.2776 385.00 0.0025974 649.14 727.08 2.2776 2.3087 3.0878 578.59 0.0020457 53.870 0.083014 385.00 0.0025974 649.14 727.08 2.2776 2.3087 3.0878 578.59 0.0020457 53.870 0.083014
187.38 4388.6 undefined 651.45 730.04 2.2826 385.00 0.0025974 651.45 730.04 2.2826 2.3125 3.0880 580.04 0.0019900 53.893 0.083140 385.00 0.0025974 651.45 730.04 2.2826 2.3125 3.0880 580.04 0.0019900 53.893 0.083140
188.38 4425.0 undefined 653.76 733.01 2.2876 385.00 0.0025974 653.76 733.01 2.2876 2.3162 3.0883 581.50 0.0019350 53.917 0.083266 385.00 0.0025974 653.76 733.01 2.2876 2.3162 3.0883 581.50 0.0019350 53.917 0.083266
189.38 4461.3 undefined 656.08 735.98 2.2927 385.00 0.0025974 656.08 735.98 2.2927 2.3200 3.0887 582.94 0.0018808 53.941 0.083393 385.00 0.0025974 656.08 735.98 2.2927 2.3200 3.0887 582.94 0.0018808 53.941 0.083393
190.38 4497.7 undefined 658.40 738.95 2.2977 385.00 0.0025974 658.40 738.95 2.2977 2.3238 3.0891 584.38 0.0018272 53.964 0.083519 385.00 0.0025974 658.40 738.95 2.2977 2.3238 3.0891 584.38 0.0018272 53.964 0.083519
191.38 4534.1 undefined 660.73 741.93 2.3027 385.00 0.0025974 660.73 741.93 2.3027 2.3275 3.0895 585.82 0.0017742 53.988 0.083647 385.00 0.0025974 660.73 741.93 2.3027 2.3275 3.0895 585.82 0.0017742 53.988 0.083647
192.38 4570.4 undefined 663.06 744.91 2.3077 385.00 0.0025974 663.06 744.91 2.3077 2.3313 3.0900 587.25 0.0017220 54.012 0.083774 385.00 0.0025974 663.06 744.91 2.3077 2.3313 3.0900 587.25 0.0017220 54.012 0.083774
193.38 4606.8 undefined 665.39 747.89 2.3127 385.00 0.0025974 665.39 747.89 2.3127 2.3351 3.0905 588.67 0.0016704 54.035 0.083902 385.00 0.0025974 665.39 747.89 2.3127 2.3351 3.0905 588.67 0.0016704 54.035 0.083902
194.38 4643.1 undefined 667.73 750.88 2.3177 385.00 0.0025974 667.73 750.88 2.3177 2.3388 3.0910 590.09 0.0016194 54.059 0.084030 385.00 0.0025974 667.73 750.88 2.3177 2.3388 3.0910 590.09 0.0016194 54.059 0.084030
195.38 4679.5 undefined 670.07 753.87 2.3227 385.00 0.0025974 670.07 753.87 2.3227 2.3426 3.0916 591.51 0.0015691 54.083 0.084158 385.00 0.0025974 670.07 753.87 2.3227 2.3426 3.0916 591.51 0.0015691 54.083 0.084158
196.38 4715.8 undefined 672.41 756.87 2.3277 385.00 0.0025974 672.41 756.87 2.3277 2.3463 3.0922 592.92 0.0015193 54.106 0.084287 385.00 0.0025974 672.41 756.87 2.3277 2.3463 3.0922 592.92 0.0015193 54.106 0.084287
197.38 4752.2 undefined 674.76 759.86 2.3327 385.00 0.0025974 674.76 759.86 2.3327 2.3501 3.0928 594.32 0.0014702 54.130 0.084416 385.00 0.0025974 674.76 759.86 2.3327 2.3501 3.0928 594.32 0.0014702 54.130 0.084416
198.38 4788.5 undefined 677.11 762.87 2.3377 385.00 0.0025974 677.11 762.87 2.3377 2.3538 3.0935 595.72 0.0014217 54.153 0.084545 385.00 0.0025974 677.11 762.87 2.3377 2.3538 3.0935 595.72 0.0014217 54.153 0.084545
199.38 4824.9 undefined 679.47 765.87 2.3427 385.00 0.0025974 679.47 765.87 2.3427 2.3576 3.0942 597.12 0.0013738 54.177 0.084675 385.00 0.0025974 679.47 765.87 2.3427 2.3576 3.0942 597.12 0.0013738 54.177 0.084675
200.38 4861.2 undefined 681.83 768.88 2.3477 385.00 0.0025974 681.83 768.88 2.3477 2.3613 3.0949 598.51 0.0013264 54.200 0.084805 385.00 0.0025974 681.83 768.88 2.3477 2.3613 3.0949 598.51 0.0013264 54.200 0.084805
201.38 4897.5 undefined 684.19 771.90 2.3527 385.00 0.0025974 684.19 771.90 2.3527 2.3651 3.0956 599.89 0.0012797 54.224 0.084935 385.00 0.0025974 684.19 771.90 2.3527 2.3651 3.0956 599.89 0.0012797 54.224 0.084935
202.38 4933.9 undefined 686.56 774.92 2.3576 385.00 0.0025974 686.56 774.92 2.3576 2.3688 3.0964 601.27 0.0012335 54.247 0.085065 385.00 0.0025974 686.56 774.92 2.3576 2.3688 3.0964 601.27 0.0012335 54.247 0.085065
203.38 4970.2 undefined 688.93 777.94 2.3626 385.00 0.0025974 688.93 777.94 2.3626 2.3726 3.0972 602.65 0.0011878 54.271 0.085196 385.00 0.0025974 688.93 777.94 2.3626 2.3726 3.0972 602.65 0.0011878 54.271 0.085196
204.38 5006.5 undefined 691.30 780.96 2.3676 385.00 0.0025974 691.30 780.96 2.3676 2.3763 3.0981 604.02 0.0011427 54.294 0.085327 385.00 0.0025974 691.30 780.96 2.3676 2.3763 3.0981 604.02 0.0011427 54.294 0.085327
205.38 5042.8 undefined 693.68 783.99 2.3726 385.00 0.0025974 693.68 783.99 2.3726 2.3800 3.0990 605.39 0.0010981 54.318 0.085458 385.00 0.0025974 693.68 783.99 2.3726 2.3800 3.0990 605.39 0.0010981 54.318 0.085458
206.38 5079.1 undefined 696.06 787.02 2.3775 385.00 0.0025974 696.06 787.02 2.3775 2.3838 3.0999 606.75 0.0010541 54.341 0.085590 385.00 0.0025974 696.06 787.02 2.3775 2.3838 3.0999 606.75 0.0010541 54.341 0.085590
207.38 5115.4 undefined 698.45 790.06 2.3825 385.00 0.0025974 698.45 790.06 2.3825 2.3875 3.1008 608.10 0.0010105 54.365 0.085722 385.00 0.0025974 698.45 790.06 2.3825 2.3875 3.1008 608.10 0.0010105 54.365 0.085722
208.38 5151.7 undefined 700.84 793.10 2.3875 385.00 0.0025974 700.84 793.10 2.3875 2.3912 3.1018 609.46 0.00096750 54.388 0.085854 385.00 0.0025974 700.84 793.10 2.3875 2.3912 3.1018 609.46 0.00096750 54.388 0.085854
209.38 5188.0 undefined 703.23 796.14 2.3925 385.00 0.0025974 703.23 796.14 2.3925 2.3949 3.1027 610.81 0.00092498 54.412 0.085986 385.00 0.0025974 703.23 796.14 2.3925 2.3949 3.1027 610.81 0.00092498 54.412 0.085986
210.38 5224.3 undefined 705.63 799.19 2.3974 385.00 0.0025974 705.63 799.19 2.3974 2.3986 3.1037 612.15 0.00088296 54.435 0.086119 385.00 0.0025974 705.63 799.19 2.3974 2.3986 3.1037 612.15 0.00088296 54.435 0.086119
211.38 5260.6 undefined 708.03 802.24 2.4024 385.00 0.0025974 708.03 802.24 2.4024 2.4024 3.1048 613.49 0.00084143 54.458 0.086252 385.00 0.0025974 708.03 802.24 2.4024 2.4024 3.1048 613.49 0.00084143 54.458 0.086252
212.38 5296.9 undefined 710.43 805.29 2.4073 385.00 0.0025974 710.43 805.29 2.4073 2.4061 3.1058 614.82 0.00080037 54.482 0.086385 385.00 0.0025974 710.43 805.29 2.4073 2.4061 3.1058 614.82 0.00080037 54.482 0.086385
213.38 5333.2 undefined 712.84 808.35 2.4123 385.00 0.0025974 712.84 808.35 2.4123 2.4098 3.1069 616.15 0.00075979 54.505 0.086519 385.00 0.0025974 712.84 808.35 2.4123 2.4098 3.1069 616.15 0.00075979 54.505 0.086519
214.38 5369.4 undefined 715.25 811.41 2.4172 385.00 0.0025974 715.25 811.41 2.4172 2.4135 3.1080 617.48 0.00071968 54.529 0.086653 385.00 0.0025974 715.25 811.41 2.4172 2.4135 3.1080 617.48 0.00071968 54.529 0.086653
215.38 5405.7 undefined 717.67 814.47 2.4222 385.00 0.0025974 717.67 814.47 2.4222 2.4172 3.1091 618.80 0.00068002 54.552 0.086787 385.00 0.0025974 717.67 814.47 2.4222 2.4172 3.1091 618.80 0.00068002 54.552 0.086787
216.38 5441.9 undefined 720.09 817.54 2.4271 385.00 0.0025974 720.09 817.54 2.4271 2.4209 3.1103 620.12 0.00064082 54.575 0.086921 385.00 0.0025974 720.09 817.54 2.4271 2.4209 3.1103 620.12 0.00064082 54.575 0.086921
217.38 5478.2 undefined 722.51 820.62 2.4321 385.00 0.0025974 722.51 820.62 2.4321 2.4246 3.1115 621.44 0.00060206 54.599 0.087056 385.00 0.0025974 722.51 820.62 2.4321 2.4246 3.1115 621.44 0.00060206 54.599 0.087056
218.38 5514.4 undefined 724.94 823.69 2.4370 385.00 0.0025974 724.94 823.69 2.4370 2.4283 3.1127 622.75 0.00056375 54.622 0.087191 385.00 0.0025974 724.94 823.69 2.4370 2.4283 3.1127 622.75 0.00056375 54.622 0.087191
219.38 5550.7 undefined 727.37 826.77 2.4420 385.00 0.0025974 727.37 826.77 2.4420 2.4320 3.1139 624.05 0.00052586 54.645 0.087327 385.00 0.0025974 727.37 826.77 2.4420 2.4320 3.1139 624.05 0.00052586 54.645 0.087327
220.38 5586.9 undefined 729.80 829.85 2.4469 385.00 0.0025974 729.80 829.85 2.4469 2.4357 3.1151 625.35 0.00048840 54.668 0.087462 385.00 0.0025974 729.80 829.85 2.4469 2.4357 3.1151 625.35 0.00048840 54.668 0.087462
221.38 5623.1 undefined 732.24 832.94 2.4518 385.00 0.0025974 732.24 832.94 2.4518 2.4394 3.1164 626.65 0.00045136 54.692 0.087598 385.00 0.0025974 732.24 832.94 2.4518 2.4394 3.1164 626.65 0.00045136 54.692 0.087598
222.38 5659.4 undefined 734.68 836.03 2.4568 385.00 0.0025974 734.68 836.03 2.4568 2.4430 3.1176 627.95 0.00041474 54.715 0.087734 385.00 0.0025974 734.68 836.03 2.4568 2.4430 3.1176 627.95 0.00041474 54.715 0.087734
223.38 5695.6 undefined 737.12 839.12 2.4617 385.00 0.0025974 737.12 839.12 2.4617 2.4467 3.1189 629.24 0.00037852 54.738 0.087870 385.00 0.0025974 737.12 839.12 2.4617 2.4467 3.1189 629.24 0.00037852 54.738 0.087870
224.38 5731.8 undefined 739.57 842.22 2.4666 385.00 0.0025974 739.57 842.22 2.4666 2.4504 3.1202 630.52 0.00034271 54.761 0.088007 385.00 0.0025974 739.57 842.22 2.4666 2.4504 3.1202 630.52 0.00034271 54.761 0.088007
225.38 5768.0 undefined 742.02 845.32 2.4715 385.00 0.0025974 742.02 845.32 2.4715 2.4541 3.1216 631.80 0.00030729 54.785 0.088144 385.00 0.0025974 742.02 845.32 2.4715 2.4541 3.1216 631.80 0.00030729 54.785 0.088144
226.38 5804.2 undefined 744.48 848.42 2.4765 385.00 0.0025974 744.48 848.42 2.4765 2.4577 3.1229 633.08 0.00027226 54.808 0.088281 385.00 0.0025974 744.48 848.42 2.4765 2.4577 3.1229 633.08 0.00027226 54.808 0.088281
227.38 5840.4 undefined 746.94 851.53 2.4814 385.00 0.0025974 746.94 851.53 2.4814 2.4614 3.1243 634.36 0.00023762 54.831 0.088419 385.00 0.0025974 746.94 851.53 2.4814 2.4614 3.1243 634.36 0.00023762 54.831 0.088419
228.38 5876.5 undefined 749.40 854.64 2.4863 385.00 0.0025974 749.40 854.64 2.4863 2.4651 3.1257 635.63 0.00020336 54.854 0.088556 385.00 0.0025974 749.40 854.64 2.4863 2.4651 3.1257 635.63 0.00020336 54.854 0.088556
229.38 5912.7 undefined 751.87 857.76 2.4912 385.00 0.0025974 751.87 857.76 2.4912 2.4687 3.1271 636.89 0.00016947 54.877 0.088694 385.00 0.0025974 751.87 857.76 2.4912 2.4687 3.1271 636.89 0.00016947 54.877 0.088694
230.38 5948.9 undefined 754.34 860.88 2.4961 385.00 0.0025974 754.34 860.88 2.4961 2.4724 3.1285 638.16 0.00013595 54.900 0.088833 385.00 0.0025974 754.34 860.88 2.4961 2.4724 3.1285 638.16 0.00013595 54.900 0.088833
231.38 5985.0 undefined 756.81 864.00 2.5010 385.00 0.0025974 756.81 864.00 2.5010 2.4760 3.1300 639.42 0.00010280 54.924 0.088971 385.00 0.0025974 756.81 864.00 2.5010 2.4760 3.1300 639.42 0.00010280 54.924 0.088971
232.38 6021.2 undefined 759.29 867.12 2.5059 385.00 0.0025974 759.29 867.12 2.5059 2.4797 3.1314 640.67 7.0005e-05 54.947 0.089110 385.00 0.0025974 759.29 867.12 2.5059 2.4797 3.1314 640.67 7.0005e-05 54.947 0.089110
233.38 6057.3 undefined 761.77 870.25 2.5108 385.00 0.0025974 761.77 870.25 2.5108 2.4833 3.1329 641.93 3.7565e-05 54.970 0.089249 385.00 0.0025974 761.77 870.25 2.5108 2.4833 3.1329 641.93 3.7565e-05 54.970 0.089249
234.38 6093.5 undefined 764.26 873.38 2.5157 385.00 0.0025974 764.26 873.38 2.5157 2.4870 3.1344 643.18 5.4746e-06 54.993 0.089388 385.00 0.0025974 764.26 873.38 2.5157 2.4870 3.1344 643.18 5.4746e-06 54.993 0.089388
235.38 6129.6 undefined 766.75 876.52 2.5206 385.00 0.0025974 766.75 876.52 2.5206 2.4906 3.1359 644.42 -2.6271e-05 55.016 0.089528 385.00 0.0025974 766.75 876.52 2.5206 2.4906 3.1359 644.42 -2.6271e-05 55.016 0.089528
236.38 6165.7 undefined 769.24 879.66 2.5255 385.00 0.0025974 769.24 879.66 2.5255 2.4943 3.1374 645.66 -5.7677e-05 55.039 0.089668 385.00 0.0025974 769.24 879.66 2.5255 2.4943 3.1374 645.66 -5.7677e-05 55.039 0.089668
237.38 6201.8 undefined 771.74 882.80 2.5304 385.00 0.0025974 771.74 882.80 2.5304 2.4979 3.1390 646.90 -8.8748e-05 55.062 0.089808 385.00 0.0025974 771.74 882.80 2.5304 2.4979 3.1390 646.90 -8.8748e-05 55.062 0.089808
238.38 6237.9 undefined 774.24 885.95 2.5353 385.00 0.0025974 774.24 885.95 2.5353 2.5015 3.1405 648.14 -0.00011949 55.085 0.089950 385.00 0.0025974 774.24 885.95 2.5353 2.5015 3.1405 648.14 -0.00011949 55.085 0.089950
239.38 6274.0 undefined 776.74 889.10 2.5402 385.00 0.0025974 776.74 889.10 2.5402 2.5052 3.1421 649.37 -0.00014990 55.108 0.090097 385.00 0.0025974 776.74 889.10 2.5402 2.5052 3.1421 649.37 -0.00014990 55.108 0.090097
240.38 6310.1 undefined 779.25 892.25 2.5451 385.00 0.0025974 779.25 892.25 2.5451 2.5088 3.1437 650.60 -0.00017999 55.131 0.090244 385.00 0.0025974 779.25 892.25 2.5451 2.5088 3.1437 650.60 -0.00017999 55.131 0.090244
241.38 6346.2 undefined 781.76 895.41 2.5500 385.00 0.0025974 781.76 895.41 2.5500 2.5124 3.1453 651.82 -0.00020977 55.154 0.090392 385.00 0.0025974 781.76 895.41 2.5500 2.5124 3.1453 651.82 -0.00020977 55.154 0.090392
242.38 6382.3 undefined 784.27 898.57 2.5549 385.00 0.0025974 784.27 898.57 2.5549 2.5160 3.1469 653.04 -0.00023923 55.177 0.090539 385.00 0.0025974 784.27 898.57 2.5549 2.5160 3.1469 653.04 -0.00023923 55.177 0.090539
243.38 6418.3 undefined 786.79 901.73 2.5597 385.00 0.0025974 786.79 901.73 2.5597 2.5196 3.1485 654.26 -0.00026838 55.200 0.090687 385.00 0.0025974 786.79 901.73 2.5597 2.5196 3.1485 654.26 -0.00026838 55.200 0.090687
244.38 6454.4 undefined 789.31 904.90 2.5646 385.00 0.0025974 789.31 904.90 2.5646 2.5232 3.1502 655.48 -0.00029722 55.223 0.090836 385.00 0.0025974 789.31 904.90 2.5646 2.5232 3.1502 655.48 -0.00029722 55.223 0.090836
245.38 6490.4 undefined 791.84 908.07 2.5695 385.00 0.0025974 791.84 908.07 2.5695 2.5268 3.1518 656.69 -0.00032577 55.246 0.090984 385.00 0.0025974 791.84 908.07 2.5695 2.5268 3.1518 656.69 -0.00032577 55.246 0.090984
246.38 6526.5 undefined 794.36 911.24 2.5744 385.00 0.0025974 794.36 911.24 2.5744 2.5305 3.1535 657.90 -0.00035401 55.269 0.091133 385.00 0.0025974 794.36 911.24 2.5744 2.5305 3.1535 657.90 -0.00035401 55.269 0.091133
247.38 6562.5 undefined 796.90 914.42 2.5792 385.00 0.0025974 796.90 914.42 2.5792 2.5341 3.1552 659.10 -0.00038197 55.292 0.091282 385.00 0.0025974 796.90 914.42 2.5792 2.5341 3.1552 659.10 -0.00038197 55.292 0.091282
248.38 6598.5 undefined 799.43 917.60 2.5841 385.00 0.0025974 799.43 917.60 2.5841 2.5376 3.1568 660.30 -0.00040963 55.315 0.091432 385.00 0.0025974 799.43 917.60 2.5841 2.5376 3.1568 660.30 -0.00040963 55.315 0.091432
249.38 6634.6 undefined 801.97 920.79 2.5890 385.00 0.0025974 801.97 920.79 2.5890 2.5412 3.1585 661.50 -0.00043701 55.337 0.091582 385.00 0.0025974 801.97 920.79 2.5890 2.5412 3.1585 661.50 -0.00043701 55.337 0.091582
250.38 6670.6 undefined 804.51 923.97 2.5938 385.00 0.0025974 804.51 923.97 2.5938 2.5448 3.1603 662.70 -0.00046411 55.360 0.091732 385.00 0.0025974 804.51 923.97 2.5938 2.5448 3.1603 662.70 -0.00046411 55.360 0.091732
251.38 6706.6 undefined 807.06 927.17 2.5987 385.00 0.0025974 807.06 927.17 2.5987 2.5484 3.1620 663.89 -0.00049092 55.383 0.091882 385.00 0.0025974 807.06 927.17 2.5987 2.5484 3.1620 663.89 -0.00049092 55.383 0.091882
252.38 6742.6 undefined 809.61 930.36 2.6035 385.00 0.0025974 809.61 930.36 2.6035 2.5520 3.1637 665.08 -0.00051747 55.406 0.092033 385.00 0.0025974 809.61 930.36 2.6035 2.5520 3.1637 665.08 -0.00051747 55.406 0.092033
253.38 6778.5 undefined 812.17 933.56 2.6084 385.00 0.0025974 812.17 933.56 2.6084 2.5556 3.1655 666.27 -0.00054374 55.429 0.092184 385.00 0.0025974 812.17 933.56 2.6084 2.5556 3.1655 666.27 -0.00054374 55.429 0.092184
254.38 6814.5 undefined 814.72 936.76 2.6133 385.00 0.0025974 814.72 936.76 2.6133 2.5591 3.1672 667.45 -0.00056974 55.451 0.092335 385.00 0.0025974 814.72 936.76 2.6133 2.5591 3.1672 667.45 -0.00056974 55.451 0.092335
255.38 6850.5 undefined 817.28 939.97 2.6181 385.00 0.0025974 817.28 939.97 2.6181 2.5627 3.1690 668.63 -0.00059548 55.474 0.092486 385.00 0.0025974 817.28 939.97 2.6181 2.5627 3.1690 668.63 -0.00059548 55.474 0.092486
256.38 6886.4 undefined 819.85 943.17 2.6229 385.00 0.0025974 819.85 943.17 2.6229 2.5663 3.1708 669.81 -0.00062095 55.497 0.092638 385.00 0.0025974 819.85 943.17 2.6229 2.5663 3.1708 669.81 -0.00062095 55.497 0.092638
257.38 6922.4 undefined 822.42 946.39 2.6278 385.00 0.0025974 822.42 946.39 2.6278 2.5698 3.1726 670.98 -0.00064617 55.520 0.092790 385.00 0.0025974 822.42 946.39 2.6278 2.5698 3.1726 670.98 -0.00064617 55.520 0.092790
258.38 6958.3 undefined 824.99 949.60 2.6326 385.00 0.0025974 824.99 949.60 2.6326 2.5734 3.1744 672.16 -0.00067114 55.542 0.092943 385.00 0.0025974 824.99 949.60 2.6326 2.5734 3.1744 672.16 -0.00067114 55.542 0.092943
259.38 6994.3 undefined 827.56 952.82 2.6375 385.00 0.0025974 827.56 952.82 2.6375 2.5770 3.1762 673.32 -0.00069585 55.565 0.093095 385.00 0.0025974 827.56 952.82 2.6375 2.5770 3.1762 673.32 -0.00069585 55.565 0.093095
260.38 7030.2 undefined 830.14 956.04 2.6423 385.00 0.0025974 830.14 956.04 2.6423 2.5805 3.1780 674.49 -0.00072031 55.588 0.093248 385.00 0.0025974 830.14 956.04 2.6423 2.5805 3.1780 674.49 -0.00072031 55.588 0.093248
261.38 7066.1 undefined 832.72 959.27 2.6472 385.00 0.0025974 832.72 959.27 2.6472 2.5841 3.1799 675.65 -0.00074453 55.611 0.093402 385.00 0.0025974 832.72 959.27 2.6472 2.5841 3.1799 675.65 -0.00074453 55.611 0.093402
262.38 7102.0 undefined 835.31 962.50 2.6520 385.00 0.0025974 835.31 962.50 2.6520 2.5876 3.1817 676.81 -0.00076851 55.633 0.093555 385.00 0.0025974 835.31 962.50 2.6520 2.5876 3.1817 676.81 -0.00076851 55.633 0.093555
263.38 7137.9 undefined 837.90 965.73 2.6568 385.00 0.0025974 837.90 965.73 2.6568 2.5911 3.1836 677.97 -0.00079224 55.656 0.093709 385.00 0.0025974 837.90 965.73 2.6568 2.5911 3.1836 677.97 -0.00079224 55.656 0.093709
264.38 7173.8 undefined 840.49 968.96 2.6616 385.00 0.0025974 840.49 968.96 2.6616 2.5947 3.1854 679.12 -0.00081574 55.679 0.093863 385.00 0.0025974 840.49 968.96 2.6616 2.5947 3.1854 679.12 -0.00081574 55.679 0.093863
265.38 7209.6 undefined 843.09 972.20 2.6665 385.00 0.0025974 843.09 972.20 2.6665 2.5982 3.1873 680.28 -0.00083901 55.701 0.094018 385.00 0.0025974 843.09 972.20 2.6665 2.5982 3.1873 680.28 -0.00083901 55.701 0.094018
266.38 7245.5 undefined 845.69 975.44 2.6713 385.00 0.0025974 845.69 975.44 2.6713 2.6017 3.1892 681.42 -0.00086205 55.724 0.094173 385.00 0.0025974 845.69 975.44 2.6713 2.6017 3.1892 681.42 -0.00086205 55.724 0.094173
267.38 7281.4 undefined 848.29 978.69 2.6761 385.00 0.0025974 848.29 978.69 2.6761 2.6053 3.1911 682.57 -0.00088485 55.746 0.094328 385.00 0.0025974 848.29 978.69 2.6761 2.6053 3.1911 682.57 -0.00088485 55.746 0.094328
268.38 7317.2 undefined 850.90 981.94 2.6809 385.00 0.0025974 850.90 981.94 2.6809 2.6088 3.1930 683.71 -0.00090744 55.769 0.094483 385.00 0.0025974 850.90 981.94 2.6809 2.6088 3.1930 683.71 -0.00090744 55.769 0.094483
269.38 7353.1 undefined 853.51 985.19 2.6857 385.00 0.0025974 853.51 985.19 2.6857 2.6123 3.1949 684.85 -0.00092980 55.791 0.094639 385.00 0.0025974 853.51 985.19 2.6857 2.6123 3.1949 684.85 -0.00092980 55.791 0.094639
270.38 7388.9 undefined 856.12 988.45 2.6906 385.00 0.0025974 856.12 988.45 2.6906 2.6158 3.1968 685.99 -0.00095194 55.814 0.094795 385.00 0.0025974 856.12 988.45 2.6906 2.6158 3.1968 685.99 -0.00095194 55.814 0.094795
271.38 7424.7 undefined 858.74 991.71 2.6954 385.00 0.0025974 858.74 991.71 2.6954 2.6193 3.1987 687.13 -0.00097386 55.837 0.094951 385.00 0.0025974 858.74 991.71 2.6954 2.6193 3.1987 687.13 -0.00097386 55.837 0.094951
272.38 7460.5 undefined 861.36 994.97 2.7002 385.00 0.0025974 861.36 994.97 2.7002 2.6228 3.2007 688.26 -0.00099557 55.859 0.095107 385.00 0.0025974 861.36 994.97 2.7002 2.6228 3.2007 688.26 -0.00099557 55.859 0.095107
273.38 7496.3 undefined 863.99 998.23 2.7050 385.00 0.0025974 863.99 998.23 2.7050 2.6263 3.2026 689.39 -0.0010171 55.882 0.095264 385.00 0.0025974 863.99 998.23 2.7050 2.6263 3.2026 689.39 -0.0010171 55.882 0.095264
274.38 7532.1 undefined 866.61 1001.5 2.7098 385.00 0.0025974 866.61 1001.5 2.7098 2.6298 3.2046 690.51 -0.0010384 55.904 0.095421 385.00 0.0025974 866.61 1001.5 2.7098 2.6298 3.2046 690.51 -0.0010384 55.904 0.095421
275.38 7567.9 undefined 869.25 1004.8 2.7146 385.00 0.0025974 869.25 1004.8 2.7146 2.6333 3.2065 691.64 -0.0010594 55.927 0.095579 385.00 0.0025974 869.25 1004.8 2.7146 2.6333 3.2065 691.64 -0.0010594 55.927 0.095579
276.38 7603.7 undefined 871.88 1008.1 2.7194 385.00 0.0025974 871.88 1008.1 2.7194 2.6368 3.2085 692.76 -0.0010803 55.949 0.095736 385.00 0.0025974 871.88 1008.1 2.7194 2.6368 3.2085 692.76 -0.0010803 55.949 0.095736
277.38 7639.4 undefined 874.52 1011.3 2.7242 385.00 0.0025974 874.52 1011.3 2.7242 2.6403 3.2105 693.88 -0.0011010 55.971 0.095894 385.00 0.0025974 874.52 1011.3 2.7242 2.6403 3.2105 693.88 -0.0011010 55.971 0.095894
278.38 7675.2 undefined 877.16 1014.6 2.7290 385.00 0.0025974 877.16 1014.6 2.7290 2.6438 3.2124 695.00 -0.0011215 55.994 0.096053 385.00 0.0025974 877.16 1014.6 2.7290 2.6438 3.2124 695.00 -0.0011215 55.994 0.096053
279.38 7710.9 undefined 879.81 1017.9 2.7338 385.00 0.0025974 879.81 1017.9 2.7338 2.6473 3.2144 696.11 -0.0011417 56.016 0.096211 385.00 0.0025974 879.81 1017.9 2.7338 2.6473 3.2144 696.11 -0.0011417 56.016 0.096211
280.38 7746.7 undefined 882.46 1021.2 2.7386 385.00 0.0025974 882.46 1021.2 2.7386 2.6507 3.2164 697.22 -0.0011618 56.039 0.096370 385.00 0.0025974 882.46 1021.2 2.7386 2.6507 3.2164 697.22 -0.0011618 56.039 0.096370
281.38 7782.4 undefined 885.11 1024.5 2.7434 385.00 0.0025974 885.11 1024.5 2.7434 2.6542 3.2184 698.33 -0.0011817 56.061 0.096529 385.00 0.0025974 885.11 1024.5 2.7434 2.6542 3.2184 698.33 -0.0011817 56.061 0.096529
282.38 7818.1 undefined 887.77 1027.8 2.7481 385.00 0.0025974 887.77 1027.8 2.7481 2.6577 3.2204 699.44 -0.0012014 56.083 0.096221 385.00 0.0025974 887.77 1027.8 2.7481 2.6577 3.2204 699.44 -0.0012014 56.083 0.096221
283.38 7853.8 undefined 890.42 1031.1 2.7529 385.00 0.0025974 890.42 1031.1 2.7529 2.6611 3.2225 700.54 -0.0012209 56.106 0.096380 385.00 0.0025974 890.42 1031.1 2.7529 2.6611 3.2225 700.54 -0.0012209 56.106 0.096380
284.38 7889.5 undefined 893.09 1034.4 2.7577 385.00 0.0025974 893.09 1034.4 2.7577 2.6646 3.2245 701.64 -0.0012402 56.128 0.096539 385.00 0.0025974 893.09 1034.4 2.7577 2.6646 3.2245 701.64 -0.0012402 56.128 0.096539
285.38 7925.2 undefined 895.75 1037.7 2.7625 385.00 0.0025974 895.75 1037.7 2.7625 2.6681 3.2265 702.74 -0.0012594 56.150 0.096699 385.00 0.0025974 895.75 1037.7 2.7625 2.6681 3.2265 702.74 -0.0012594 56.150 0.096699
286.38 7960.9 undefined 898.42 1041.0 2.7673 385.00 0.0025974 898.42 1041.0 2.7673 2.6715 3.2285 703.84 -0.0012783 56.173 0.096858 385.00 0.0025974 898.42 1041.0 2.7673 2.6715 3.2285 703.84 -0.0012783 56.173 0.096858
287.38 7996.5 undefined 901.10 1044.3 2.7720 385.00 0.0025974 901.10 1044.3 2.7720 2.6750 3.2306 704.93 -0.0012971 56.195 0.097018 385.00 0.0025974 901.10 1044.3 2.7720 2.6750 3.2306 704.93 -0.0012971 56.195 0.097018
288.38 8032.2 undefined 903.77 1047.6 2.7768 385.00 0.0025974 903.77 1047.6 2.7768 2.6784 3.2326 706.03 -0.0013157 56.217 0.097179 385.00 0.0025974 903.77 1047.6 2.7768 2.6784 3.2326 706.03 -0.0013157 56.217 0.097179
289.38 8067.8 undefined 906.45 1050.9 2.7816 385.00 0.0025974 906.45 1050.9 2.7816 2.6818 3.2347 707.11 -0.0013341 56.239 0.097339 385.00 0.0025974 906.45 1050.9 2.7816 2.6818 3.2347 707.11 -0.0013341 56.239 0.097339
290.38 8103.5 undefined 909.14 1054.3 2.7863 385.00 0.0025974 909.14 1054.3 2.7863 2.6853 3.2367 708.20 -0.0013524 56.262 0.097500 385.00 0.0025974 909.14 1054.3 2.7863 2.6853 3.2367 708.20 -0.0013524 56.262 0.097500
291.38 8139.1 undefined 911.82 1057.6 2.7911 385.00 0.0025974 911.82 1057.6 2.7911 2.6887 3.2388 709.29 -0.0013705 56.284 0.097661 385.00 0.0025974 911.82 1057.6 2.7911 2.6887 3.2388 709.29 -0.0013705 56.284 0.097661
292.38 8174.7 undefined 914.51 1060.9 2.7959 385.00 0.0025974 914.51 1060.9 2.7959 2.6921 3.2409 710.37 -0.0013884 56.306 0.097822 385.00 0.0025974 914.51 1060.9 2.7959 2.6921 3.2409 710.37 -0.0013884 56.306 0.097822
293.38 8210.3 undefined 917.21 1064.2 2.8006 385.00 0.0025974 917.21 1064.2 2.8006 2.6956 3.2429 711.45 -0.0014061 56.328 0.097984 385.00 0.0025974 917.21 1064.2 2.8006 2.6956 3.2429 711.45 -0.0014061 56.328 0.097984
294.38 8245.9 undefined 919.91 1067.6 2.8054 385.00 0.0025974 919.91 1067.6 2.8054 2.6990 3.2450 712.53 -0.0014237 56.350 0.098146 385.00 0.0025974 919.91 1067.6 2.8054 2.6990 3.2450 712.53 -0.0014237 56.350 0.098146
295.38 8281.5 undefined 922.61 1070.9 2.8101 385.00 0.0025974 922.61 1070.9 2.8101 2.7024 3.2471 713.60 -0.0014411 56.372 0.098308 385.00 0.0025974 922.61 1070.9 2.8101 2.7024 3.2471 713.60 -0.0014411 56.372 0.098308
296.38 8317.1 undefined 925.31 1074.3 2.8149 385.00 0.0025974 925.31 1074.3 2.8149 2.7058 3.2492 714.67 -0.0014583 56.395 0.098471 385.00 0.0025974 925.31 1074.3 2.8149 2.7058 3.2492 714.67 -0.0014583 56.395 0.098471
297.38 8352.7 undefined 928.02 1077.6 2.8196 385.00 0.0025974 928.02 1077.6 2.8196 2.7092 3.2513 715.75 -0.0014754 56.417 0.098634 385.00 0.0025974 928.02 1077.6 2.8196 2.7092 3.2513 715.75 -0.0014754 56.417 0.098634
298.38 8388.2 undefined 930.73 1080.9 2.8244 385.00 0.0025974 930.73 1080.9 2.8244 2.7126 3.2534 716.81 -0.0014923 56.439 0.098797 385.00 0.0025974 930.73 1080.9 2.8244 2.7126 3.2534 716.81 -0.0014923 56.439 0.098797
299.38 8423.8 undefined 933.44 1084.3 2.8291 385.00 0.0025974 933.44 1084.3 2.8291 2.7160 3.2555 717.88 -0.0015091 56.461 0.098961 385.00 0.0025974 933.44 1084.3 2.8291 2.7160 3.2555 717.88 -0.0015091 56.461 0.098961
300.38 8459.3 undefined 936.16 1087.7 2.8339 385.00 0.0025974 936.16 1087.7 2.8339 2.7194 3.2576 718.94 -0.0015257 56.483 0.099124 385.00 0.0025974 936.16 1087.7 2.8339 2.7194 3.2576 718.94 -0.0015257 56.483 0.099124