Temperature (C) Pressure (psia) Quality (l+v) Internal Energy (l+v, kJ/kg) Enthalpy (l+v, kJ/kg) Entropy (l+v, J/g*K) Density (l, kg/m3) Volume (l, m3/kg) Internal Energy (l, kJ/kg) Enthalpy (l, kJ/kg) Entropy (l, J/g*K) Cv (l, J/g*K) Cp (l, J/g*K) Sound Spd. (l, m/s) Joule-Thomson (l, F/psia) Viscosity (l, uPa*s) Therm. Cond. (l, W/m*K) Density (v, kg/m3) Volume (v, m3/kg) Internal Energy (v, kJ/kg) Enthalpy (v, kJ/kg) Entropy (v, J/g*K) Cv (v, J/g*K) Cp (v, J/g*K) Sound Spd. (v, m/s) Joule-Thomson (v, F/psia) Viscosity (v, uPa*s) Therm. Cond. (v, W/m*K)
-187.62 2.4953e-08 2.6526e-09 -196.64 -196.64 -1.3959 733.13 0.0013640 -196.64 -196.64 -1.3959 1.3553 1.9158 2136.4 -0.0077592 10960. 0.20792 1.0669e-08 9.3732e+07 350.13 366.26 5.1858 0.69067 0.87923 143.28 6.1051 2.3259 0.0017061
-186.62 3.7339e-08 3.9234e-09 -194.73 -194.73 -1.3736 732.08 0.0013660 -194.73 -194.73 -1.3736 1.3539 1.9166 2129.6 -0.0077546 10073. 0.20765 1.5780e-08 6.3371e+07 350.82 367.14 5.1200 0.69462 0.88317 144.03 5.9178 2.3534 0.0017533
-185.62 5.5322e-08 5.7465e-09 -192.81 -192.81 -1.3516 731.04 0.0013679 -192.81 -192.81 -1.3516 1.3525 1.9174 2122.9 -0.0077498 9276.1 0.20737 2.3112e-08 4.3267e+07 351.52 368.02 5.0561 0.69857 0.88713 144.77 5.7383 2.3808 0.0018007
-184.62 8.1182e-08 8.3374e-09 -190.89 -190.89 -1.3298 730.00 0.0013699 -190.89 -190.89 -1.3298 1.3513 1.9182 2116.1 -0.0077448 8557.8 0.20708 3.3533e-08 2.9821e+07 352.22 368.91 4.9939 0.70253 0.89108 145.51 5.5662 2.4083 0.0018485
-183.62 1.1803e-07 1.1987e-08 -188.97 -188.97 -1.3083 728.96 0.0013718 -188.97 -188.97 -1.3083 1.3501 1.9191 2109.3 -0.0077395 7909.8 0.20678 4.8211e-08 2.0742e+07 352.92 369.81 4.9333 0.70648 0.89504 146.24 5.4011 2.4357 0.0018965
-182.62 1.7009e-07 1.7082e-08 -187.05 -187.05 -1.2869 727.92 0.0013738 -187.05 -187.05 -1.2869 1.3490 1.9201 2102.5 -0.0077340 7324.3 0.20647 6.8704e-08 1.4555e+07 353.63 370.70 4.8744 0.71043 0.89899 146.97 5.2426 2.4632 0.0019448
-181.62 2.4299e-07 2.4136e-08 -185.13 -185.13 -1.2658 726.88 0.0013757 -185.13 -185.13 -1.2658 1.3480 1.9210 2095.7 -0.0077283 6794.5 0.20616 9.7079e-08 1.0301e+07 354.35 371.60 4.8170 0.71438 0.90294 147.69 5.0904 2.4906 0.0019934
-180.62 3.4425e-07 3.3824e-08 -183.21 -183.21 -1.2450 725.85 0.0013777 -183.21 -183.21 -1.2450 1.3470 1.9220 2088.9 -0.0077225 6314.4 0.20584 1.3605e-07 7.3504e+06 355.06 372.51 4.7612 0.71833 0.90688 148.41 4.9442 2.5181 0.0020423
-179.62 4.8378e-07 4.7026e-08 -181.29 -181.29 -1.2243 724.81 0.0013797 -181.29 -181.29 -1.2243 1.3461 1.9231 2082.0 -0.0077164 5878.8 0.20551 1.8915e-07 5.2868e+06 355.78 373.42 4.7068 0.72227 0.91082 149.13 4.8038 2.5456 0.0020915
-178.62 6.7459e-07 6.4880e-08 -179.37 -179.37 -1.2038 723.78 0.0013816 -179.37 -179.37 -1.2038 1.3453 1.9241 2075.2 -0.0077102 5482.9 0.20517 2.6096e-07 3.8320e+06 356.51 374.33 4.6538 0.72620 0.91475 149.84 4.6688 2.5731 0.0021410
-177.62 9.3358e-07 8.8848e-08 -177.44 -177.44 -1.1836 722.75 0.0013836 -177.44 -177.44 -1.1836 1.3445 1.9252 2068.4 -0.0077039 5122.6 0.20483 3.5737e-07 2.7982e+06 357.23 375.25 4.6022 0.73012 0.91867 150.54 4.5390 2.6005 0.0021907
-176.62 1.2826e-06 1.2080e-07 -175.52 -175.52 -1.1635 721.72 0.0013856 -175.52 -175.52 -1.1635 1.3437 1.9263 2061.5 -0.0076973 4794.1 0.20447 4.8588e-07 2.0581e+06 357.97 376.17 4.5519 0.73403 0.92258 151.25 4.4142 2.6280 0.0022408
-175.62 1.7496e-06 1.6309e-07 -173.59 -173.59 -1.1437 720.69 0.0013876 -173.59 -173.59 -1.1437 1.3430 1.9274 2054.7 -0.0076907 4494.3 0.20411 6.5601e-07 1.5244e+06 358.70 377.09 4.5029 0.73792 0.92648 151.95 4.2941 2.6555 0.0022912
-174.62 2.3705e-06 2.1872e-07 -171.66 -171.66 -1.1240 719.66 0.0013895 -171.66 -171.66 -1.1240 1.3423 1.9286 2047.9 -0.0076838 4220.2 0.20375 8.7976e-07 1.1367e+06 359.44 378.02 4.4551 0.74181 0.93036 152.64 4.1784 2.6830 0.0023418
-173.62 3.1903e-06 2.9140e-07 -169.73 -169.73 -1.1045 718.64 0.0013915 -169.73 -169.73 -1.1045 1.3417 1.9298 2041.0 -0.0076769 3969.3 0.20338 1.1721e-06 8.5314e+05 360.19 378.95 4.4085 0.74568 0.93423 153.33 4.0671 2.7105 0.0023928
-172.62 4.2661e-06 3.8579e-07 -167.80 -167.80 -1.0852 717.61 0.0013935 -167.80 -167.80 -1.0852 1.3411 1.9310 2034.2 -0.0076698 3739.3 0.20300 1.5518e-06 6.4441e+05 360.93 379.89 4.3631 0.74953 0.93809 154.02 3.9599 2.7379 0.0024440
-171.62 5.6692e-06 5.0762e-07 -165.87 -165.87 -1.0661 716.58 0.0013955 -165.87 -165.87 -1.0661 1.3405 1.9322 2027.3 -0.0076625 3528.0 0.20261 2.0419e-06 4.8974e+05 361.69 380.83 4.3188 0.75337 0.94193 154.71 3.8566 2.7654 0.0024955
-170.62 7.4884e-06 6.6397e-07 -163.94 -163.94 -1.0472 715.56 0.0013975 -163.94 -163.94 -1.0472 1.3400 1.9334 2020.5 -0.0076552 3333.8 0.20222 2.6708e-06 3.7442e+05 362.44 381.77 4.2755 0.75720 0.94575 155.39 3.7570 2.7929 0.0025473
-169.62 9.8334e-06 8.6346e-07 -162.00 -162.00 -1.0284 714.54 0.0013995 -162.00 -162.00 -1.0284 1.3395 1.9347 2013.6 -0.0076477 3154.9 0.20182 3.4733e-06 2.8791e+05 363.20 382.72 4.2334 0.76100 0.94956 156.07 3.6609 2.8204 0.0025994
-168.62 1.2839e-05 1.1166e-06 -160.07 -160.07 -1.0098 713.52 0.0014015 -160.07 -160.07 -1.0098 1.3390 1.9359 2006.8 -0.0076401 2989.9 0.20141 4.4917e-06 2.2263e+05 363.96 383.67 4.1922 0.76479 0.95335 156.74 3.5683 2.8479 0.0026518
-167.62 1.6672e-05 1.4362e-06 -158.13 -158.13 -0.99133 712.49 0.0014035 -158.13 -158.13 -0.99134 1.3386 1.9372 2000.0 -0.0076323 2837.5 0.20100 5.7771e-06 1.7310e+05 364.73 384.63 4.1521 0.76856 0.95712 157.41 3.4790 2.8754 0.0027045
-166.62 2.1533e-05 1.8375e-06 -156.19 -156.19 -0.97305 711.47 0.0014055 -156.19 -156.19 -0.97306 1.3382 1.9385 1993.1 -0.0076245 2696.5 0.20058 7.3914e-06 1.3529e+05 365.50 385.59 4.1129 0.77232 0.96087 158.08 3.3927 2.9029 0.0027575
-165.62 2.7666e-05 2.3389e-06 -154.25 -154.25 -0.95493 710.45 0.0014075 -154.25 -154.25 -0.95494 1.3378 1.9398 1986.3 -0.0076165 2566.0 0.20016 9.4084e-06 1.0629e+05 366.27 386.55 4.0746 0.77605 0.96460 158.75 3.3095 2.9304 0.0028108
-164.62 3.5367e-05 2.9623e-06 -152.31 -152.31 -0.93697 709.44 0.0014096 -152.31 -152.31 -0.93698 1.3375 1.9411 1979.4 -0.0076084 2444.9 0.19973 1.1916e-05 83918. 367.05 387.52 4.0372 0.77976 0.96832 159.41 3.2291 2.9579 0.0028643
-163.62 4.4989e-05 3.7338e-06 -150.37 -150.37 -0.91915 708.42 0.0014116 -150.37 -150.37 -0.91917 1.3371 1.9424 1972.6 -0.0076002 2332.3 0.19930 1.5020e-05 66577. 367.83 388.49 4.0008 0.78346 0.97201 160.07 3.1514 2.9854 0.0029182
-162.62 5.6956e-05 4.6843e-06 -148.43 -148.43 -0.90149 707.40 0.0014136 -148.43 -148.43 -0.90151 1.3368 1.9437 1965.8 -0.0075919 2227.7 0.19886 1.8844e-05 53068. 368.62 389.46 3.9651 0.78713 0.97569 160.72 3.0764 3.0129 0.0029723
-161.62 7.1773e-05 5.8498e-06 -146.48 -146.48 -0.88397 706.38 0.0014157 -146.48 -146.48 -0.88400 1.3365 1.9451 1959.0 -0.0075834 2130.2 0.19841 2.3533e-05 42494. 369.41 390.44 3.9304 0.79079 0.97935 161.38 3.0038 3.0404 0.0030268
-160.62 9.0036e-05 7.2731e-06 -144.53 -144.53 -0.86659 705.37 0.0014177 -144.54 -144.54 -0.86663 1.3363 1.9465 1952.1 -0.0075748 2039.2 0.19796 2.9258e-05 34178. 370.20 391.42 3.8964 0.79443 0.98298 162.03 2.9337 3.0679 0.0030815
-159.62 0.00011245 9.0038e-06 -142.59 -142.59 -0.84936 704.35 0.0014197 -142.59 -142.59 -0.84940 1.3360 1.9478 1945.3 -0.0075661 1954.2 0.19751 3.6221e-05 27609. 371.00 392.40 3.8632 0.79805 0.98660 162.68 2.8658 3.0955 0.0031365
-158.62 0.00013985 1.1100e-05 -140.64 -140.64 -0.83226 703.34 0.0014218 -140.64 -140.64 -0.83231 1.3358 1.9492 1938.5 -0.0075573 1874.8 0.19705 4.4652e-05 22395. 371.80 393.39 3.8307 0.80164 0.99020 163.32 2.8002 3.1230 0.0031918
-157.62 0.00017320 1.3627e-05 -138.69 -138.69 -0.81530 702.32 0.0014238 -138.69 -138.69 -0.81536 1.3356 1.9506 1931.7 -0.0075484 1800.3 0.19658 5.4822e-05 18241. 372.60 394.38 3.7990 0.80522 0.99378 163.96 2.7367 3.1505 0.0032474
-156.62 0.00021364 1.6665e-05 -136.73 -136.73 -0.79847 701.31 0.0014259 -136.74 -136.74 -0.79854 1.3354 1.9520 1924.9 -0.0075393 1730.5 0.19611 6.7040e-05 14916. 373.41 395.38 3.7680 0.80878 0.99734 164.60 2.6752 3.1780 0.0033033
-155.62 0.00026248 2.0300e-05 -134.78 -134.78 -0.78176 700.30 0.0014280 -134.79 -134.79 -0.78185 1.3352 1.9534 1918.1 -0.0075302 1664.9 0.19564 8.1666e-05 12245. 374.22 396.38 3.7377 0.81232 1.0009 165.24 2.6157 3.2055 0.0033595
-154.62 0.00032125 2.4636e-05 -132.82 -132.82 -0.76519 699.29 0.0014300 -132.83 -132.83 -0.76530 1.3350 1.9548 1911.3 -0.0075209 1603.3 0.19516 9.9109e-05 10090. 375.03 397.38 3.7081 0.81585 1.0044 165.87 2.5580 3.2330 0.0034160
-153.62 0.00039171 2.9788e-05 -130.86 -130.86 -0.74874 698.27 0.0014321 -130.88 -130.88 -0.74887 1.3349 1.9563 1904.5 -0.0075114 1545.3 0.19468 0.00011984 8344.6 375.85 398.39 3.6792 0.81935 1.0079 166.50 2.5022 3.2606 0.0034727
-152.62 0.00047590 3.5889e-05 -128.90 -128.90 -0.73241 697.26 0.0014342 -128.92 -128.92 -0.73256 1.3348 1.9577 1897.8 -0.0075019 1490.6 0.19419 0.00014439 6925.9 376.67 399.40 3.6509 0.82284 1.0114 167.13 2.4481 3.2881 0.0035298
-151.62 0.00057613 4.3090e-05 -126.94 -126.94 -0.71619 696.25 0.0014363 -126.96 -126.96 -0.71638 1.3346 1.9592 1891.0 -0.0074922 1438.9 0.19370 0.00017336 5768.4 377.49 400.41 3.6232 0.82631 1.0149 167.76 2.3957 3.3156 0.0035872
-150.62 0.00069507 5.1561e-05 -124.98 -124.98 -0.70010 695.24 0.0014384 -125.00 -125.00 -0.70032 1.3345 1.9606 1884.2 -0.0074824 1390.2 0.19320 0.00020744 4820.7 378.32 401.42 3.5962 0.82976 1.0183 168.38 2.3448 3.3431 0.0036448
-149.62 0.00083574 6.1494e-05 -123.01 -123.01 -0.68411 694.23 0.0014404 -123.04 -123.04 -0.68438 1.3345 1.9621 1877.4 -0.0074724 1344.0 0.19270 0.00024740 4042.0 379.15 402.44 3.5697 0.83319 1.0218 169.00 2.2956 3.3706 0.0037027
-148.62 0.0010016 7.3105e-05 -121.04 -121.04 -0.66824 693.22 0.0014425 -121.08 -121.08 -0.66855 1.3344 1.9636 1870.7 -0.0074623 1300.3 0.19220 0.00029412 3400.0 379.99 403.47 3.5438 0.83661 1.0252 169.62 2.2478 3.3982 0.0037610
-147.62 0.0011965 8.6636e-05 -119.07 -119.07 -0.65248 692.21 0.0014447 -119.11 -119.11 -0.65284 1.3343 1.9651 1863.9 -0.0074521 1258.9 0.19169 0.00034856 2869.0 380.83 404.49 3.5185 0.84001 1.0286 170.24 2.2014 3.4257 0.0038195
-146.62 0.0014249 0.00010236 -117.10 -117.10 -0.63682 691.20 0.0014468 -117.15 -117.15 -0.63724 1.3343 1.9666 1857.2 -0.0074417 1219.6 0.19117 0.00041181 2428.3 381.67 405.52 3.4938 0.84340 1.0320 170.85 2.1565 3.4532 0.0038783
-145.62 0.0016917 0.00012057 -115.12 -115.12 -0.62126 690.19 0.0014489 -115.18 -115.18 -0.62175 1.3343 1.9682 1850.4 -0.0074312 1182.3 0.19066 0.00048510 2061.4 382.51 406.56 3.4695 0.84677 1.0353 171.46 2.1128 3.4807 0.0039374
-144.62 0.0020026 0.00014161 -113.14 -113.14 -0.60580 689.18 0.0014510 -113.21 -113.21 -0.60637 1.3343 1.9697 1843.7 -0.0074206 1146.8 0.19014 0.00056976 1755.1 383.36 407.59 3.4458 0.85012 1.0387 172.07 2.0705 3.5082 0.0039967
-143.62 0.0023637 0.00016586 -111.16 -111.16 -0.59043 688.17 0.0014531 -111.24 -111.24 -0.59110 1.3343 1.9713 1836.9 -0.0074098 1113.0 0.18962 0.00066731 1498.6 384.21 408.63 3.4226 0.85346 1.0420 172.68 2.0294 3.5358 0.0040564
-142.62 0.0027820 0.00019371 -109.17 -109.17 -0.57516 687.16 0.0014553 -109.27 -109.27 -0.57593 1.3343 1.9728 1830.2 -0.0073988 1080.8 0.18909 0.00077939 1283.1 385.07 409.68 3.3999 0.85679 1.0454 173.28 1.9896 3.5633 0.0041164
-141.62 0.0032653 0.00022564 -107.19 -107.18 -0.55998 686.15 0.0014574 -107.30 -107.30 -0.56087 1.3343 1.9744 1823.5 -0.0073878 1050.1 0.18856 0.00090784 1101.5 385.93 410.72 3.3777 0.86011 1.0487 173.88 1.9508 3.5908 0.0041766
-140.62 0.0038222 0.00026213 -105.19 -105.19 -0.54489 685.14 0.0014596 -105.32 -105.32 -0.54591 1.3344 1.9760 1816.7 -0.0073765 1020.7 0.18803 0.0010547 948.16 386.79 411.77 3.3560 0.86341 1.0520 174.48 1.9133 3.6183 0.0042372
-139.62 0.0044623 0.00030374 -103.20 -103.19 -0.52987 684.13 0.0014617 -103.34 -103.34 -0.53105 1.3344 1.9776 1810.0 -0.0073651 992.74 0.18749 0.0012221 818.26 387.65 412.83 3.3347 0.86670 1.0553 175.08 1.8768 3.6459 0.0042980
-138.62 0.0051963 0.00035107 -101.19 -101.19 -0.51494 683.12 0.0014639 -101.37 -101.37 -0.51629 1.3345 1.9792 1803.3 -0.0073536 965.97 0.18695 0.0014125 707.94 388.52 413.88 3.3139 0.86998 1.0586 175.67 1.8413 3.6734 0.0043592
-137.62 0.0060358 0.00040478 -99.188 -99.178 -0.50009 682.11 0.0014660 -99.386 -99.386 -0.50162 1.3346 1.9808 1796.6 -0.0073419 940.35 0.18641 0.0016287 614.00 389.39 414.94 3.2935 0.87325 1.0619 176.26 1.8069 3.7009 0.0044206
-136.62 0.0069938 0.00046559 -97.177 -97.165 -0.48530 681.10 0.0014682 -97.404 -97.404 -0.48705 1.3347 1.9825 1789.9 -0.0073301 915.81 0.18586 0.0018733 533.80 390.26 416.00 3.2735 0.87650 1.0651 176.85 1.7734 3.7284 0.0044823
-135.62 0.0080843 0.00053428 -95.161 -95.147 -0.47059 680.09 0.0014704 -95.421 -95.421 -0.47258 1.3348 1.9841 1783.2 -0.0073180 892.30 0.18531 0.0021497 465.17 391.14 417.07 3.2540 0.87975 1.0684 177.44 1.7409 3.7559 0.0045443
-134.62 0.0093230 0.00061169 -93.139 -93.123 -0.45594 679.08 0.0014726 -93.436 -93.436 -0.45820 1.3350 1.9858 1776.5 -0.0073059 869.75 0.18476 0.0024613 406.30 392.02 418.14 3.2348 0.88299 1.0716 178.02 1.7093 3.7834 0.0046066
-133.62 0.010727 0.00069876 -91.111 -91.093 -0.44135 678.07 0.0014748 -91.450 -91.449 -0.44391 1.3351 1.9875 1769.8 -0.0072935 848.11 0.18421 0.0028116 355.67 392.91 419.21 3.2161 0.88622 1.0749 178.61 1.6786 3.8109 0.0046691
-132.62 0.012315 0.00079648 -89.076 -89.055 -0.42682 677.06 0.0014770 -89.461 -89.461 -0.42971 1.3353 1.9892 1763.1 -0.0072810 827.32 0.18365 0.0032049 312.03 393.79 420.29 3.1977 0.88944 1.0781 179.19 1.6488 3.8385 0.0047320
-131.62 0.014106 0.00090593 -87.034 -87.010 -0.41234 676.04 0.0014792 -87.471 -87.471 -0.41560 1.3354 1.9909 1756.4 -0.0072684 807.34 0.18309 0.0036453 274.33 394.68 421.36 3.1798 0.89266 1.0813 179.76 1.6197 3.8660 0.0047951
-130.62 0.016124 0.0010283 -84.985 -84.957 -0.39791 675.03 0.0014814 -85.479 -85.479 -0.40157 1.3356 1.9926 1749.7 -0.0072555 788.12 0.18253 0.0041375 241.69 395.58 422.44 3.1622 0.89586 1.0846 180.34 1.5915 3.8935 0.0048586
-129.62 0.018392 0.0011647 -82.927 -82.895 -0.38352 674.02 0.0014836 -83.486 -83.486 -0.38763 1.3358 1.9944 1743.0 -0.0072425 769.63 0.18196 0.0046867 213.37 396.47 423.53 3.1450 0.89906 1.0878 180.91 1.5641 3.9210 0.0049223
-128.62 0.020935 0.0013167 -80.860 -80.824 -0.36917 673.01 0.0014859 -81.491 -81.490 -0.37378 1.3360 1.9961 1736.3 -0.0072294 751.83 0.18140 0.0052981 188.75 397.37 424.62 3.1281 0.90226 1.0910 181.48 1.5374 3.9485 0.0049863
-127.62 0.023783 0.0014855 -78.784 -78.743 -0.35485 672.00 0.0014881 -79.494 -79.493 -0.36001 1.3363 1.9979 1729.6 -0.0072160 734.67 0.18083 0.0059776 167.29 398.27 425.71 3.1116 0.90545 1.0942 182.05 1.5114 3.9760 0.0050506
-126.62 0.026966 0.0016728 -76.697 -76.651 -0.34057 670.98 0.0014904 -77.495 -77.495 -0.34632 1.3365 1.9997 1722.9 -0.0072025 718.14 0.18025 0.0067313 148.56 399.18 426.80 3.0954 0.90863 1.0974 182.62 1.4861 4.0035 0.0051152
-125.62 0.030515 0.0018802 -74.600 -74.547 -0.32630 669.97 0.0014926 -75.494 -75.494 -0.33272 1.3368 2.0015 1716.2 -0.0071888 702.18 0.17968 0.0075660 132.17 400.09 427.89 3.0795 0.91181 1.1006 183.18 1.4615 4.0310 0.0051800
-124.62 0.034467 0.0021095 -72.491 -72.432 -0.31205 668.95 0.0014949 -73.492 -73.492 -0.31919 1.3371 2.0033 1709.5 -0.0071749 686.79 0.17910 0.0084885 117.81 401.00 428.99 3.0640 0.91499 1.1038 183.74 1.4375 4.0584 0.0052452
-123.62 0.038859 0.0023624 -70.369 -70.302 -0.29781 667.94 0.0014971 -71.488 -71.487 -0.30574 1.3374 2.0051 1702.8 -0.0071609 671.93 0.17852 0.0095065 105.19 401.91 430.10 3.0488 0.91816 1.1070 184.30 1.4141 4.0859 0.0053106
-122.62 0.043731 0.0026411 -68.234 -68.159 -0.28358 666.92 0.0014994 -69.482 -69.481 -0.29237 1.3377 2.0070 1696.2 -0.0071466 657.57 0.17794 0.010628 94.092 402.83 431.20 3.0339 0.92134 1.1102 184.86 1.3913 4.1134 0.0053764
-121.62 0.049128 0.0029475 -66.085 -66.000 -0.26935 665.91 0.0015017 -67.474 -67.473 -0.27907 1.3380 2.0089 1689.5 -0.0071322 643.70 0.17736 0.011861 84.309 403.75 432.31 3.0193 0.92451 1.1134 185.41 1.3691 4.1409 0.0054424
-120.62 0.055096 0.0032840 -63.920 -63.825 -0.25511 664.89 0.0015040 -65.464 -65.463 -0.26585 1.3384 2.0107 1682.8 -0.0071176 630.28 0.17678 0.013215 75.669 404.67 433.42 3.0050 0.92767 1.1166 185.96 1.3475 4.1683 0.0055087
-119.62 0.061684 0.0036529 -61.739 -61.632 -0.24086 663.87 0.0015063 -63.452 -63.452 -0.25271 1.3387 2.0126 1676.1 -0.0071028 617.30 0.17619 0.014700 68.027 405.60 434.53 2.9909 0.93084 1.1198 186.51 1.3264 4.1958 0.0055752
-118.62 0.068946 0.0040567 -59.540 -59.421 -0.22658 662.86 0.0015086 -61.439 -61.438 -0.23963 1.3391 2.0146 1669.4 -0.0070878 604.74 0.17560 0.016325 61.255 406.53 435.64 2.9772 0.93401 1.1231 187.06 1.3058 4.2233 0.0056421
-117.62 0.076937 0.0044981 -57.323 -57.190 -0.21228 661.84 0.0015109 -59.423 -59.422 -0.22663 1.3395 2.0165 1662.8 -0.0070726 592.58 0.17501 0.018101 55.245 407.46 436.76 2.9638 0.93718 1.1263 187.60 1.2857 4.2507 0.0057092
-116.62 0.085718 0.0049797 -55.086 -54.938 -0.19794 660.82 0.0015133 -57.406 -57.405 -0.21370 1.3400 2.0184 1656.1 -0.0070573 580.80 0.17442 0.020040 49.901 408.39 437.88 2.9506 0.94035 1.1295 188.14 1.2660 4.2782 0.0057767
-115.62 0.095353 0.0055046 -52.828 -52.664 -0.18357 659.80 0.0015156 -55.386 -55.385 -0.20084 1.3404 2.0204 1649.4 -0.0070417 569.38 0.17383 0.022152 45.142 409.33 439.01 2.9377 0.94352 1.1327 188.68 1.2468 4.3056 0.0058444
-114.62 0.10591 0.0060759 -50.548 -50.365 -0.16914 658.78 0.0015180 -53.365 -53.364 -0.18805 1.3409 2.0224 1642.7 -0.0070260 558.32 0.17323 0.024451 40.898 410.27 440.13 2.9250 0.94669 1.1360 189.22 1.2281 4.3330 0.0059123
-113.62 0.11746 0.0066966 -48.244 -48.042 -0.15465 657.76 0.0015203 -51.342 -51.340 -0.17533 1.3413 2.0244 1636.0 -0.0070100 547.59 0.17264 0.026949 37.107 411.21 441.26 2.9126 0.94987 1.1392 189.75 1.2097 4.3604 0.0059806
-112.62 0.13008 0.0073704 -45.915 -45.691 -0.14009 656.73 0.0015227 -49.316 -49.315 -0.16267 1.3418 2.0264 1629.3 -0.0069938 537.18 0.17204 0.029661 33.715 412.16 442.39 2.9005 0.95305 1.1424 190.28 1.1918 4.3879 0.0060491
-111.62 0.14384 0.0081006 -43.559 -43.311 -0.12546 655.71 0.0015251 -47.289 -47.287 -0.15008 1.3424 2.0285 1622.7 -0.0069774 527.08 0.17144 0.032600 30.675 413.10 443.53 2.8885 0.95623 1.1457 190.81 1.1742 4.4153 0.0061180
-110.62 0.15884 0.0088910 -41.176 -40.902 -0.11075 654.69 0.0015274 -45.259 -45.258 -0.13755 1.3429 2.0305 1616.0 -0.0069609 517.28 0.17084 0.035781 27.948 414.06 444.66 2.8769 0.95942 1.1490 191.34 1.1570 4.4427 0.0061871
-109.62 0.17516 0.0097455 -38.762 -38.460 -0.095947 653.66 0.0015298 -43.228 -43.226 -0.12509 1.3435 2.0326 1609.3 -0.0069441 507.76 0.17024 0.039220 25.497 415.01 445.80 2.8654 0.96261 1.1522 191.86 1.1402 4.4701 0.0062564
-108.62 0.19290 0.010668 -36.317 -35.985 -0.081042 652.64 0.0015322 -41.194 -41.192 -0.11269 1.3441 2.0347 1602.6 -0.0069271 498.51 0.16964 0.042933 23.292 415.96 446.94 2.8542 0.96581 1.1555 192.38 1.1236 4.4974 0.0063261
-107.62 0.21215 0.011663 -33.839 -33.473 -0.066025 651.61 0.0015347 -39.158 -39.156 -0.10036 1.3447 2.0369 1595.9 -0.0069098 489.52 0.16903 0.046937 21.305 416.92 448.09 2.8433 0.96901 1.1588 192.90 1.1075 4.5248 0.0063960
-106.62 0.23301 0.012735 -31.326 -30.924 -0.050889 650.58 0.0015371 -37.120 -37.118 -0.088082 1.3453 2.0390 1589.2 -0.0068924 480.79 0.16843 0.051250 19.512 417.88 449.23 2.8325 0.97222 1.1621 193.41 1.0916 4.5522 0.0064662
-105.62 0.25561 0.013888 -28.776 -28.336 -0.035624 649.55 0.0015395 -35.080 -35.078 -0.075868 1.3460 2.0412 1582.6 -0.0068747 472.30 0.16782 0.055891 17.892 418.85 450.38 2.8220 0.97544 1.1655 193.93 1.0760 4.5795 0.0065367
-104.62 0.28004 0.015127 -26.188 -25.705 -0.020219 648.52 0.0015420 -33.038 -33.035 -0.063714 1.3467 2.0434 1575.9 -0.0068569 464.04 0.16721 0.060878 16.426 419.81 451.53 2.8116 0.97867 1.1688 194.44 1.0608 4.6069 0.0066074
-103.62 0.30643 0.016457 -23.559 -23.031 -0.0046649 647.49 0.0015444 -30.994 -30.991 -0.051619 1.3474 2.0456 1569.2 -0.0068387 456.00 0.16660 0.066231 15.099 420.78 452.68 2.8015 0.98191 1.1722 194.94 1.0458 4.6342 0.0066785
-102.62 0.33490 0.017883 -20.887 -20.310 0.011049 646.46 0.0015469 -28.947 -28.944 -0.039582 1.3481 2.0478 1562.5 -0.0068204 448.18 0.16600 0.071971 13.894 421.75 453.84 2.7916 0.98516 1.1755 195.44 1.0310 4.6615 0.0067498
-101.62 0.36558 0.019411 -18.171 -17.540 0.026933 645.43 0.0015494 -26.898 -26.894 -0.027602 1.3489 2.0501 1555.8 -0.0068018 440.57 0.16539 0.078120 12.801 422.73 454.99 2.7818 0.98841 1.1789 195.95 1.0166 4.6888 0.0068213
-100.62 0.39862 0.021046 -15.407 -14.720 0.042998 644.39 0.0015519 -24.847 -24.843 -0.015678 1.3497 2.0524 1549.1 -0.0067830 433.16 0.16478 0.084699 11.807 423.70 456.15 2.7723 0.99168 1.1823 196.44 1.0024 4.7161 0.0068932
-99.625 0.43414 0.022793 -12.594 -11.846 0.059254 643.36 0.0015544 -22.794 -22.789 -0.0038103 1.3505 2.0547 1542.4 -0.0067639 425.95 0.16416 0.091731 10.901 424.68 457.31 2.7630 0.99496 1.1858 196.94 0.98838 4.7434 0.0069653
-98.625 0.47230 0.024659 -9.7301 -8.9160 0.075712 642.32 0.0015569 -20.738 -20.733 0.0080027 1.3514 2.0570 1535.7 -0.0067447 418.92 0.16355 0.099240 10.077 425.66 458.48 2.7538 0.99825 1.1892 197.43 0.97464 4.7707 0.0070377
-97.625 0.51325 0.026650 -6.8121 -5.9274 0.092384 641.28 0.0015594 -18.680 -18.674 0.019762 1.3522 2.0594 1529.0 -0.0067251 412.07 0.16294 0.10725 9.3239 426.65 459.64 2.7448 1.0016 1.1927 197.92 0.96112 4.7979 0.0071103
-96.625 0.55714 0.028771 -3.8378 -2.8775 0.10928 640.24 0.0015619 -16.620 -16.614 0.031467 1.3531 2.0618 1522.3 -0.0067053 405.39 0.16233 0.11579 8.6365 427.63 460.81 2.7360 1.0049 1.1962 198.40 0.94783 4.8251 0.0071832
-95.625 0.60416 0.031030 -0.80484 0.23654 0.12641 639.20 0.0015645 -14.557 -14.550 0.043120 1.3540 2.0642 1515.7 -0.0066853 398.88 0.16171 0.12488 8.0078 428.62 461.98 2.7274 1.0082 1.1997 198.88 0.93475 4.8524 0.0072564
-94.625 0.65446 0.033433 2.2893 3.4174 0.14379 638.16 0.0015670 -12.491 -12.484 0.054721 1.3550 2.0667 1509.0 -0.0066650 392.53 0.16110 0.13455 7.4323 429.61 463.15 2.7189 1.0116 1.2032 199.36 0.92188 4.8796 0.0073299
-93.625 0.70822 0.035987 5.4473 6.6681 0.16143 637.12 0.0015696 -10.424 -10.416 0.066271 1.3560 2.0691 1502.3 -0.0066444 386.34 0.16048 0.14482 6.9050 430.60 464.32 2.7107 1.0149 1.2068 199.83 0.90921 4.9068 0.0074036
-92.625 0.76564 0.038698 8.6718 9.9915 0.17934 636.07 0.0015722 -8.3535 -8.3452 0.077771 1.3570 2.0716 1495.6 -0.0066236 380.31 0.15987 0.15573 6.4212 431.60 465.49 2.7025 1.0183 1.2104 200.30 0.89673 4.9340 0.0074776
-91.625 0.82689 0.041575 11.965 13.391 0.19754 635.02 0.0015747 -6.2808 -6.2719 0.089220 1.3580 2.0742 1488.9 -0.0066025 374.41 0.15925 0.16731 5.9769 432.59 466.67 2.6946 1.0217 1.2140 200.77 0.88445 4.9611 0.0075518
-90.625 0.89218 0.044625 15.331 16.869 0.21603 633.98 0.0015773 -4.2056 -4.1959 0.10062 1.3591 2.0767 1482.2 -0.0065811 368.66 0.15864 0.17958 5.5685 433.59 467.84 2.6868 1.0251 1.2177 201.24 0.87236 4.9883 0.0076263
-89.625 0.96172 0.047854 18.771 20.429 0.23482 632.93 0.0015800 -2.1279 -2.1174 0.11197 1.3602 2.0793 1475.5 -0.0065595 363.05 0.15802 0.19258 5.1928 434.59 469.02 2.6791 1.0285 1.2213 201.70 0.86045 5.0154 0.0077011
-88.625 1.0357 0.051272 22.289 24.074 0.25394 631.88 0.0015826 -0.047516 -0.036215 0.12328 1.3613 2.0819 1468.8 -0.0065375 357.56 0.15740 0.20633 4.8466 435.59 470.20 2.6717 1.0320 1.2250 202.15 0.84873 5.0425 0.0077761
-87.625 1.1144 0.054886 25.887 27.808 0.27339 630.83 0.0015852 2.0355 2.0476 0.13454 1.3625 2.0846 1462.1 -0.0065153 352.21 0.15679 0.22087 4.5276 436.60 471.39 2.6643 1.0354 1.2288 202.61 0.83718 5.0696 0.0078514
-86.625 1.1979 0.058705 29.569 31.634 0.29318 629.77 0.0015879 4.1211 4.1342 0.14575 1.3637 2.0873 1455.4 -0.0064928 346.98 0.15617 0.23623 4.2331 437.61 472.57 2.6571 1.0389 1.2325 203.06 0.82580 5.0967 0.0079270
-85.625 1.2866 0.062736 33.337 35.555 0.31333 628.72 0.0015905 6.2094 6.2235 0.15691 1.3649 2.0900 1448.8 -0.0064701 341.87 0.15555 0.25245 3.9612 438.61 473.75 2.6501 1.0424 1.2363 203.50 0.81460 5.1237 0.0080028
-84.625 1.3806 0.066989 37.195 39.574 0.33384 627.66 0.0015932 8.3004 8.3155 0.16803 1.3661 2.0927 1442.1 -0.0064470 336.87 0.15494 0.26956 3.7097 439.63 474.94 2.6432 1.0460 1.2402 203.95 0.80356 5.1508 0.0080789
-83.625 1.4803 0.071473 41.145 43.696 0.35474 626.60 0.0015959 10.394 10.410 0.17911 1.3674 2.0955 1435.4 -0.0064236 331.99 0.15432 0.28760 3.4771 440.64 476.13 2.6364 1.0495 1.2440 204.38 0.79269 5.1778 0.0081553
-82.625 1.5858 0.076196 45.191 47.924 0.37603 625.54 0.0015986 12.491 12.508 0.19014 1.3687 2.0983 1428.7 -0.0063999 327.22 0.15370 0.30659 3.2616 441.65 477.31 2.6298 1.0531 1.2479 204.82 0.78199 5.2048 0.0082319
-81.625 1.6975 0.081168 49.336 52.262 0.39773 624.48 0.0016013 14.590 14.609 0.20113 1.3700 2.1012 1422.0 -0.0063759 322.55 0.15309 0.32659 3.0619 442.67 478.50 2.6233 1.0567 1.2519 205.25 0.77144 5.2318 0.0083088
-80.625 1.8155 0.086397 53.583 56.713 0.41985 623.42 0.0016041 16.692 16.712 0.21208 1.3714 2.1041 1415.4 -0.0063516 317.99 0.15247 0.34763 2.8766 443.69 479.70 2.6169 1.0603 1.2558 205.67 0.76106 5.2587 0.0083860
-79.625 1.9402 0.091895 57.936 61.280 0.44240 622.36 0.0016068 18.797 18.819 0.22299 1.3728 2.1070 1408.7 -0.0063270 313.52 0.15186 0.36974 2.7046 444.71 480.89 2.6106 1.0639 1.2598 206.10 0.75083 5.2857 0.0084634
-78.625 2.0718 0.097670 62.398 65.969 0.46539 621.29 0.0016096 20.905 20.928 0.23385 1.3742 2.1099 1402.0 -0.0063021 309.15 0.15124 0.39296 2.5448 445.73 482.08 2.6045 1.0676 1.2639 206.51 0.74076 5.3126 0.0085411
-77.625 2.2107 0.10373 66.971 70.782 0.48885 620.22 0.0016123 23.016 23.040 0.24468 1.3757 2.1129 1395.3 -0.0062768 304.88 0.15062 0.41735 2.3961 446.75 483.27 2.5985 1.0712 1.2680 206.93 0.73084 5.3395 0.0086190
-76.625 2.3571 0.11009 71.661 75.724 0.51277 619.15 0.0016151 25.130 25.156 0.25546 1.3772 2.1159 1388.7 -0.0062512 300.69 0.15001 0.44292 2.2577 447.78 484.47 2.5926 1.0749 1.2721 207.34 0.72107 5.3664 0.0086972
-75.625 2.5113 0.11676 76.469 80.798 0.53717 618.08 0.0016179 27.247 27.275 0.26620 1.3787 2.1190 1382.0 -0.0062253 296.59 0.14939 0.46974 2.1288 448.81 485.67 2.5869 1.0787 1.2762 207.74 0.71146 5.3933 0.0087757
-74.625 2.6736 0.12375 81.400 86.008 0.56207 617.01 0.0016207 29.366 29.396 0.27691 1.3802 2.1221 1375.4 -0.0061990 292.58 0.14878 0.49783 2.0087 449.83 486.86 2.5812 1.0824 1.2804 208.14 0.70200 5.4201 0.0088544
-73.625 2.8444 0.13107 86.457 91.360 0.58748 615.93 0.0016236 31.489 31.521 0.28758 1.3818 2.1252 1368.7 -0.0061724 288.65 0.14816 0.52725 1.8966 450.86 488.06 2.5757 1.0862 1.2847 208.54 0.69268 5.4469 0.0089334
-72.625 3.0240 0.13873 91.643 96.855 0.61341 614.85 0.0016264 33.615 33.649 0.29821 1.3834 2.1284 1362.0 -0.0061454 284.81 0.14755 0.55804 1.7920 451.90 489.26 2.5703 1.0900 1.2889 208.93 0.68351 5.4737 0.0090126
-71.625 3.2127 0.14674 96.962 102.50 0.63987 613.78 0.0016293 35.745 35.781 0.30880 1.3851 2.1316 1355.4 -0.0061181 281.03 0.14694 0.59024 1.6942 452.93 490.46 2.5650 1.0938 1.2932 209.32 0.67448 5.5005 0.0090922
-70.625 3.4108 0.15511 102.42 108.30 0.66688 612.69 0.0016321 37.877 37.915 0.31935 1.3867 2.1349 1348.7 -0.0060904 277.34 0.14632 0.62390 1.6028 453.96 491.66 2.5598 1.0976 1.2976 209.70 0.66560 5.5273 0.0091720
-69.625 3.6187 0.16386 108.01 114.25 0.69444 611.61 0.0016350 40.013 40.053 0.32987 1.3884 2.1382 1342.1 -0.0060624 273.72 0.14571 0.65906 1.5173 455.00 492.86 2.5547 1.1015 1.3020 210.08 0.65687 5.5540 0.0092520
-68.625 3.8367 0.17300 113.75 120.37 0.72257 610.53 0.0016379 42.152 42.195 0.34036 1.3902 2.1415 1335.5 -0.0060339 270.17 0.14510 0.69577 1.4372 456.04 494.06 2.5497 1.1054 1.3064 210.45 0.64827 5.5807 0.0093324
-67.625 4.0652 0.18254 119.64 126.65 0.75129 609.44 0.0016409 44.294 44.340 0.35080 1.3919 2.1449 1328.8 -0.0060051 266.69 0.14449 0.73408 1.3622 457.08 495.26 2.5448 1.1093 1.3109 210.82 0.63981 5.6074 0.0094130
-66.625 4.3046 0.19248 125.68 133.10 0.78060 608.35 0.0016438 46.439 46.488 0.36122 1.3937 2.1483 1322.2 -0.0059760 263.28 0.14388 0.77404 1.2919 458.12 496.46 2.5400 1.1133 1.3154 211.18 0.63150 5.6341 0.0094939
-65.625 4.5551 0.20285 131.87 139.73 0.81052 607.26 0.0016467 48.588 48.640 0.37160 1.3955 2.1518 1315.6 -0.0059464 259.93 0.14327 0.81570 1.2259 459.16 497.67 2.5353 1.1172 1.3200 211.54 0.62332 5.6608 0.0095750
-64.625 4.8173 0.21366 138.23 146.53 0.84105 606.16 0.0016497 50.740 50.795 0.38195 1.3974 2.1553 1308.9 -0.0059164 256.65 0.14266 0.85910 1.1640 460.21 498.87 2.5307 1.1212 1.3246 211.89 0.61527 5.6874 0.0096564
-63.625 5.0915 0.22492 144.74 153.52 0.87222 605.07 0.0016527 52.896 52.954 0.39226 1.3993 2.1588 1302.3 -0.0058861 253.42 0.14205 0.90429 1.1058 461.25 500.07 2.5262 1.1252 1.3293 212.24 0.60736 5.7140 0.0097382
-62.625 5.3781 0.23663 151.42 160.69 0.90403 603.97 0.0016557 55.055 55.117 0.40254 1.4012 2.1624 1295.7 -0.0058553 250.26 0.14144 0.95134 1.0511 462.30 501.28 2.5218 1.1293 1.3340 212.58 0.59958 5.7406 0.0098201
-61.625 5.6774 0.24882 158.27 168.06 0.93649 602.87 0.0016587 57.218 57.283 0.41279 1.4031 2.1660 1289.1 -0.0058241 247.16 0.14084 1.0003 0.99972 463.35 502.48 2.5175 1.1333 1.3387 212.92 0.59194 5.7672 0.0099024
-60.625 5.9899 0.26151 165.30 175.62 0.96962 601.77 0.0016618 59.385 59.453 0.42301 1.4051 2.1697 1282.5 -0.0057925 244.12 0.14023 1.0512 0.95131 464.40 503.68 2.5133 1.1374 1.3435 213.26 0.58442 5.7938 0.0099850
-59.625 6.3160 0.27469 172.50 183.39 1.0034 600.66 0.0016648 61.554 61.627 0.43320 1.4071 2.1734 1275.9 -0.0057605 241.13 0.13962 1.1041 0.90573 465.45 504.89 2.5091 1.1415 1.3483 213.58 0.57704 5.8203 0.010068
-58.625 6.6561 0.28839 179.88 191.35 1.0379 599.55 0.0016679 63.728 63.805 0.44335 1.4091 2.1772 1269.3 -0.0057280 238.19 0.13902 1.1591 0.86277 466.50 506.09 2.5051 1.1457 1.3532 213.90 0.56978 5.8468 0.010151
-57.625 7.0107 0.30262 187.45 199.53 1.0731 598.44 0.0016710 65.905 65.986 0.45348 1.4111 2.1810 1262.7 -0.0056951 235.31 0.13842 1.2161 0.82228 467.55 507.30 2.5011 1.1498 1.3581 214.22 0.56265 5.8733 0.010234
-56.625 7.3801 0.31739 195.21 207.93 1.1090 597.33 0.0016741 68.086 68.172 0.46358 1.4132 2.1848 1256.1 -0.0056617 232.48 0.13781 1.2754 0.78408 468.60 508.50 2.4972 1.1540 1.3631 214.53 0.55564 5.8998 0.010318
-55.625 7.7648 0.33272 203.16 216.54 1.1457 596.22 0.0016772 70.271 70.361 0.47364 1.4153 2.1887 1249.5 -0.0056279 229.69 0.13721 1.3369 0.74802 469.66 509.71 2.4934 1.1582 1.3681 214.84 0.54875 5.9263 0.010402
-54.625 8.1652 0.34863 211.30 225.38 1.1830 595.10 0.0016804 72.460 72.554 0.48368 1.4174 2.1927 1242.9 -0.0055937 226.96 0.13661 1.4006 0.71396 470.72 510.91 2.4897 1.1624 1.3731 215.14 0.54199 5.9527 0.010486
-53.625 8.5819 0.36512 219.65 234.44 1.2211 593.98 0.0016836 74.652 74.752 0.49369 1.4196 2.1967 1236.3 -0.0055589 224.27 0.13601 1.4667 0.68178 471.77 512.11 2.4860 1.1667 1.3782 215.43 0.53535 5.9792 0.010571
-52.625 9.0151 0.38221 228.20 243.74 1.2600 592.86 0.0016867 76.849 76.954 0.50368 1.4218 2.2007 1229.8 -0.0055237 221.63 0.13541 1.5353 0.65136 472.83 513.32 2.4824 1.1710 1.3834 215.72 0.52882 6.0056 0.010656
-51.625 9.4655 0.39993 236.96 253.27 1.2996 591.73 0.0016900 79.049 79.159 0.51363 1.4240 2.2048 1223.2 -0.0054880 219.04 0.13482 1.6062 0.62258 473.89 514.52 2.4789 1.1752 1.3886 216.00 0.52241 6.0320 0.010741
-50.625 9.9335 0.41827 245.93 263.05 1.3400 590.60 0.0016932 81.253 81.369 0.52356 1.4262 2.2089 1216.6 -0.0054519 216.48 0.13422 1.6797 0.59534 474.95 515.73 2.4755 1.1796 1.3938 216.28 0.51612 6.0584 0.010827
-49.625 10.419 0.43727 255.11 273.07 1.3812 589.47 0.0016964 83.462 83.584 0.53347 1.4285 2.2131 1210.1 -0.0054152 213.98 0.13363 1.7558 0.56954 476.01 516.93 2.4722 1.1839 1.3991 216.55 0.50994 6.0848 0.010913
-48.625 10.924 0.45693 264.52 283.35 1.4232 588.34 0.0016997 85.674 85.802 0.54334 1.4308 2.2173 1203.5 -0.0053780 211.51 0.13303 1.8345 0.54510 477.07 518.13 2.4689 1.1883 1.4044 216.82 0.50387 6.1112 0.010999
-47.625 11.448 0.47728 274.15 293.88 1.4660 587.20 0.0017030 87.891 88.025 0.55319 1.4331 2.2216 1196.9 -0.0053403 209.08 0.13244 1.9159 0.52194 478.14 519.33 2.4657 1.1927 1.4098 217.08 0.49792 6.1375 0.011085
-46.625 11.991 0.49832 284.00 304.67 1.5096 586.06 0.0017063 90.111 90.252 0.56302 1.4354 2.2259 1190.4 -0.0053020 206.69 0.13185 2.0001 0.49997 479.20 520.53 2.4625 1.1971 1.4153 217.33 0.49207 6.1639 0.011172
-45.625 12.554 0.52008 294.09 315.73 1.5540 584.92 0.0017096 92.336 92.484 0.57282 1.4378 2.2303 1183.8 -0.0052633 204.34 0.13126 2.0872 0.47912 480.27 521.74 2.4594 1.2015 1.4207 217.58 0.48633 6.1902 0.011259
-44.625 13.137 0.54257 304.41 327.06 1.5993 583.77 0.0017130 94.565 94.720 0.58260 1.4402 2.2347 1177.3 -0.0052240 202.03 0.13067 2.1771 0.45933 481.33 522.94 2.4564 1.2060 1.4263 217.82 0.48069 6.2165 0.011347
-43.625 13.741 0.56580 314.97 338.66 1.6454 582.62 0.0017164 96.799 96.961 0.59235 1.4426 2.2392 1170.7 -0.0051841 199.75 0.13008 2.2700 0.44053 482.40 524.14 2.4535 1.2104 1.4319 218.05 0.47516 6.2429 0.011435
-42.625 14.367 0.58981 325.78 350.54 1.6923 581.47 0.0017198 99.036 99.207 0.60208 1.4450 2.2437 1164.2 -0.0051437 197.51 0.12949 2.3659 0.42267 483.46 525.33 2.4506 1.2149 1.4375 218.28 0.46973 6.2692 0.011523
-41.625 15.015 0.61459 336.82 362.71 1.7402 580.32 0.0017232 101.28 101.46 0.61179 1.4475 2.2483 1157.7 -0.0051027 195.30 0.12891 2.4649 0.40569 484.53 526.53 2.4478 1.2195 1.4432 218.50 0.46440 6.2955 0.011612
-40.625 15.686 0.64018 348.12 375.16 1.7889 579.16 0.0017266 103.52 103.71 0.62147 1.4500 2.2529 1151.1 -0.0050611 193.13 0.12832 2.5671 0.38954 485.60 527.73 2.4450 1.2240 1.4489 218.72 0.45917 6.3218 0.011701
-39.625 16.380 0.66659 359.68 387.91 1.8384 578.00 0.0017301 105.78 105.97 0.63113 1.4525 2.2576 1144.6 -0.0050189 190.99 0.12774 2.6725 0.37418 486.67 528.93 2.4423 1.2286 1.4547 218.93 0.45403 6.3481 0.011790
-38.625 17.097 0.69384 371.49 400.96 1.8889 576.83 0.0017336 108.03 108.24 0.64077 1.4550 2.2623 1138.0 -0.0049761 188.88 0.12716 2.7813 0.35955 487.74 530.12 2.4397 1.2332 1.4606 219.13 0.44900 6.3744 0.011880
-37.625 17.838 0.72194 383.56 414.31 1.9403 575.66 0.0017371 110.29 110.51 0.65039 1.4576 2.2671 1131.5 -0.0049327 186.81 0.12658 2.8934 0.34562 488.81 531.32 2.4371 1.2378 1.4665 219.33 0.44405 6.4007 0.011970
-36.625 18.604 0.75092 395.90 427.97 1.9926 574.49 0.0017407 112.56 112.78 0.65999 1.4602 2.2719 1125.0 -0.0048887 184.76 0.12600 3.0089 0.33235 489.88 532.51 2.4346 1.2424 1.4724 219.52 0.43920 6.4270 0.012060
-35.625 19.395 0.78080 408.50 441.94 2.0457 573.32 0.0017442 114.83 115.06 0.66956 1.4628 2.2768 1118.5 -0.0048440 182.75 0.12542 3.1280 0.31969 490.95 533.70 2.4321 1.2471 1.4784 219.70 0.43444 6.4533 0.012151
-34.625 20.212 0.81159 421.38 456.22 2.0999 572.14 0.0017478 117.10 117.34 0.67912 1.4654 2.2818 1111.9 -0.0047987 180.76 0.12485 3.2506 0.30763 492.02 534.89 2.4297 1.2517 1.4845 219.88 0.42977 6.4797 0.012243
-33.625 21.056 0.84332 434.54 470.83 2.1549 570.96 0.0017514 119.38 119.63 0.68865 1.4681 2.2868 1105.4 -0.0047527 178.80 0.12427 3.3770 0.29612 493.09 536.08 2.4273 1.2564 1.4906 220.05 0.42519 6.5060 0.012334
-32.625 21.926 0.87600 447.98 485.77 2.2109 569.77 0.0017551 121.66 121.93 0.69817 1.4708 2.2918 1098.9 -0.0047061 176.87 0.12370 3.5071 0.28514 494.17 537.27 2.4250 1.2611 1.4968 220.21 0.42070 6.5323 0.012426
-31.625 22.823 0.90966 461.70 501.04 2.2678 568.58 0.0017588 123.95 124.23 0.70767 1.4735 2.2970 1092.3 -0.0046587 174.97 0.12313 3.6410 0.27465 495.24 538.46 2.4227 1.2659 1.5031 220.36 0.41629 6.5587 0.012519
-30.625 23.749 0.94432 475.70 516.64 2.3257 567.39 0.0017625 126.24 126.53 0.71714 1.4762 2.3021 1085.8 -0.0046107 173.09 0.12256 3.7787 0.26464 496.31 539.64 2.4205 1.2706 1.5094 220.51 0.41196 6.5850 0.012612
-29.625 24.703 0.97999 490.00 532.58 2.3845 566.19 0.0017662 128.54 128.84 0.72660 1.4790 2.3074 1079.3 -0.0045619 171.24 0.12200 3.9205 0.25507 497.38 540.83 2.4184 1.2754 1.5157 220.65 0.40772 6.6114 0.012706
-28.625 25.292 undefined 498.55 542.14 2.4196 4.0000 0.25000 498.55 542.14 2.4196 1.2797 1.5206 220.95 0.40307 6.6385 0.012800 4.0000 0.25000 498.55 542.14 2.4196 1.2797 1.5206 220.95 0.40307 6.6385 0.012800
-27.625 25.408 undefined 499.83 543.63 2.4248 4.0000 0.25000 499.83 543.63 2.4248 1.2833 1.5236 221.43 0.39793 6.6664 0.012896 4.0000 0.25000 499.83 543.63 2.4248 1.2833 1.5236 221.43 0.39793 6.6664 0.012896
-26.625 25.525 undefined 501.12 545.11 2.4300 4.0000 0.25000 501.12 545.11 2.4300 1.2869 1.5266 221.91 0.39287 6.6943 0.012992 4.0000 0.25000 501.12 545.11 2.4300 1.2869 1.5266 221.91 0.39287 6.6943 0.012992
-25.625 25.641 undefined 502.40 546.60 2.4352 4.0000 0.25000 502.40 546.60 2.4352 1.2905 1.5297 222.39 0.38790 6.7222 0.013088 4.0000 0.25000 502.40 546.60 2.4352 1.2905 1.5297 222.39 0.38790 6.7222 0.013088
-24.625 25.758 undefined 503.70 548.10 2.4404 4.0000 0.25000 503.70 548.10 2.4404 1.2941 1.5328 222.87 0.38301 6.7501 0.013184 4.0000 0.25000 503.70 548.10 2.4404 1.2941 1.5328 222.87 0.38301 6.7501 0.013184
-23.625 25.874 undefined 504.99 549.59 2.4456 4.0000 0.25000 504.99 549.59 2.4456 1.2978 1.5359 223.34 0.37821 6.7780 0.013281 4.0000 0.25000 504.99 549.59 2.4456 1.2978 1.5359 223.34 0.37821 6.7780 0.013281
-22.625 25.991 undefined 506.29 551.09 2.4508 4.0000 0.25000 506.29 551.09 2.4508 1.3015 1.5390 223.82 0.37349 6.8058 0.013378 4.0000 0.25000 506.29 551.09 2.4508 1.3015 1.5390 223.82 0.37349 6.8058 0.013378
-21.625 26.107 undefined 507.60 552.60 2.4560 4.0000 0.25000 507.60 552.60 2.4560 1.3052 1.5422 224.29 0.36884 6.8337 0.013476 4.0000 0.25000 507.60 552.60 2.4560 1.3052 1.5422 224.29 0.36884 6.8337 0.013476
-20.625 26.223 undefined 508.90 554.10 2.4612 4.0000 0.25000 508.90 554.10 2.4612 1.3089 1.5454 224.76 0.36428 6.8615 0.013573 4.0000 0.25000 508.90 554.10 2.4612 1.3089 1.5454 224.76 0.36428 6.8615 0.013573
-19.625 26.339 undefined 510.21 555.61 2.4664 4.0000 0.25000 510.21 555.61 2.4664 1.3126 1.5486 225.23 0.35979 6.8894 0.013671 4.0000 0.25000 510.21 555.61 2.4664 1.3126 1.5486 225.23 0.35979 6.8894 0.013671
-18.625 26.455 undefined 511.53 557.13 2.4716 4.0000 0.25000 511.53 557.13 2.4716 1.3163 1.5518 225.70 0.35537 6.9172 0.013770 4.0000 0.25000 511.53 557.13 2.4716 1.3163 1.5518 225.70 0.35537 6.9172 0.013770
-17.625 26.571 undefined 512.85 558.65 2.4767 4.0000 0.25000 512.85 558.65 2.4767 1.3201 1.5551 226.17 0.35103 6.9450 0.013868 4.0000 0.25000 512.85 558.65 2.4767 1.3201 1.5551 226.17 0.35103 6.9450 0.013868
-16.625 26.687 undefined 514.17 560.17 2.4819 4.0000 0.25000 514.17 560.17 2.4819 1.3238 1.5583 226.63 0.34676 6.9728 0.013967 4.0000 0.25000 514.17 560.17 2.4819 1.3238 1.5583 226.63 0.34676 6.9728 0.013967
-15.625 26.803 undefined 515.49 561.69 2.4871 4.0000 0.25000 515.49 561.69 2.4871 1.3276 1.5616 227.10 0.34256 7.0005 0.014066 4.0000 0.25000 515.49 561.69 2.4871 1.3276 1.5616 227.10 0.34256 7.0005 0.014066
-14.625 26.919 undefined 516.82 563.22 2.4922 4.0000 0.25000 516.82 563.22 2.4922 1.3314 1.5650 227.56 0.33842 7.0283 0.014166 4.0000 0.25000 516.82 563.22 2.4922 1.3314 1.5650 227.56 0.33842 7.0283 0.014166
-13.625 27.034 undefined 518.16 564.76 2.4974 4.0000 0.25000 518.16 564.76 2.4974 1.3352 1.5683 228.02 0.33436 7.0561 0.014265 4.0000 0.25000 518.16 564.76 2.4974 1.3352 1.5683 228.02 0.33436 7.0561 0.014265
-12.625 27.150 undefined 519.49 566.29 2.5025 4.0000 0.25000 519.49 566.29 2.5025 1.3391 1.5717 228.48 0.33036 7.0838 0.014365 4.0000 0.25000 519.49 566.29 2.5025 1.3391 1.5717 228.48 0.33036 7.0838 0.014365
-11.625 27.266 undefined 520.83 567.83 2.5076 4.0000 0.25000 520.83 567.83 2.5076 1.3429 1.5751 228.94 0.32642 7.1116 0.014466 4.0000 0.25000 520.83 567.83 2.5076 1.3429 1.5751 228.94 0.32642 7.1116 0.014466
-10.625 27.381 undefined 522.18 569.38 2.5128 4.0000 0.25000 522.18 569.38 2.5128 1.3467 1.5785 229.39 0.32255 7.1393 0.014566 4.0000 0.25000 522.18 569.38 2.5128 1.3467 1.5785 229.39 0.32255 7.1393 0.014566
-9.6250 27.497 undefined 523.53 570.92 2.5179 4.0000 0.25000 523.53 570.92 2.5179 1.3506 1.5819 229.85 0.31874 7.1670 0.014667 4.0000 0.25000 523.53 570.92 2.5179 1.3506 1.5819 229.85 0.31874 7.1670 0.014667
-8.6250 27.612 undefined 524.88 572.48 2.5230 4.0000 0.25000 524.88 572.48 2.5230 1.3545 1.5854 230.30 0.31499 7.1947 0.014768 4.0000 0.25000 524.88 572.48 2.5230 1.3545 1.5854 230.30 0.31499 7.1947 0.014768
-7.6250 27.727 undefined 526.24 574.03 2.5281 4.0000 0.25000 526.24 574.03 2.5281 1.3584 1.5889 230.76 0.31130 7.2224 0.014870 4.0000 0.25000 526.24 574.03 2.5281 1.3584 1.5889 230.76 0.31130 7.2224 0.014870
-6.6250 27.843 undefined 527.60 575.59 2.5333 4.0000 0.25000 527.60 575.59 2.5333 1.3623 1.5924 231.21 0.30767 7.2501 0.014972 4.0000 0.25000 527.60 575.59 2.5333 1.3623 1.5924 231.21 0.30767 7.2501 0.014972
-5.6250 27.958 undefined 528.96 577.15 2.5384 4.0000 0.25000 528.96 577.15 2.5384 1.3662 1.5959 231.66 0.30409 7.2777 0.015074 4.0000 0.25000 528.96 577.15 2.5384 1.3662 1.5959 231.66 0.30409 7.2777 0.015074
-4.6250 28.073 undefined 530.33 578.72 2.5435 4.0000 0.25000 530.33 578.72 2.5435 1.3702 1.5994 232.11 0.30057 7.3054 0.015176 4.0000 0.25000 530.33 578.72 2.5435 1.3702 1.5994 232.11 0.30057 7.3054 0.015176
-3.6250 28.188 undefined 531.70 580.29 2.5486 4.0000 0.25000 531.70 580.29 2.5486 1.3741 1.6030 232.55 0.29711 7.3330 0.015279 4.0000 0.25000 531.70 580.29 2.5486 1.3741 1.6030 232.55 0.29711 7.3330 0.015279
-2.6250 28.303 undefined 533.08 581.86 2.5537 4.0000 0.25000 533.08 581.86 2.5537 1.3781 1.6066 233.00 0.29370 7.3606 0.015382 4.0000 0.25000 533.08 581.86 2.5537 1.3781 1.6066 233.00 0.29370 7.3606 0.015382
-1.6250 28.418 undefined 534.46 583.44 2.5588 4.0000 0.25000 534.46 583.44 2.5588 1.3821 1.6102 233.45 0.29034 7.3882 0.015485 4.0000 0.25000 534.46 583.44 2.5588 1.3821 1.6102 233.45 0.29034 7.3882 0.015485
-0.62500 28.533 undefined 535.84 585.02 2.5638 4.0000 0.25000 535.84 585.02 2.5638 1.3861 1.6138 233.89 0.28704 7.4158 0.015589 4.0000 0.25000 535.84 585.02 2.5638 1.3861 1.6138 233.89 0.28704 7.4158 0.015589
0.37500 28.648 undefined 537.23 586.61 2.5689 4.0000 0.25000 537.23 586.61 2.5689 1.3901 1.6174 234.33 0.28378 7.4434 0.015693 4.0000 0.25000 537.23 586.61 2.5689 1.3901 1.6174 234.33 0.28378 7.4434 0.015693
1.3750 28.763 undefined 538.62 588.20 2.5740 4.0000 0.25000 538.62 588.20 2.5740 1.3941 1.6211 234.77 0.28058 7.4710 0.015797 4.0000 0.25000 538.62 588.20 2.5740 1.3941 1.6211 234.77 0.28058 7.4710 0.015797
2.3750 28.878 undefined 540.02 589.80 2.5791 4.0000 0.25000 540.02 589.80 2.5791 1.3981 1.6247 235.21 0.27742 7.4986 0.015901 4.0000 0.25000 540.02 589.80 2.5791 1.3981 1.6247 235.21 0.27742 7.4986 0.015901
3.3750 28.993 undefined 541.42 591.39 2.5842 4.0000 0.25000 541.42 591.39 2.5842 1.4021 1.6284 235.65 0.27431 7.5261 0.016006 4.0000 0.25000 541.42 591.39 2.5842 1.4021 1.6284 235.65 0.27431 7.5261 0.016006
4.3750 29.107 undefined 542.82 593.00 2.5892 4.0000 0.25000 542.82 593.00 2.5892 1.4062 1.6321 236.09 0.27125 7.5537 0.016111 4.0000 0.25000 542.82 593.00 2.5892 1.4062 1.6321 236.09 0.27125 7.5537 0.016111
5.3750 29.222 undefined 544.23 594.60 2.5943 4.0000 0.25000 544.23 594.60 2.5943 1.4103 1.6359 236.53 0.26824 7.5812 0.016216 4.0000 0.25000 544.23 594.60 2.5943 1.4103 1.6359 236.53 0.26824 7.5812 0.016216
6.3750 29.337 undefined 545.64 596.21 2.5994 4.0000 0.25000 545.64 596.21 2.5994 1.4143 1.6396 236.96 0.26527 7.6087 0.016322 4.0000 0.25000 545.64 596.21 2.5994 1.4143 1.6396 236.96 0.26527 7.6087 0.016322
7.3750 29.451 undefined 547.06 597.82 2.6044 4.0000 0.25000 547.06 597.82 2.6044 1.4184 1.6433 237.39 0.26234 7.6362 0.016428 4.0000 0.25000 547.06 597.82 2.6044 1.4184 1.6433 237.39 0.26234 7.6362 0.016428
8.3750 29.566 undefined 548.48 599.44 2.6095 4.0000 0.25000 548.48 599.44 2.6095 1.4225 1.6471 237.83 0.25946 7.6637 0.016534 4.0000 0.25000 548.48 599.44 2.6095 1.4225 1.6471 237.83 0.25946 7.6637 0.016534
9.3750 29.680 undefined 549.90 601.06 2.6145 4.0000 0.25000 549.90 601.06 2.6145 1.4266 1.6509 238.26 0.25662 7.6912 0.016640 4.0000 0.25000 549.90 601.06 2.6145 1.4266 1.6509 238.26 0.25662 7.6912 0.016640
10.375 29.795 undefined 551.33 602.69 2.6196 4.0000 0.25000 551.33 602.69 2.6196 1.4307 1.6547 238.69 0.25382 7.7187 0.016747 4.0000 0.25000 551.33 602.69 2.6196 1.4307 1.6547 238.69 0.25382 7.7187 0.016747
11.375 29.909 undefined 552.77 604.32 2.6246 4.0000 0.25000 552.77 604.32 2.6246 1.4349 1.6585 239.12 0.25107 7.7461 0.016854 4.0000 0.25000 552.77 604.32 2.6246 1.4349 1.6585 239.12 0.25107 7.7461 0.016854
12.375 30.024 undefined 554.20 605.95 2.6297 4.0000 0.25000 554.20 605.95 2.6297 1.4390 1.6624 239.55 0.24835 7.7736 0.016961 4.0000 0.25000 554.20 605.95 2.6297 1.4390 1.6624 239.55 0.24835 7.7736 0.016961
13.375 30.138 undefined 555.64 607.59 2.6347 4.0000 0.25000 555.64 607.59 2.6347 1.4432 1.6662 239.98 0.24567 7.8010 0.017069 4.0000 0.25000 555.64 607.59 2.6347 1.4432 1.6662 239.98 0.24567 7.8010 0.017069
14.375 30.252 undefined 557.09 609.24 2.6397 4.0000 0.25000 557.09 609.24 2.6397 1.4473 1.6701 240.40 0.24304 7.8284 0.017177 4.0000 0.25000 557.09 609.24 2.6397 1.4473 1.6701 240.40 0.24304 7.8284 0.017177
15.375 30.367 undefined 558.54 610.88 2.6448 4.0000 0.25000 558.54 610.88 2.6448 1.4515 1.6739 240.83 0.24044 7.8558 0.017285 4.0000 0.25000 558.54 610.88 2.6448 1.4515 1.6739 240.83 0.24044 7.8558 0.017285
16.375 30.481 undefined 559.99 612.53 2.6498 4.0000 0.25000 559.99 612.53 2.6498 1.4557 1.6778 241.25 0.23788 7.8832 0.017394 4.0000 0.25000 559.99 612.53 2.6498 1.4557 1.6778 241.25 0.23788 7.8832 0.017394
17.375 30.595 undefined 561.45 614.19 2.6548 4.0000 0.25000 561.45 614.19 2.6548 1.4598 1.6817 241.67 0.23536 7.9106 0.017503 4.0000 0.25000 561.45 614.19 2.6548 1.4598 1.6817 241.67 0.23536 7.9106 0.017503
18.375 30.709 undefined 562.91 615.85 2.6598 4.0000 0.25000 562.91 615.85 2.6598 1.4640 1.6856 242.10 0.23287 7.9379 0.017612 4.0000 0.25000 562.91 615.85 2.6598 1.4640 1.6856 242.10 0.23287 7.9379 0.017612
19.375 30.823 undefined 564.38 617.51 2.6649 4.0000 0.25000 564.38 617.51 2.6649 1.4682 1.6896 242.52 0.23042 7.9653 0.017721 4.0000 0.25000 564.38 617.51 2.6649 1.4682 1.6896 242.52 0.23042 7.9653 0.017721
20.375 30.937 undefined 565.85 619.18 2.6699 4.0000 0.25000 565.85 619.18 2.6699 1.4725 1.6935 242.94 0.22800 7.9926 0.017831 4.0000 0.25000 565.85 619.18 2.6699 1.4725 1.6935 242.94 0.22800 7.9926 0.017831
21.375 31.051 undefined 567.32 620.85 2.6749 4.0000 0.25000 567.32 620.85 2.6749 1.4767 1.6975 243.36 0.22562 8.0200 0.017941 4.0000 0.25000 567.32 620.85 2.6749 1.4767 1.6975 243.36 0.22562 8.0200 0.017941
22.375 31.165 undefined 568.80 622.52 2.6799 4.0000 0.25000 568.80 622.52 2.6799 1.4809 1.7014 243.78 0.22327 8.0473 0.018051 4.0000 0.25000 568.80 622.52 2.6799 1.4809 1.7014 243.78 0.22327 8.0473 0.018051
23.375 31.279 undefined 570.29 624.20 2.6849 4.0000 0.25000 570.29 624.20 2.6849 1.4852 1.7054 244.19 0.22095 8.0746 0.018162 4.0000 0.25000 570.29 624.20 2.6849 1.4852 1.7054 244.19 0.22095 8.0746 0.018162
24.375 31.393 undefined 571.77 625.88 2.6899 4.0000 0.25000 571.77 625.88 2.6899 1.4894 1.7094 244.61 0.21867 8.1019 0.018273 4.0000 0.25000 571.77 625.88 2.6899 1.4894 1.7094 244.61 0.21867 8.1019 0.018273
25.375 31.507 undefined 573.26 627.57 2.6949 4.0000 0.25000 573.26 627.57 2.6949 1.4937 1.7134 245.02 0.21642 8.1291 0.018384 4.0000 0.25000 573.26 627.57 2.6949 1.4937 1.7134 245.02 0.21642 8.1291 0.018384
26.375 31.621 undefined 574.76 629.26 2.6999 4.0000 0.25000 574.76 629.26 2.6999 1.4979 1.7174 245.44 0.21420 8.1564 0.018495 4.0000 0.25000 574.76 629.26 2.6999 1.4979 1.7174 245.44 0.21420 8.1564 0.018495
27.375 31.735 undefined 576.26 630.96 2.7049 4.0000 0.25000 576.26 630.96 2.7049 1.5022 1.7214 245.85 0.21201 8.1836 0.018607 4.0000 0.25000 576.26 630.96 2.7049 1.5022 1.7214 245.85 0.21201 8.1836 0.018607
28.375 31.849 undefined 577.76 632.66 2.7099 4.0000 0.25000 577.76 632.66 2.7099 1.5065 1.7254 246.26 0.20985 8.2109 0.018719 4.0000 0.25000 577.76 632.66 2.7099 1.5065 1.7254 246.26 0.20985 8.2109 0.018719
29.375 31.962 undefined 579.27 634.37 2.7149 4.0000 0.25000 579.27 634.37 2.7149 1.5107 1.7295 246.68 0.20772 8.2381 0.018831 4.0000 0.25000 579.27 634.37 2.7149 1.5107 1.7295 246.68 0.20772 8.2381 0.018831
30.375 32.076 undefined 580.79 636.07 2.7199 4.0000 0.25000 580.79 636.07 2.7199 1.5150 1.7335 247.09 0.20562 8.2653 0.018944 4.0000 0.25000 580.79 636.07 2.7199 1.5150 1.7335 247.09 0.20562 8.2653 0.018944
31.375 32.190 undefined 582.30 637.79 2.7249 4.0000 0.25000 582.30 637.79 2.7249 1.5193 1.7376 247.50 0.20355 8.2925 0.019057 4.0000 0.25000 582.30 637.79 2.7249 1.5193 1.7376 247.50 0.20355 8.2925 0.019057
32.375 32.303 undefined 583.82 639.51 2.7299 4.0000 0.25000 583.82 639.51 2.7299 1.5236 1.7417 247.90 0.20151 8.3197 0.019170 4.0000 0.25000 583.82 639.51 2.7299 1.5236 1.7417 247.90 0.20151 8.3197 0.019170
33.375 32.417 undefined 585.35 641.23 2.7349 4.0000 0.25000 585.35 641.23 2.7349 1.5279 1.7457 248.31 0.19950 8.3469 0.019284 4.0000 0.25000 585.35 641.23 2.7349 1.5279 1.7457 248.31 0.19950 8.3469 0.019284
34.375 32.531 undefined 586.88 642.95 2.7399 4.0000 0.25000 586.88 642.95 2.7399 1.5323 1.7498 248.72 0.19751 8.3740 0.019397 4.0000 0.25000 586.88 642.95 2.7399 1.5323 1.7498 248.72 0.19751 8.3740 0.019397
35.375 32.644 undefined 588.41 644.68 2.7448 4.0000 0.25000 588.41 644.68 2.7448 1.5366 1.7539 249.13 0.19555 8.4012 0.019511 4.0000 0.25000 588.41 644.68 2.7448 1.5366 1.7539 249.13 0.19555 8.4012 0.019511
36.375 32.758 undefined 589.95 646.42 2.7498 4.0000 0.25000 589.95 646.42 2.7498 1.5409 1.7580 249.53 0.19362 8.4283 0.019626 4.0000 0.25000 589.95 646.42 2.7498 1.5409 1.7580 249.53 0.19362 8.4283 0.019626
37.375 32.871 undefined 591.50 648.16 2.7548 4.0000 0.25000 591.50 648.16 2.7548 1.5452 1.7622 249.93 0.19172 8.4554 0.019740 4.0000 0.25000 591.50 648.16 2.7548 1.5452 1.7622 249.93 0.19172 8.4554 0.019740
38.375 32.985 undefined 593.04 649.90 2.7598 4.0000 0.25000 593.04 649.90 2.7598 1.5496 1.7663 250.34 0.18984 8.4825 0.019855 4.0000 0.25000 593.04 649.90 2.7598 1.5496 1.7663 250.34 0.18984 8.4825 0.019855
39.375 33.098 undefined 594.60 651.65 2.7647 4.0000 0.25000 594.60 651.65 2.7647 1.5539 1.7704 250.74 0.18798 8.5096 0.019971 4.0000 0.25000 594.60 651.65 2.7647 1.5539 1.7704 250.74 0.18798 8.5096 0.019971
40.375 33.211 undefined 596.15 653.40 2.7697 4.0000 0.25000 596.15 653.40 2.7697 1.5583 1.7746 251.14 0.18615 8.5367 0.020086 4.0000 0.25000 596.15 653.40 2.7697 1.5583 1.7746 251.14 0.18615 8.5367 0.020086
41.375 33.325 undefined 597.71 655.15 2.7747 4.0000 0.25000 597.71 655.15 2.7747 1.5626 1.7787 251.54 0.18434 8.5637 0.020202 4.0000 0.25000 597.71 655.15 2.7747 1.5626 1.7787 251.54 0.18434 8.5637 0.020202
42.375 33.438 undefined 599.28 656.91 2.7797 4.0000 0.25000 599.28 656.91 2.7797 1.5670 1.7829 251.94 0.18256 8.5908 0.020318 4.0000 0.25000 599.28 656.91 2.7797 1.5670 1.7829 251.94 0.18256 8.5908 0.020318
43.375 33.552 undefined 600.85 658.68 2.7846 4.0000 0.25000 600.85 658.68 2.7846 1.5714 1.7870 252.34 0.18080 8.6178 0.020435 4.0000 0.25000 600.85 658.68 2.7846 1.5714 1.7870 252.34 0.18080 8.6178 0.020435
44.375 33.665 undefined 602.42 660.45 2.7896 4.0000 0.25000 602.42 660.45 2.7896 1.5757 1.7912 252.74 0.17907 8.6449 0.020551 4.0000 0.25000 602.42 660.45 2.7896 1.5757 1.7912 252.74 0.17907 8.6449 0.020551
45.375 33.778 undefined 604.00 662.22 2.7945 4.0000 0.25000 604.00 662.22 2.7945 1.5801 1.7954 253.14 0.17736 8.6719 0.020668 4.0000 0.25000 604.00 662.22 2.7945 1.5801 1.7954 253.14 0.17736 8.6719 0.020668
46.375 33.891 undefined 605.58 664.00 2.7995 4.0000 0.25000 605.58 664.00 2.7995 1.5845 1.7995 253.54 0.17567 8.6989 0.020786 4.0000 0.25000 605.58 664.00 2.7995 1.5845 1.7995 253.54 0.17567 8.6989 0.020786
47.375 34.005 undefined 607.17 665.78 2.8045 4.0000 0.25000 607.17 665.78 2.8045 1.5889 1.8037 253.93 0.17400 8.7258 0.020903 4.0000 0.25000 607.17 665.78 2.8045 1.5889 1.8037 253.93 0.17400 8.7258 0.020903
48.375 34.118 undefined 608.76 667.57 2.8094 4.0000 0.25000 608.76 667.57 2.8094 1.5933 1.8079 254.33 0.17235 8.7528 0.021021 4.0000 0.25000 608.76 667.57 2.8094 1.5933 1.8079 254.33 0.17235 8.7528 0.021021
49.375 34.231 undefined 610.35 669.36 2.8144 4.0000 0.25000 610.35 669.36 2.8144 1.5976 1.8121 254.72 0.17073 8.7798 0.021139 4.0000 0.25000 610.35 669.36 2.8144 1.5976 1.8121 254.72 0.17073 8.7798 0.021139
50.375 34.344 undefined 611.95 671.15 2.8193 4.0000 0.25000 611.95 671.15 2.8193 1.6020 1.8163 255.12 0.16913 8.8067 0.021258 4.0000 0.25000 611.95 671.15 2.8193 1.6020 1.8163 255.12 0.16913 8.8067 0.021258
51.375 34.457 undefined 613.56 672.95 2.8243 4.0000 0.25000 613.56 672.95 2.8243 1.6064 1.8206 255.51 0.16755 8.8336 0.021376 4.0000 0.25000 613.56 672.95 2.8243 1.6064 1.8206 255.51 0.16755 8.8336 0.021376
52.375 34.570 undefined 615.17 674.75 2.8292 4.0000 0.25000 615.17 674.75 2.8292 1.6108 1.8248 255.90 0.16598 8.8605 0.021495 4.0000 0.25000 615.17 674.75 2.8292 1.6108 1.8248 255.90 0.16598 8.8605 0.021495
53.375 34.683 undefined 616.78 676.56 2.8342 4.0000 0.25000 616.78 676.56 2.8342 1.6152 1.8290 256.29 0.16444 8.8874 0.021615 4.0000 0.25000 616.78 676.56 2.8342 1.6152 1.8290 256.29 0.16444 8.8874 0.021615
54.375 34.796 undefined 618.40 678.37 2.8391 4.0000 0.25000 618.40 678.37 2.8391 1.6196 1.8332 256.69 0.16292 8.9143 0.021734 4.0000 0.25000 618.40 678.37 2.8391 1.6196 1.8332 256.69 0.16292 8.9143 0.021734
55.375 34.909 undefined 620.02 680.19 2.8441 4.0000 0.25000 620.02 680.19 2.8441 1.6241 1.8375 257.08 0.16142 8.9412 0.021854 4.0000 0.25000 620.02 680.19 2.8441 1.6241 1.8375 257.08 0.16142 8.9412 0.021854
56.375 35.022 undefined 621.64 682.01 2.8490 4.0000 0.25000 621.64 682.01 2.8490 1.6285 1.8417 257.46 0.15994 8.9681 0.021974 4.0000 0.25000 621.64 682.01 2.8490 1.6285 1.8417 257.46 0.15994 8.9681 0.021974
57.375 35.135 undefined 623.28 683.84 2.8539 4.0000 0.25000 623.28 683.84 2.8539 1.6329 1.8460 257.85 0.15847 8.9949 0.022095 4.0000 0.25000 623.28 683.84 2.8539 1.6329 1.8460 257.85 0.15847 8.9949 0.022095
58.375 35.248 undefined 624.91 685.67 2.8589 4.0000 0.25000 624.91 685.67 2.8589 1.6373 1.8502 258.24 0.15703 9.0217 0.022216 4.0000 0.25000 624.91 685.67 2.8589 1.6373 1.8502 258.24 0.15703 9.0217 0.022216
59.375 35.361 undefined 626.55 687.50 2.8638 4.0000 0.25000 626.55 687.50 2.8638 1.6417 1.8545 258.63 0.15560 9.0485 0.022337 4.0000 0.25000 626.55 687.50 2.8638 1.6417 1.8545 258.63 0.15560 9.0485 0.022337
60.375 35.474 undefined 628.19 689.34 2.8688 4.0000 0.25000 628.19 689.34 2.8688 1.6462 1.8587 259.02 0.15419 9.0753 0.022458 4.0000 0.25000 628.19 689.34 2.8688 1.6462 1.8587 259.02 0.15419 9.0753 0.022458
61.375 35.587 undefined 629.84 691.18 2.8737 4.0000 0.25000 629.84 691.18 2.8737 1.6506 1.8630 259.40 0.15280 9.1021 0.022580 4.0000 0.25000 629.84 691.18 2.8737 1.6506 1.8630 259.40 0.15280 9.1021 0.022580
62.375 35.700 undefined 631.49 693.03 2.8786 4.0000 0.25000 631.49 693.03 2.8786 1.6550 1.8673 259.79 0.15143 9.1289 0.022702 4.0000 0.25000 631.49 693.03 2.8786 1.6550 1.8673 259.79 0.15143 9.1289 0.022702
63.375 35.813 undefined 633.15 694.88 2.8836 4.0000 0.25000 633.15 694.88 2.8836 1.6594 1.8715 260.17 0.15007 9.1557 0.022824 4.0000 0.25000 633.15 694.88 2.8836 1.6594 1.8715 260.17 0.15007 9.1557 0.022824
64.375 35.926 undefined 634.81 696.74 2.8885 4.0000 0.25000 634.81 696.74 2.8885 1.6639 1.8758 260.55 0.14874 9.1824 0.022947 4.0000 0.25000 634.81 696.74 2.8885 1.6639 1.8758 260.55 0.14874 9.1824 0.022947
65.375 36.038 undefined 636.48 698.60 2.8934 4.0000 0.25000 636.48 698.60 2.8934 1.6683 1.8801 260.94 0.14741 9.2091 0.023070 4.0000 0.25000 636.48 698.60 2.8934 1.6683 1.8801 260.94 0.14741 9.2091 0.023070
66.375 36.151 undefined 638.15 700.46 2.8983 4.0000 0.25000 638.15 700.46 2.8983 1.6728 1.8844 261.32 0.14611 9.2359 0.023193 4.0000 0.25000 638.15 700.46 2.8983 1.6728 1.8844 261.32 0.14611 9.2359 0.023193
67.375 36.264 undefined 639.83 702.33 2.9033 4.0000 0.25000 639.83 702.33 2.9033 1.6772 1.8887 261.70 0.14482 9.2626 0.023316 4.0000 0.25000 639.83 702.33 2.9033 1.6772 1.8887 261.70 0.14482 9.2626 0.023316
68.375 36.377 undefined 641.50 704.21 2.9082 4.0000 0.25000 641.50 704.21 2.9082 1.6816 1.8930 262.08 0.14355 9.2892 0.023440 4.0000 0.25000 641.50 704.21 2.9082 1.6816 1.8930 262.08 0.14355 9.2892 0.023440
69.375 36.489 undefined 643.19 706.09 2.9131 4.0000 0.25000 643.19 706.09 2.9131 1.6861 1.8973 262.46 0.14229 9.3159 0.023564 4.0000 0.25000 643.19 706.09 2.9131 1.6861 1.8973 262.46 0.14229 9.3159 0.023564
70.375 36.602 undefined 644.88 707.97 2.9180 4.0000 0.25000 644.88 707.97 2.9180 1.6905 1.9016 262.84 0.14105 9.3426 0.023688 4.0000 0.25000 644.88 707.97 2.9180 1.6905 1.9016 262.84 0.14105 9.3426 0.023688
71.375 36.715 undefined 646.57 709.85 2.9230 4.0000 0.25000 646.57 709.85 2.9230 1.6950 1.9059 263.22 0.13982 9.3692 0.023813 4.0000 0.25000 646.57 709.85 2.9230 1.6950 1.9059 263.22 0.13982 9.3692 0.023813
72.375 36.828 undefined 648.27 711.75 2.9279 4.0000 0.25000 648.27 711.75 2.9279 1.6994 1.9102 263.60 0.13861 9.3959 0.023938 4.0000 0.25000 648.27 711.75 2.9279 1.6994 1.9102 263.60 0.13861 9.3959 0.023938
73.375 36.940 undefined 649.97 713.64 2.9328 4.0000 0.25000 649.97 713.64 2.9328 1.7039 1.9145 263.98 0.13741 9.4225 0.024063 4.0000 0.25000 649.97 713.64 2.9328 1.7039 1.9145 263.98 0.13741 9.4225 0.024063
74.375 37.053 undefined 651.67 715.54 2.9377 4.0000 0.25000 651.67 715.54 2.9377 1.7083 1.9188 264.36 0.13623 9.4491 0.024188 4.0000 0.25000 651.67 715.54 2.9377 1.7083 1.9188 264.36 0.13623 9.4491 0.024188
75.375 37.165 undefined 653.39 717.45 2.9426 4.0000 0.25000 653.39 717.45 2.9426 1.7128 1.9231 264.73 0.13506 9.4757 0.024314 4.0000 0.25000 653.39 717.45 2.9426 1.7128 1.9231 264.73 0.13506 9.4757 0.024314
76.375 37.278 undefined 655.10 719.36 2.9475 4.0000 0.25000 655.10 719.36 2.9475 1.7172 1.9274 265.11 0.13391 9.5022 0.024440 4.0000 0.25000 655.10 719.36 2.9475 1.7172 1.9274 265.11 0.13391 9.5022 0.024440
77.375 37.391 undefined 656.82 721.27 2.9525 4.0000 0.25000 656.82 721.27 2.9525 1.7217 1.9317 265.48 0.13277 9.5288 0.024566 4.0000 0.25000 656.82 721.27 2.9525 1.7217 1.9317 265.48 0.13277 9.5288 0.024566
78.375 37.503 undefined 658.54 723.19 2.9574 4.0000 0.25000 658.54 723.19 2.9574 1.7261 1.9361 265.86 0.13164 9.5553 0.024693 4.0000 0.25000 658.54 723.19 2.9574 1.7261 1.9361 265.86 0.13164 9.5553 0.024693
79.375 37.616 undefined 660.27 725.11 2.9623 4.0000 0.25000 660.27 725.11 2.9623 1.7306 1.9404 266.23 0.13053 9.5819 0.024820 4.0000 0.25000 660.27 725.11 2.9623 1.7306 1.9404 266.23 0.13053 9.5819 0.024820
80.375 37.728 undefined 662.00 727.04 2.9672 4.0000 0.25000 662.00 727.04 2.9672 1.7350 1.9447 266.61 0.12943 9.6084 0.024947 4.0000 0.25000 662.00 727.04 2.9672 1.7350 1.9447 266.61 0.12943 9.6084 0.024947
81.375 37.841 undefined 663.74 728.97 2.9721 4.0000 0.25000 663.74 728.97 2.9721 1.7395 1.9490 266.98 0.12835 9.6349 0.025075 4.0000 0.25000 663.74 728.97 2.9721 1.7395 1.9490 266.98 0.12835 9.6349 0.025075
82.375 37.953 undefined 665.48 730.90 2.9770 4.0000 0.25000 665.48 730.90 2.9770 1.7439 1.9533 267.35 0.12727 9.6614 0.025202 4.0000 0.25000 665.48 730.90 2.9770 1.7439 1.9533 267.35 0.12727 9.6614 0.025202
83.375 38.066 undefined 667.23 732.84 2.9819 4.0000 0.25000 667.23 732.84 2.9819 1.7484 1.9577 267.72 0.12622 9.6878 0.025330 4.0000 0.25000 667.23 732.84 2.9819 1.7484 1.9577 267.72 0.12622 9.6878 0.025330
84.375 38.178 undefined 668.98 734.79 2.9868 4.0000 0.25000 668.98 734.79 2.9868 1.7528 1.9620 268.09 0.12517 9.7143 0.025459 4.0000 0.25000 668.98 734.79 2.9868 1.7528 1.9620 268.09 0.12517 9.7143 0.025459
85.375 38.291 undefined 670.74 736.74 2.9917 4.0000 0.25000 670.74 736.74 2.9917 1.7573 1.9663 268.47 0.12413 9.7407 0.025588 4.0000 0.25000 670.74 736.74 2.9917 1.7573 1.9663 268.47 0.12413 9.7407 0.025588
86.375 38.403 undefined 672.49 738.69 2.9966 4.0000 0.25000 672.49 738.69 2.9966 1.7617 1.9707 268.84 0.12311 9.7671 0.025716 4.0000 0.25000 672.49 738.69 2.9966 1.7617 1.9707 268.84 0.12311 9.7671 0.025716
87.375 38.515 undefined 674.26 740.65 3.0015 4.0000 0.25000 674.26 740.65 3.0015 1.7662 1.9750 269.20 0.12210 9.7936 0.025846 4.0000 0.25000 674.26 740.65 3.0015 1.7662 1.9750 269.20 0.12210 9.7936 0.025846
88.375 38.628 undefined 676.03 742.61 3.0064 4.0000 0.25000 676.03 742.61 3.0064 1.7707 1.9793 269.57 0.12110 9.8200 0.025975 4.0000 0.25000 676.03 742.61 3.0064 1.7707 1.9793 269.57 0.12110 9.8200 0.025975
89.375 38.740 undefined 677.80 744.58 3.0113 4.0000 0.25000 677.80 744.58 3.0113 1.7751 1.9837 269.94 0.12012 9.8463 0.026105 4.0000 0.25000 677.80 744.58 3.0113 1.7751 1.9837 269.94 0.12012 9.8463 0.026105
90.375 38.852 undefined 679.58 746.55 3.0162 4.0000 0.25000 679.58 746.55 3.0162 1.7796 1.9880 270.31 0.11914 9.8727 0.026235 4.0000 0.25000 679.58 746.55 3.0162 1.7796 1.9880 270.31 0.11914 9.8727 0.026235
91.375 38.965 undefined 681.36 748.52 3.0211 4.0000 0.25000 681.36 748.52 3.0211 1.7840 1.9923 270.68 0.11818 9.8990 0.026366 4.0000 0.25000 681.36 748.52 3.0211 1.7840 1.9923 270.68 0.11818 9.8990 0.026366
92.375 39.077 undefined 683.15 750.50 3.0260 4.0000 0.25000 683.15 750.50 3.0260 1.7885 1.9967 271.04 0.11723 9.9254 0.026496 4.0000 0.25000 683.15 750.50 3.0260 1.7885 1.9967 271.04 0.11723 9.9254 0.026496
93.375 39.189 undefined 684.94 752.49 3.0309 4.0000 0.25000 684.94 752.49 3.0309 1.7929 2.0010 271.41 0.11628 9.9517 0.026627 4.0000 0.25000 684.94 752.49 3.0309 1.7929 2.0010 271.41 0.11628 9.9517 0.026627
94.375 39.302 undefined 686.73 754.48 3.0358 4.0000 0.25000 686.73 754.48 3.0358 1.7974 2.0054 271.77 0.11535 9.9780 0.026759 4.0000 0.25000 686.73 754.48 3.0358 1.7974 2.0054 271.77 0.11535 9.9780 0.026759
95.375 39.414 undefined 688.53 756.47 3.0407 4.0000 0.25000 688.53 756.47 3.0407 1.8018 2.0097 272.14 0.11443 10.004 0.026890 4.0000 0.25000 688.53 756.47 3.0407 1.8018 2.0097 272.14 0.11443 10.004 0.026890
96.375 39.526 undefined 690.33 758.47 3.0456 4.0000 0.25000 690.33 758.47 3.0456 1.8063 2.0140 272.50 0.11352 10.031 0.027022 4.0000 0.25000 690.33 758.47 3.0456 1.8063 2.0140 272.50 0.11352 10.031 0.027022
97.375 39.639 undefined 692.14 760.47 3.0504 4.0000 0.25000 692.14 760.47 3.0504 1.8107 2.0184 272.87 0.11263 10.057 0.027154 4.0000 0.25000 692.14 760.47 3.0504 1.8107 2.0184 272.87 0.11263 10.057 0.027154
98.375 39.751 undefined 693.96 762.47 3.0553 4.0000 0.25000 693.96 762.47 3.0553 1.8152 2.0227 273.23 0.11174 10.083 0.027287 4.0000 0.25000 693.96 762.47 3.0553 1.8152 2.0227 273.23 0.11174 10.083 0.027287
99.375 39.863 undefined 695.77 764.49 3.0602 4.0000 0.25000 695.77 764.49 3.0602 1.8196 2.0270 273.59 0.11086 10.109 0.027420 4.0000 0.25000 695.77 764.49 3.0602 1.8196 2.0270 273.59 0.11086 10.109 0.027420
100.38 39.975 undefined 697.60 766.50 3.0651 4.0000 0.25000 697.60 766.50 3.0651 1.8240 2.0314 273.96 0.10999 10.136 0.027553 4.0000 0.25000 697.60 766.50 3.0651 1.8240 2.0314 273.96 0.10999 10.136 0.027553
101.38 40.087 undefined 699.42 768.52 3.0700 4.0000 0.25000 699.42 768.52 3.0700 1.8285 2.0357 274.32 0.10913 10.162 0.027686 4.0000 0.25000 699.42 768.52 3.0700 1.8285 2.0357 274.32 0.10913 10.162 0.027686
102.38 40.200 undefined 701.25 770.54 3.0749 4.0000 0.25000 701.25 770.54 3.0749 1.8329 2.0401 274.68 0.10829 10.188 0.027820 4.0000 0.25000 701.25 770.54 3.0749 1.8329 2.0401 274.68 0.10829 10.188 0.027820
103.38 40.312 undefined 703.09 772.57 3.0797 4.0000 0.25000 703.09 772.57 3.0797 1.8374 2.0444 275.04 0.10745 10.214 0.027954 4.0000 0.25000 703.09 772.57 3.0797 1.8374 2.0444 275.04 0.10745 10.214 0.027954
104.38 40.424 undefined 704.93 774.61 3.0846 4.0000 0.25000 704.93 774.61 3.0846 1.8418 2.0487 275.40 0.10662 10.240 0.028088 4.0000 0.25000 704.93 774.61 3.0846 1.8418 2.0487 275.40 0.10662 10.240 0.028088
105.38 40.536 undefined 706.77 776.64 3.0895 4.0000 0.25000 706.77 776.64 3.0895 1.8462 2.0531 275.76 0.10580 10.266 0.028222 4.0000 0.25000 706.77 776.64 3.0895 1.8462 2.0531 275.76 0.10580 10.266 0.028222
106.38 40.648 undefined 708.62 778.68 3.0944 4.0000 0.25000 708.62 778.68 3.0944 1.8507 2.0574 276.12 0.10499 10.292 0.028357 4.0000 0.25000 708.62 778.68 3.0944 1.8507 2.0574 276.12 0.10499 10.292 0.028357
107.38 40.760 undefined 710.47 780.73 3.0993 4.0000 0.25000 710.47 780.73 3.0993 1.8551 2.0617 276.48 0.10418 10.319 0.028492 4.0000 0.25000 710.47 780.73 3.0993 1.8551 2.0617 276.48 0.10418 10.319 0.028492
108.38 40.872 undefined 712.33 782.78 3.1041 4.0000 0.25000 712.33 782.78 3.1041 1.8595 2.0661 276.83 0.10339 10.345 0.028627 4.0000 0.25000 712.33 782.78 3.1041 1.8595 2.0661 276.83 0.10339 10.345 0.028627
109.38 40.985 undefined 714.19 784.84 3.1090 4.0000 0.25000 714.19 784.84 3.1090 1.8640 2.0704 277.19 0.10261 10.371 0.028763 4.0000 0.25000 714.19 784.84 3.1090 1.8640 2.0704 277.19 0.10261 10.371 0.028763
110.38 41.097 undefined 716.06 786.90 3.1139 4.0000 0.25000 716.06 786.90 3.1139 1.8684 2.0747 277.55 0.10183 10.397 0.028899 4.0000 0.25000 716.06 786.90 3.1139 1.8684 2.0747 277.55 0.10183 10.397 0.028899
111.38 41.209 undefined 717.93 788.96 3.1187 4.0000 0.25000 717.93 788.96 3.1187 1.8728 2.0791 277.91 0.10107 10.423 0.029035 4.0000 0.25000 717.93 788.96 3.1187 1.8728 2.0791 277.91 0.10107 10.423 0.029035
112.38 41.321 undefined 719.80 791.03 3.1236 4.0000 0.25000 719.80 791.03 3.1236 1.8772 2.0834 278.26 0.10031 10.449 0.029172 4.0000 0.25000 719.80 791.03 3.1236 1.8772 2.0834 278.26 0.10031 10.449 0.029172
113.38 41.433 undefined 721.68 793.10 3.1285 4.0000 0.25000 721.68 793.10 3.1285 1.8817 2.0877 278.62 0.099558 10.475 0.029309 4.0000 0.25000 721.68 793.10 3.1285 1.8817 2.0877 278.62 0.099558 10.475 0.029309
114.38 41.545 undefined 723.57 795.18 3.1333 4.0000 0.25000 723.57 795.18 3.1333 1.8861 2.0921 278.97 0.098816 10.501 0.029446 4.0000 0.25000 723.57 795.18 3.1333 1.8861 2.0921 278.97 0.098816 10.501 0.029446
115.38 41.657 undefined 725.46 797.26 3.1382 4.0000 0.25000 725.46 797.26 3.1382 1.8905 2.0964 279.33 0.098082 10.527 0.029583 4.0000 0.25000 725.46 797.26 3.1382 1.8905 2.0964 279.33 0.098082 10.527 0.029583
116.38 41.769 undefined 727.35 799.34 3.1431 4.0000 0.25000 727.35 799.34 3.1431 1.8949 2.1007 279.68 0.097357 10.553 0.029721 4.0000 0.25000 727.35 799.34 3.1431 1.8949 2.1007 279.68 0.097357 10.553 0.029721
117.38 41.881 undefined 729.24 801.43 3.1479 4.0000 0.25000 729.24 801.43 3.1479 1.8993 2.1050 280.03 0.096639 10.579 0.029859 4.0000 0.25000 729.24 801.43 3.1479 1.8993 2.1050 280.03 0.096639 10.579 0.029859
118.38 41.993 undefined 731.15 803.53 3.1528 4.0000 0.25000 731.15 803.53 3.1528 1.9037 2.1094 280.39 0.095929 10.605 0.029997 4.0000 0.25000 731.15 803.53 3.1528 1.9037 2.1094 280.39 0.095929 10.605 0.029997
119.38 42.105 undefined 733.05 805.63 3.1577 4.0000 0.25000 733.05 805.63 3.1577 1.9081 2.1137 280.74 0.095227 10.631 0.030136 4.0000 0.25000 733.05 805.63 3.1577 1.9081 2.1137 280.74 0.095227 10.631 0.030136
120.38 42.217 undefined 734.96 807.73 3.1625 4.0000 0.25000 734.96 807.73 3.1625 1.9125 2.1180 281.09 0.094532 10.657 0.030275 4.0000 0.25000 734.96 807.73 3.1625 1.9125 2.1180 281.09 0.094532 10.657 0.030275
121.38 42.329 undefined 736.88 809.84 3.1674 4.0000 0.25000 736.88 809.84 3.1674 1.9169 2.1223 281.44 0.093845 10.682 0.030414 4.0000 0.25000 736.88 809.84 3.1674 1.9169 2.1223 281.44 0.093845 10.682 0.030414
122.38 42.441 undefined 738.80 811.95 3.1722 4.0000 0.25000 738.80 811.95 3.1722 1.9213 2.1266 281.80 0.093165 10.708 0.030553 4.0000 0.25000 738.80 811.95 3.1722 1.9213 2.1266 281.80 0.093165 10.708 0.030553
123.38 42.553 undefined 740.72 814.07 3.1771 4.0000 0.25000 740.72 814.07 3.1771 1.9257 2.1309 282.15 0.092493 10.734 0.030693 4.0000 0.25000 740.72 814.07 3.1771 1.9257 2.1309 282.15 0.092493 10.734 0.030693
124.38 42.665 undefined 742.65 816.19 3.1820 4.0000 0.25000 742.65 816.19 3.1820 1.9301 2.1353 282.50 0.091827 10.760 0.030833 4.0000 0.25000 742.65 816.19 3.1820 1.9301 2.1353 282.50 0.091827 10.760 0.030833
125.38 42.777 undefined 744.58 818.31 3.1868 4.0000 0.25000 744.58 818.31 3.1868 1.9345 2.1396 282.85 0.091169 10.786 0.030974 4.0000 0.25000 744.58 818.31 3.1868 1.9345 2.1396 282.85 0.091169 10.786 0.030974
126.38 42.889 undefined 746.52 820.44 3.1917 4.0000 0.25000 746.52 820.44 3.1917 1.9389 2.1439 283.20 0.090518 10.812 0.031114 4.0000 0.25000 746.52 820.44 3.1917 1.9389 2.1439 283.20 0.090518 10.812 0.031114
127.38 43.001 undefined 748.46 822.58 3.1965 4.0000 0.25000 748.46 822.58 3.1965 1.9433 2.1482 283.55 0.089873 10.837 0.031255 4.0000 0.25000 748.46 822.58 3.1965 1.9433 2.1482 283.55 0.089873 10.837 0.031255
128.38 43.112 undefined 750.40 824.72 3.2014 4.0000 0.25000 750.40 824.72 3.2014 1.9477 2.1525 283.89 0.089236 10.863 0.031396 4.0000 0.25000 750.40 824.72 3.2014 1.9477 2.1525 283.89 0.089236 10.863 0.031396
129.38 43.224 undefined 752.35 826.86 3.2062 4.0000 0.25000 752.35 826.86 3.2062 1.9520 2.1568 284.24 0.088605 10.889 0.031538 4.0000 0.25000 752.35 826.86 3.2062 1.9520 2.1568 284.24 0.088605 10.889 0.031538
130.38 43.336 undefined 754.31 829.01 3.2111 4.0000 0.25000 754.31 829.01 3.2111 1.9564 2.1611 284.59 0.087980 10.915 0.031680 4.0000 0.25000 754.31 829.01 3.2111 1.9564 2.1611 284.59 0.087980 10.915 0.031680
131.38 43.448 undefined 756.27 831.16 3.2159 4.0000 0.25000 756.27 831.16 3.2159 1.9608 2.1654 284.94 0.087362 10.940 0.031822 4.0000 0.25000 756.27 831.16 3.2159 1.9608 2.1654 284.94 0.087362 10.940 0.031822
132.38 43.560 undefined 758.23 833.31 3.2208 4.0000 0.25000 758.23 833.31 3.2208 1.9652 2.1697 285.28 0.086751 10.966 0.031964 4.0000 0.25000 758.23 833.31 3.2208 1.9652 2.1697 285.28 0.086751 10.966 0.031964
133.38 43.672 undefined 760.20 835.47 3.2256 4.0000 0.25000 760.20 835.47 3.2256 1.9695 2.1740 285.63 0.086146 10.992 0.032107 4.0000 0.25000 760.20 835.47 3.2256 1.9695 2.1740 285.63 0.086146 10.992 0.032107
134.38 43.784 undefined 762.17 837.64 3.2305 4.0000 0.25000 762.17 837.64 3.2305 1.9739 2.1782 285.98 0.085547 11.018 0.032250 4.0000 0.25000 762.17 837.64 3.2305 1.9739 2.1782 285.98 0.085547 11.018 0.032250
135.38 43.895 undefined 764.14 839.81 3.2353 4.0000 0.25000 764.14 839.81 3.2353 1.9782 2.1825 286.32 0.084954 11.043 0.032393 4.0000 0.25000 764.14 839.81 3.2353 1.9782 2.1825 286.32 0.084954 11.043 0.032393
136.38 44.007 undefined 766.12 841.98 3.2401 4.0000 0.25000 766.12 841.98 3.2401 1.9826 2.1868 286.67 0.084368 11.069 0.032537 4.0000 0.25000 766.12 841.98 3.2401 1.9826 2.1868 286.67 0.084368 11.069 0.032537
137.38 44.119 undefined 768.11 844.16 3.2450 4.0000 0.25000 768.11 844.16 3.2450 1.9870 2.1911 287.01 0.083787 11.095 0.032680 4.0000 0.25000 768.11 844.16 3.2450 1.9870 2.1911 287.01 0.083787 11.095 0.032680
138.38 44.231 undefined 770.10 846.34 3.2498 4.0000 0.25000 770.10 846.34 3.2498 1.9913 2.1954 287.35 0.083212 11.120 0.032825 4.0000 0.25000 770.10 846.34 3.2498 1.9913 2.1954 287.35 0.083212 11.120 0.032825
139.38 44.343 undefined 772.09 848.53 3.2547 4.0000 0.25000 772.09 848.53 3.2547 1.9956 2.1996 287.70 0.082643 11.146 0.032969 4.0000 0.25000 772.09 848.53 3.2547 1.9956 2.1996 287.70 0.082643 11.146 0.032969
140.38 44.454 undefined 774.09 850.72 3.2595 4.0000 0.25000 774.09 850.72 3.2595 2.0000 2.2039 288.04 0.082080 11.171 0.033114 4.0000 0.25000 774.09 850.72 3.2595 2.0000 2.2039 288.04 0.082080 11.171 0.033114
141.38 44.566 undefined 776.09 852.91 3.2643 4.0000 0.25000 776.09 852.91 3.2643 2.0043 2.2082 288.38 0.081523 11.197 0.033259 4.0000 0.25000 776.09 852.91 3.2643 2.0043 2.2082 288.38 0.081523 11.197 0.033259
142.38 44.678 undefined 778.10 855.11 3.2692 4.0000 0.25000 778.10 855.11 3.2692 2.0087 2.2124 288.73 0.080971 11.222 0.033404 4.0000 0.25000 778.10 855.11 3.2692 2.0087 2.2124 288.73 0.080971 11.222 0.033404
143.38 44.790 undefined 780.11 857.31 3.2740 4.0000 0.25000 780.11 857.31 3.2740 2.0130 2.2167 289.07 0.080425 11.248 0.033550 4.0000 0.25000 780.11 857.31 3.2740 2.0130 2.2167 289.07 0.080425 11.248 0.033550
144.38 44.902 undefined 782.12 859.52 3.2788 4.0000 0.25000 782.12 859.52 3.2788 2.0173 2.2210 289.41 0.079885 11.273 0.033695 4.0000 0.25000 782.12 859.52 3.2788 2.0173 2.2210 289.41 0.079885 11.273 0.033695
145.38 45.013 undefined 784.14 861.73 3.2837 4.0000 0.25000 784.14 861.73 3.2837 2.0216 2.2252 289.75 0.079349 11.299 0.033842 4.0000 0.25000 784.14 861.73 3.2837 2.0216 2.2252 289.75 0.079349 11.299 0.033842
146.38 45.125 undefined 786.17 863.95 3.2885 4.0000 0.25000 786.17 863.95 3.2885 2.0260 2.2295 290.09 0.078819 11.324 0.033988 4.0000 0.25000 786.17 863.95 3.2885 2.0260 2.2295 290.09 0.078819 11.324 0.033988
147.38 45.237 undefined 788.20 866.17 3.2933 4.0000 0.25000 788.20 866.17 3.2933 2.0303 2.2337 290.43 0.078295 11.350 0.034135 4.0000 0.25000 788.20 866.17 3.2933 2.0303 2.2337 290.43 0.078295 11.350 0.034135
148.38 45.349 undefined 790.23 868.40 3.2981 4.0000 0.25000 790.23 868.40 3.2981 2.0346 2.2380 290.77 0.077775 11.375 0.034282 4.0000 0.25000 790.23 868.40 3.2981 2.0346 2.2380 290.77 0.077775 11.375 0.034282
149.38 45.460 undefined 792.27 870.62 3.3030 4.0000 0.25000 792.27 870.62 3.3030 2.0389 2.2422 291.11 0.077261 11.401 0.034429 4.0000 0.25000 792.27 870.62 3.3030 2.0389 2.2422 291.11 0.077261 11.401 0.034429
150.38 45.572 undefined 794.31 872.86 3.3078 4.0000 0.25000 794.31 872.86 3.3078 2.0432 2.2464 291.45 0.076752 11.426 0.034577 4.0000 0.25000 794.31 872.86 3.3078 2.0432 2.2464 291.45 0.076752 11.426 0.034577
151.38 45.684 undefined 796.35 875.10 3.3126 4.0000 0.25000 796.35 875.10 3.3126 2.0475 2.2507 291.79 0.076247 11.452 0.034725 4.0000 0.25000 796.35 875.10 3.3126 2.0475 2.2507 291.79 0.076247 11.452 0.034725
152.38 45.795 undefined 798.40 877.34 3.3174 4.0000 0.25000 798.40 877.34 3.3174 2.0518 2.2549 292.13 0.075748 11.477 0.034873 4.0000 0.25000 798.40 877.34 3.3174 2.0518 2.2549 292.13 0.075748 11.477 0.034873
153.38 45.907 undefined 800.46 879.58 3.3223 4.0000 0.25000 800.46 879.58 3.3223 2.0561 2.2591 292.46 0.075253 11.502 0.035021 4.0000 0.25000 800.46 879.58 3.3223 2.0561 2.2591 292.46 0.075253 11.502 0.035021
154.38 46.019 undefined 802.51 881.84 3.3271 4.0000 0.25000 802.51 881.84 3.3271 2.0604 2.2634 292.80 0.074764 11.528 0.035170 4.0000 0.25000 802.51 881.84 3.3271 2.0604 2.2634 292.80 0.074764 11.528 0.035170
155.38 46.130 undefined 804.58 884.09 3.3319 4.0000 0.25000 804.58 884.09 3.3319 2.0646 2.2676 293.14 0.074279 11.553 0.035319 4.0000 0.25000 804.58 884.09 3.3319 2.0646 2.2676 293.14 0.074279 11.553 0.035319
156.38 46.242 undefined 806.64 886.35 3.3367 4.0000 0.25000 806.64 886.35 3.3367 2.0689 2.2718 293.48 0.073799 11.578 0.035469 4.0000 0.25000 806.64 886.35 3.3367 2.0689 2.2718 293.48 0.073799 11.578 0.035469
157.38 46.354 undefined 808.71 888.61 3.3415 4.0000 0.25000 808.71 888.61 3.3415 2.0732 2.2760 293.81 0.073323 11.604 0.035618 4.0000 0.25000 808.71 888.61 3.3415 2.0732 2.2760 293.81 0.073323 11.604 0.035618
158.38 46.465 undefined 810.79 890.88 3.3464 4.0000 0.25000 810.79 890.88 3.3464 2.0775 2.2802 294.15 0.072852 11.629 0.035768 4.0000 0.25000 810.79 890.88 3.3464 2.0775 2.2802 294.15 0.072852 11.629 0.035768
159.38 46.577 undefined 812.87 893.15 3.3512 4.0000 0.25000 812.87 893.15 3.3512 2.0817 2.2844 294.48 0.072385 11.654 0.035919 4.0000 0.25000 812.87 893.15 3.3512 2.0817 2.2844 294.48 0.072385 11.654 0.035919
160.38 46.689 undefined 814.95 895.43 3.3560 4.0000 0.25000 814.95 895.43 3.3560 2.0860 2.2886 294.82 0.071923 11.679 0.036069 4.0000 0.25000 814.95 895.43 3.3560 2.0860 2.2886 294.82 0.071923 11.679 0.036069
161.38 46.800 undefined 817.04 897.71 3.3608 4.0000 0.25000 817.04 897.71 3.3608 2.0902 2.2928 295.15 0.071466 11.705 0.036220 4.0000 0.25000 817.04 897.71 3.3608 2.0902 2.2928 295.15 0.071466 11.705 0.036220
162.38 46.912 undefined 819.13 899.99 3.3656 4.0000 0.25000 819.13 899.99 3.3656 2.0945 2.2970 295.49 0.071012 11.730 0.036371 4.0000 0.25000 819.13 899.99 3.3656 2.0945 2.2970 295.49 0.071012 11.730 0.036371
163.38 47.024 undefined 821.23 902.28 3.3704 4.0000 0.25000 821.23 902.28 3.3704 2.0987 2.3012 295.82 0.070563 11.755 0.036522 4.0000 0.25000 821.23 902.28 3.3704 2.0987 2.3012 295.82 0.070563 11.755 0.036522
164.38 47.135 undefined 823.33 904.58 3.3752 4.0000 0.25000 823.33 904.58 3.3752 2.1030 2.3054 296.15 0.070118 11.780 0.036674 4.0000 0.25000 823.33 904.58 3.3752 2.1030 2.3054 296.15 0.070118 11.780 0.036674
165.38 47.247 undefined 825.44 906.87 3.3800 4.0000 0.25000 825.44 906.87 3.3800 2.1072 2.3096 296.49 0.069678 11.805 0.036826 4.0000 0.25000 825.44 906.87 3.3800 2.1072 2.3096 296.49 0.069678 11.805 0.036826
166.38 47.358 undefined 827.54 909.18 3.3848 4.0000 0.25000 827.54 909.18 3.3848 2.1114 2.3137 296.82 0.069241 11.831 0.036978 4.0000 0.25000 827.54 909.18 3.3848 2.1114 2.3137 296.82 0.069241 11.831 0.036978
167.38 47.470 undefined 829.66 911.48 3.3896 4.0000 0.25000 829.66 911.48 3.3896 2.1157 2.3179 297.15 0.068809 11.856 0.037131 4.0000 0.25000 829.66 911.48 3.3896 2.1157 2.3179 297.15 0.068809 11.856 0.037131
168.38 47.582 undefined 831.78 913.79 3.3944 4.0000 0.25000 831.78 913.79 3.3944 2.1199 2.3221 297.48 0.068380 11.881 0.037284 4.0000 0.25000 831.78 913.79 3.3944 2.1199 2.3221 297.48 0.068380 11.881 0.037284
169.38 47.693 undefined 833.90 916.11 3.3992 4.0000 0.25000 833.90 916.11 3.3992 2.1241 2.3262 297.82 0.067956 11.906 0.037437 4.0000 0.25000 833.90 916.11 3.3992 2.1241 2.3262 297.82 0.067956 11.906 0.037437
170.38 47.805 undefined 836.02 918.42 3.4040 4.0000 0.25000 836.02 918.42 3.4040 2.1283 2.3304 298.15 0.067535 11.931 0.037591 4.0000 0.25000 836.02 918.42 3.4040 2.1283 2.3304 298.15 0.067535 11.931 0.037591
171.38 47.916 undefined 838.15 920.75 3.4088 4.0000 0.25000 838.15 920.75 3.4088 2.1325 2.3346 298.48 0.067118 11.956 0.037744 4.0000 0.25000 838.15 920.75 3.4088 2.1325 2.3346 298.48 0.067118 11.956 0.037744
172.38 48.028 undefined 840.29 923.07 3.4136 4.0000 0.25000 840.29 923.07 3.4136 2.1367 2.3387 298.81 0.066706 11.981 0.037898 4.0000 0.25000 840.29 923.07 3.4136 2.1367 2.3387 298.81 0.066706 11.981 0.037898
173.38 48.139 undefined 842.43 925.41 3.4184 4.0000 0.25000 842.43 925.41 3.4184 2.1409 2.3429 299.14 0.066297 12.006 0.038053 4.0000 0.25000 842.43 925.41 3.4184 2.1409 2.3429 299.14 0.066297 12.006 0.038053
174.38 48.251 undefined 844.57 927.74 3.4232 4.0000 0.25000 844.57 927.74 3.4232 2.1451 2.3470 299.47 0.065891 12.031 0.038207 4.0000 0.25000 844.57 927.74 3.4232 2.1451 2.3470 299.47 0.065891 12.031 0.038207
175.38 48.363 undefined 846.72 930.08 3.4280 4.0000 0.25000 846.72 930.08 3.4280 2.1493 2.3511 299.80 0.065490 12.056 0.038362 4.0000 0.25000 846.72 930.08 3.4280 2.1493 2.3511 299.80 0.065490 12.056 0.038362
176.38 48.474 undefined 848.87 932.42 3.4328 4.0000 0.25000 848.87 932.42 3.4328 2.1535 2.3553 300.13 0.065092 12.081 0.038517 4.0000 0.25000 848.87 932.42 3.4328 2.1535 2.3553 300.13 0.065092 12.081 0.038517
177.38 48.586 undefined 851.03 934.77 3.4376 4.0000 0.25000 851.03 934.77 3.4376 2.1577 2.3594 300.46 0.064697 12.106 0.038673 4.0000 0.25000 851.03 934.77 3.4376 2.1577 2.3594 300.46 0.064697 12.106 0.038673
178.38 48.697 undefined 853.19 937.12 3.4424 4.0000 0.25000 853.19 937.12 3.4424 2.1619 2.3635 300.78 0.064306 12.131 0.038829 4.0000 0.25000 853.19 937.12 3.4424 2.1619 2.3635 300.78 0.064306 12.131 0.038829
179.38 48.809 undefined 855.35 939.48 3.4472 4.0000 0.25000 855.35 939.48 3.4472 2.1660 2.3677 301.11 0.063919 12.156 0.038985 4.0000 0.25000 855.35 939.48 3.4472 2.1660 2.3677 301.11 0.063919 12.156 0.038985
180.38 48.920 undefined 857.52 941.84 3.4520 4.0000 0.25000 857.52 941.84 3.4520 2.1702 2.3718 301.44 0.063535 12.181 0.039141 4.0000 0.25000 857.52 941.84 3.4520 2.1702 2.3718 301.44 0.063535 12.181 0.039141
181.38 49.032 undefined 859.69 944.21 3.4567 4.0000 0.25000 859.69 944.21 3.4567 2.1744 2.3759 301.77 0.063155 12.206 0.039298 4.0000 0.25000 859.69 944.21 3.4567 2.1744 2.3759 301.77 0.063155 12.206 0.039298
182.38 49.143 undefined 861.87 946.57 3.4615 4.0000 0.25000 861.87 946.57 3.4615 2.1785 2.3800 302.09 0.062778 12.231 0.039455 4.0000 0.25000 861.87 946.57 3.4615 2.1785 2.3800 302.09 0.062778 12.231 0.039455
183.38 49.255 undefined 864.05 948.95 3.4663 4.0000 0.25000 864.05 948.95 3.4663 2.1827 2.3841 302.42 0.062404 12.256 0.039612 4.0000 0.25000 864.05 948.95 3.4663 2.1827 2.3841 302.42 0.062404 12.256 0.039612
184.38 49.366 undefined 866.23 951.32 3.4711 4.0000 0.25000 866.23 951.32 3.4711 2.1868 2.3882 302.75 0.062034 12.280 0.039770 4.0000 0.25000 866.23 951.32 3.4711 2.1868 2.3882 302.75 0.062034 12.280 0.039770
185.38 49.478 undefined 868.42 953.70 3.4759 4.0000 0.25000 868.42 953.70 3.4759 2.1910 2.3923 303.07 0.061666 12.305 0.039927 4.0000 0.25000 868.42 953.70 3.4759 2.1910 2.3923 303.07 0.061666 12.305 0.039927
186.38 49.589 undefined 870.61 956.09 3.4806 4.0000 0.25000 870.61 956.09 3.4806 2.1951 2.3964 303.40 0.061302 12.330 0.040086 4.0000 0.25000 870.61 956.09 3.4806 2.1951 2.3964 303.40 0.061302 12.330 0.040086
187.38 49.701 undefined 872.81 958.48 3.4854 4.0000 0.25000 872.81 958.48 3.4854 2.1992 2.4005 303.72 0.060942 12.355 0.040244 4.0000 0.25000 872.81 958.48 3.4854 2.1992 2.4005 303.72 0.060942 12.355 0.040244
188.38 49.812 undefined 875.01 960.87 3.4902 4.0000 0.25000 875.01 960.87 3.4902 2.2034 2.4045 304.05 0.060584 12.380 0.040403 4.0000 0.25000 875.01 960.87 3.4902 2.2034 2.4045 304.05 0.060584 12.380 0.040403
189.38 49.924 undefined 877.22 963.27 3.4950 4.0000 0.25000 877.22 963.27 3.4950 2.2075 2.4086 304.37 0.060230 12.404 0.040562 4.0000 0.25000 877.22 963.27 3.4950 2.2075 2.4086 304.37 0.060230 12.404 0.040562
190.38 50.035 undefined 879.43 965.67 3.4997 4.0000 0.25000 879.43 965.67 3.4997 2.2116 2.4127 304.70 0.059878 12.429 0.040721 4.0000 0.25000 879.43 965.67 3.4997 2.2116 2.4127 304.70 0.059878 12.429 0.040721
191.38 50.147 undefined 881.64 968.08 3.5045 4.0000 0.25000 881.64 968.08 3.5045 2.2157 2.4168 305.02 0.059530 12.454 0.040881 4.0000 0.25000 881.64 968.08 3.5045 2.2157 2.4168 305.02 0.059530 12.454 0.040881
192.38 50.258 undefined 883.86 970.49 3.5093 4.0000 0.25000 883.86 970.49 3.5093 2.2198 2.4208 305.34 0.059185 12.478 0.041040 4.0000 0.25000 883.86 970.49 3.5093 2.2198 2.4208 305.34 0.059185 12.478 0.041040
193.38 50.370 undefined 886.08 972.90 3.5140 4.0000 0.25000 886.08 972.90 3.5140 2.2239 2.4249 305.67 0.058842 12.503 0.041201 4.0000 0.25000 886.08 972.90 3.5140 2.2239 2.4249 305.67 0.058842 12.503 0.041201
194.38 50.481 undefined 888.31 975.32 3.5188 4.0000 0.25000 888.31 975.32 3.5188 2.2280 2.4289 305.99 0.058503 12.528 0.041361 4.0000 0.25000 888.31 975.32 3.5188 2.2280 2.4289 305.99 0.058503 12.528 0.041361
195.38 50.593 undefined 890.54 977.74 3.5236 4.0000 0.25000 890.54 977.74 3.5236 2.2321 2.4330 306.31 0.058166 12.552 0.041522 4.0000 0.25000 890.54 977.74 3.5236 2.2321 2.4330 306.31 0.058166 12.552 0.041522
196.38 50.704 undefined 892.77 980.17 3.5283 4.0000 0.25000 892.77 980.17 3.5283 2.2362 2.4370 306.63 0.057833 12.577 0.041683 4.0000 0.25000 892.77 980.17 3.5283 2.2362 2.4370 306.63 0.057833 12.577 0.041683
197.38 50.815 undefined 895.01 982.60 3.5331 4.0000 0.25000 895.01 982.60 3.5331 2.2403 2.4410 306.95 0.057502 12.602 0.041844 4.0000 0.25000 895.01 982.60 3.5331 2.2403 2.4410 306.95 0.057502 12.602 0.041844
198.38 50.927 undefined 897.25 985.03 3.5379 4.0000 0.25000 897.25 985.03 3.5379 2.2443 2.4451 307.28 0.057174 12.626 0.042006 4.0000 0.25000 897.25 985.03 3.5379 2.2443 2.4451 307.28 0.057174 12.626 0.042006
199.38 51.038 undefined 899.50 987.47 3.5426 4.0000 0.25000 899.50 987.47 3.5426 2.2484 2.4491 307.60 0.056848 12.651 0.042168 4.0000 0.25000 899.50 987.47 3.5426 2.2484 2.4491 307.60 0.056848 12.651 0.042168
200.38 51.150 undefined 901.75 989.91 3.5474 4.0000 0.25000 901.75 989.91 3.5474 2.2525 2.4531 307.92 0.056526 12.675 0.042330 4.0000 0.25000 901.75 989.91 3.5474 2.2525 2.4531 307.92 0.056526 12.675 0.042330
201.38 51.261 undefined 904.00 992.36 3.5521 4.0000 0.25000 904.00 992.36 3.5521 2.2565 2.4571 308.24 0.056206 12.700 0.042492 4.0000 0.25000 904.00 992.36 3.5521 2.2565 2.4571 308.24 0.056206 12.700 0.042492
202.38 51.373 undefined 906.26 994.81 3.5569 4.0000 0.25000 906.26 994.81 3.5569 2.2606 2.4612 308.56 0.055889 12.724 0.042655 4.0000 0.25000 906.26 994.81 3.5569 2.2606 2.4612 308.56 0.055889 12.724 0.042655
203.38 51.484 undefined 908.52 997.27 3.5616 4.0000 0.25000 908.52 997.27 3.5616 2.2646 2.4652 308.88 0.055574 12.749 0.042818 4.0000 0.25000 908.52 997.27 3.5616 2.2646 2.4652 308.88 0.055574 12.749 0.042818
204.38 51.595 undefined 910.79 999.72 3.5664 4.0000 0.25000 910.79 999.72 3.5664 2.2687 2.4692 309.20 0.055263 12.773 0.042982 4.0000 0.25000 910.79 999.72 3.5664 2.2687 2.4692 309.20 0.055263 12.773 0.042982
205.38 51.707 undefined 913.06 1002.2 3.5711 4.0000 0.25000 913.06 1002.2 3.5711 2.2727 2.4732 309.52 0.054953 12.798 0.043145 4.0000 0.25000 913.06 1002.2 3.5711 2.2727 2.4732 309.52 0.054953 12.798 0.043145
206.38 51.818 undefined 915.34 1004.7 3.5759 4.0000 0.25000 915.34 1004.7 3.5759 2.2767 2.4772 309.83 0.054646 12.822 0.043309 4.0000 0.25000 915.34 1004.7 3.5759 2.2767 2.4772 309.83 0.054646 12.822 0.043309
207.38 51.930 undefined 917.61 1007.1 3.5806 4.0000 0.25000 917.61 1007.1 3.5806 2.2808 2.4811 310.15 0.054342 12.847 0.043473 4.0000 0.25000 917.61 1007.1 3.5806 2.2808 2.4811 310.15 0.054342 12.847 0.043473
208.38 52.041 undefined 919.90 1009.6 3.5854 4.0000 0.25000 919.90 1009.6 3.5854 2.2848 2.4851 310.47 0.054040 12.871 0.043638 4.0000 0.25000 919.90 1009.6 3.5854 2.2848 2.4851 310.47 0.054040 12.871 0.043638
209.38 52.152 undefined 922.18 1012.1 3.5901 4.0000 0.25000 922.18 1012.1 3.5901 2.2888 2.4891 310.79 0.053741 12.896 0.043803 4.0000 0.25000 922.18 1012.1 3.5901 2.2888 2.4891 310.79 0.053741 12.896 0.043803
210.38 52.264 undefined 924.47 1014.6 3.5949 4.0000 0.25000 924.47 1014.6 3.5949 2.2928 2.4931 311.11 0.053444 12.920 0.043968 4.0000 0.25000 924.47 1014.6 3.5949 2.2928 2.4931 311.11 0.053444 12.920 0.043968
211.38 52.375 undefined 926.77 1017.0 3.5996 4.0000 0.25000 926.77 1017.0 3.5996 2.2968 2.4970 311.42 0.053150 12.944 0.044133 4.0000 0.25000 926.77 1017.0 3.5996 2.2968 2.4970 311.42 0.053150 12.944 0.044133
212.38 52.487 undefined 929.07 1019.5 3.6043 4.0000 0.25000 929.07 1019.5 3.6043 2.3008 2.5010 311.74 0.052858 12.969 0.044299 4.0000 0.25000 929.07 1019.5 3.6043 2.3008 2.5010 311.74 0.052858 12.969 0.044299
213.38 52.598 undefined 931.37 1022.0 3.6091 4.0000 0.25000 931.37 1022.0 3.6091 2.3048 2.5050 312.06 0.052568 12.993 0.044465 4.0000 0.25000 931.37 1022.0 3.6091 2.3048 2.5050 312.06 0.052568 12.993 0.044465
214.38 52.709 undefined 933.68 1024.5 3.6138 4.0000 0.25000 933.68 1024.5 3.6138 2.3088 2.5089 312.37 0.052281 13.017 0.044631 4.0000 0.25000 933.68 1024.5 3.6138 2.3088 2.5089 312.37 0.052281 13.017 0.044631
215.38 52.821 undefined 935.99 1027.0 3.6186 4.0000 0.25000 935.99 1027.0 3.6186 2.3128 2.5129 312.69 0.051996 13.042 0.044798 4.0000 0.25000 935.99 1027.0 3.6186 2.3128 2.5129 312.69 0.051996 13.042 0.044798
216.38 52.932 undefined 938.30 1029.5 3.6233 4.0000 0.25000 938.30 1029.5 3.6233 2.3168 2.5168 313.00 0.051713 13.066 0.044965 4.0000 0.25000 938.30 1029.5 3.6233 2.3168 2.5168 313.00 0.051713 13.066 0.044965
217.38 53.043 undefined 940.62 1032.1 3.6280 4.0000 0.25000 940.62 1032.1 3.6280 2.3208 2.5207 313.32 0.051432 13.090 0.045132 4.0000 0.25000 940.62 1032.1 3.6280 2.3208 2.5207 313.32 0.051432 13.090 0.045132
218.38 53.155 undefined 942.94 1034.6 3.6328 4.0000 0.25000 942.94 1034.6 3.6328 2.3247 2.5247 313.63 0.051154 13.114 0.045299 4.0000 0.25000 942.94 1034.6 3.6328 2.3247 2.5247 313.63 0.051154 13.114 0.045299
219.38 53.266 undefined 945.27 1037.1 3.6375 4.0000 0.25000 945.27 1037.1 3.6375 2.3287 2.5286 313.95 0.050878 13.139 0.045467 4.0000 0.25000 945.27 1037.1 3.6375 2.3287 2.5286 313.95 0.050878 13.139 0.045467
220.38 53.378 undefined 947.60 1039.6 3.6422 4.0000 0.25000 947.60 1039.6 3.6422 2.3326 2.5325 314.26 0.050604 13.163 0.045635 4.0000 0.25000 947.60 1039.6 3.6422 2.3326 2.5325 314.26 0.050604 13.163 0.045635
221.38 53.489 undefined 949.94 1042.1 3.6469 4.0000 0.25000 949.94 1042.1 3.6469 2.3366 2.5364 314.58 0.050332 13.187 0.045804 4.0000 0.25000 949.94 1042.1 3.6469 2.3366 2.5364 314.58 0.050332 13.187 0.045804
222.38 53.600 undefined 952.28 1044.7 3.6517 4.0000 0.25000 952.28 1044.7 3.6517 2.3405 2.5403 314.89 0.050063 13.211 0.045972 4.0000 0.25000 952.28 1044.7 3.6517 2.3405 2.5403 314.89 0.050063 13.211 0.045972
223.38 53.712 undefined 954.62 1047.2 3.6564 4.0000 0.25000 954.62 1047.2 3.6564 2.3445 2.5442 315.20 0.049795 13.235 0.046141 4.0000 0.25000 954.62 1047.2 3.6564 2.3445 2.5442 315.20 0.049795 13.235 0.046141
224.38 53.823 undefined 956.96 1049.7 3.6611 4.0000 0.25000 956.96 1049.7 3.6611 2.3484 2.5481 315.52 0.049530 13.259 0.046310 4.0000 0.25000 956.96 1049.7 3.6611 2.3484 2.5481 315.52 0.049530 13.259 0.046310
225.38 53.934 undefined 959.31 1052.3 3.6658 4.0000 0.25000 959.31 1052.3 3.6658 2.3524 2.5520 315.83 0.049267 13.284 0.046480 4.0000 0.25000 959.31 1052.3 3.6658 2.3524 2.5520 315.83 0.049267 13.284 0.046480
226.38 54.046 undefined 961.67 1054.8 3.6705 4.0000 0.25000 961.67 1054.8 3.6705 2.3563 2.5559 316.14 0.049005 13.308 0.046650 4.0000 0.25000 961.67 1054.8 3.6705 2.3563 2.5559 316.14 0.049005 13.308 0.046650
227.38 54.157 undefined 964.03 1057.4 3.6753 4.0000 0.25000 964.03 1057.4 3.6753 2.3602 2.5598 316.45 0.048746 13.332 0.046820 4.0000 0.25000 964.03 1057.4 3.6753 2.3602 2.5598 316.45 0.048746 13.332 0.046820
228.38 54.268 undefined 966.39 1059.9 3.6800 4.0000 0.25000 966.39 1059.9 3.6800 2.3641 2.5637 316.76 0.048489 13.356 0.046990 4.0000 0.25000 966.39 1059.9 3.6800 2.3641 2.5637 316.76 0.048489 13.356 0.046990
229.38 54.380 undefined 968.76 1062.5 3.6847 4.0000 0.25000 968.76 1062.5 3.6847 2.3680 2.5676 317.08 0.048234 13.380 0.047161 4.0000 0.25000 968.76 1062.5 3.6847 2.3680 2.5676 317.08 0.048234 13.380 0.047161
230.38 54.491 undefined 971.13 1065.1 3.6894 4.0000 0.25000 971.13 1065.1 3.6894 2.3719 2.5714 317.39 0.047980 13.404 0.047332 4.0000 0.25000 971.13 1065.1 3.6894 2.3719 2.5714 317.39 0.047980 13.404 0.047332
231.38 54.602 undefined 973.50 1067.6 3.6941 4.0000 0.25000 973.50 1067.6 3.6941 2.3758 2.5753 317.70 0.047729 13.428 0.047503 4.0000 0.25000 973.50 1067.6 3.6941 2.3758 2.5753 317.70 0.047729 13.428 0.047503
232.38 54.713 undefined 975.88 1070.2 3.6988 4.0000 0.25000 975.88 1070.2 3.6988 2.3797 2.5792 318.01 0.047479 13.452 0.047674 4.0000 0.25000 975.88 1070.2 3.6988 2.3797 2.5792 318.01 0.047479 13.452 0.047674
233.38 54.825 undefined 978.26 1072.8 3.7035 4.0000 0.25000 978.26 1072.8 3.7035 2.3836 2.5830 318.32 0.047232 13.476 0.047846 4.0000 0.25000 978.26 1072.8 3.7035 2.3836 2.5830 318.32 0.047232 13.476 0.047846
234.38 54.936 undefined 980.64 1075.3 3.7082 4.0000 0.25000 980.64 1075.3 3.7082 2.3875 2.5869 318.63 0.046986 13.500 0.048018 4.0000 0.25000 980.64 1075.3 3.7082 2.3875 2.5869 318.63 0.046986 13.500 0.048018
235.38 55.047 undefined 983.03 1077.9 3.7129 4.0000 0.25000 983.03 1077.9 3.7129 2.3914 2.5907 318.94 0.046742 13.524 0.048191 4.0000 0.25000 983.03 1077.9 3.7129 2.3914 2.5907 318.94 0.046742 13.524 0.048191
236.38 55.159 undefined 985.43 1080.5 3.7176 4.0000 0.25000 985.43 1080.5 3.7176 2.3952 2.5945 319.25 0.046500 13.547 0.048363 4.0000 0.25000 985.43 1080.5 3.7176 2.3952 2.5945 319.25 0.046500 13.547 0.048363
237.38 55.270 undefined 987.82 1083.1 3.7223 4.0000 0.25000 987.82 1083.1 3.7223 2.3991 2.5984 319.56 0.046260 13.571 0.048536 4.0000 0.25000 987.82 1083.1 3.7223 2.3991 2.5984 319.56 0.046260 13.571 0.048536
238.38 55.381 undefined 990.23 1085.7 3.7270 4.0000 0.25000 990.23 1085.7 3.7270 2.4030 2.6022 319.87 0.046022 13.595 0.048710 4.0000 0.25000 990.23 1085.7 3.7270 2.4030 2.6022 319.87 0.046022 13.595 0.048710
239.38 55.493 undefined 992.63 1088.3 3.7317 4.0000 0.25000 992.63 1088.3 3.7317 2.4068 2.6060 320.17 0.045785 13.619 0.048883 4.0000 0.25000 992.63 1088.3 3.7317 2.4068 2.6060 320.17 0.045785 13.619 0.048883
240.38 55.604 undefined 995.04 1090.9 3.7364 4.0000 0.25000 995.04 1090.9 3.7364 2.4107 2.6098 320.48 0.045550 13.643 0.049057 4.0000 0.25000 995.04 1090.9 3.7364 2.4107 2.6098 320.48 0.045550 13.643 0.049057
241.38 55.715 undefined 997.45 1093.5 3.7411 4.0000 0.25000 997.45 1093.5 3.7411 2.4145 2.6136 320.79 0.045317 13.667 0.049231 4.0000 0.25000 997.45 1093.5 3.7411 2.4145 2.6136 320.79 0.045317 13.667 0.049231
242.38 55.826 undefined 999.87 1096.1 3.7458 4.0000 0.25000 999.87 1096.1 3.7458 2.4183 2.6174 321.10 0.045086 13.691 0.049406 4.0000 0.25000 999.87 1096.1 3.7458 2.4183 2.6174 321.10 0.045086 13.691 0.049406
243.38 55.938 undefined 1002.3 1098.7 3.7505 4.0000 0.25000 1002.3 1098.7 3.7505 2.4222 2.6212 321.40 0.044856 13.714 0.049580 4.0000 0.25000 1002.3 1098.7 3.7505 2.4222 2.6212 321.40 0.044856 13.714 0.049580
244.38 56.049 undefined 1004.7 1101.3 3.7552 4.0000 0.25000 1004.7 1101.3 3.7552 2.4260 2.6250 321.71 0.044628 13.738 0.049755 4.0000 0.25000 1004.7 1101.3 3.7552 2.4260 2.6250 321.71 0.044628 13.738 0.049755
245.38 56.160 undefined 1007.1 1103.9 3.7599 4.0000 0.25000 1007.1 1103.9 3.7599 2.4298 2.6288 322.02 0.044402 13.762 0.049931 4.0000 0.25000 1007.1 1103.9 3.7599 2.4298 2.6288 322.02 0.044402 13.762 0.049931
246.38 56.272 undefined 1009.6 1106.6 3.7646 4.0000 0.25000 1009.6 1106.6 3.7646 2.4336 2.6326 322.32 0.044177 13.786 0.050106 4.0000 0.25000 1009.6 1106.6 3.7646 2.4336 2.6326 322.32 0.044177 13.786 0.050106
247.38 56.383 undefined 1012.0 1109.2 3.7692 4.0000 0.25000 1012.0 1109.2 3.7692 2.4374 2.6364 322.63 0.043954 13.809 0.050282 4.0000 0.25000 1012.0 1109.2 3.7692 2.4374 2.6364 322.63 0.043954 13.809 0.050282
248.38 56.494 undefined 1014.4 1111.8 3.7739 4.0000 0.25000 1014.4 1111.8 3.7739 2.4413 2.6402 322.94 0.043733 13.833 0.050458 4.0000 0.25000 1014.4 1111.8 3.7739 2.4413 2.6402 322.94 0.043733 13.833 0.050458
249.38 56.605 undefined 1016.9 1114.5 3.7786 4.0000 0.25000 1016.9 1114.5 3.7786 2.4451 2.6439 323.24 0.043513 13.857 0.050635 4.0000 0.25000 1016.9 1114.5 3.7786 2.4451 2.6439 323.24 0.043513 13.857 0.050635
250.38 56.717 undefined 1019.3 1117.1 3.7833 4.0000 0.25000 1019.3 1117.1 3.7833 2.4488 2.6477 323.55 0.043295 13.880 0.050812 4.0000 0.25000 1019.3 1117.1 3.7833 2.4488 2.6477 323.55 0.043295 13.880 0.050812
251.38 56.828 undefined 1021.8 1119.7 3.7880 4.0000 0.25000 1021.8 1119.7 3.7880 2.4526 2.6515 323.85 0.043078 13.904 0.050989 4.0000 0.25000 1021.8 1119.7 3.7880 2.4526 2.6515 323.85 0.043078 13.904 0.050989
252.38 56.939 undefined 1024.2 1122.4 3.7926 4.0000 0.25000 1024.2 1122.4 3.7926 2.4564 2.6552 324.16 0.042863 13.927 0.051166 4.0000 0.25000 1024.2 1122.4 3.7926 2.4564 2.6552 324.16 0.042863 13.927 0.051166
253.38 57.050 undefined 1026.7 1125.0 3.7973 4.0000 0.25000 1026.7 1125.0 3.7973 2.4602 2.6590 324.46 0.042649 13.951 0.051344 4.0000 0.25000 1026.7 1125.0 3.7973 2.4602 2.6590 324.46 0.042649 13.951 0.051344
254.38 57.162 undefined 1029.2 1127.7 3.8020 4.0000 0.25000 1029.2 1127.7 3.8020 2.4640 2.6627 324.77 0.042437 13.975 0.051522 4.0000 0.25000 1029.2 1127.7 3.8020 2.4640 2.6627 324.77 0.042437 13.975 0.051522
255.38 57.273 undefined 1031.6 1130.3 3.8066 4.0000 0.25000 1031.6 1130.3 3.8066 2.4677 2.6664 325.07 0.042227 13.998 0.051700 4.0000 0.25000 1031.6 1130.3 3.8066 2.4677 2.6664 325.07 0.042227 13.998 0.051700
256.38 57.384 undefined 1034.1 1133.0 3.8113 4.0000 0.25000 1034.1 1133.0 3.8113 2.4715 2.6702 325.37 0.042018 14.022 0.051879 4.0000 0.25000 1034.1 1133.0 3.8113 2.4715 2.6702 325.37 0.042018 14.022 0.051879
257.38 57.495 undefined 1036.6 1135.7 3.8160 4.0000 0.25000 1036.6 1135.7 3.8160 2.4753 2.6739 325.68 0.041810 14.045 0.052057 4.0000 0.25000 1036.6 1135.7 3.8160 2.4753 2.6739 325.68 0.041810 14.045 0.052057
258.38 57.607 undefined 1039.0 1138.3 3.8206 4.0000 0.25000 1039.0 1138.3 3.8206 2.4790 2.6776 325.98 0.041604 14.069 0.052236 4.0000 0.25000 1039.0 1138.3 3.8206 2.4790 2.6776 325.98 0.041604 14.069 0.052236
259.38 57.718 undefined 1041.5 1141.0 3.8253 4.0000 0.25000 1041.5 1141.0 3.8253 2.4827 2.6813 326.28 0.041400 14.092 0.052416 4.0000 0.25000 1041.5 1141.0 3.8253 2.4827 2.6813 326.28 0.041400 14.092 0.052416
260.38 57.829 undefined 1044.0 1143.7 3.8300 4.0000 0.25000 1044.0 1143.7 3.8300 2.4865 2.6850 326.58 0.041197 14.116 0.052596 4.0000 0.25000 1044.0 1143.7 3.8300 2.4865 2.6850 326.58 0.041197 14.116 0.052596
261.38 57.940 undefined 1046.5 1146.4 3.8346 4.0000 0.25000 1046.5 1146.4 3.8346 2.4902 2.6888 326.89 0.040995 14.139 0.052776 4.0000 0.25000 1046.5 1146.4 3.8346 2.4902 2.6888 326.89 0.040995 14.139 0.052776
262.38 58.051 undefined 1049.0 1149.1 3.8393 4.0000 0.25000 1049.0 1149.1 3.8393 2.4939 2.6925 327.19 0.040795 14.162 0.052956 4.0000 0.25000 1049.0 1149.1 3.8393 2.4939 2.6925 327.19 0.040795 14.162 0.052956
263.38 58.163 undefined 1051.5 1151.7 3.8439 4.0000 0.25000 1051.5 1151.7 3.8439 2.4977 2.6962 327.49 0.040596 14.186 0.053136 4.0000 0.25000 1051.5 1151.7 3.8439 2.4977 2.6962 327.49 0.040596 14.186 0.053136
264.38 58.274 undefined 1054.0 1154.4 3.8486 4.0000 0.25000 1054.0 1154.4 3.8486 2.5014 2.6998 327.79 0.040398 14.209 0.053317 4.0000 0.25000 1054.0 1154.4 3.8486 2.5014 2.6998 327.79 0.040398 14.209 0.053317
265.38 58.385 undefined 1056.5 1157.1 3.8533 4.0000 0.25000 1056.5 1157.1 3.8533 2.5051 2.7035 328.09 0.040202 14.233 0.053498 4.0000 0.25000 1056.5 1157.1 3.8533 2.5051 2.7035 328.09 0.040202 14.233 0.053498
266.38 58.496 undefined 1059.0 1159.8 3.8579 4.0000 0.25000 1059.0 1159.8 3.8579 2.5088 2.7072 328.39 0.040007 14.256 0.053680 4.0000 0.25000 1059.0 1159.8 3.8579 2.5088 2.7072 328.39 0.040007 14.256 0.053680
267.38 58.608 undefined 1061.5 1162.5 3.8626 4.0000 0.25000 1061.5 1162.5 3.8626 2.5125 2.7109 328.69 0.039814 14.279 0.053862 4.0000 0.25000 1061.5 1162.5 3.8626 2.5125 2.7109 328.69 0.039814 14.279 0.053862
268.38 58.719 undefined 1064.0 1165.2 3.8672 4.0000 0.25000 1064.0 1165.2 3.8672 2.5162 2.7145 328.99 0.039622 14.303 0.054044 4.0000 0.25000 1064.0 1165.2 3.8672 2.5162 2.7145 328.99 0.039622 14.303 0.054044
269.38 58.830 undefined 1066.5 1167.9 3.8718 4.0000 0.25000 1066.5 1167.9 3.8718 2.5199 2.7182 329.29 0.039431 14.326 0.054226 4.0000 0.25000 1066.5 1167.9 3.8718 2.5199 2.7182 329.29 0.039431 14.326 0.054226
270.38 58.941 undefined 1069.1 1170.7 3.8765 4.0000 0.25000 1069.1 1170.7 3.8765 2.5236 2.7219 329.59 0.039241 14.349 0.054409 4.0000 0.25000 1069.1 1170.7 3.8765 2.5236 2.7219 329.59 0.039241 14.349 0.054409
271.38 59.052 undefined 1071.6 1173.4 3.8811 4.0000 0.25000 1071.6 1173.4 3.8811 2.5273 2.7255 329.89 0.039053 14.372 0.054591 4.0000 0.25000 1071.6 1173.4 3.8811 2.5273 2.7255 329.89 0.039053 14.372 0.054591
272.38 59.164 undefined 1074.1 1176.1 3.8858 4.0000 0.25000 1074.1 1176.1 3.8858 2.5309 2.7292 330.19 0.038866 14.396 0.054775 4.0000 0.25000 1074.1 1176.1 3.8858 2.5309 2.7292 330.19 0.038866 14.396 0.054775
273.38 59.275 undefined 1076.7 1178.8 3.8904 4.0000 0.25000 1076.7 1178.8 3.8904 2.5346 2.7328 330.49 0.038680 14.419 0.054958 4.0000 0.25000 1076.7 1178.8 3.8904 2.5346 2.7328 330.49 0.038680 14.419 0.054958
274.38 59.386 undefined 1079.2 1181.6 3.8950 4.0000 0.25000 1079.2 1181.6 3.8950 2.5383 2.7365 330.79 0.038496 14.442 0.055142 4.0000 0.25000 1079.2 1181.6 3.8950 2.5383 2.7365 330.79 0.038496 14.442 0.055142
275.38 59.497 undefined 1081.7 1184.3 3.8997 4.0000 0.25000 1081.7 1184.3 3.8997 2.5419 2.7401 331.09 0.038313 14.465 0.055326 4.0000 0.25000 1081.7 1184.3 3.8997 2.5419 2.7401 331.09 0.038313 14.465 0.055326
276.38 59.608 undefined 1084.3 1187.0 3.9043 4.0000 0.25000 1084.3 1187.0 3.9043 2.5456 2.7437 331.39 0.038131 14.488 0.055510 4.0000 0.25000 1084.3 1187.0 3.9043 2.5456 2.7437 331.39 0.038131 14.488 0.055510
277.38 59.720 undefined 1086.8 1189.8 3.9089 4.0000 0.25000 1086.8 1189.8 3.9089 2.5492 2.7473 331.68 0.037950 14.511 0.055695 4.0000 0.25000 1086.8 1189.8 3.9089 2.5492 2.7473 331.68 0.037950 14.511 0.055695
278.38 59.831 undefined 1089.4 1192.5 3.9136 4.0000 0.25000 1089.4 1192.5 3.9136 2.5529 2.7510 331.98 0.037771 14.535 0.055880 4.0000 0.25000 1089.4 1192.5 3.9136 2.5529 2.7510 331.98 0.037771 14.535 0.055880
279.38 59.942 undefined 1091.9 1195.2 3.9182 4.0000 0.25000 1091.9 1195.2 3.9182 2.5565 2.7546 332.28 0.037592 14.558 0.056065 4.0000 0.25000 1091.9 1195.2 3.9182 2.5565 2.7546 332.28 0.037592 14.558 0.056065
280.38 60.053 undefined 1094.5 1198.0 3.9228 4.0000 0.25000 1094.5 1198.0 3.9228 2.5601 2.7582 332.58 0.037415 14.581 0.056251 4.0000 0.25000 1094.5 1198.0 3.9228 2.5601 2.7582 332.58 0.037415 14.581 0.056251
281.38 60.164 undefined 1097.0 1200.8 3.9275 4.0000 0.25000 1097.0 1200.8 3.9275 2.5638 2.7618 332.87 0.037239 14.604 0.056436 4.0000 0.25000 1097.0 1200.8 3.9275 2.5638 2.7618 332.87 0.037239 14.604 0.056436
282.38 60.276 undefined 1099.6 1203.5 3.9321 4.0000 0.25000 1099.6 1203.5 3.9321 2.5674 2.7654 333.17 0.037064 14.627 0.056622 4.0000 0.25000 1099.6 1203.5 3.9321 2.5674 2.7654 333.17 0.037064 14.627 0.056622
283.38 60.387 undefined 1102.2 1206.3 3.9367 4.0000 0.25000 1102.2 1206.3 3.9367 2.5710 2.7690 333.47 0.036891 14.650 0.056809 4.0000 0.25000 1102.2 1206.3 3.9367 2.5710 2.7690 333.47 0.036891 14.650 0.056809
284.38 60.498 undefined 1104.8 1209.0 3.9413 4.0000 0.25000 1104.8 1209.0 3.9413 2.5746 2.7725 333.76 0.036718 14.673 0.056995 4.0000 0.25000 1104.8 1209.0 3.9413 2.5746 2.7725 333.76 0.036718 14.673 0.056995
285.38 60.609 undefined 1107.3 1211.8 3.9459 4.0000 0.25000 1107.3 1211.8 3.9459 2.5782 2.7761 334.06 0.036547 14.696 0.057182 4.0000 0.25000 1107.3 1211.8 3.9459 2.5782 2.7761 334.06 0.036547 14.696 0.057182
286.38 60.720 undefined 1109.9 1214.6 3.9505 4.0000 0.25000 1109.9 1214.6 3.9505 2.5818 2.7797 334.35 0.036377 14.719 0.057370 4.0000 0.25000 1109.9 1214.6 3.9505 2.5818 2.7797 334.35 0.036377 14.719 0.057370
287.38 60.831 undefined 1112.5 1217.3 3.9552 4.0000 0.25000 1112.5 1217.3 3.9552 2.5854 2.7833 334.65 0.036207 14.742 0.057557 4.0000 0.25000 1112.5 1217.3 3.9552 2.5854 2.7833 334.65 0.036207 14.742 0.057557
288.38 60.943 undefined 1115.1 1220.1 3.9598 4.0000 0.25000 1115.1 1220.1 3.9598 2.5890 2.7868 334.94 0.036039 14.765 0.057745 4.0000 0.25000 1115.1 1220.1 3.9598 2.5890 2.7868 334.94 0.036039 14.765 0.057745
289.38 61.054 undefined 1117.7 1222.9 3.9644 4.0000 0.25000 1117.7 1222.9 3.9644 2.5926 2.7904 335.24 0.035873 14.788 0.057933 4.0000 0.25000 1117.7 1222.9 3.9644 2.5926 2.7904 335.24 0.035873 14.788 0.057933
290.38 61.165 undefined 1120.3 1225.7 3.9690 4.0000 0.25000 1120.3 1225.7 3.9690 2.5962 2.7939 335.53 0.035707 14.810 0.058122 4.0000 0.25000 1120.3 1225.7 3.9690 2.5962 2.7939 335.53 0.035707 14.810 0.058122
291.38 61.276 undefined 1122.9 1228.5 3.9736 4.0000 0.25000 1122.9 1228.5 3.9736 2.5998 2.7975 335.83 0.035542 14.833 0.058311 4.0000 0.25000 1122.9 1228.5 3.9736 2.5998 2.7975 335.83 0.035542 14.833 0.058311
292.38 61.387 undefined 1125.5 1231.3 3.9782 4.0000 0.25000 1125.5 1231.3 3.9782 2.6033 2.8010 336.12 0.035378 14.856 0.058500 4.0000 0.25000 1125.5 1231.3 3.9782 2.6033 2.8010 336.12 0.035378 14.856 0.058500
293.38 61.498 undefined 1128.1 1234.1 3.9828 4.0000 0.25000 1128.1 1234.1 3.9828 2.6069 2.8046 336.41 0.035215 14.879 0.058689 4.0000 0.25000 1128.1 1234.1 3.9828 2.6069 2.8046 336.41 0.035215 14.879 0.058689
294.38 61.610 undefined 1130.7 1236.9 3.9874 4.0000 0.25000 1130.7 1236.9 3.9874 2.6104 2.8081 336.71 0.035054 14.902 0.058878 4.0000 0.25000 1130.7 1236.9 3.9874 2.6104 2.8081 336.71 0.035054 14.902 0.058878
295.38 61.721 undefined 1133.3 1239.7 3.9920 4.0000 0.25000 1133.3 1239.7 3.9920 2.6140 2.8116 337.00 0.034893 14.925 0.059068 4.0000 0.25000 1133.3 1239.7 3.9920 2.6140 2.8116 337.00 0.034893 14.925 0.059068
296.38 61.832 undefined 1135.9 1242.5 3.9966 4.0000 0.25000 1135.9 1242.5 3.9966 2.6175 2.8152 337.29 0.034734 14.947 0.059259 4.0000 0.25000 1135.9 1242.5 3.9966 2.6175 2.8152 337.29 0.034734 14.947 0.059259
297.38 61.943 undefined 1138.5 1245.3 4.0012 4.0000 0.25000 1138.5 1245.3 4.0012 2.6211 2.8187 337.59 0.034575 14.970 0.059449 4.0000 0.25000 1138.5 1245.3 4.0012 2.6211 2.8187 337.59 0.034575 14.970 0.059449
298.38 62.054 undefined 1141.1 1248.1 4.0058 4.0000 0.25000 1141.1 1248.1 4.0058 2.6246 2.8222 337.88 0.034418 14.993 0.059640 4.0000 0.25000 1141.1 1248.1 4.0058 2.6246 2.8222 337.88 0.034418 14.993 0.059640
299.38 62.165 undefined 1143.8 1250.9 4.0104 4.0000 0.25000 1143.8 1250.9 4.0104 2.6282 2.8257 338.17 0.034261 15.016 0.059831 4.0000 0.25000 1143.8 1250.9 4.0104 2.6282 2.8257 338.17 0.034261 15.016 0.059831
300.38 62.276 undefined 1146.4 1253.8 4.0150 4.0000 0.25000 1146.4 1253.8 4.0150 2.6317 2.8292 338.46 0.034105 15.038 0.060022 4.0000 0.25000 1146.4 1253.8 4.0150 2.6317 2.8292 338.46 0.034105 15.038 0.060022