Temperature (C) Pressure (psia) Quality (l+v) Internal Energy (l+v, kJ/kg) Enthalpy (l+v, kJ/kg) Entropy (l+v, J/g*K) Density (l, kg/m3) Volume (l, m3/kg) Internal Energy (l, kJ/kg) Enthalpy (l, kJ/kg) Entropy (l, J/g*K) Cv (l, J/g*K) Cp (l, J/g*K) Sound Spd. (l, m/s) Joule-Thomson (l, F/psia) Viscosity (l, uPa*s) Therm. Cond. (l, W/m*K) Density (v, kg/m3) Volume (v, m3/kg) Internal Energy (v, kJ/kg) Enthalpy (v, kJ/kg) Entropy (v, J/g*K) Cv (v, J/g*K) Cp (v, J/g*K) Sound Spd. (v, m/s) Joule-Thomson (v, F/psia) Viscosity (v, uPa*s) Therm. Cond. (v, W/m*K)
-187.62 2.4953e-08 2.2253e-10 -196.64 -196.64 -1.3959 733.13 0.0013640 -196.64 -196.64 -1.3959 1.3553 1.9158 2136.4 -0.0077592 10960. 0.20792 1.0669e-08 9.3732e+07 350.13 366.26 5.1858 0.69067 0.87923 143.28 6.1051 2.3259 0.0017061
-186.62 3.7339e-08 3.2911e-10 -194.73 -194.73 -1.3736 732.08 0.0013660 -194.73 -194.73 -1.3736 1.3539 1.9166 2129.6 -0.0077546 10073. 0.20765 1.5780e-08 6.3371e+07 350.82 367.14 5.1200 0.69462 0.88317 144.03 5.9178 2.3534 0.0017533
-185.62 5.5322e-08 4.8199e-10 -192.81 -192.81 -1.3516 731.04 0.0013679 -192.81 -192.81 -1.3516 1.3525 1.9174 2122.9 -0.0077498 9276.1 0.20737 2.3112e-08 4.3267e+07 351.52 368.02 5.0561 0.69857 0.88713 144.77 5.7383 2.3808 0.0018007
-184.62 8.1182e-08 6.9925e-10 -190.89 -190.89 -1.3298 730.00 0.0013699 -190.89 -190.89 -1.3298 1.3513 1.9182 2116.1 -0.0077448 8557.8 0.20708 3.3533e-08 2.9821e+07 352.22 368.91 4.9939 0.70253 0.89108 145.51 5.5662 2.4083 0.0018485
-183.62 1.1803e-07 1.0052e-09 -188.97 -188.97 -1.3083 728.96 0.0013718 -188.97 -188.97 -1.3083 1.3501 1.9191 2109.3 -0.0077395 7909.8 0.20678 4.8211e-08 2.0742e+07 352.92 369.81 4.9333 0.70648 0.89504 146.24 5.4011 2.4357 0.0018965
-182.62 1.7009e-07 1.4324e-09 -187.05 -187.05 -1.2869 727.92 0.0013738 -187.05 -187.05 -1.2869 1.3490 1.9201 2102.5 -0.0077340 7324.3 0.20647 6.8704e-08 1.4555e+07 353.63 370.70 4.8744 0.71043 0.89899 146.97 5.2426 2.4632 0.0019448
-181.62 2.4299e-07 2.0237e-09 -185.13 -185.13 -1.2658 726.88 0.0013757 -185.13 -185.13 -1.2658 1.3480 1.9210 2095.7 -0.0077283 6794.5 0.20616 9.7079e-08 1.0301e+07 354.35 371.60 4.8170 0.71438 0.90294 147.69 5.0904 2.4906 0.0019934
-180.62 3.4425e-07 2.8358e-09 -183.21 -183.21 -1.2450 725.85 0.0013777 -183.21 -183.21 -1.2450 1.3470 1.9220 2088.9 -0.0077225 6314.4 0.20584 1.3605e-07 7.3504e+06 355.06 372.51 4.7612 0.71833 0.90688 148.41 4.9442 2.5181 0.0020423
-179.62 4.8378e-07 3.9423e-09 -181.29 -181.29 -1.2243 724.81 0.0013797 -181.29 -181.29 -1.2243 1.3461 1.9231 2082.0 -0.0077164 5878.8 0.20551 1.8915e-07 5.2868e+06 355.78 373.42 4.7068 0.72227 0.91082 149.13 4.8038 2.5456 0.0020915
-178.62 6.7459e-07 5.4386e-09 -179.37 -179.37 -1.2038 723.78 0.0013816 -179.37 -179.37 -1.2038 1.3453 1.9241 2075.2 -0.0077102 5482.9 0.20517 2.6096e-07 3.8320e+06 356.51 374.33 4.6538 0.72620 0.91475 149.84 4.6688 2.5731 0.0021410
-177.62 9.3358e-07 7.4471e-09 -177.44 -177.44 -1.1836 722.75 0.0013836 -177.44 -177.44 -1.1836 1.3445 1.9252 2068.4 -0.0077039 5122.6 0.20483 3.5737e-07 2.7982e+06 357.23 375.25 4.6022 0.73012 0.91867 150.54 4.5390 2.6005 0.0021907
-176.62 1.2826e-06 1.0124e-08 -175.52 -175.52 -1.1635 721.72 0.0013856 -175.52 -175.52 -1.1635 1.3437 1.9263 2061.5 -0.0076973 4794.1 0.20447 4.8588e-07 2.0581e+06 357.97 376.17 4.5519 0.73403 0.92258 151.25 4.4142 2.6280 0.0022408
-175.62 1.7496e-06 1.3668e-08 -173.59 -173.59 -1.1437 720.69 0.0013876 -173.59 -173.59 -1.1437 1.3430 1.9274 2054.7 -0.0076907 4494.3 0.20411 6.5601e-07 1.5244e+06 358.70 377.09 4.5029 0.73792 0.92648 151.95 4.2941 2.6555 0.0022912
-174.62 2.3705e-06 1.8328e-08 -171.66 -171.66 -1.1240 719.66 0.0013895 -171.66 -171.66 -1.1240 1.3423 1.9286 2047.9 -0.0076838 4220.2 0.20375 8.7976e-07 1.1367e+06 359.44 378.02 4.4551 0.74181 0.93036 152.64 4.1784 2.6830 0.0023418
-173.62 3.1903e-06 2.4416e-08 -169.73 -169.73 -1.1045 718.64 0.0013915 -169.73 -169.73 -1.1045 1.3417 1.9298 2041.0 -0.0076769 3969.3 0.20338 1.1721e-06 8.5314e+05 360.19 378.95 4.4085 0.74568 0.93423 153.33 4.0671 2.7105 0.0023928
-172.62 4.2661e-06 3.2322e-08 -167.80 -167.80 -1.0852 717.61 0.0013935 -167.80 -167.80 -1.0852 1.3411 1.9310 2034.2 -0.0076698 3739.3 0.20300 1.5518e-06 6.4441e+05 360.93 379.89 4.3631 0.74953 0.93809 154.02 3.9599 2.7379 0.0024440
-171.62 5.6692e-06 4.2526e-08 -165.87 -165.87 -1.0661 716.58 0.0013955 -165.87 -165.87 -1.0661 1.3405 1.9322 2027.3 -0.0076625 3528.0 0.20261 2.0419e-06 4.8974e+05 361.69 380.83 4.3188 0.75337 0.94193 154.71 3.8566 2.7654 0.0024955
-170.62 7.4884e-06 5.5619e-08 -163.94 -163.94 -1.0472 715.56 0.0013975 -163.94 -163.94 -1.0472 1.3400 1.9334 2020.5 -0.0076552 3333.8 0.20222 2.6708e-06 3.7442e+05 362.44 381.77 4.2755 0.75720 0.94575 155.39 3.7570 2.7929 0.0025473
-169.62 9.8334e-06 7.2323e-08 -162.00 -162.00 -1.0284 714.54 0.0013995 -162.00 -162.00 -1.0284 1.3395 1.9347 2013.6 -0.0076477 3154.9 0.20182 3.4733e-06 2.8791e+05 363.20 382.72 4.2334 0.76100 0.94956 156.07 3.6609 2.8204 0.0025994
-168.62 1.2839e-05 9.3520e-08 -160.07 -160.07 -1.0098 713.52 0.0014015 -160.07 -160.07 -1.0098 1.3390 1.9359 2006.8 -0.0076401 2989.9 0.20141 4.4917e-06 2.2263e+05 363.96 383.67 4.1922 0.76479 0.95335 156.74 3.5683 2.8479 0.0026518
-167.62 1.6672e-05 1.2027e-07 -158.13 -158.13 -0.99134 712.49 0.0014035 -158.13 -158.13 -0.99134 1.3386 1.9372 2000.0 -0.0076323 2837.5 0.20100 5.7771e-06 1.7310e+05 364.73 384.63 4.1521 0.76856 0.95712 157.41 3.4790 2.8754 0.0027045
-166.62 2.1533e-05 1.5386e-07 -156.19 -156.19 -0.97306 711.47 0.0014055 -156.19 -156.19 -0.97306 1.3382 1.9385 1993.1 -0.0076245 2696.5 0.20058 7.3914e-06 1.3529e+05 365.50 385.59 4.1129 0.77232 0.96087 158.08 3.3927 2.9029 0.0027575
-165.62 2.7666e-05 1.9583e-07 -154.25 -154.25 -0.95494 710.45 0.0014075 -154.25 -154.25 -0.95494 1.3378 1.9398 1986.3 -0.0076165 2566.0 0.20016 9.4084e-06 1.0629e+05 366.27 386.55 4.0746 0.77605 0.96460 158.75 3.3095 2.9304 0.0028108
-164.62 3.5367e-05 2.4801e-07 -152.31 -152.31 -0.93698 709.44 0.0014096 -152.31 -152.31 -0.93698 1.3375 1.9411 1979.4 -0.0076084 2444.9 0.19973 1.1916e-05 83918. 367.05 387.52 4.0372 0.77976 0.96832 159.41 3.2291 2.9579 0.0028643
-163.62 4.4989e-05 3.1258e-07 -150.37 -150.37 -0.91917 708.42 0.0014116 -150.37 -150.37 -0.91917 1.3371 1.9424 1972.6 -0.0076002 2332.3 0.19930 1.5020e-05 66577. 367.83 388.49 4.0008 0.78346 0.97201 160.07 3.1514 2.9854 0.0029182
-162.62 5.6956e-05 3.9211e-07 -148.43 -148.43 -0.90151 707.40 0.0014136 -148.43 -148.43 -0.90151 1.3368 1.9437 1965.8 -0.0075919 2227.7 0.19886 1.8844e-05 53068. 368.62 389.46 3.9651 0.78713 0.97569 160.72 3.0764 3.0129 0.0029723
-161.62 7.1773e-05 4.8963e-07 -146.48 -146.48 -0.88399 706.38 0.0014157 -146.48 -146.48 -0.88400 1.3365 1.9451 1959.0 -0.0075834 2130.2 0.19841 2.3533e-05 42494. 369.41 390.44 3.9304 0.79079 0.97935 161.38 3.0038 3.0404 0.0030268
-160.62 9.0036e-05 6.0871e-07 -144.54 -144.54 -0.86662 705.37 0.0014177 -144.54 -144.54 -0.86663 1.3363 1.9465 1952.1 -0.0075748 2039.2 0.19796 2.9258e-05 34178. 370.20 391.42 3.8964 0.79443 0.98298 162.03 2.9337 3.0679 0.0030815
-159.62 0.00011245 7.5348e-07 -142.59 -142.59 -0.84940 704.35 0.0014197 -142.59 -142.59 -0.84940 1.3360 1.9478 1945.3 -0.0075661 1954.2 0.19751 3.6221e-05 27609. 371.00 392.40 3.8632 0.79805 0.98660 162.68 2.8658 3.0955 0.0031365
-158.62 0.00013985 9.2878e-07 -140.64 -140.64 -0.83231 703.34 0.0014218 -140.64 -140.64 -0.83231 1.3358 1.9492 1938.5 -0.0075573 1874.8 0.19705 4.4652e-05 22395. 371.80 393.39 3.8307 0.80164 0.99020 163.32 2.8002 3.1230 0.0031918
-157.62 0.00017320 1.1402e-06 -138.69 -138.69 -0.81535 702.32 0.0014238 -138.69 -138.69 -0.81536 1.3356 1.9506 1931.7 -0.0075484 1800.3 0.19658 5.4822e-05 18241. 372.60 394.38 3.7990 0.80522 0.99378 163.96 2.7367 3.1505 0.0032474
-156.62 0.00021364 1.3942e-06 -136.74 -136.74 -0.79853 701.31 0.0014259 -136.74 -136.74 -0.79854 1.3354 1.9520 1924.9 -0.0075393 1730.5 0.19611 6.7040e-05 14916. 373.41 395.38 3.7680 0.80878 0.99734 164.60 2.6752 3.1780 0.0033033
-155.62 0.00026248 1.6982e-06 -134.79 -134.79 -0.78185 700.30 0.0014280 -134.79 -134.79 -0.78185 1.3352 1.9534 1918.1 -0.0075302 1664.9 0.19564 8.1666e-05 12245. 374.22 396.38 3.7377 0.81232 1.0009 165.24 2.6157 3.2055 0.0033595
-154.62 0.00032125 2.0607e-06 -132.83 -132.83 -0.76529 699.29 0.0014300 -132.83 -132.83 -0.76530 1.3350 1.9548 1911.3 -0.0075209 1603.3 0.19516 9.9109e-05 10090. 375.03 397.38 3.7081 0.81585 1.0044 165.87 2.5580 3.2330 0.0034160
-153.62 0.00039171 2.4914e-06 -130.88 -130.88 -0.74886 698.27 0.0014321 -130.88 -130.88 -0.74887 1.3349 1.9563 1904.5 -0.0075114 1545.3 0.19468 0.00011984 8344.6 375.85 398.39 3.6792 0.81935 1.0079 166.50 2.5022 3.2606 0.0034727
-152.62 0.00047590 3.0015e-06 -128.92 -128.92 -0.73255 697.26 0.0014342 -128.92 -128.92 -0.73256 1.3348 1.9577 1897.8 -0.0075019 1490.6 0.19419 0.00014439 6925.9 376.67 399.40 3.6509 0.82284 1.0114 167.13 2.4481 3.2881 0.0035298
-151.62 0.00057613 3.6034e-06 -126.96 -126.96 -0.71636 696.25 0.0014363 -126.96 -126.96 -0.71638 1.3346 1.9592 1891.0 -0.0074922 1438.9 0.19370 0.00017336 5768.4 377.49 400.41 3.6232 0.82631 1.0149 167.76 2.3957 3.3156 0.0035872
-150.62 0.00069507 4.3114e-06 -125.00 -125.00 -0.70030 695.24 0.0014384 -125.00 -125.00 -0.70032 1.3345 1.9606 1884.2 -0.0074824 1390.2 0.19320 0.00020744 4820.7 378.32 401.42 3.5962 0.82976 1.0183 168.38 2.3448 3.3431 0.0036448
-149.62 0.00083574 5.1415e-06 -123.04 -123.04 -0.68435 694.23 0.0014404 -123.04 -123.04 -0.68438 1.3345 1.9621 1877.4 -0.0074724 1344.0 0.19270 0.00024740 4042.0 379.15 402.44 3.5697 0.83319 1.0218 169.00 2.2956 3.3706 0.0037027
-148.62 0.0010016 6.1117e-06 -121.08 -121.08 -0.66852 693.22 0.0014425 -121.08 -121.08 -0.66855 1.3344 1.9636 1870.7 -0.0074623 1300.3 0.19220 0.00029412 3400.0 379.99 403.47 3.5438 0.83661 1.0252 169.62 2.2478 3.3982 0.0037610
-147.62 0.0011965 7.2422e-06 -119.11 -119.11 -0.65281 692.21 0.0014447 -119.11 -119.11 -0.65284 1.3343 1.9651 1863.9 -0.0074521 1258.9 0.19169 0.00034856 2869.0 380.83 404.49 3.5185 0.84001 1.0286 170.24 2.2014 3.4257 0.0038195
-146.62 0.0014249 8.5556e-06 -117.14 -117.14 -0.63720 691.20 0.0014468 -117.15 -117.15 -0.63724 1.3343 1.9666 1857.2 -0.0074417 1219.6 0.19117 0.00041181 2428.3 381.67 405.52 3.4938 0.84340 1.0320 170.85 2.1565 3.4532 0.0038783
-145.62 0.0016917 1.0077e-05 -115.18 -115.18 -0.62171 690.19 0.0014489 -115.18 -115.18 -0.62175 1.3343 1.9682 1850.4 -0.0074312 1182.3 0.19066 0.00048510 2061.4 382.51 406.56 3.4695 0.84677 1.0353 171.46 2.1128 3.4807 0.0039374
-144.62 0.0020026 1.1835e-05 -113.21 -113.21 -0.60632 689.18 0.0014510 -113.21 -113.21 -0.60637 1.3343 1.9697 1843.7 -0.0074206 1146.8 0.19014 0.00056976 1755.1 383.36 407.59 3.4458 0.85012 1.0387 172.07 2.0705 3.5082 0.0039967
-143.62 0.0023637 1.3859e-05 -111.24 -111.23 -0.59104 688.17 0.0014531 -111.24 -111.24 -0.59110 1.3343 1.9713 1836.9 -0.0074098 1113.0 0.18962 0.00066731 1498.6 384.21 408.63 3.4226 0.85346 1.0420 172.68 2.0294 3.5358 0.0040564
-142.62 0.0027820 1.6186e-05 -109.26 -109.26 -0.57587 687.16 0.0014553 -109.27 -109.27 -0.57593 1.3343 1.9728 1830.2 -0.0073988 1080.8 0.18909 0.00077939 1283.1 385.07 409.68 3.3999 0.85679 1.0454 173.28 1.9896 3.5633 0.0041164
-141.62 0.0032653 1.8851e-05 -107.29 -107.29 -0.56079 686.15 0.0014574 -107.30 -107.30 -0.56087 1.3343 1.9744 1823.5 -0.0073878 1050.1 0.18856 0.00090784 1101.5 385.93 410.72 3.3777 0.86011 1.0487 173.88 1.9508 3.5908 0.0041766
-140.62 0.0038222 2.1898e-05 -105.31 -105.31 -0.54582 685.14 0.0014596 -105.32 -105.32 -0.54591 1.3344 1.9760 1816.7 -0.0073765 1020.7 0.18803 0.0010547 948.16 386.79 411.77 3.3560 0.86341 1.0520 174.48 1.9133 3.6183 0.0042372
-139.62 0.0044623 2.5371e-05 -103.33 -103.33 -0.53095 684.13 0.0014617 -103.34 -103.34 -0.53105 1.3344 1.9776 1810.0 -0.0073651 992.74 0.18749 0.0012221 818.26 387.65 412.83 3.3347 0.86670 1.0553 175.08 1.8768 3.6459 0.0042980
-138.62 0.0051963 2.9322e-05 -101.35 -101.35 -0.51617 683.12 0.0014639 -101.37 -101.37 -0.51629 1.3345 1.9792 1803.3 -0.0073536 965.97 0.18695 0.0014125 707.94 388.52 413.88 3.3139 0.86998 1.0586 175.67 1.8413 3.6734 0.0043592
-137.62 0.0060358 3.3805e-05 -99.370 -99.369 -0.50149 682.11 0.0014660 -99.386 -99.386 -0.50162 1.3346 1.9808 1796.6 -0.0073419 940.35 0.18641 0.0016287 614.00 389.39 414.94 3.2935 0.87325 1.0619 176.26 1.8069 3.7009 0.0044206
-136.62 0.0069938 3.8880e-05 -97.385 -97.384 -0.48691 681.10 0.0014682 -97.404 -97.404 -0.48705 1.3347 1.9825 1789.9 -0.0073301 915.81 0.18586 0.0018733 533.80 390.26 416.00 3.2735 0.87650 1.0651 176.85 1.7734 3.7284 0.0044823
-135.62 0.0080843 4.4611e-05 -95.399 -95.398 -0.47241 680.09 0.0014704 -95.421 -95.421 -0.47258 1.3348 1.9841 1783.2 -0.0073180 892.30 0.18531 0.0021497 465.17 391.14 417.07 3.2540 0.87975 1.0684 177.44 1.7409 3.7559 0.0045443
-134.62 0.0093230 5.1071e-05 -93.411 -93.410 -0.45801 679.08 0.0014726 -93.436 -93.436 -0.45820 1.3350 1.9858 1776.5 -0.0073059 869.75 0.18476 0.0024613 406.30 392.02 418.14 3.2348 0.88299 1.0716 178.02 1.7093 3.7834 0.0046066
-133.62 0.010727 5.8334e-05 -91.421 -91.420 -0.44369 678.07 0.0014748 -91.450 -91.449 -0.44391 1.3351 1.9875 1769.8 -0.0072935 848.11 0.18421 0.0028116 355.67 392.91 419.21 3.2161 0.88622 1.0749 178.61 1.6786 3.8109 0.0046691
-132.62 0.012315 6.6486e-05 -89.429 -89.427 -0.42947 677.06 0.0014770 -89.461 -89.461 -0.42971 1.3353 1.9892 1763.1 -0.0072810 827.32 0.18365 0.0032049 312.03 393.79 420.29 3.1977 0.88944 1.0781 179.19 1.6488 3.8385 0.0047320
-131.62 0.014106 7.5614e-05 -87.435 -87.433 -0.41533 676.04 0.0014792 -87.471 -87.471 -0.41560 1.3354 1.9909 1756.4 -0.0072684 807.34 0.18309 0.0036453 274.33 394.68 421.36 3.1798 0.89266 1.0813 179.76 1.6197 3.8660 0.0047951
-130.62 0.016124 8.5816e-05 -85.438 -85.436 -0.40127 675.03 0.0014814 -85.479 -85.479 -0.40157 1.3356 1.9926 1749.7 -0.0072555 788.12 0.18253 0.0041375 241.69 395.58 422.44 3.1622 0.89586 1.0846 180.34 1.5915 3.8935 0.0048586
-129.62 0.018392 9.7196e-05 -83.439 -83.436 -0.38729 674.02 0.0014836 -83.486 -83.486 -0.38763 1.3358 1.9944 1743.0 -0.0072425 769.63 0.18196 0.0046867 213.37 396.47 423.53 3.1450 0.89906 1.0878 180.91 1.5641 3.9210 0.0049223
-128.62 0.020935 0.00010986 -81.438 -81.435 -0.37340 673.01 0.0014859 -81.491 -81.490 -0.37378 1.3360 1.9961 1736.3 -0.0072294 751.83 0.18140 0.0052981 188.75 397.37 424.62 3.1281 0.90226 1.0910 181.48 1.5374 3.9485 0.0049863
-127.62 0.023783 0.00012394 -79.434 -79.431 -0.35958 672.00 0.0014881 -79.494 -79.493 -0.36001 1.3363 1.9979 1729.6 -0.0072160 734.67 0.18083 0.0059776 167.29 398.27 425.71 3.1116 0.90545 1.0942 182.05 1.5114 3.9760 0.0050506
-126.62 0.026966 0.00013955 -77.428 -77.424 -0.34584 670.98 0.0014904 -77.495 -77.495 -0.34632 1.3365 1.9997 1722.9 -0.0072025 718.14 0.18025 0.0067313 148.56 399.18 426.80 3.0954 0.90863 1.0974 182.62 1.4861 4.0035 0.0051152
-125.62 0.030515 0.00015684 -75.420 -75.415 -0.33218 669.97 0.0014926 -75.494 -75.494 -0.33272 1.3368 2.0015 1716.2 -0.0071888 702.18 0.17968 0.0075660 132.17 400.09 427.89 3.0795 0.91181 1.1006 183.18 1.4615 4.0310 0.0051800
-124.62 0.034467 0.00017595 -73.408 -73.403 -0.31859 668.95 0.0014949 -73.492 -73.492 -0.31919 1.3371 2.0033 1709.5 -0.0071749 686.79 0.17910 0.0084885 117.81 401.00 428.99 3.0640 0.91499 1.1038 183.74 1.4375 4.0584 0.0052452
-123.62 0.038859 0.00019703 -71.394 -71.388 -0.30508 667.94 0.0014971 -71.488 -71.487 -0.30574 1.3374 2.0051 1702.8 -0.0071609 671.93 0.17852 0.0095065 105.19 401.91 430.10 3.0488 0.91816 1.1070 184.30 1.4141 4.0859 0.0053106
-122.62 0.043731 0.00022024 -69.378 -69.371 -0.29164 666.92 0.0014994 -69.482 -69.481 -0.29237 1.3377 2.0070 1696.2 -0.0071466 657.57 0.17794 0.010628 94.092 402.83 431.20 3.0339 0.92134 1.1102 184.86 1.3913 4.1134 0.0053764
-121.62 0.049128 0.00024577 -67.358 -67.350 -0.27826 665.91 0.0015017 -67.474 -67.473 -0.27907 1.3380 2.0089 1689.5 -0.0071322 643.70 0.17736 0.011861 84.309 403.75 432.31 3.0193 0.92451 1.1134 185.41 1.3691 4.1409 0.0054424
-120.62 0.055096 0.00027380 -65.335 -65.327 -0.26496 664.89 0.0015040 -65.464 -65.463 -0.26585 1.3384 2.0107 1682.8 -0.0071176 630.28 0.17678 0.013215 75.669 404.67 433.42 3.0050 0.92767 1.1166 185.96 1.3475 4.1683 0.0055087
-119.62 0.061684 0.00030453 -63.309 -63.300 -0.25172 663.87 0.0015063 -63.452 -63.452 -0.25271 1.3387 2.0126 1676.1 -0.0071028 617.30 0.17619 0.014700 68.027 405.60 434.53 2.9909 0.93084 1.1198 186.51 1.3264 4.1958 0.0055752
-118.62 0.068946 0.00033816 -61.280 -61.270 -0.23855 662.86 0.0015086 -61.439 -61.438 -0.23963 1.3391 2.0146 1669.4 -0.0070878 604.74 0.17560 0.016325 61.255 406.53 435.64 2.9772 0.93401 1.1231 187.06 1.3058 4.2233 0.0056421
-117.62 0.076937 0.00037491 -59.248 -59.236 -0.22544 661.84 0.0015109 -59.423 -59.422 -0.22663 1.3395 2.0165 1662.8 -0.0070726 592.58 0.17501 0.018101 55.245 407.46 436.76 2.9638 0.93718 1.1263 187.60 1.2857 4.2507 0.0057092
-116.62 0.085718 0.00041501 -57.212 -57.199 -0.21239 660.82 0.0015133 -57.406 -57.405 -0.21370 1.3400 2.0184 1656.1 -0.0070573 580.80 0.17442 0.020040 49.901 408.39 437.88 2.9506 0.94035 1.1295 188.14 1.2660 4.2782 0.0057767
-115.62 0.095353 0.00045871 -55.173 -55.159 -0.19940 659.80 0.0015156 -55.386 -55.385 -0.20084 1.3404 2.0204 1649.4 -0.0070417 569.38 0.17383 0.022152 45.142 409.33 439.01 2.9377 0.94352 1.1327 188.68 1.2468 4.3056 0.0058444
-114.62 0.10591 0.00050626 -53.130 -53.114 -0.18647 658.78 0.0015180 -53.365 -53.364 -0.18805 1.3409 2.0224 1642.7 -0.0070260 558.32 0.17323 0.024451 40.898 410.27 440.13 2.9250 0.94669 1.1360 189.22 1.2281 4.3330 0.0059123
-113.62 0.11746 0.00055793 -51.083 -51.065 -0.17360 657.76 0.0015203 -51.342 -51.340 -0.17533 1.3413 2.0244 1636.0 -0.0070100 547.59 0.17264 0.026949 37.107 411.21 441.26 2.9126 0.94987 1.1392 189.75 1.2097 4.3604 0.0059806
-112.62 0.13008 0.00061399 -49.033 -49.013 -0.16079 656.73 0.0015227 -49.316 -49.315 -0.16267 1.3418 2.0264 1629.3 -0.0069938 537.18 0.17204 0.029661 33.715 412.16 442.39 2.9005 0.95305 1.1424 190.28 1.1918 4.3879 0.0060491
-111.62 0.14384 0.00067475 -46.978 -46.956 -0.14803 655.71 0.0015251 -47.289 -47.287 -0.15008 1.3424 2.0285 1622.7 -0.0069774 527.08 0.17144 0.032600 30.675 413.10 443.53 2.8885 0.95623 1.1457 190.81 1.1742 4.4153 0.0061180
-110.62 0.15884 0.00074051 -44.919 -44.895 -0.13532 654.69 0.0015274 -45.259 -45.258 -0.13755 1.3429 2.0305 1616.0 -0.0069609 517.28 0.17084 0.035781 27.948 414.06 444.66 2.8769 0.95942 1.1490 191.34 1.1570 4.4427 0.0061871
-109.62 0.17516 0.00081159 -42.856 -42.829 -0.12266 653.66 0.0015298 -43.228 -43.226 -0.12509 1.3435 2.0326 1609.3 -0.0069441 507.76 0.17024 0.039220 25.497 415.01 445.80 2.8654 0.96261 1.1522 191.86 1.1402 4.4701 0.0062564
-108.62 0.19290 0.00088833 -40.788 -40.758 -0.11006 652.64 0.0015322 -41.194 -41.192 -0.11269 1.3441 2.0347 1602.6 -0.0069271 498.51 0.16964 0.042933 23.292 415.96 446.94 2.8542 0.96581 1.1555 192.38 1.1236 4.4974 0.0063261
-107.62 0.21215 0.00097108 -38.715 -38.683 -0.097499 651.61 0.0015347 -39.158 -39.156 -0.10036 1.3447 2.0369 1595.9 -0.0069098 489.52 0.16903 0.046937 21.305 416.92 448.09 2.8433 0.96901 1.1588 192.90 1.1075 4.5248 0.0063960
-106.62 0.23301 0.0010602 -36.638 -36.602 -0.084986 650.58 0.0015371 -37.120 -37.118 -0.088082 1.3453 2.0390 1589.2 -0.0068924 480.79 0.16843 0.051250 19.512 417.88 449.23 2.8325 0.97222 1.1621 193.41 1.0916 4.5522 0.0064662
-105.62 0.25561 0.0011561 -34.556 -34.517 -0.072518 649.55 0.0015395 -35.080 -35.078 -0.075868 1.3460 2.0412 1582.6 -0.0068747 472.30 0.16782 0.055891 17.892 418.85 450.38 2.8220 0.97544 1.1655 193.93 1.0760 4.5795 0.0065367
-104.62 0.28004 0.0012591 -32.468 -32.425 -0.060094 648.52 0.0015420 -33.038 -33.035 -0.063714 1.3467 2.0434 1575.9 -0.0068569 464.04 0.16721 0.060878 16.426 419.81 451.53 2.8116 0.97867 1.1688 194.44 1.0608 4.6069 0.0066074
-103.62 0.30643 0.0013697 -30.375 -30.328 -0.047711 647.49 0.0015444 -30.994 -30.991 -0.051619 1.3474 2.0456 1569.2 -0.0068387 456.00 0.16660 0.066231 15.099 420.78 452.68 2.8015 0.98191 1.1722 194.94 1.0458 4.6342 0.0066785
-102.62 0.33490 0.0014882 -28.276 -28.225 -0.035368 646.46 0.0015469 -28.947 -28.944 -0.039582 1.3481 2.0478 1562.5 -0.0068204 448.18 0.16600 0.071971 13.894 421.75 453.84 2.7916 0.98516 1.1755 195.44 1.0310 4.6615 0.0067498
-101.62 0.36558 0.0016152 -26.172 -26.116 -0.023064 645.43 0.0015494 -26.898 -26.894 -0.027602 1.3489 2.0501 1555.8 -0.0068018 440.57 0.16539 0.078120 12.801 422.73 454.99 2.7818 0.98841 1.1789 195.95 1.0166 4.6888 0.0068213
-100.62 0.39862 0.0017510 -24.062 -24.001 -0.010796 644.39 0.0015519 -24.847 -24.843 -0.015678 1.3497 2.0524 1549.1 -0.0067830 433.16 0.16478 0.084699 11.807 423.70 456.15 2.7723 0.99168 1.1823 196.44 1.0024 4.7161 0.0068932
-99.625 0.43414 0.0018962 -21.945 -21.879 0.0014360 643.36 0.0015544 -22.794 -22.789 -0.0038103 1.3505 2.0547 1542.4 -0.0067639 425.95 0.16416 0.091731 10.901 424.68 457.31 2.7630 0.99496 1.1858 196.94 0.98838 4.7434 0.0069653
-98.625 0.47230 0.0020512 -19.822 -19.750 0.013635 642.32 0.0015569 -20.738 -20.733 0.0080027 1.3514 2.0570 1535.7 -0.0067447 418.92 0.16355 0.099240 10.077 425.66 458.48 2.7538 0.99825 1.1892 197.43 0.97464 4.7707 0.0070377
-97.625 0.51325 0.0022165 -17.693 -17.614 0.025802 641.28 0.0015594 -18.680 -18.674 0.019762 1.3522 2.0594 1529.0 -0.0067251 412.07 0.16294 0.10725 9.3239 426.65 459.64 2.7448 1.0016 1.1927 197.92 0.96112 4.7979 0.0071103
-96.625 0.55714 0.0023927 -15.557 -15.471 0.037938 640.24 0.0015619 -16.620 -16.614 0.031467 1.3531 2.0618 1522.3 -0.0067053 405.39 0.16233 0.11579 8.6365 427.63 460.81 2.7360 1.0049 1.1962 198.40 0.94783 4.8251 0.0071832
-95.625 0.60416 0.0025802 -13.413 -13.321 0.050046 639.20 0.0015645 -14.557 -14.550 0.043120 1.3540 2.0642 1515.7 -0.0066853 398.88 0.16171 0.12488 8.0078 428.62 461.98 2.7274 1.0082 1.1997 198.88 0.93475 4.8524 0.0072564
-94.625 0.65446 0.0027797 -11.263 -11.162 0.062127 638.16 0.0015670 -12.491 -12.484 0.054721 1.3550 2.0667 1509.0 -0.0066650 392.53 0.16110 0.13455 7.4323 429.61 463.15 2.7189 1.0116 1.2032 199.36 0.92188 4.8796 0.0073299
-93.625 0.70822 0.0029917 -9.1043 -8.9958 0.074182 637.12 0.0015696 -10.424 -10.416 0.066271 1.3560 2.0691 1502.3 -0.0066444 386.34 0.16048 0.14482 6.9050 430.60 464.32 2.7107 1.0149 1.2068 199.83 0.90921 4.9068 0.0074036
-92.625 0.76564 0.0032167 -6.9383 -6.8210 0.086214 636.07 0.0015722 -8.3535 -8.3452 0.077771 1.3570 2.0716 1495.6 -0.0066236 380.31 0.15987 0.15573 6.4212 431.60 465.49 2.7025 1.0183 1.2104 200.30 0.89673 4.9340 0.0074776
-91.625 0.82689 0.0034555 -4.7643 -4.6376 0.098223 635.02 0.0015747 -6.2808 -6.2719 0.089220 1.3580 2.0742 1488.9 -0.0066025 374.41 0.15925 0.16731 5.9769 432.59 466.67 2.6946 1.0217 1.2140 200.77 0.88445 4.9611 0.0075518
-90.625 0.89218 0.0037085 -2.5821 -2.4454 0.11021 633.98 0.0015773 -4.2056 -4.1959 0.10062 1.3591 2.0767 1482.2 -0.0065811 368.66 0.15864 0.17958 5.5685 433.59 467.84 2.6868 1.0251 1.2177 201.24 0.87236 4.9883 0.0076263
-89.625 0.96172 0.0039764 -0.39129 -0.24394 0.12218 632.93 0.0015800 -2.1279 -2.1174 0.11197 1.3602 2.0793 1475.5 -0.0065595 363.05 0.15802 0.19258 5.1928 434.59 469.02 2.6791 1.0285 1.2213 201.70 0.86045 5.0154 0.0077011
-88.625 1.0357 0.0042599 1.8083 1.9670 0.13413 631.88 0.0015826 -0.047516 -0.036215 0.12328 1.3613 2.0819 1468.8 -0.0065375 357.56 0.15740 0.20633 4.8466 435.59 470.20 2.6717 1.0320 1.2250 202.15 0.84873 5.0425 0.0077761
-87.625 1.1144 0.0045597 4.0169 4.1877 0.14607 630.83 0.0015852 2.0355 2.0476 0.13454 1.3625 2.0846 1462.1 -0.0065153 352.21 0.15679 0.22087 4.5276 436.60 471.39 2.6643 1.0354 1.2288 202.61 0.83718 5.0696 0.0078514
-86.625 1.1979 0.0048763 6.2349 6.4184 0.15799 629.77 0.0015879 4.1211 4.1342 0.14575 1.3637 2.0873 1455.4 -0.0064928 346.98 0.15617 0.23623 4.2331 437.61 472.57 2.6571 1.0389 1.2325 203.06 0.82580 5.0967 0.0079270
-85.625 1.2866 0.0052106 8.4624 8.6596 0.16990 628.72 0.0015905 6.2094 6.2235 0.15691 1.3649 2.0900 1448.8 -0.0064701 341.87 0.15555 0.25245 3.9612 438.61 473.75 2.6501 1.0424 1.2363 203.50 0.81460 5.1237 0.0080028
-84.625 1.3806 0.0055632 10.700 10.911 0.18180 627.66 0.0015932 8.3004 8.3155 0.16803 1.3661 2.0927 1442.1 -0.0064470 336.87 0.15494 0.26956 3.7097 439.63 474.94 2.6432 1.0460 1.2402 203.95 0.80356 5.1508 0.0080789
-83.625 1.4803 0.0059348 12.947 13.174 0.19369 626.60 0.0015959 10.394 10.410 0.17911 1.3674 2.0955 1435.4 -0.0064236 331.99 0.15432 0.28760 3.4771 440.64 476.13 2.6364 1.0495 1.2440 204.38 0.79269 5.1778 0.0081553
-82.625 1.5858 0.0063262 15.206 15.449 0.20558 625.54 0.0015986 12.491 12.508 0.19014 1.3687 2.0983 1428.7 -0.0063999 327.22 0.15370 0.30659 3.2616 441.65 477.31 2.6298 1.0531 1.2479 204.82 0.78199 5.2048 0.0082319
-81.625 1.6975 0.0067381 17.474 17.734 0.21746 624.48 0.0016013 14.590 14.609 0.20113 1.3700 2.1012 1422.0 -0.0063759 322.55 0.15309 0.32659 3.0619 442.67 478.50 2.6233 1.0567 1.2519 205.25 0.77144 5.2318 0.0083088
-80.625 1.8155 0.0071714 19.754 20.032 0.22933 623.42 0.0016041 16.692 16.712 0.21208 1.3714 2.1041 1415.4 -0.0063516 317.99 0.15247 0.34763 2.8766 443.69 479.70 2.6169 1.0603 1.2558 205.67 0.76106 5.2587 0.0083860
-79.625 1.9402 0.0076268 22.045 22.343 0.24120 622.36 0.0016068 18.797 18.819 0.22299 1.3728 2.1070 1408.7 -0.0063270 313.52 0.15186 0.36974 2.7046 444.71 480.89 2.6106 1.0639 1.2598 206.10 0.75083 5.2857 0.0084634
-78.625 2.0718 0.0081052 24.348 24.666 0.25307 621.29 0.0016096 20.905 20.928 0.23385 1.3742 2.1099 1402.0 -0.0063021 309.15 0.15124 0.39296 2.5448 445.73 482.08 2.6045 1.0676 1.2639 206.51 0.74076 5.3126 0.0085411
-77.625 2.2107 0.0086072 26.663 27.002 0.26494 620.22 0.0016123 23.016 23.040 0.24468 1.3757 2.1129 1395.3 -0.0062768 304.88 0.15062 0.41735 2.3961 446.75 483.27 2.5985 1.0712 1.2680 206.93 0.73084 5.3395 0.0086190
-76.625 2.3571 0.0091339 28.990 29.351 0.27681 619.15 0.0016151 25.130 25.156 0.25546 1.3772 2.1159 1388.7 -0.0062512 300.69 0.15001 0.44292 2.2577 447.78 484.47 2.5926 1.0749 1.2721 207.34 0.72107 5.3664 0.0086972
-75.625 2.5113 0.0096860 31.330 31.715 0.28868 618.08 0.0016179 27.247 27.275 0.26620 1.3787 2.1190 1382.0 -0.0062253 296.59 0.14939 0.46974 2.1288 448.81 485.67 2.5869 1.0787 1.2762 207.74 0.71146 5.3933 0.0087757
-74.625 2.6736 0.010264 33.682 34.092 0.30056 617.01 0.0016207 29.366 29.396 0.27691 1.3802 2.1221 1375.4 -0.0061990 292.58 0.14878 0.49783 2.0087 449.83 486.86 2.5812 1.0824 1.2804 208.14 0.70200 5.4201 0.0088544
-73.625 2.8444 0.010870 36.048 36.484 0.31245 615.93 0.0016236 31.489 31.521 0.28758 1.3818 2.1252 1368.7 -0.0061724 288.65 0.14816 0.52725 1.8966 450.86 488.06 2.5757 1.0862 1.2847 208.54 0.69268 5.4469 0.0089334
-72.625 3.0240 0.011504 38.427 38.891 0.32434 614.85 0.0016264 33.615 33.649 0.29821 1.3834 2.1284 1362.0 -0.0061454 284.81 0.14755 0.55804 1.7920 451.90 489.26 2.5703 1.0900 1.2889 208.93 0.68351 5.4737 0.0090126
-71.625 3.2127 0.012167 40.820 41.313 0.33625 613.78 0.0016293 35.745 35.781 0.30880 1.3851 2.1316 1355.4 -0.0061181 281.03 0.14694 0.59024 1.6942 452.93 490.46 2.5650 1.0938 1.2932 209.32 0.67448 5.5005 0.0090922
-70.625 3.4108 0.012859 43.228 43.750 0.34816 612.69 0.0016321 37.877 37.915 0.31935 1.3867 2.1349 1348.7 -0.0060904 277.34 0.14632 0.62390 1.6028 453.96 491.66 2.5598 1.0976 1.2976 209.70 0.66560 5.5273 0.0091720
-69.625 3.6187 0.013583 45.649 46.204 0.36009 611.61 0.0016350 40.013 40.053 0.32987 1.3884 2.1382 1342.1 -0.0060624 273.72 0.14571 0.65906 1.5173 455.00 492.86 2.5547 1.1015 1.3020 210.08 0.65687 5.5540 0.0092520
-68.625 3.8367 0.014338 48.086 48.674 0.37203 610.53 0.0016379 42.152 42.195 0.34036 1.3902 2.1415 1335.5 -0.0060339 270.17 0.14510 0.69577 1.4372 456.04 494.06 2.5497 1.1054 1.3064 210.45 0.64827 5.5807 0.0093324
-67.625 4.0652 0.015127 50.538 51.161 0.38399 609.44 0.0016409 44.294 44.340 0.35080 1.3919 2.1449 1328.8 -0.0060051 266.69 0.14449 0.73408 1.3622 457.08 495.26 2.5448 1.1093 1.3109 210.82 0.63981 5.6074 0.0094130
-66.625 4.3046 0.015949 53.005 53.665 0.39597 608.35 0.0016438 46.439 46.488 0.36122 1.3937 2.1483 1322.2 -0.0059760 263.28 0.14388 0.77404 1.2919 458.12 496.46 2.5400 1.1133 1.3154 211.18 0.63150 5.6341 0.0094939
-65.625 4.5551 0.016806 55.488 56.186 0.40796 607.26 0.0016467 48.588 48.640 0.37160 1.3955 2.1518 1315.6 -0.0059464 259.93 0.14327 0.81570 1.2259 459.16 497.67 2.5353 1.1172 1.3200 211.54 0.62332 5.6608 0.0095750
-64.625 4.8173 0.017699 57.987 58.726 0.41998 606.16 0.0016497 50.740 50.795 0.38195 1.3974 2.1553 1308.9 -0.0059164 256.65 0.14266 0.85910 1.1640 460.21 498.87 2.5307 1.1212 1.3246 211.89 0.61527 5.6874 0.0096564
-63.625 5.0915 0.018629 60.503 61.283 0.43201 605.07 0.0016527 52.896 52.954 0.39226 1.3993 2.1588 1302.3 -0.0058861 253.42 0.14205 0.90429 1.1058 461.25 500.07 2.5262 1.1252 1.3293 212.24 0.60736 5.7140 0.0097382
-62.625 5.3781 0.019597 63.036 63.860 0.44407 603.97 0.0016557 55.055 55.117 0.40254 1.4012 2.1624 1295.7 -0.0058553 250.26 0.14144 0.95134 1.0511 462.30 501.28 2.5218 1.1293 1.3340 212.58 0.59958 5.7406 0.0098201
-61.625 5.6774 0.020604 65.586 66.456 0.45616 602.87 0.0016587 57.218 57.283 0.41279 1.4031 2.1660 1289.1 -0.0058241 247.16 0.14084 1.0003 0.99972 463.35 502.48 2.5175 1.1333 1.3387 212.92 0.59194 5.7672 0.0099024
-60.625 5.9899 0.021651 68.153 69.071 0.46826 601.77 0.0016618 59.385 59.453 0.42301 1.4051 2.1697 1282.5 -0.0057925 244.12 0.14023 1.0512 0.95131 464.40 503.68 2.5133 1.1374 1.3435 213.26 0.58442 5.7938 0.0099850
-59.625 6.3160 0.022739 70.739 71.706 0.48040 600.66 0.0016648 61.554 61.627 0.43320 1.4071 2.1734 1275.9 -0.0057605 241.13 0.13962 1.1041 0.90573 465.45 504.89 2.5091 1.1415 1.3483 213.58 0.57704 5.8203 0.010068
-58.625 6.6561 0.023870 73.342 74.362 0.49256 599.55 0.0016679 63.728 63.805 0.44335 1.4091 2.1772 1269.3 -0.0057280 238.19 0.13902 1.1591 0.86277 466.50 506.09 2.5051 1.1457 1.3532 213.90 0.56978 5.8468 0.010151
-57.625 7.0107 0.025044 75.964 77.038 0.50476 598.44 0.0016710 65.905 65.986 0.45348 1.4111 2.1810 1262.7 -0.0056951 235.31 0.13842 1.2161 0.82228 467.55 507.30 2.5011 1.1498 1.3581 214.22 0.56265 5.8733 0.010234
-56.625 7.3801 0.026263 78.605 79.736 0.51698 597.33 0.0016741 68.086 68.172 0.46358 1.4132 2.1848 1256.1 -0.0056617 232.48 0.13781 1.2754 0.78408 468.60 508.50 2.4972 1.1540 1.3631 214.53 0.55564 5.8998 0.010318
-55.625 7.7648 0.027528 81.265 82.455 0.52924 596.22 0.0016772 70.271 70.361 0.47364 1.4153 2.1887 1249.5 -0.0056279 229.69 0.13721 1.3369 0.74802 469.66 509.71 2.4934 1.1582 1.3681 214.84 0.54875 5.9263 0.010402
-54.625 8.1652 0.028839 83.945 85.196 0.54153 595.10 0.0016804 72.460 72.554 0.48368 1.4174 2.1927 1242.9 -0.0055937 226.96 0.13661 1.4006 0.71396 470.72 510.91 2.4897 1.1624 1.3731 215.14 0.54199 5.9527 0.010486
-53.625 8.5819 0.030199 86.645 87.960 0.55386 593.98 0.0016836 74.652 74.752 0.49369 1.4196 2.1967 1236.3 -0.0055589 224.27 0.13601 1.4667 0.68178 471.77 512.11 2.4860 1.1667 1.3782 215.43 0.53535 5.9792 0.010571
-52.625 9.0151 0.031609 89.365 90.747 0.56622 592.86 0.0016867 76.849 76.954 0.50368 1.4218 2.2007 1229.8 -0.0055237 221.63 0.13541 1.5353 0.65136 472.83 513.32 2.4824 1.1710 1.3834 215.72 0.52882 6.0056 0.010656
-51.625 9.4655 0.033069 92.106 93.556 0.57862 591.73 0.0016900 79.049 79.159 0.51363 1.4240 2.2048 1223.2 -0.0054880 219.04 0.13482 1.6062 0.62258 473.89 514.52 2.4789 1.1752 1.3886 216.00 0.52241 6.0320 0.010741
-50.625 9.9335 0.034581 94.868 96.390 0.59106 590.60 0.0016932 81.253 81.369 0.52356 1.4262 2.2089 1216.6 -0.0054519 216.48 0.13422 1.6797 0.59534 474.95 515.73 2.4755 1.1796 1.3938 216.28 0.51612 6.0584 0.010827
-49.625 10.419 0.036147 97.651 99.248 0.60354 589.47 0.0016964 83.462 83.584 0.53347 1.4285 2.2131 1210.1 -0.0054152 213.98 0.13363 1.7558 0.56954 476.01 516.93 2.4722 1.1839 1.3991 216.55 0.50994 6.0848 0.010913
-48.625 10.924 0.037767 100.46 102.13 0.61606 588.34 0.0016997 85.674 85.802 0.54334 1.4308 2.2173 1203.5 -0.0053780 211.51 0.13303 1.8345 0.54510 477.07 518.13 2.4689 1.1883 1.4044 216.82 0.50387 6.1112 0.010999
-47.625 11.448 0.039442 103.28 105.04 0.62863 587.20 0.0017030 87.891 88.025 0.55319 1.4331 2.2216 1196.9 -0.0053403 209.08 0.13244 1.9159 0.52194 478.14 519.33 2.4657 1.1927 1.4098 217.08 0.49792 6.1375 0.011085
-46.625 11.991 0.041175 106.13 107.97 0.64123 586.06 0.0017063 90.111 90.252 0.56302 1.4354 2.2259 1190.4 -0.0053020 206.69 0.13185 2.0001 0.49997 479.20 520.53 2.4625 1.1971 1.4153 217.33 0.49207 6.1639 0.011172
-45.625 12.554 0.042966 109.00 110.93 0.65388 584.92 0.0017096 92.336 92.484 0.57282 1.4378 2.2303 1183.8 -0.0052633 204.34 0.13126 2.0872 0.47912 480.27 521.74 2.4594 1.2015 1.4207 217.58 0.48633 6.1902 0.011259
-44.625 13.137 0.044818 111.90 113.91 0.66658 583.77 0.0017130 94.565 94.720 0.58260 1.4402 2.2347 1177.3 -0.0052240 202.03 0.13067 2.1771 0.45933 481.33 522.94 2.4564 1.2060 1.4263 217.82 0.48069 6.2165 0.011347
-43.625 13.741 0.046730 114.82 116.92 0.67932 582.62 0.0017164 96.799 96.961 0.59235 1.4426 2.2392 1170.7 -0.0051841 199.75 0.13008 2.2700 0.44053 482.40 524.14 2.4535 1.2104 1.4319 218.05 0.47516 6.2429 0.011435
-42.625 14.367 0.048705 117.76 119.96 0.69211 581.47 0.0017198 99.036 99.207 0.60208 1.4450 2.2437 1164.2 -0.0051437 197.51 0.12949 2.3659 0.42267 483.46 525.33 2.4506 1.2149 1.4375 218.28 0.46973 6.2692 0.011523
-41.625 15.015 0.050744 120.73 123.03 0.70495 580.32 0.0017232 101.28 101.46 0.61179 1.4475 2.2483 1157.7 -0.0051027 195.30 0.12891 2.4649 0.40569 484.53 526.53 2.4478 1.2195 1.4432 218.50 0.46440 6.2955 0.011612
-40.625 15.686 0.052849 123.72 126.12 0.71784 579.16 0.0017266 103.52 103.71 0.62147 1.4500 2.2529 1151.1 -0.0050611 193.13 0.12832 2.5671 0.38954 485.60 527.73 2.4450 1.2240 1.4489 218.72 0.45917 6.3218 0.011701
-39.625 16.380 0.055020 126.73 129.24 0.73078 578.00 0.0017301 105.78 105.97 0.63113 1.4525 2.2576 1144.6 -0.0050189 190.99 0.12774 2.6725 0.37418 486.67 528.93 2.4423 1.2286 1.4547 218.93 0.45403 6.3481 0.011790
-38.625 17.097 0.057260 129.77 132.39 0.74378 576.83 0.0017336 108.03 108.24 0.64077 1.4550 2.2623 1138.0 -0.0049761 188.88 0.12716 2.7813 0.35955 487.74 530.12 2.4397 1.2332 1.4606 219.13 0.44900 6.3744 0.011880
-37.625 17.838 0.059570 132.84 135.57 0.75682 575.66 0.0017371 110.29 110.51 0.65039 1.4576 2.2671 1131.5 -0.0049327 186.81 0.12658 2.8934 0.34562 488.81 531.32 2.4371 1.2378 1.4665 219.33 0.44405 6.4007 0.011970
-36.625 18.604 0.061952 135.93 138.78 0.76992 574.49 0.0017407 112.56 112.78 0.65999 1.4602 2.2719 1125.0 -0.0048887 184.76 0.12600 3.0089 0.33235 489.88 532.51 2.4346 1.2424 1.4724 219.52 0.43920 6.4270 0.012060
-35.625 19.395 0.064406 139.05 142.02 0.78308 573.32 0.0017442 114.83 115.06 0.66956 1.4628 2.2768 1118.5 -0.0048440 182.75 0.12542 3.1280 0.31969 490.95 533.70 2.4321 1.2471 1.4784 219.70 0.43444 6.4533 0.012151
-34.625 20.212 0.066935 142.19 145.29 0.79629 572.14 0.0017478 117.10 117.34 0.67912 1.4654 2.2818 1111.9 -0.0047987 180.76 0.12485 3.2506 0.30763 492.02 534.89 2.4297 1.2517 1.4845 219.88 0.42977 6.4797 0.012243
-33.625 21.056 0.069541 145.37 148.59 0.80956 570.96 0.0017514 119.38 119.63 0.68865 1.4681 2.2868 1105.4 -0.0047527 178.80 0.12427 3.3770 0.29612 493.09 536.08 2.4273 1.2564 1.4906 220.05 0.42519 6.5060 0.012334
-32.625 21.926 0.072224 148.57 151.92 0.82289 569.77 0.0017551 121.66 121.93 0.69817 1.4708 2.2918 1098.9 -0.0047061 176.87 0.12370 3.5071 0.28514 494.17 537.27 2.4250 1.2611 1.4968 220.21 0.42070 6.5323 0.012426
-31.625 22.823 0.074987 151.79 155.29 0.83627 568.58 0.0017588 123.95 124.23 0.70767 1.4735 2.2970 1092.3 -0.0046587 174.97 0.12313 3.6410 0.27465 495.24 538.46 2.4227 1.2659 1.5031 220.36 0.41629 6.5587 0.012519
-30.625 23.749 0.077831 155.05 158.68 0.84972 567.39 0.0017625 126.24 126.53 0.71714 1.4762 2.3021 1085.8 -0.0046107 173.09 0.12256 3.7787 0.26464 496.31 539.64 2.4205 1.2706 1.5094 220.51 0.41196 6.5850 0.012612
-29.625 24.703 0.080757 158.33 162.11 0.86322 566.19 0.0017662 128.54 128.84 0.72660 1.4790 2.3074 1079.3 -0.0045619 171.24 0.12200 3.9205 0.25507 497.38 540.83 2.4184 1.2754 1.5157 220.65 0.40772 6.6114 0.012706
-28.625 25.687 0.083769 161.64 165.57 0.87679 564.99 0.0017699 130.84 131.16 0.73604 1.4818 2.3126 1072.8 -0.0045124 169.42 0.12143 4.0663 0.24592 498.46 542.01 2.4162 1.2802 1.5222 220.79 0.40356 6.6378 0.012800
-27.625 26.700 0.086867 164.98 169.07 0.89042 563.78 0.0017737 133.15 133.48 0.74547 1.4846 2.3180 1066.2 -0.0044621 167.62 0.12087 4.2163 0.23717 499.53 543.19 2.4142 1.2850 1.5286 220.91 0.39947 6.6642 0.012894
-26.625 27.743 0.090053 168.35 172.60 0.90411 562.57 0.0017775 135.47 135.81 0.75487 1.4874 2.3234 1059.7 -0.0044111 165.84 0.12031 4.3705 0.22881 500.60 544.37 2.4122 1.2899 1.5352 221.03 0.39547 6.6906 0.012989
-25.625 28.817 0.093329 171.75 176.16 0.91787 561.36 0.0017814 137.78 138.14 0.76426 1.4902 2.3289 1053.2 -0.0043593 164.09 0.11975 4.5290 0.22080 501.68 545.55 2.4102 1.2947 1.5418 221.14 0.39154 6.7171 0.013084
-24.625 29.923 0.096697 175.17 179.76 0.93169 560.14 0.0017853 140.11 140.48 0.77363 1.4931 2.3344 1046.7 -0.0043067 162.36 0.11919 4.6918 0.21314 502.75 546.72 2.4083 1.2996 1.5485 221.25 0.38768 6.7436 0.013180
-23.625 31.061 0.10016 178.63 183.39 0.94558 558.92 0.0017892 142.44 142.82 0.78298 1.4960 2.3400 1040.1 -0.0042533 160.65 0.11863 4.8592 0.20580 503.82 547.90 2.4064 1.3045 1.5552 221.35 0.38391 6.7701 0.013277
-22.625 32.232 0.10372 182.12 187.06 0.95953 557.69 0.0017931 144.77 145.17 0.79232 1.4990 2.3457 1033.6 -0.0041990 158.97 0.11807 5.0311 0.19877 504.90 549.07 2.4045 1.3095 1.5621 221.44 0.38020 6.7967 0.013374
-21.625 33.435 0.10737 185.64 190.76 0.97355 556.46 0.0017971 147.11 147.52 0.80164 1.5019 2.3514 1027.1 -0.0041439 157.30 0.11752 5.2076 0.19203 505.97 550.24 2.4027 1.3144 1.5690 221.52 0.37656 6.8232 0.013471
-20.625 34.673 0.11113 189.19 194.50 0.98764 555.23 0.0018011 149.45 149.88 0.81095 1.5049 2.3572 1020.6 -0.0040879 155.66 0.11697 5.3889 0.18557 507.04 551.40 2.4010 1.3194 1.5759 221.59 0.37300 6.8499 0.013569
-19.625 35.946 0.11498 192.77 198.28 1.0018 553.99 0.0018051 151.80 152.25 0.82024 1.5079 2.3630 1014.0 -0.0040311 154.04 0.11642 5.5750 0.17937 508.11 552.57 2.3992 1.3244 1.5829 221.66 0.36950 6.8765 0.013668
-18.625 37.253 0.11894 196.39 202.09 1.0160 552.74 0.0018092 154.16 154.62 0.82952 1.5109 2.3689 1007.5 -0.0039733 152.44 0.11587 5.7660 0.17343 509.19 553.73 2.3976 1.3294 1.5901 221.72 0.36608 6.9032 0.013767
-17.625 38.596 0.12301 200.03 205.95 1.0303 551.49 0.0018133 156.52 157.00 0.83878 1.5140 2.3749 1001.0 -0.0039145 150.86 0.11532 5.9621 0.16773 510.26 554.89 2.3959 1.3345 1.5972 221.77 0.36272 6.9300 0.013867
-16.625 39.976 0.12718 203.71 209.84 1.0447 550.24 0.0018174 158.89 159.39 0.84803 1.5171 2.3810 994.44 -0.0038549 149.29 0.11478 6.1632 0.16225 511.33 556.05 2.3943 1.3395 1.6045 221.81 0.35942 6.9568 0.013968
-15.625 41.392 0.13147 207.42 213.77 1.0591 548.98 0.0018216 161.26 161.78 0.85726 1.5202 2.3871 987.91 -0.0037942 147.75 0.11423 6.3696 0.15700 512.40 557.20 2.3927 1.3446 1.6119 221.85 0.35619 6.9836 0.014069
-14.625 42.846 0.13587 211.17 217.73 1.0736 547.71 0.0018258 163.64 164.18 0.86649 1.5233 2.3933 981.37 -0.0037325 146.22 0.11369 6.5812 0.15195 513.47 558.36 2.3912 1.3497 1.6193 221.87 0.35302 7.0105 0.014170
-13.625 44.338 0.14038 214.95 221.74 1.0882 546.44 0.0018300 166.02 166.58 0.87569 1.5264 2.3996 974.83 -0.0036698 144.72 0.11315 6.7983 0.14710 514.54 559.51 2.3897 1.3549 1.6268 221.89 0.34992 7.0375 0.014273
-12.625 45.870 0.14501 218.76 225.79 1.1029 545.17 0.0018343 168.41 168.99 0.88489 1.5296 2.4059 968.29 -0.0036061 143.23 0.11261 7.0208 0.14243 515.61 560.65 2.3883 1.3600 1.6344 221.90 0.34688 7.0646 0.014376
-11.625 47.440 0.14976 222.60 229.87 1.1176 543.89 0.0018386 170.81 171.41 0.89407 1.5328 2.4124 961.75 -0.0035413 141.76 0.11208 7.2490 0.13795 516.68 561.80 2.3868 1.3652 1.6421 221.91 0.34389 7.0917 0.014479
-10.625 49.051 0.15463 226.48 234.00 1.1324 542.60 0.0018430 173.21 173.83 0.90324 1.5360 2.4189 955.20 -0.0034753 140.30 0.11154 7.4829 0.13364 517.75 562.94 2.3854 1.3704 1.6498 221.90 0.34097 7.1188 0.014584
-9.6250 50.703 0.15963 230.40 238.17 1.1473 541.31 0.0018474 175.61 176.26 0.91240 1.5393 2.4255 948.65 -0.0034082 138.86 0.11101 7.7226 0.12949 518.81 564.08 2.3841 1.3757 1.6577 221.88 0.33810 7.1461 0.014689
-8.6250 52.396 0.16475 234.35 242.38 1.1623 540.02 0.0018518 178.03 178.70 0.92154 1.5426 2.4321 942.10 -0.0033400 137.44 0.11048 7.9683 0.12550 519.88 565.21 2.3827 1.3809 1.6657 221.86 0.33529 7.1734 0.014795
-7.6250 54.131 0.17000 238.33 246.63 1.1773 538.72 0.0018563 180.45 181.14 0.93068 1.5459 2.4389 935.55 -0.0032705 136.03 0.10995 8.2200 0.12165 520.94 566.35 2.3814 1.3862 1.6737 221.83 0.33254 7.2008 0.014902
-6.6250 55.909 0.17539 242.35 250.92 1.1924 537.41 0.0018608 182.87 183.59 0.93980 1.5492 2.4457 928.99 -0.0031998 134.64 0.10942 8.4779 0.11795 522.01 567.48 2.3801 1.3915 1.6819 221.79 0.32984 7.2284 0.015009
-5.6250 57.730 0.18091 246.41 255.26 1.2076 536.10 0.0018653 185.30 186.05 0.94892 1.5525 2.4526 922.43 -0.0031279 133.27 0.10889 8.7420 0.11439 523.07 568.60 2.3789 1.3969 1.6902 221.74 0.32720 7.2560 0.015117
-4.6250 59.595 0.18657 250.50 259.63 1.2229 534.78 0.0018699 187.74 188.51 0.95802 1.5559 2.4596 915.87 -0.0030546 131.91 0.10837 9.0126 0.11096 524.13 569.72 2.3777 1.4022 1.6985 221.68 0.32461 7.2837 0.015226
-3.6250 61.505 0.19237 254.63 264.06 1.2382 533.45 0.0018746 190.19 190.98 0.96711 1.5593 2.4667 909.30 -0.0029800 130.56 0.10785 9.2896 0.10765 525.19 570.84 2.3765 1.4076 1.7070 221.62 0.32207 7.3115 0.015336
-2.6250 63.461 0.19832 258.80 268.52 1.2537 532.12 0.0018793 192.64 193.46 0.97620 1.5627 2.4739 902.73 -0.0029041 129.23 0.10733 9.5733 0.10446 526.25 571.96 2.3753 1.4131 1.7156 221.54 0.31958 7.3394 0.015447
-1.6250 65.462 0.20441 263.00 273.03 1.2692 530.78 0.0018840 195.10 195.95 0.98527 1.5662 2.4811 896.16 -0.0028267 127.91 0.10681 9.8638 0.10138 527.31 573.07 2.3742 1.4185 1.7243 221.45 0.31715 7.3674 0.015559
-0.62500 67.510 0.21065 267.24 277.59 1.2848 529.44 0.0018888 197.56 198.44 0.99434 1.5696 2.4885 889.58 -0.0027478 126.61 0.10629 10.161 0.098414 528.37 574.18 2.3731 1.4240 1.7331 221.36 0.31476 7.3956 0.015671
0.37500 69.606 0.21705 271.52 282.19 1.3004 528.09 0.0018936 200.03 200.94 1.0034 1.5731 2.4960 883.00 -0.0026675 125.32 0.10578 10.466 0.095552 529.42 575.28 2.3720 1.4295 1.7421 221.26 0.31242 7.4239 0.015785
1.3750 71.749 0.22360 275.84 286.84 1.3162 526.73 0.0018985 202.51 203.45 1.0124 1.5767 2.5035 876.42 -0.0025856 124.04 0.10527 10.777 0.092790 530.48 576.38 2.3709 1.4350 1.7512 221.14 0.31013 7.4523 0.015899
2.3750 73.941 0.23032 280.20 291.53 1.3320 525.37 0.0019034 204.99 205.96 1.0215 1.5802 2.5112 869.83 -0.0025022 122.78 0.10476 11.096 0.090123 531.53 577.47 2.3699 1.4406 1.7604 221.02 0.30789 7.4808 0.016015
3.3750 76.183 0.23720 284.59 296.27 1.3480 523.99 0.0019084 207.48 208.48 1.0305 1.5838 2.5190 863.24 -0.0024171 121.53 0.10425 11.422 0.087549 532.58 578.56 2.3688 1.4462 1.7697 220.89 0.30569 7.5095 0.016131
4.3750 78.475 0.24425 289.03 301.05 1.3640 522.62 0.0019134 209.98 211.01 1.0395 1.5874 2.5268 856.64 -0.0023303 120.29 0.10374 11.756 0.085062 533.63 579.65 2.3678 1.4518 1.7792 220.75 0.30354 7.5384 0.016249
5.3750 80.817 0.25146 293.50 305.88 1.3801 521.23 0.0019185 212.48 213.55 1.0486 1.5910 2.5348 850.04 -0.0022417 119.06 0.10324 12.098 0.082660 534.67 580.73 2.3669 1.4575 1.7888 220.60 0.30144 7.5674 0.016368
6.3750 83.211 0.25886 298.02 310.77 1.3962 519.84 0.0019237 215.00 216.10 1.0576 1.5946 2.5429 843.43 -0.0021514 117.85 0.10273 12.447 0.080340 535.72 581.81 2.3659 1.4632 1.7986 220.44 0.29938 7.5966 0.016487
7.3750 85.657 0.26643 302.57 315.69 1.4125 518.44 0.0019289 217.51 218.65 1.0666 1.5983 2.5511 836.82 -0.0020593 116.65 0.10223 12.805 0.078096 536.76 582.88 2.3650 1.4689 1.8085 220.27 0.29736 7.6259 0.016608
8.3750 88.156 0.27419 307.17 320.67 1.4289 517.03 0.0019341 220.04 221.22 1.0756 1.6020 2.5595 830.20 -0.0019652 115.46 0.10173 13.170 0.075928 537.80 583.95 2.3640 1.4746 1.8186 220.08 0.29538 7.6555 0.016730
9.3750 90.708 0.28213 311.80 325.70 1.4453 515.62 0.0019394 222.57 223.79 1.0846 1.6057 2.5679 823.58 -0.0018691 114.28 0.10124 13.545 0.073830 538.84 585.01 2.3631 1.4804 1.8288 219.89 0.29345 7.6852 0.016853
10.375 93.315 0.29027 316.48 330.78 1.4618 514.19 0.0019448 225.11 226.37 1.0936 1.6095 2.5765 816.96 -0.0017710 113.11 0.10074 13.927 0.071802 539.87 586.07 2.3622 1.4863 1.8392 219.69 0.29156 7.7151 0.016978
11.375 95.977 0.29860 321.20 335.90 1.4784 512.76 0.0019502 227.66 228.95 1.1025 1.6132 2.5852 810.32 -0.0016708 111.95 0.10025 14.319 0.069840 540.90 587.12 2.3614 1.4921 1.8498 219.48 0.28971 7.7452 0.017103
12.375 98.694 0.30714 325.96 341.08 1.4951 511.32 0.0019557 230.22 231.55 1.1115 1.6170 2.5940 803.68 -0.0015685 110.80 0.099756 14.719 0.067941 541.93 588.17 2.3605 1.4980 1.8605 219.26 0.28790 7.7756 0.017230
13.375 101.47 0.31588 330.76 346.31 1.5119 509.87 0.0019613 232.78 234.15 1.1205 1.6208 2.6030 797.04 -0.0014639 109.67 0.099267 15.128 0.066103 542.96 589.21 2.3597 1.5040 1.8715 219.03 0.28612 7.8061 0.017359
14.375 104.30 0.32483 335.61 351.59 1.5288 508.42 0.0019669 235.35 236.77 1.1295 1.6247 2.6121 790.39 -0.0013569 108.54 0.098779 15.547 0.064323 543.99 590.24 2.3588 1.5099 1.8826 218.79 0.28439 7.8369 0.017488
15.375 107.19 0.33400 340.50 356.92 1.5458 506.95 0.0019726 237.93 239.39 1.1384 1.6286 2.6214 783.73 -0.0012476 107.43 0.098294 15.974 0.062600 545.01 591.27 2.3580 1.5159 1.8940 218.53 0.28270 7.8680 0.017619
16.375 110.13 0.34339 345.43 362.30 1.5628 505.48 0.0019783 240.52 242.02 1.1474 1.6324 2.6308 777.07 -0.0011357 106.32 0.097810 16.412 0.060931 546.03 592.29 2.3572 1.5220 1.9055 218.27 0.28104 7.8993 0.017752
17.375 113.14 0.35301 350.40 367.74 1.5800 504.00 0.0019841 243.11 244.66 1.1564 1.6364 2.6403 770.40 -0.0010213 105.22 0.097328 16.859 0.059314 547.04 593.31 2.3564 1.5281 1.9172 217.99 0.27942 7.9308 0.017886
18.375 116.21 0.36286 355.42 373.23 1.5973 502.50 0.0019900 245.72 247.31 1.1653 1.6403 2.6501 763.72 -0.00090422 104.14 0.096848 17.317 0.057747 548.05 594.32 2.3557 1.5342 1.9292 217.71 0.27783 7.9626 0.018021
19.375 119.33 0.37296 360.49 378.77 1.6146 501.00 0.0019960 248.33 249.97 1.1743 1.6443 2.6599 757.04 -0.00078435 103.06 0.096371 17.785 0.056228 549.06 595.33 2.3549 1.5404 1.9414 217.41 0.27628 7.9947 0.018159
20.375 122.52 0.38329 365.60 384.37 1.6320 499.49 0.0020020 250.95 252.64 1.1832 1.6483 2.6700 750.35 -0.00066161 101.99 0.095895 18.263 0.054756 550.07 596.32 2.3541 1.5466 1.9538 217.10 0.27477 8.0272 0.018297
21.375 125.77 0.39388 370.75 390.02 1.6496 497.97 0.0020082 253.57 255.32 1.1922 1.6523 2.6802 743.64 -0.00053589 100.93 0.095420 18.752 0.053328 551.07 597.31 2.3534 1.5528 1.9665 216.78 0.27329 8.0599 0.018438
22.375 129.08 0.40473 375.95 395.73 1.6672 496.43 0.0020144 256.21 258.00 1.2012 1.6563 2.6906 736.94 -0.00040708 99.877 0.094948 19.252 0.051943 552.07 598.30 2.3526 1.5591 1.9795 216.45 0.27184 8.0929 0.018580
23.375 132.46 0.41585 381.20 401.49 1.6849 494.89 0.0020206 258.86 260.70 1.2101 1.6604 2.7012 730.22 -0.00027505 98.834 0.094478 19.763 0.050600 553.06 599.27 2.3519 1.5655 1.9927 216.11 0.27043 8.1263 0.018724
24.375 135.90 0.42723 386.49 407.31 1.7027 493.34 0.0020270 261.51 263.41 1.2191 1.6645 2.7120 723.49 -0.00013968 97.800 0.094009 20.285 0.049297 554.05 600.24 2.3512 1.5718 2.0061 215.75 0.26906 8.1600 0.018870
25.375 139.41 0.43890 391.83 413.19 1.7207 491.77 0.0020335 264.17 266.13 1.2280 1.6686 2.7230 716.76 -8.3775e-07 96.773 0.093543 20.820 0.048032 555.03 601.20 2.3504 1.5783 2.0199 215.39 0.26771 8.1941 0.019017
26.375 142.98 0.45086 397.22 419.13 1.7387 490.20 0.0020400 266.84 268.85 1.2370 1.6728 2.7342 710.01 0.00014161 95.755 0.093078 21.366 0.046804 556.01 602.15 2.3497 1.5847 2.0340 215.01 0.26640 8.2286 0.019167
27.375 146.62 0.46312 402.65 425.12 1.7568 488.61 0.0020466 269.52 271.59 1.2459 1.6770 2.7456 703.26 0.00028782 94.745 0.092615 21.924 0.045612 556.99 603.10 2.3490 1.5913 2.0484 214.62 0.26512 8.2634 0.019319
28.375 150.33 0.47568 408.14 431.17 1.7750 487.01 0.0020533 272.21 274.34 1.2549 1.6812 2.7573 696.49 0.00043793 93.742 0.092154 22.495 0.044454 557.96 604.03 2.3483 1.5978 2.0631 214.21 0.26387 8.2987 0.019472
29.375 154.10 0.48855 413.67 437.28 1.7933 485.40 0.0020601 274.91 277.10 1.2638 1.6854 2.7691 689.72 0.00059212 92.747 0.091695 23.079 0.043329 558.92 604.96 2.3476 1.6044 2.0781 213.80 0.26265 8.3344 0.019628
30.375 157.94 0.50175 419.25 443.45 1.8117 483.78 0.0020671 277.62 279.87 1.2728 1.6897 2.7813 682.93 0.00075055 91.760 0.091238 23.676 0.042237 559.88 605.88 2.3469 1.6111 2.0935 213.37 0.26147 8.3705 0.019786
31.375 161.86 0.51529 424.88 449.68 1.8302 482.15 0.0020741 280.34 282.66 1.2818 1.6939 2.7936 676.13 0.00091340 90.779 0.090782 24.287 0.041175 560.84 606.79 2.3462 1.6178 2.1092 212.93 0.26031 8.4071 0.019947
32.375 165.84 0.52917 430.56 455.97 1.8489 480.50 0.0020812 283.07 285.45 1.2908 1.6983 2.8063 669.32 0.0010809 89.806 0.090328 24.911 0.040143 561.79 607.69 2.3455 1.6246 2.1254 212.48 0.25919 8.4442 0.020110
33.375 169.90 0.54340 436.29 462.32 1.8676 478.83 0.0020884 285.81 288.26 1.2997 1.7026 2.8192 662.50 0.0012532 88.840 0.089876 25.549 0.039140 562.73 608.58 2.3448 1.6314 2.1419 212.01 0.25809 8.4818 0.020275
34.375 174.02 0.55800 442.07 468.73 1.8864 477.16 0.0020957 288.56 291.07 1.3087 1.7070 2.8324 655.67 0.0014305 87.880 0.089426 26.202 0.038164 563.67 609.46 2.3440 1.6383 2.1589 211.53 0.25702 8.5199 0.020443
35.375 178.22 0.57299 447.90 475.21 1.9054 475.47 0.0021032 291.32 293.90 1.3177 1.7114 2.8459 648.82 0.0016131 86.927 0.088977 26.870 0.037216 564.60 610.33 2.3433 1.6452 2.1763 211.04 0.25599 8.5586 0.020613
36.375 182.50 0.58836 453.79 481.75 1.9244 473.77 0.0021107 294.09 296.74 1.3267 1.7158 2.8597 641.96 0.0018012 85.980 0.088531 27.553 0.036293 565.52 611.19 2.3426 1.6522 2.1942 210.53 0.25498 8.5978 0.020786
37.375 186.84 0.60414 459.73 488.35 1.9436 472.05 0.0021184 296.87 299.60 1.3357 1.7203 2.8739 635.08 0.0019950 85.040 0.088085 28.252 0.035395 566.44 612.04 2.3419 1.6592 2.2125 210.01 0.25400 8.6376 0.020962
38.375 191.27 0.62033 465.72 495.02 1.9628 470.31 0.0021262 299.66 302.46 1.3447 1.7248 2.8884 628.19 0.0021949 84.105 0.087642 28.967 0.034522 567.35 612.88 2.3411 1.6663 2.2314 209.47 0.25305 8.6780 0.021141
39.375 195.77 0.63696 471.76 501.76 1.9822 468.56 0.0021342 302.46 305.34 1.3537 1.7293 2.9033 621.29 0.0024011 83.177 0.087200 29.699 0.033671 568.26 613.70 2.3404 1.6734 2.2508 208.92 0.25213 8.7190 0.021323
40.375 200.34 0.65404 477.86 508.56 2.0017 466.80 0.0021423 305.27 308.23 1.3627 1.7339 2.9185 614.37 0.0026140 82.254 0.086760 30.447 0.032844 569.15 614.52 2.3396 1.6806 2.2708 208.36 0.25123 8.7608 0.021508
41.375 205.00 0.67159 484.01 515.42 2.0213 465.01 0.0021505 308.10 311.14 1.3718 1.7385 2.9342 607.43 0.0028338 81.338 0.086322 31.214 0.032037 570.04 615.32 2.3389 1.6879 2.2913 207.78 0.25037 8.8032 0.021696
42.375 209.73 0.68962 490.22 522.36 2.0410 463.21 0.0021588 310.94 314.06 1.3808 1.7432 2.9502 600.47 0.0030609 80.426 0.085885 31.998 0.031252 570.92 616.11 2.3381 1.6952 2.3125 207.19 0.24953 8.8463 0.021888
43.375 214.54 0.70815 496.49 529.36 2.0608 461.40 0.0021673 313.79 316.99 1.3899 1.7478 2.9667 593.50 0.0032957 79.520 0.085449 32.800 0.030488 571.79 616.88 2.3373 1.7027 2.3344 206.58 0.24871 8.8902 0.022084
44.375 219.43 0.72720 502.81 536.43 2.0807 459.56 0.0021760 316.65 319.94 1.3989 1.7525 2.9837 586.51 0.0035386 78.619 0.085015 33.622 0.029742 572.65 617.65 2.3365 1.7101 2.3569 205.96 0.24793 8.9349 0.022283
45.375 224.41 0.74679 509.19 543.57 2.1008 457.71 0.0021848 319.52 322.90 1.4080 1.7573 3.0012 579.50 0.0037900 77.723 0.084583 34.463 0.029016 573.50 618.40 2.3357 1.7177 2.3802 205.32 0.24717 8.9805 0.022485
46.375 229.46 0.76694 515.63 550.79 2.1210 455.83 0.0021938 322.41 325.88 1.4171 1.7621 3.0192 572.46 0.0040504 76.832 0.084152 35.325 0.028308 574.34 619.13 2.3349 1.7253 2.4042 204.67 0.24644 9.0269 0.022692
47.375 234.60 0.78769 522.12 558.07 2.1413 453.94 0.0022029 325.31 328.87 1.4262 1.7669 3.0377 565.41 0.0043202 75.946 0.083723 36.208 0.027618 575.17 619.85 2.3340 1.7329 2.4291 204.00 0.24573 9.0742 0.022903
48.375 239.83 0.80904 528.68 565.43 2.1617 452.03 0.0022123 328.22 331.88 1.4353 1.7718 3.0569 558.34 0.0046000 75.064 0.083295 37.112 0.026945 576.00 620.55 2.3332 1.7407 2.4548 203.31 0.24505 9.1224 0.023119
49.375 245.13 0.83103 535.30 572.86 2.1823 450.09 0.0022218 331.15 334.90 1.4445 1.7767 3.0766 551.24 0.0048904 74.186 0.082868 38.039 0.026289 576.81 621.24 2.3323 1.7485 2.4815 202.61 0.24440 9.1716 0.023339
50.375 250.53 0.85369 541.98 580.36 2.2029 448.13 0.0022315 334.09 337.94 1.4536 1.7817 3.0970 544.13 0.0051920 73.313 0.082442 38.989 0.025648 577.61 621.91 2.3314 1.7564 2.5092 201.89 0.24377 9.2219 0.023564
51.375 256.01 0.87704 548.72 587.94 2.2237 446.15 0.0022414 337.04 341.00 1.4628 1.7867 3.1181 536.98 0.0055054 72.443 0.082018 39.962 0.025024 578.39 622.56 2.3304 1.7644 2.5379 201.16 0.24317 9.2733 0.023794
52.375 261.57 0.90112 555.52 595.60 2.2447 444.15 0.0022515 340.01 344.07 1.4720 1.7918 3.1400 529.82 0.0058313 71.577 0.081595 40.961 0.024414 579.17 623.20 2.3295 1.7724 2.5677 200.41 0.24260 9.3258 0.024029
53.375 267.23 0.92597 562.39 603.33 2.2657 442.12 0.0022618 343.00 347.17 1.4812 1.7969 3.1627 522.62 0.0061705 70.715 0.081174 41.985 0.023818 579.93 623.81 2.3285 1.7805 2.5987 199.63 0.24205 9.3795 0.024270
54.375 272.97 0.95161 569.32 611.15 2.2869 440.06 0.0022724 346.00 350.28 1.4904 1.8021 3.1862 515.40 0.0065239 69.856 0.080753 43.036 0.023237 580.68 624.41 2.3274 1.7887 2.6310 198.85 0.24154 9.4344 0.024516
55.375 278.81 0.97810 576.32 619.04 2.3083 437.98 0.0022832 349.02 353.40 1.4997 1.8073 3.2106 508.15 0.0068923 69.001 0.080334 44.114 0.022669 581.41 624.99 2.3264 1.7969 2.6646 198.04 0.24105 9.4907 0.024769
56.375 283.90 undefined 582.34 625.84 2.3266 45.000 0.022222 582.34 625.84 2.3266 1.8038 2.6900 197.53 0.23999 9.5431 0.024999 45.000 0.022222 582.34 625.84 2.3266 1.8038 2.6900 197.53 0.23999 9.5431 0.024999
57.375 285.63 undefined 584.15 627.91 2.3320 45.000 0.022222 584.15 627.91 2.3320 1.8051 2.6765 198.30 0.23653 9.5744 0.025111 45.000 0.022222 584.15 627.91 2.3320 1.8051 2.6765 198.30 0.23653 9.5744 0.025111
58.375 287.35 undefined 585.95 629.98 2.3375 45.000 0.022222 585.95 629.98 2.3375 1.8066 2.6638 199.06 0.23316 9.6056 0.025224 45.000 0.022222 585.95 629.98 2.3375 1.8066 2.6638 199.06 0.23316 9.6056 0.025224
59.375 289.07 undefined 587.76 632.05 2.3429 45.000 0.022222 587.76 632.05 2.3429 1.8081 2.6518 199.81 0.22987 9.6368 0.025338 45.000 0.022222 587.76 632.05 2.3429 1.8081 2.6518 199.81 0.22987 9.6368 0.025338
60.375 290.78 undefined 589.57 634.12 2.3484 45.000 0.022222 589.57 634.12 2.3484 1.8097 2.6404 200.56 0.22666 9.6680 0.025453 45.000 0.022222 589.57 634.12 2.3484 1.8097 2.6404 200.56 0.22666 9.6680 0.025453
61.375 292.49 undefined 591.38 636.20 2.3538 45.000 0.022222 591.38 636.20 2.3538 1.8114 2.6296 201.31 0.22353 9.6992 0.025569 45.000 0.022222 591.38 636.20 2.3538 1.8114 2.6296 201.31 0.22353 9.6992 0.025569
62.375 294.20 undefined 593.19 638.27 2.3592 45.000 0.022222 593.19 638.27 2.3592 1.8132 2.6194 202.05 0.22046 9.7303 0.025686 45.000 0.022222 593.19 638.27 2.3592 1.8132 2.6194 202.05 0.22046 9.7303 0.025686
63.375 295.89 undefined 595.01 640.34 2.3646 45.000 0.022222 595.01 640.34 2.3646 1.8151 2.6098 202.78 0.21747 9.7614 0.025804 45.000 0.022222 595.01 640.34 2.3646 1.8151 2.6098 202.78 0.21747 9.7614 0.025804
64.375 297.59 undefined 596.82 642.42 2.3700 45.000 0.022222 596.82 642.42 2.3700 1.8171 2.6007 203.51 0.21455 9.7924 0.025923 45.000 0.022222 596.82 642.42 2.3700 1.8171 2.6007 203.51 0.21455 9.7924 0.025923
65.375 299.28 undefined 598.64 644.50 2.3754 45.000 0.022222 598.64 644.50 2.3754 1.8192 2.5921 204.24 0.21169 9.8234 0.026043 45.000 0.022222 598.64 644.50 2.3754 1.8192 2.5921 204.24 0.21169 9.8234 0.026043
66.375 300.96 undefined 600.46 646.57 2.3807 45.000 0.022222 600.46 646.57 2.3807 1.8213 2.5840 204.96 0.20889 9.8544 0.026163 45.000 0.022222 600.46 646.57 2.3807 1.8213 2.5840 204.96 0.20889 9.8544 0.026163
67.375 302.64 undefined 602.28 648.65 2.3861 45.000 0.022222 602.28 648.65 2.3861 1.8236 2.5763 205.68 0.20615 9.8854 0.026284 45.000 0.022222 602.28 648.65 2.3861 1.8236 2.5763 205.68 0.20615 9.8854 0.026284
68.375 304.32 undefined 604.11 650.74 2.3915 45.000 0.022222 604.11 650.74 2.3915 1.8259 2.5690 206.39 0.20347 9.9163 0.026406 45.000 0.022222 604.11 650.74 2.3915 1.8259 2.5690 206.39 0.20347 9.9163 0.026406
69.375 305.99 undefined 605.94 652.82 2.3968 45.000 0.022222 605.94 652.82 2.3968 1.8282 2.5621 207.10 0.20085 9.9472 0.026529 45.000 0.022222 605.94 652.82 2.3968 1.8282 2.5621 207.10 0.20085 9.9472 0.026529
70.375 307.66 undefined 607.76 654.90 2.4021 45.000 0.022222 607.76 654.90 2.4021 1.8307 2.5556 207.80 0.19828 9.9780 0.026653 45.000 0.022222 607.76 654.90 2.4021 1.8307 2.5556 207.80 0.19828 9.9780 0.026653
71.375 309.33 undefined 609.60 656.99 2.4075 45.000 0.022222 609.60 656.99 2.4075 1.8331 2.5494 208.50 0.19576 10.009 0.026777 45.000 0.022222 609.60 656.99 2.4075 1.8331 2.5494 208.50 0.19576 10.009 0.026777
72.375 310.99 undefined 611.43 659.08 2.4128 45.000 0.022222 611.43 659.08 2.4128 1.8357 2.5435 209.20 0.19330 10.040 0.026902 45.000 0.022222 611.43 659.08 2.4128 1.8357 2.5435 209.20 0.19330 10.040 0.026902
73.375 312.65 undefined 613.27 661.17 2.4181 45.000 0.022222 613.27 661.17 2.4181 1.8382 2.5380 209.89 0.19089 10.070 0.027027 45.000 0.022222 613.27 661.17 2.4181 1.8382 2.5380 209.89 0.19089 10.070 0.027027
74.375 314.31 undefined 615.11 663.26 2.4234 45.000 0.022222 615.11 663.26 2.4234 1.8409 2.5327 210.58 0.18852 10.101 0.027153 45.000 0.022222 615.11 663.26 2.4234 1.8409 2.5327 210.58 0.18852 10.101 0.027153
75.375 315.96 undefined 616.95 665.36 2.4287 45.000 0.022222 616.95 665.36 2.4287 1.8435 2.5278 211.27 0.18621 10.132 0.027280 45.000 0.022222 616.95 665.36 2.4287 1.8435 2.5278 211.27 0.18621 10.132 0.027280
76.375 317.61 undefined 618.79 667.46 2.4340 45.000 0.022222 618.79 667.46 2.4340 1.8462 2.5231 211.95 0.18394 10.162 0.027408 45.000 0.022222 618.79 667.46 2.4340 1.8462 2.5231 211.95 0.18394 10.162 0.027408
77.375 319.25 undefined 620.64 669.56 2.4392 45.000 0.022222 620.64 669.56 2.4392 1.8490 2.5186 212.62 0.18171 10.193 0.027536 45.000 0.022222 620.64 669.56 2.4392 1.8490 2.5186 212.62 0.18171 10.193 0.027536
78.375 320.89 undefined 622.49 671.66 2.4445 45.000 0.022222 622.49 671.66 2.4445 1.8517 2.5144 213.30 0.17953 10.224 0.027664 45.000 0.022222 622.49 671.66 2.4445 1.8517 2.5144 213.30 0.17953 10.224 0.027664
79.375 322.53 undefined 624.35 673.76 2.4498 45.000 0.022222 624.35 673.76 2.4498 1.8545 2.5104 213.97 0.17739 10.254 0.027793 45.000 0.022222 624.35 673.76 2.4498 1.8545 2.5104 213.97 0.17739 10.254 0.027793
80.375 324.17 undefined 626.20 675.87 2.4550 45.000 0.022222 626.20 675.87 2.4550 1.8573 2.5067 214.64 0.17529 10.285 0.027923 45.000 0.022222 626.20 675.87 2.4550 1.8573 2.5067 214.64 0.17529 10.285 0.027923
81.375 325.80 undefined 628.06 677.98 2.4603 45.000 0.022222 628.06 677.98 2.4603 1.8602 2.5031 215.30 0.17323 10.315 0.028053 45.000 0.022222 628.06 677.98 2.4603 1.8602 2.5031 215.30 0.17323 10.315 0.028053
82.375 327.43 undefined 629.92 680.09 2.4655 45.000 0.022222 629.92 680.09 2.4655 1.8631 2.4998 215.96 0.17122 10.346 0.028184 45.000 0.022222 629.92 680.09 2.4655 1.8631 2.4998 215.96 0.17122 10.346 0.028184
83.375 329.06 undefined 631.79 682.20 2.4708 45.000 0.022222 631.79 682.20 2.4708 1.8660 2.4967 216.62 0.16923 10.376 0.028315 45.000 0.022222 631.79 682.20 2.4708 1.8660 2.4967 216.62 0.16923 10.376 0.028315
84.375 330.68 undefined 633.65 684.32 2.4760 45.000 0.022222 633.65 684.32 2.4760 1.8690 2.4938 217.28 0.16729 10.406 0.028447 45.000 0.022222 633.65 684.32 2.4760 1.8690 2.4938 217.28 0.16729 10.406 0.028447
85.375 332.30 undefined 635.52 686.44 2.4812 45.000 0.022222 635.52 686.44 2.4812 1.8719 2.4910 217.93 0.16538 10.437 0.028579 45.000 0.022222 635.52 686.44 2.4812 1.8719 2.4910 217.93 0.16538 10.437 0.028579
86.375 333.92 undefined 637.40 688.56 2.4864 45.000 0.022222 637.40 688.56 2.4864 1.8749 2.4884 218.58 0.16351 10.467 0.028712 45.000 0.022222 637.40 688.56 2.4864 1.8749 2.4884 218.58 0.16351 10.467 0.028712
87.375 335.54 undefined 639.27 690.68 2.4916 45.000 0.022222 639.27 690.68 2.4916 1.8780 2.4861 219.23 0.16167 10.497 0.028845 45.000 0.022222 639.27 690.68 2.4916 1.8780 2.4861 219.23 0.16167 10.497 0.028845
88.375 337.15 undefined 641.15 692.81 2.4969 45.000 0.022222 641.15 692.81 2.4969 1.8811 2.4838 219.87 0.15986 10.528 0.028979 45.000 0.022222 641.15 692.81 2.4969 1.8811 2.4838 219.87 0.15986 10.528 0.028979
89.375 338.76 undefined 643.04 694.94 2.5021 45.000 0.022222 643.04 694.94 2.5021 1.8841 2.4818 220.51 0.15808 10.558 0.029114 45.000 0.022222 643.04 694.94 2.5021 1.8841 2.4818 220.51 0.15808 10.558 0.029114
90.375 340.37 undefined 644.92 697.07 2.5072 45.000 0.022222 644.92 697.07 2.5072 1.8873 2.4799 221.15 0.15634 10.588 0.029248 45.000 0.022222 644.92 697.07 2.5072 1.8873 2.4799 221.15 0.15634 10.588 0.029248
91.375 341.98 undefined 646.81 699.21 2.5124 45.000 0.022222 646.81 699.21 2.5124 1.8904 2.4781 221.79 0.15463 10.618 0.029383 45.000 0.022222 646.81 699.21 2.5124 1.8904 2.4781 221.79 0.15463 10.618 0.029383
92.375 343.58 undefined 648.70 701.35 2.5176 45.000 0.022222 648.70 701.35 2.5176 1.8936 2.4765 222.42 0.15294 10.648 0.029519 45.000 0.022222 648.70 701.35 2.5176 1.8936 2.4765 222.42 0.15294 10.648 0.029519
93.375 345.18 undefined 650.60 703.49 2.5228 45.000 0.022222 650.60 703.49 2.5228 1.8968 2.4750 223.05 0.15128 10.679 0.029655 45.000 0.022222 650.60 703.49 2.5228 1.8968 2.4750 223.05 0.15128 10.679 0.029655
94.375 346.78 undefined 652.50 705.63 2.5280 45.000 0.022222 652.50 705.63 2.5280 1.9000 2.4737 223.68 0.14965 10.709 0.029792 45.000 0.022222 652.50 705.63 2.5280 1.9000 2.4737 223.68 0.14965 10.709 0.029792
95.375 348.38 undefined 654.40 707.78 2.5331 45.000 0.022222 654.40 707.78 2.5331 1.9033 2.4725 224.30 0.14805 10.739 0.029929 45.000 0.022222 654.40 707.78 2.5331 1.9033 2.4725 224.30 0.14805 10.739 0.029929
96.375 349.98 undefined 656.30 709.93 2.5383 45.000 0.022222 656.30 709.93 2.5383 1.9065 2.4714 224.92 0.14648 10.769 0.030066 45.000 0.022222 656.30 709.93 2.5383 1.9065 2.4714 224.92 0.14648 10.769 0.030066
97.375 351.57 undefined 658.21 712.08 2.5435 45.000 0.022222 658.21 712.08 2.5435 1.9098 2.4704 225.54 0.14493 10.799 0.030204 45.000 0.022222 658.21 712.08 2.5435 1.9098 2.4704 225.54 0.14493 10.799 0.030204
98.375 353.16 undefined 660.12 714.23 2.5486 45.000 0.022222 660.12 714.23 2.5486 1.9131 2.4695 226.16 0.14340 10.829 0.030342 45.000 0.022222 660.12 714.23 2.5486 1.9131 2.4695 226.16 0.14340 10.829 0.030342
99.375 354.75 undefined 662.04 716.39 2.5538 45.000 0.022222 662.04 716.39 2.5538 1.9164 2.4688 226.78 0.14190 10.858 0.030481 45.000 0.022222 662.04 716.39 2.5538 1.9164 2.4688 226.78 0.14190 10.858 0.030481
100.38 356.34 undefined 663.96 718.55 2.5589 45.000 0.022222 663.96 718.55 2.5589 1.9198 2.4681 227.39 0.14043 10.888 0.030620 45.000 0.022222 663.96 718.55 2.5589 1.9198 2.4681 227.39 0.14043 10.888 0.030620
101.38 357.92 undefined 665.88 720.72 2.5640 45.000 0.022222 665.88 720.72 2.5640 1.9231 2.4676 228.00 0.13897 10.918 0.030760 45.000 0.022222 665.88 720.72 2.5640 1.9231 2.4676 228.00 0.13897 10.918 0.030760
102.38 359.50 undefined 667.80 722.88 2.5692 45.000 0.022222 667.80 722.88 2.5692 1.9265 2.4672 228.61 0.13754 10.948 0.030900 45.000 0.022222 667.80 722.88 2.5692 1.9265 2.4672 228.61 0.13754 10.948 0.030900
103.38 361.08 undefined 669.73 725.05 2.5743 45.000 0.022222 669.73 725.05 2.5743 1.9299 2.4668 229.21 0.13614 10.978 0.031040 45.000 0.022222 669.73 725.05 2.5743 1.9299 2.4668 229.21 0.13614 10.978 0.031040
104.38 362.66 undefined 671.66 727.23 2.5794 45.000 0.022222 671.66 727.23 2.5794 1.9333 2.4666 229.82 0.13475 11.008 0.031181 45.000 0.022222 671.66 727.23 2.5794 1.9333 2.4666 229.82 0.13475 11.008 0.031181
105.38 364.24 undefined 673.60 729.40 2.5845 45.000 0.022222 673.60 729.40 2.5845 1.9367 2.4664 230.42 0.13339 11.037 0.031322 45.000 0.022222 673.60 729.40 2.5845 1.9367 2.4664 230.42 0.13339 11.037 0.031322
106.38 365.82 undefined 675.54 731.58 2.5896 45.000 0.022222 675.54 731.58 2.5896 1.9402 2.4663 231.02 0.13205 11.067 0.031464 45.000 0.022222 675.54 731.58 2.5896 1.9402 2.4663 231.02 0.13205 11.067 0.031464
107.38 367.39 undefined 677.48 733.77 2.5948 45.000 0.022222 677.48 733.77 2.5948 1.9436 2.4663 231.62 0.13072 11.097 0.031606 45.000 0.022222 677.48 733.77 2.5948 1.9436 2.4663 231.62 0.13072 11.097 0.031606
108.38 368.96 undefined 679.42 735.95 2.5999 45.000 0.022222 679.42 735.95 2.5999 1.9471 2.4664 232.21 0.12942 11.126 0.031748 45.000 0.022222 679.42 735.95 2.5999 1.9471 2.4664 232.21 0.12942 11.126 0.031748
109.38 370.53 undefined 681.37 738.14 2.6050 45.000 0.022222 681.37 738.14 2.6050 1.9506 2.4666 232.80 0.12814 11.156 0.031891 45.000 0.022222 681.37 738.14 2.6050 1.9506 2.4666 232.80 0.12814 11.156 0.031891
110.38 372.10 undefined 683.32 740.34 2.6101 45.000 0.022222 683.32 740.34 2.6101 1.9541 2.4668 233.39 0.12688 11.186 0.032034 45.000 0.022222 683.32 740.34 2.6101 1.9541 2.4668 233.39 0.12688 11.186 0.032034
111.38 373.67 undefined 685.28 742.53 2.6152 45.000 0.022222 685.28 742.53 2.6152 1.9576 2.4671 233.98 0.12563 11.215 0.032177 45.000 0.022222 685.28 742.53 2.6152 1.9576 2.4671 233.98 0.12563 11.215 0.032177
112.38 375.23 undefined 687.24 744.73 2.6202 45.000 0.022222 687.24 744.73 2.6202 1.9611 2.4675 234.57 0.12441 11.245 0.032321 45.000 0.022222 687.24 744.73 2.6202 1.9611 2.4675 234.57 0.12441 11.245 0.032321
113.38 376.80 undefined 689.20 746.93 2.6253 45.000 0.022222 689.20 746.93 2.6253 1.9646 2.4680 235.15 0.12320 11.274 0.032465 45.000 0.022222 689.20 746.93 2.6253 1.9646 2.4680 235.15 0.12320 11.274 0.032465
114.38 378.36 undefined 691.17 749.14 2.6304 45.000 0.022222 691.17 749.14 2.6304 1.9681 2.4685 235.73 0.12201 11.304 0.032610 45.000 0.022222 691.17 749.14 2.6304 1.9681 2.4685 235.73 0.12201 11.304 0.032610
115.38 379.92 undefined 693.14 751.35 2.6355 45.000 0.022222 693.14 751.35 2.6355 1.9717 2.4691 236.32 0.12083 11.333 0.032755 45.000 0.022222 693.14 751.35 2.6355 1.9717 2.4691 236.32 0.12083 11.333 0.032755
116.38 381.48 undefined 695.11 753.56 2.6406 45.000 0.022222 695.11 753.56 2.6406 1.9752 2.4698 236.89 0.11968 11.362 0.032900 45.000 0.022222 695.11 753.56 2.6406 1.9752 2.4698 236.89 0.11968 11.362 0.032900
117.38 383.03 undefined 697.09 755.78 2.6456 45.000 0.022222 697.09 755.78 2.6456 1.9788 2.4705 237.47 0.11854 11.392 0.033046 45.000 0.022222 697.09 755.78 2.6456 1.9788 2.4705 237.47 0.11854 11.392 0.033046
118.38 384.59 undefined 699.07 757.99 2.6507 45.000 0.022222 699.07 757.99 2.6507 1.9823 2.4712 238.04 0.11742 11.421 0.033192 45.000 0.022222 699.07 757.99 2.6507 1.9823 2.4712 238.04 0.11742 11.421 0.033192
119.38 386.14 undefined 701.05 760.22 2.6558 45.000 0.022222 701.05 760.22 2.6558 1.9859 2.4721 238.62 0.11631 11.450 0.033339 45.000 0.022222 701.05 760.22 2.6558 1.9859 2.4721 238.62 0.11631 11.450 0.033339
120.38 387.70 undefined 703.04 762.44 2.6608 45.000 0.022222 703.04 762.44 2.6608 1.9895 2.4730 239.19 0.11522 11.480 0.033485 45.000 0.022222 703.04 762.44 2.6608 1.9895 2.4730 239.19 0.11522 11.480 0.033485
121.38 389.25 undefined 705.03 764.67 2.6659 45.000 0.022222 705.03 764.67 2.6659 1.9931 2.4739 239.76 0.11414 11.509 0.033632 45.000 0.022222 705.03 764.67 2.6659 1.9931 2.4739 239.76 0.11414 11.509 0.033632
122.38 390.80 undefined 707.03 766.90 2.6709 45.000 0.022222 707.03 766.90 2.6709 1.9967 2.4749 240.32 0.11308 11.538 0.033780 45.000 0.022222 707.03 766.90 2.6709 1.9967 2.4749 240.32 0.11308 11.538 0.033780
123.38 392.35 undefined 709.03 769.14 2.6760 45.000 0.022222 709.03 769.14 2.6760 2.0003 2.4760 240.89 0.11203 11.567 0.033928 45.000 0.022222 709.03 769.14 2.6760 2.0003 2.4760 240.89 0.11203 11.567 0.033928
124.38 393.89 undefined 711.03 771.38 2.6810 45.000 0.022222 711.03 771.38 2.6810 2.0039 2.4771 241.45 0.11100 11.596 0.034076 45.000 0.022222 711.03 771.38 2.6810 2.0039 2.4771 241.45 0.11100 11.596 0.034076
125.38 395.44 undefined 713.03 773.62 2.6860 45.000 0.022222 713.03 773.62 2.6860 2.0075 2.4782 242.01 0.10998 11.626 0.034225 45.000 0.022222 713.03 773.62 2.6860 2.0075 2.4782 242.01 0.10998 11.626 0.034225
126.38 396.98 undefined 715.04 775.87 2.6911 45.000 0.022222 715.04 775.87 2.6911 2.0112 2.4794 242.58 0.10898 11.655 0.034374 45.000 0.022222 715.04 775.87 2.6911 2.0112 2.4794 242.58 0.10898 11.655 0.034374
127.38 398.53 undefined 717.06 778.12 2.6961 45.000 0.022222 717.06 778.12 2.6961 2.0148 2.4807 243.13 0.10799 11.684 0.034523 45.000 0.022222 717.06 778.12 2.6961 2.0148 2.4807 243.13 0.10799 11.684 0.034523
128.38 400.07 undefined 719.07 780.37 2.7011 45.000 0.022222 719.07 780.37 2.7011 2.0185 2.4820 243.69 0.10701 11.713 0.034672 45.000 0.022222 719.07 780.37 2.7011 2.0185 2.4820 243.69 0.10701 11.713 0.034672
129.38 401.61 undefined 721.09 782.63 2.7062 45.000 0.022222 721.09 782.63 2.7062 2.0221 2.4833 244.24 0.10605 11.742 0.034822 45.000 0.022222 721.09 782.63 2.7062 2.0221 2.4833 244.24 0.10605 11.742 0.034822
130.38 403.15 undefined 723.12 784.89 2.7112 45.000 0.022222 723.12 784.89 2.7112 2.0258 2.4847 244.80 0.10510 11.771 0.034973 45.000 0.022222 723.12 784.89 2.7112 2.0258 2.4847 244.80 0.10510 11.771 0.034973
131.38 404.69 undefined 725.14 787.15 2.7162 45.000 0.022222 725.14 787.15 2.7162 2.0294 2.4861 245.35 0.10416 11.800 0.035123 45.000 0.022222 725.14 787.15 2.7162 2.0294 2.4861 245.35 0.10416 11.800 0.035123
132.38 406.22 undefined 727.18 789.42 2.7212 45.000 0.022222 727.18 789.42 2.7212 2.0331 2.4876 245.90 0.10324 11.829 0.035274 45.000 0.022222 727.18 789.42 2.7212 2.0331 2.4876 245.90 0.10324 11.829 0.035274
133.38 407.76 undefined 729.21 791.69 2.7262 45.000 0.022222 729.21 791.69 2.7262 2.0368 2.4891 246.45 0.10232 11.858 0.035426 45.000 0.022222 729.21 791.69 2.7262 2.0368 2.4891 246.45 0.10232 11.858 0.035426
134.38 409.29 undefined 731.25 793.96 2.7312 45.000 0.022222 731.25 793.96 2.7312 2.0404 2.4906 246.99 0.10142 11.886 0.035577 45.000 0.022222 731.25 793.96 2.7312 2.0404 2.4906 246.99 0.10142 11.886 0.035577
135.38 410.83 undefined 733.29 796.24 2.7362 45.000 0.022222 733.29 796.24 2.7362 2.0441 2.4922 247.54 0.10053 11.915 0.035729 45.000 0.022222 733.29 796.24 2.7362 2.0441 2.4922 247.54 0.10053 11.915 0.035729
136.38 412.36 undefined 735.34 798.52 2.7413 45.000 0.022222 735.34 798.52 2.7413 2.0478 2.4938 248.08 0.099656 11.944 0.035882 45.000 0.022222 735.34 798.52 2.7413 2.0478 2.4938 248.08 0.099656 11.944 0.035882
137.38 413.89 undefined 737.39 800.80 2.7462 45.000 0.022222 737.39 800.80 2.7462 2.0515 2.4955 248.63 0.098790 11.973 0.036034 45.000 0.022222 737.39 800.80 2.7462 2.0515 2.4955 248.63 0.098790 11.973 0.036034
138.38 415.42 undefined 739.44 803.09 2.7512 45.000 0.022222 739.44 803.09 2.7512 2.0552 2.4972 249.17 0.097935 12.002 0.036187 45.000 0.022222 739.44 803.09 2.7512 2.0552 2.4972 249.17 0.097935 12.002 0.036187
139.38 416.95 undefined 741.50 805.38 2.7562 45.000 0.022222 741.50 805.38 2.7562 2.0589 2.4989 249.70 0.097091 12.030 0.036341 45.000 0.022222 741.50 805.38 2.7562 2.0589 2.4989 249.70 0.097091 12.030 0.036341
140.38 418.47 undefined 743.56 807.67 2.7612 45.000 0.022222 743.56 807.67 2.7612 2.0626 2.5007 250.24 0.096258 12.059 0.036494 45.000 0.022222 743.56 807.67 2.7612 2.0626 2.5007 250.24 0.096258 12.059 0.036494
141.38 420.00 undefined 745.62 809.97 2.7662 45.000 0.022222 745.62 809.97 2.7662 2.0663 2.5025 250.78 0.095436 12.088 0.036648 45.000 0.022222 745.62 809.97 2.7662 2.0663 2.5025 250.78 0.095436 12.088 0.036648
142.38 421.52 undefined 747.69 812.28 2.7712 45.000 0.022222 747.69 812.28 2.7712 2.0700 2.5043 251.31 0.094624 12.116 0.036803 45.000 0.022222 747.69 812.28 2.7712 2.0700 2.5043 251.31 0.094624 12.116 0.036803
143.38 423.05 undefined 749.76 814.58 2.7762 45.000 0.022222 749.76 814.58 2.7762 2.0737 2.5062 251.85 0.093822 12.145 0.036957 45.000 0.022222 749.76 814.58 2.7762 2.0737 2.5062 251.85 0.093822 12.145 0.036957
144.38 424.57 undefined 751.84 816.89 2.7812 45.000 0.022222 751.84 816.89 2.7812 2.0774 2.5081 252.38 0.093031 12.174 0.037112 45.000 0.022222 751.84 816.89 2.7812 2.0774 2.5081 252.38 0.093031 12.174 0.037112
145.38 426.09 undefined 753.92 819.20 2.7861 45.000 0.022222 753.92 819.20 2.7861 2.0812 2.5100 252.91 0.092249 12.202 0.037268 45.000 0.022222 753.92 819.20 2.7861 2.0812 2.5100 252.91 0.092249 12.202 0.037268
146.38 427.61 undefined 756.00 821.52 2.7911 45.000 0.022222 756.00 821.52 2.7911 2.0849 2.5119 253.44 0.091477 12.231 0.037423 45.000 0.022222 756.00 821.52 2.7911 2.0849 2.5119 253.44 0.091477 12.231 0.037423
147.38 429.13 undefined 758.09 823.84 2.7961 45.000 0.022222 758.09 823.84 2.7961 2.0886 2.5139 253.96 0.090715 12.259 0.037579 45.000 0.022222 758.09 823.84 2.7961 2.0886 2.5139 253.96 0.090715 12.259 0.037579
148.38 430.65 undefined 760.18 826.16 2.8010 45.000 0.022222 760.18 826.16 2.8010 2.0924 2.5159 254.49 0.089962 12.288 0.037735 45.000 0.022222 760.18 826.16 2.8010 2.0924 2.5159 254.49 0.089962 12.288 0.037735
149.38 432.17 undefined 762.27 828.49 2.8060 45.000 0.022222 762.27 828.49 2.8060 2.0961 2.5180 255.01 0.089219 12.316 0.037892 45.000 0.022222 762.27 828.49 2.8060 2.0961 2.5180 255.01 0.089219 12.316 0.037892
150.38 433.69 undefined 764.37 830.82 2.8110 45.000 0.022222 764.37 830.82 2.8110 2.0998 2.5200 255.54 0.088485 12.344 0.038049 45.000 0.022222 764.37 830.82 2.8110 2.0998 2.5200 255.54 0.088485 12.344 0.038049
151.38 435.20 undefined 766.47 833.15 2.8159 45.000 0.022222 766.47 833.15 2.8159 2.1036 2.5221 256.06 0.087759 12.373 0.038206 45.000 0.022222 766.47 833.15 2.8159 2.1036 2.5221 256.06 0.087759 12.373 0.038206
152.38 436.72 undefined 768.58 835.49 2.8209 45.000 0.022222 768.58 835.49 2.8209 2.1073 2.5242 256.58 0.087043 12.401 0.038364 45.000 0.022222 768.58 835.49 2.8209 2.1073 2.5242 256.58 0.087043 12.401 0.038364
153.38 438.23 undefined 770.69 837.83 2.8258 45.000 0.022222 770.69 837.83 2.8258 2.1111 2.5264 257.10 0.086335 12.429 0.038522 45.000 0.022222 770.69 837.83 2.8258 2.1111 2.5264 257.10 0.086335 12.429 0.038522
154.38 439.75 undefined 772.80 840.18 2.8308 45.000 0.022222 772.80 840.18 2.8308 2.1148 2.5285 257.61 0.085635 12.458 0.038680 45.000 0.022222 772.80 840.18 2.8308 2.1148 2.5285 257.61 0.085635 12.458 0.038680
155.38 441.26 undefined 774.92 842.52 2.8357 45.000 0.022222 774.92 842.52 2.8357 2.1185 2.5307 258.13 0.084945 12.486 0.038839 45.000 0.022222 774.92 842.52 2.8357 2.1185 2.5307 258.13 0.084945 12.486 0.038839
156.38 442.77 undefined 777.04 844.88 2.8407 45.000 0.022222 777.04 844.88 2.8407 2.1223 2.5329 258.65 0.084262 12.514 0.038997 45.000 0.022222 777.04 844.88 2.8407 2.1223 2.5329 258.65 0.084262 12.514 0.038997
157.38 444.28 undefined 779.16 847.23 2.8456 45.000 0.022222 779.16 847.23 2.8456 2.1261 2.5352 259.16 0.083588 12.542 0.039157 45.000 0.022222 779.16 847.23 2.8456 2.1261 2.5352 259.16 0.083588 12.542 0.039157
158.38 445.79 undefined 781.29 849.59 2.8505 45.000 0.022222 781.29 849.59 2.8505 2.1298 2.5374 259.67 0.082921 12.571 0.039316 45.000 0.022222 781.29 849.59 2.8505 2.1298 2.5374 259.67 0.082921 12.571 0.039316
159.38 447.30 undefined 783.42 851.95 2.8555 45.000 0.022222 783.42 851.95 2.8555 2.1336 2.5397 260.18 0.082263 12.599 0.039476 45.000 0.022222 783.42 851.95 2.8555 2.1336 2.5397 260.18 0.082263 12.599 0.039476
160.38 448.81 undefined 785.56 854.32 2.8604 45.000 0.022222 785.56 854.32 2.8604 2.1373 2.5420 260.69 0.081612 12.627 0.039636 45.000 0.022222 785.56 854.32 2.8604 2.1373 2.5420 260.69 0.081612 12.627 0.039636
161.38 450.31 undefined 787.69 856.69 2.8653 45.000 0.022222 787.69 856.69 2.8653 2.1411 2.5443 261.20 0.080969 12.655 0.039796 45.000 0.022222 787.69 856.69 2.8653 2.1411 2.5443 261.20 0.080969 12.655 0.039796
162.38 451.82 undefined 789.84 859.06 2.8702 45.000 0.022222 789.84 859.06 2.8702 2.1448 2.5467 261.71 0.080333 12.683 0.039957 45.000 0.022222 789.84 859.06 2.8702 2.1448 2.5467 261.71 0.080333 12.683 0.039957
163.38 453.32 undefined 791.98 861.44 2.8752 45.000 0.022222 791.98 861.44 2.8752 2.1486 2.5490 262.21 0.079705 12.711 0.040118 45.000 0.022222 791.98 861.44 2.8752 2.1486 2.5490 262.21 0.079705 12.711 0.040118
164.38 454.83 undefined 794.13 863.82 2.8801 45.000 0.022222 794.13 863.82 2.8801 2.1524 2.5514 262.72 0.079084 12.739 0.040280 45.000 0.022222 794.13 863.82 2.8801 2.1524 2.5514 262.72 0.079084 12.739 0.040280
165.38 456.33 undefined 796.29 866.21 2.8850 45.000 0.022222 796.29 866.21 2.8850 2.1561 2.5538 263.22 0.078470 12.767 0.040441 45.000 0.022222 796.29 866.21 2.8850 2.1561 2.5538 263.22 0.078470 12.767 0.040441
166.38 457.83 undefined 798.45 868.59 2.8899 45.000 0.022222 798.45 868.59 2.8899 2.1599 2.5562 263.73 0.077864 12.795 0.040603 45.000 0.022222 798.45 868.59 2.8899 2.1599 2.5562 263.73 0.077864 12.795 0.040603
167.38 459.34 undefined 800.61 870.99 2.8948 45.000 0.022222 800.61 870.99 2.8948 2.1637 2.5587 264.23 0.077264 12.823 0.040766 45.000 0.022222 800.61 870.99 2.8948 2.1637 2.5587 264.23 0.077264 12.823 0.040766
168.38 460.84 undefined 802.77 873.38 2.8997 45.000 0.022222 802.77 873.38 2.8997 2.1674 2.5611 264.73 0.076671 12.851 0.040928 45.000 0.022222 802.77 873.38 2.8997 2.1674 2.5611 264.73 0.076671 12.851 0.040928
169.38 462.34 undefined 804.94 875.78 2.9047 45.000 0.022222 804.94 875.78 2.9047 2.1712 2.5636 265.23 0.076085 12.879 0.041091 45.000 0.022222 804.94 875.78 2.9047 2.1712 2.5636 265.23 0.076085 12.879 0.041091
170.38 463.84 undefined 807.12 878.18 2.9096 45.000 0.022222 807.12 878.18 2.9096 2.1750 2.5661 265.72 0.075506 12.907 0.041255 45.000 0.022222 807.12 878.18 2.9096 2.1750 2.5661 265.72 0.075506 12.907 0.041255
171.38 465.34 undefined 809.29 880.59 2.9145 45.000 0.022222 809.29 880.59 2.9145 2.1787 2.5686 266.22 0.074933 12.934 0.041418 45.000 0.022222 809.29 880.59 2.9145 2.1787 2.5686 266.22 0.074933 12.934 0.041418
172.38 466.84 undefined 811.47 883.00 2.9194 45.000 0.022222 811.47 883.00 2.9194 2.1825 2.5711 266.72 0.074366 12.962 0.041582 45.000 0.022222 811.47 883.00 2.9194 2.1825 2.5711 266.72 0.074366 12.962 0.041582
173.38 468.33 undefined 813.66 885.42 2.9243 45.000 0.022222 813.66 885.42 2.9243 2.1863 2.5737 267.21 0.073806 12.990 0.041746 45.000 0.022222 813.66 885.42 2.9243 2.1863 2.5737 267.21 0.073806 12.990 0.041746
174.38 469.83 undefined 815.85 887.83 2.9292 45.000 0.022222 815.85 887.83 2.9292 2.1901 2.5762 267.70 0.073253 13.018 0.041911 45.000 0.022222 815.85 887.83 2.9292 2.1901 2.5762 267.70 0.073253 13.018 0.041911
175.38 471.33 undefined 818.04 890.25 2.9340 45.000 0.022222 818.04 890.25 2.9340 2.1938 2.5788 268.20 0.072705 13.045 0.042075 45.000 0.022222 818.04 890.25 2.9340 2.1938 2.5788 268.20 0.072705 13.045 0.042075
176.38 472.82 undefined 820.23 892.68 2.9389 45.000 0.022222 820.23 892.68 2.9389 2.1976 2.5814 268.69 0.072163 13.073 0.042241 45.000 0.022222 820.23 892.68 2.9389 2.1976 2.5814 268.69 0.072163 13.073 0.042241
177.38 474.32 undefined 822.43 895.11 2.9438 45.000 0.022222 822.43 895.11 2.9438 2.2014 2.5840 269.18 0.071628 13.101 0.042406 45.000 0.022222 822.43 895.11 2.9438 2.2014 2.5840 269.18 0.071628 13.101 0.042406
178.38 475.81 undefined 824.64 897.54 2.9487 45.000 0.022222 824.64 897.54 2.9487 2.2051 2.5866 269.67 0.071098 13.128 0.042572 45.000 0.022222 824.64 897.54 2.9487 2.2051 2.5866 269.67 0.071098 13.128 0.042572
179.38 477.30 undefined 826.84 899.98 2.9536 45.000 0.022222 826.84 899.98 2.9536 2.2089 2.5892 270.15 0.070574 13.156 0.042738 45.000 0.022222 826.84 899.98 2.9536 2.2089 2.5892 270.15 0.070574 13.156 0.042738
180.38 478.80 undefined 829.05 902.41 2.9585 45.000 0.022222 829.05 902.41 2.9585 2.2127 2.5919 270.64 0.070056 13.184 0.042904 45.000 0.022222 829.05 902.41 2.9585 2.2127 2.5919 270.64 0.070056 13.184 0.042904
181.38 480.29 undefined 831.27 904.86 2.9634 45.000 0.022222 831.27 904.86 2.9634 2.2165 2.5945 271.13 0.069543 13.211 0.043071 45.000 0.022222 831.27 904.86 2.9634 2.2165 2.5945 271.13 0.069543 13.211 0.043071
182.38 481.78 undefined 833.49 907.30 2.9682 45.000 0.022222 833.49 907.30 2.9682 2.2202 2.5972 271.61 0.069036 13.239 0.043238 45.000 0.022222 833.49 907.30 2.9682 2.2202 2.5972 271.61 0.069036 13.239 0.043238
183.38 483.27 undefined 835.71 909.76 2.9731 45.000 0.022222 835.71 909.76 2.9731 2.2240 2.5999 272.09 0.068535 13.266 0.043405 45.000 0.022222 835.71 909.76 2.9731 2.2240 2.5999 272.09 0.068535 13.266 0.043405
184.38 484.76 undefined 837.94 912.21 2.9780 45.000 0.022222 837.94 912.21 2.9780 2.2278 2.6026 272.58 0.068039 13.294 0.043573 45.000 0.022222 837.94 912.21 2.9780 2.2278 2.6026 272.58 0.068039 13.294 0.043573
185.38 486.25 undefined 840.17 914.67 2.9828 45.000 0.022222 840.17 914.67 2.9828 2.2315 2.6053 273.06 0.067548 13.321 0.043740 45.000 0.022222 840.17 914.67 2.9828 2.2315 2.6053 273.06 0.067548 13.321 0.043740
186.38 487.74 undefined 842.40 917.13 2.9877 45.000 0.022222 842.40 917.13 2.9877 2.2353 2.6080 273.54 0.067062 13.348 0.043909 45.000 0.022222 842.40 917.13 2.9877 2.2353 2.6080 273.54 0.067062 13.348 0.043909
187.38 489.23 undefined 844.64 919.59 2.9926 45.000 0.022222 844.64 919.59 2.9926 2.2391 2.6107 274.02 0.066582 13.376 0.044077 45.000 0.022222 844.64 919.59 2.9926 2.2391 2.6107 274.02 0.066582 13.376 0.044077
188.38 490.71 undefined 846.88 922.06 2.9974 45.000 0.022222 846.88 922.06 2.9974 2.2429 2.6135 274.50 0.066106 13.403 0.044246 45.000 0.022222 846.88 922.06 2.9974 2.2429 2.6135 274.50 0.066106 13.403 0.044246
189.38 492.20 undefined 849.12 924.54 3.0023 45.000 0.022222 849.12 924.54 3.0023 2.2466 2.6162 274.97 0.065636 13.431 0.044415 45.000 0.022222 849.12 924.54 3.0023 2.2466 2.6162 274.97 0.065636 13.431 0.044415
190.38 493.69 undefined 851.37 927.01 3.0071 45.000 0.022222 851.37 927.01 3.0071 2.2504 2.6190 275.45 0.065171 13.458 0.044584 45.000 0.022222 851.37 927.01 3.0071 2.2504 2.6190 275.45 0.065171 13.458 0.044584
191.38 495.17 undefined 853.62 929.49 3.0120 45.000 0.022222 853.62 929.49 3.0120 2.2542 2.6218 275.93 0.064710 13.485 0.044754 45.000 0.022222 853.62 929.49 3.0120 2.2542 2.6218 275.93 0.064710 13.485 0.044754
192.38 496.66 undefined 855.88 931.98 3.0168 45.000 0.022222 855.88 931.98 3.0168 2.2579 2.6246 276.40 0.064255 13.512 0.044924 45.000 0.022222 855.88 931.98 3.0168 2.2579 2.6246 276.40 0.064255 13.512 0.044924
193.38 498.14 undefined 858.14 934.46 3.0217 45.000 0.022222 858.14 934.46 3.0217 2.2617 2.6274 276.87 0.063804 13.540 0.045094 45.000 0.022222 858.14 934.46 3.0217 2.2617 2.6274 276.87 0.063804 13.540 0.045094
194.38 499.63 undefined 860.40 936.95 3.0265 45.000 0.022222 860.40 936.95 3.0265 2.2654 2.6302 277.35 0.063357 13.567 0.045265 45.000 0.022222 860.40 936.95 3.0265 2.2654 2.6302 277.35 0.063357 13.567 0.045265
195.38 501.11 undefined 862.67 939.45 3.0314 45.000 0.022222 862.67 939.45 3.0314 2.2692 2.6330 277.82 0.062916 13.594 0.045436 45.000 0.022222 862.67 939.45 3.0314 2.2692 2.6330 277.82 0.062916 13.594 0.045436
196.38 502.59 undefined 864.94 941.95 3.0362 45.000 0.022222 864.94 941.95 3.0362 2.2730 2.6358 278.29 0.062479 13.621 0.045607 45.000 0.022222 864.94 941.95 3.0362 2.2730 2.6358 278.29 0.062479 13.621 0.045607
197.38 504.08 undefined 867.22 944.45 3.0411 45.000 0.022222 867.22 944.45 3.0411 2.2767 2.6386 278.76 0.062046 13.648 0.045779 45.000 0.022222 867.22 944.45 3.0411 2.2767 2.6386 278.76 0.062046 13.648 0.045779
198.38 505.56 undefined 869.49 946.95 3.0459 45.000 0.022222 869.49 946.95 3.0459 2.2805 2.6415 279.23 0.061618 13.675 0.045950 45.000 0.022222 869.49 946.95 3.0459 2.2805 2.6415 279.23 0.061618 13.675 0.045950
199.38 507.04 undefined 871.78 949.46 3.0507 45.000 0.022222 871.78 949.46 3.0507 2.2842 2.6443 279.69 0.061194 13.702 0.046122 45.000 0.022222 871.78 949.46 3.0507 2.2842 2.6443 279.69 0.061194 13.702 0.046122
200.38 508.52 undefined 874.06 951.98 3.0556 45.000 0.022222 874.06 951.98 3.0556 2.2880 2.6472 280.16 0.060775 13.729 0.046295 45.000 0.022222 874.06 951.98 3.0556 2.2880 2.6472 280.16 0.060775 13.729 0.046295
201.38 510.00 undefined 876.35 954.49 3.0604 45.000 0.022222 876.35 954.49 3.0604 2.2918 2.6500 280.63 0.060359 13.756 0.046468 45.000 0.022222 876.35 954.49 3.0604 2.2918 2.6500 280.63 0.060359 13.756 0.046468
202.38 511.48 undefined 878.65 957.01 3.0652 45.000 0.022222 878.65 957.01 3.0652 2.2955 2.6529 281.09 0.059948 13.783 0.046641 45.000 0.022222 878.65 957.01 3.0652 2.2955 2.6529 281.09 0.059948 13.783 0.046641
203.38 512.96 undefined 880.94 959.54 3.0701 45.000 0.022222 880.94 959.54 3.0701 2.2993 2.6558 281.56 0.059541 13.810 0.046814 45.000 0.022222 880.94 959.54 3.0701 2.2993 2.6558 281.56 0.059541 13.810 0.046814
204.38 514.44 undefined 883.24 962.07 3.0749 45.000 0.022222 883.24 962.07 3.0749 2.3030 2.6587 282.02 0.059138 13.837 0.046987 45.000 0.022222 883.24 962.07 3.0749 2.3030 2.6587 282.02 0.059138 13.837 0.046987
205.38 515.92 undefined 885.55 964.60 3.0797 45.000 0.022222 885.55 964.60 3.0797 2.3068 2.6616 282.48 0.058739 13.864 0.047161 45.000 0.022222 885.55 964.60 3.0797 2.3068 2.6616 282.48 0.058739 13.864 0.047161
206.38 517.39 undefined 887.86 967.13 3.0845 45.000 0.022222 887.86 967.13 3.0845 2.3105 2.6645 282.94 0.058345 13.891 0.047336 45.000 0.022222 887.86 967.13 3.0845 2.3105 2.6645 282.94 0.058345 13.891 0.047336
207.38 518.87 undefined 890.17 969.67 3.0893 45.000 0.022222 890.17 969.67 3.0893 2.3142 2.6674 283.40 0.057954 13.918 0.047510 45.000 0.022222 890.17 969.67 3.0893 2.3142 2.6674 283.40 0.057954 13.918 0.047510
208.38 520.35 undefined 892.49 972.21 3.0942 45.000 0.022222 892.49 972.21 3.0942 2.3180 2.6703 283.86 0.057566 13.945 0.047685 45.000 0.022222 892.49 972.21 3.0942 2.3180 2.6703 283.86 0.057566 13.945 0.047685
209.38 521.83 undefined 894.81 974.76 3.0990 45.000 0.022222 894.81 974.76 3.0990 2.3217 2.6732 284.32 0.057183 13.971 0.047860 45.000 0.022222 894.81 974.76 3.0990 2.3217 2.6732 284.32 0.057183 13.971 0.047860
210.38 523.30 undefined 897.13 977.31 3.1038 45.000 0.022222 897.13 977.31 3.1038 2.3255 2.6762 284.78 0.056803 13.998 0.048035 45.000 0.022222 897.13 977.31 3.1038 2.3255 2.6762 284.78 0.056803 13.998 0.048035
211.38 524.78 undefined 899.46 979.86 3.1086 45.000 0.022222 899.46 979.86 3.1086 2.3292 2.6791 285.24 0.056428 14.025 0.048211 45.000 0.022222 899.46 979.86 3.1086 2.3292 2.6791 285.24 0.056428 14.025 0.048211
212.38 526.25 undefined 901.79 982.42 3.1134 45.000 0.022222 901.79 982.42 3.1134 2.3329 2.6820 285.69 0.056055 14.052 0.048387 45.000 0.022222 901.79 982.42 3.1134 2.3329 2.6820 285.69 0.056055 14.052 0.048387
213.38 527.73 undefined 904.12 984.98 3.1182 45.000 0.022222 904.12 984.98 3.1182 2.3367 2.6850 286.15 0.055687 14.078 0.048563 45.000 0.022222 904.12 984.98 3.1182 2.3367 2.6850 286.15 0.055687 14.078 0.048563
214.38 529.20 undefined 906.46 987.54 3.1230 45.000 0.022222 906.46 987.54 3.1230 2.3404 2.6879 286.60 0.055322 14.105 0.048740 45.000 0.022222 906.46 987.54 3.1230 2.3404 2.6879 286.60 0.055322 14.105 0.048740
215.38 530.67 undefined 908.80 990.11 3.1278 45.000 0.022222 908.80 990.11 3.1278 2.3441 2.6909 287.06 0.054960 14.132 0.048917 45.000 0.022222 908.80 990.11 3.1278 2.3441 2.6909 287.06 0.054960 14.132 0.048917
216.38 532.15 undefined 911.15 992.68 3.1326 45.000 0.022222 911.15 992.68 3.1326 2.3478 2.6939 287.51 0.054602 14.158 0.049094 45.000 0.022222 911.15 992.68 3.1326 2.3478 2.6939 287.51 0.054602 14.158 0.049094
217.38 533.62 undefined 913.50 995.26 3.1374 45.000 0.022222 913.50 995.26 3.1374 2.3516 2.6968 287.96 0.054247 14.185 0.049271 45.000 0.022222 913.50 995.26 3.1374 2.3516 2.6968 287.96 0.054247 14.185 0.049271
218.38 535.09 undefined 915.85 997.84 3.1422 45.000 0.022222 915.85 997.84 3.1422 2.3553 2.6998 288.41 0.053896 14.211 0.049449 45.000 0.022222 915.85 997.84 3.1422 2.3553 2.6998 288.41 0.053896 14.211 0.049449
219.38 536.56 undefined 918.21 1000.4 3.1470 45.000 0.022222 918.21 1000.4 3.1470 2.3590 2.7028 288.86 0.053548 14.238 0.049627 45.000 0.022222 918.21 1000.4 3.1470 2.3590 2.7028 288.86 0.053548 14.238 0.049627
220.38 538.03 undefined 920.57 1003.0 3.1518 45.000 0.022222 920.57 1003.0 3.1518 2.3627 2.7058 289.31 0.053203 14.264 0.049806 45.000 0.022222 920.57 1003.0 3.1518 2.3627 2.7058 289.31 0.053203 14.264 0.049806
221.38 539.50 undefined 922.94 1005.6 3.1566 45.000 0.022222 922.94 1005.6 3.1566 2.3664 2.7088 289.76 0.052862 14.291 0.049984 45.000 0.022222 922.94 1005.6 3.1566 2.3664 2.7088 289.76 0.052862 14.291 0.049984
222.38 540.98 undefined 925.30 1008.2 3.1613 45.000 0.022222 925.30 1008.2 3.1613 2.3702 2.7118 290.21 0.052524 14.317 0.050163 45.000 0.022222 925.30 1008.2 3.1613 2.3702 2.7118 290.21 0.052524 14.317 0.050163
223.38 542.45 undefined 927.68 1010.8 3.1661 45.000 0.022222 927.68 1010.8 3.1661 2.3739 2.7148 290.66 0.052189 14.344 0.050342 45.000 0.022222 927.68 1010.8 3.1661 2.3739 2.7148 290.66 0.052189 14.344 0.050342
224.38 543.92 undefined 930.05 1013.4 3.1709 45.000 0.022222 930.05 1013.4 3.1709 2.3776 2.7178 291.10 0.051857 14.370 0.050522 45.000 0.022222 930.05 1013.4 3.1709 2.3776 2.7178 291.10 0.051857 14.370 0.050522
225.38 545.38 undefined 932.43 1016.0 3.1757 45.000 0.022222 932.43 1016.0 3.1757 2.3813 2.7208 291.55 0.051528 14.397 0.050702 45.000 0.022222 932.43 1016.0 3.1757 2.3813 2.7208 291.55 0.051528 14.397 0.050702
226.38 546.85 undefined 934.81 1018.6 3.1805 45.000 0.022222 934.81 1018.6 3.1805 2.3850 2.7238 291.99 0.051202 14.423 0.050882 45.000 0.022222 934.81 1018.6 3.1805 2.3850 2.7238 291.99 0.051202 14.423 0.050882
227.38 548.32 undefined 937.20 1021.2 3.1852 45.000 0.022222 937.20 1021.2 3.1852 2.3887 2.7268 292.44 0.050879 14.449 0.051062 45.000 0.022222 937.20 1021.2 3.1852 2.3887 2.7268 292.44 0.050879 14.449 0.051062
228.38 549.79 undefined 939.59 1023.8 3.1900 45.000 0.022222 939.59 1023.8 3.1900 2.3924 2.7298 292.88 0.050560 14.476 0.051243 45.000 0.022222 939.59 1023.8 3.1900 2.3924 2.7298 292.88 0.050560 14.476 0.051243
229.38 551.26 undefined 941.99 1026.4 3.1948 45.000 0.022222 941.99 1026.4 3.1948 2.3961 2.7329 293.32 0.050243 14.502 0.051424 45.000 0.022222 941.99 1026.4 3.1948 2.3961 2.7329 293.32 0.050243 14.502 0.051424
230.38 552.73 undefined 944.38 1029.1 3.1995 45.000 0.022222 944.38 1029.1 3.1995 2.3997 2.7359 293.77 0.049929 14.528 0.051605 45.000 0.022222 944.38 1029.1 3.1995 2.3997 2.7359 293.77 0.049929 14.528 0.051605
231.38 554.19 undefined 946.79 1031.7 3.2043 45.000 0.022222 946.79 1031.7 3.2043 2.4034 2.7389 294.21 0.049618 14.554 0.051787 45.000 0.022222 946.79 1031.7 3.2043 2.4034 2.7389 294.21 0.049618 14.554 0.051787
232.38 555.66 undefined 949.19 1034.3 3.2091 45.000 0.022222 949.19 1034.3 3.2091 2.4071 2.7419 294.65 0.049309 14.580 0.051969 45.000 0.022222 949.19 1034.3 3.2091 2.4071 2.7419 294.65 0.049309 14.580 0.051969
233.38 557.12 undefined 951.60 1037.0 3.2138 45.000 0.022222 951.60 1037.0 3.2138 2.4108 2.7450 295.09 0.049004 14.607 0.052151 45.000 0.022222 951.60 1037.0 3.2138 2.4108 2.7450 295.09 0.049004 14.607 0.052151
234.38 558.59 undefined 954.01 1039.6 3.2186 45.000 0.022222 954.01 1039.6 3.2186 2.4145 2.7480 295.52 0.048701 14.633 0.052333 45.000 0.022222 954.01 1039.6 3.2186 2.4145 2.7480 295.52 0.048701 14.633 0.052333
235.38 560.06 undefined 956.43 1042.2 3.2233 45.000 0.022222 956.43 1042.2 3.2233 2.4182 2.7511 295.96 0.048401 14.659 0.052516 45.000 0.022222 956.43 1042.2 3.2233 2.4182 2.7511 295.96 0.048401 14.659 0.052516
236.38 561.52 undefined 958.85 1044.9 3.2281 45.000 0.022222 958.85 1044.9 3.2281 2.4218 2.7541 296.40 0.048104 14.685 0.052699 45.000 0.022222 958.85 1044.9 3.2281 2.4218 2.7541 296.40 0.048104 14.685 0.052699
237.38 562.99 undefined 961.27 1047.5 3.2328 45.000 0.022222 961.27 1047.5 3.2328 2.4255 2.7572 296.84 0.047809 14.711 0.052882 45.000 0.022222 961.27 1047.5 3.2328 2.4255 2.7572 296.84 0.047809 14.711 0.052882
238.38 564.45 undefined 963.70 1050.2 3.2376 45.000 0.022222 963.70 1050.2 3.2376 2.4292 2.7602 297.27 0.047517 14.737 0.053066 45.000 0.022222 963.70 1050.2 3.2376 2.4292 2.7602 297.27 0.047517 14.737 0.053066
239.38 565.91 undefined 966.13 1052.8 3.2423 45.000 0.022222 966.13 1052.8 3.2423 2.4328 2.7633 297.71 0.047228 14.763 0.053250 45.000 0.022222 966.13 1052.8 3.2423 2.4328 2.7633 297.71 0.047228 14.763 0.053250
240.38 567.38 undefined 968.56 1055.5 3.2471 45.000 0.022222 968.56 1055.5 3.2471 2.4365 2.7663 298.14 0.046941 14.789 0.053434 45.000 0.022222 968.56 1055.5 3.2471 2.4365 2.7663 298.14 0.046941 14.789 0.053434
241.38 568.84 undefined 971.00 1058.2 3.2518 45.000 0.022222 971.00 1058.2 3.2518 2.4401 2.7694 298.57 0.046656 14.815 0.053619 45.000 0.022222 971.00 1058.2 3.2518 2.4401 2.7694 298.57 0.046656 14.815 0.053619
242.38 570.30 undefined 973.45 1060.8 3.2566 45.000 0.022222 973.45 1060.8 3.2566 2.4438 2.7724 299.01 0.046375 14.841 0.053803 45.000 0.022222 973.45 1060.8 3.2566 2.4438 2.7724 299.01 0.046375 14.841 0.053803
243.38 571.77 undefined 975.89 1063.5 3.2613 45.000 0.022222 975.89 1063.5 3.2613 2.4474 2.7755 299.44 0.046095 14.867 0.053988 45.000 0.022222 975.89 1063.5 3.2613 2.4474 2.7755 299.44 0.046095 14.867 0.053988
244.38 573.23 undefined 978.34 1066.2 3.2660 45.000 0.022222 978.34 1066.2 3.2660 2.4511 2.7785 299.87 0.045818 14.893 0.054174 45.000 0.022222 978.34 1066.2 3.2660 2.4511 2.7785 299.87 0.045818 14.893 0.054174
245.38 574.69 undefined 980.79 1068.8 3.2708 45.000 0.022222 980.79 1068.8 3.2708 2.4547 2.7816 300.30 0.045544 14.919 0.054359 45.000 0.022222 980.79 1068.8 3.2708 2.4547 2.7816 300.30 0.045544 14.919 0.054359
246.38 576.15 undefined 983.25 1071.5 3.2755 45.000 0.022222 983.25 1071.5 3.2755 2.4584 2.7847 300.73 0.045272 14.944 0.054545 45.000 0.022222 983.25 1071.5 3.2755 2.4584 2.7847 300.73 0.045272 14.944 0.054545
247.38 577.61 undefined 985.71 1074.2 3.2802 45.000 0.022222 985.71 1074.2 3.2802 2.4620 2.7877 301.16 0.045002 14.970 0.054731 45.000 0.022222 985.71 1074.2 3.2802 2.4620 2.7877 301.16 0.045002 14.970 0.054731
248.38 579.08 undefined 988.17 1076.9 3.2850 45.000 0.022222 988.17 1076.9 3.2850 2.4657 2.7908 301.59 0.044734 14.996 0.054918 45.000 0.022222 988.17 1076.9 3.2850 2.4657 2.7908 301.59 0.044734 14.996 0.054918
249.38 580.54 undefined 990.64 1079.6 3.2897 45.000 0.022222 990.64 1079.6 3.2897 2.4693 2.7939 302.02 0.044469 15.022 0.055105 45.000 0.022222 990.64 1079.6 3.2897 2.4693 2.7939 302.02 0.044469 15.022 0.055105
250.38 582.00 undefined 993.11 1082.3 3.2944 45.000 0.022222 993.11 1082.3 3.2944 2.4729 2.7970 302.45 0.044206 15.047 0.055292 45.000 0.022222 993.11 1082.3 3.2944 2.4729 2.7970 302.45 0.044206 15.047 0.055292
251.38 583.46 undefined 995.59 1085.0 3.2991 45.000 0.022222 995.59 1085.0 3.2991 2.4765 2.8000 302.87 0.043945 15.073 0.055479 45.000 0.022222 995.59 1085.0 3.2991 2.4765 2.8000 302.87 0.043945 15.073 0.055479
252.38 584.92 undefined 998.07 1087.7 3.3039 45.000 0.022222 998.07 1087.7 3.3039 2.4802 2.8031 303.30 0.043687 15.099 0.055667 45.000 0.022222 998.07 1087.7 3.3039 2.4802 2.8031 303.30 0.043687 15.099 0.055667
253.38 586.38 undefined 1000.5 1090.4 3.3086 45.000 0.022222 1000.5 1090.4 3.3086 2.4838 2.8062 303.72 0.043431 15.124 0.055854 45.000 0.022222 1000.5 1090.4 3.3086 2.4838 2.8062 303.72 0.043431 15.124 0.055854
254.38 587.84 undefined 1003.0 1093.1 3.3133 45.000 0.022222 1003.0 1093.1 3.3133 2.4874 2.8093 304.15 0.043177 15.150 0.056043 45.000 0.022222 1003.0 1093.1 3.3133 2.4874 2.8093 304.15 0.043177 15.150 0.056043
255.38 589.29 undefined 1005.5 1095.8 3.3180 45.000 0.022222 1005.5 1095.8 3.3180 2.4910 2.8123 304.57 0.042925 15.176 0.056231 45.000 0.022222 1005.5 1095.8 3.3180 2.4910 2.8123 304.57 0.042925 15.176 0.056231
256.38 590.75 undefined 1008.0 1098.5 3.3227 45.000 0.022222 1008.0 1098.5 3.3227 2.4946 2.8154 304.99 0.042675 15.201 0.056420 45.000 0.022222 1008.0 1098.5 3.3227 2.4946 2.8154 304.99 0.042675 15.201 0.056420
257.38 592.21 undefined 1010.5 1101.2 3.3274 45.000 0.022222 1010.5 1101.2 3.3274 2.4982 2.8185 305.42 0.042427 15.227 0.056609 45.000 0.022222 1010.5 1101.2 3.3274 2.4982 2.8185 305.42 0.042427 15.227 0.056609
258.38 593.67 undefined 1013.0 1104.0 3.3321 45.000 0.022222 1013.0 1104.0 3.3321 2.5018 2.8216 305.84 0.042181 15.252 0.056798 45.000 0.022222 1013.0 1104.0 3.3321 2.5018 2.8216 305.84 0.042181 15.252 0.056798
259.38 595.13 undefined 1015.5 1106.7 3.3369 45.000 0.022222 1015.5 1106.7 3.3369 2.5054 2.8247 306.26 0.041938 15.278 0.056987 45.000 0.022222 1015.5 1106.7 3.3369 2.5054 2.8247 306.26 0.041938 15.278 0.056987
260.38 596.58 undefined 1018.0 1109.4 3.3416 45.000 0.022222 1018.0 1109.4 3.3416 2.5090 2.8277 306.68 0.041696 15.303 0.057177 45.000 0.022222 1018.0 1109.4 3.3416 2.5090 2.8277 306.68 0.041696 15.303 0.057177
261.38 598.04 undefined 1020.5 1112.2 3.3463 45.000 0.022222 1020.5 1112.2 3.3463 2.5126 2.8308 307.10 0.041456 15.329 0.057367 45.000 0.022222 1020.5 1112.2 3.3463 2.5126 2.8308 307.10 0.041456 15.329 0.057367
262.38 599.50 undefined 1023.0 1114.9 3.3510 45.000 0.022222 1023.0 1114.9 3.3510 2.5162 2.8339 307.52 0.041219 15.354 0.057558 45.000 0.022222 1023.0 1114.9 3.3510 2.5162 2.8339 307.52 0.041219 15.354 0.057558
263.38 600.96 undefined 1025.6 1117.6 3.3557 45.000 0.022222 1025.6 1117.6 3.3557 2.5198 2.8370 307.94 0.040983 15.380 0.057748 45.000 0.022222 1025.6 1117.6 3.3557 2.5198 2.8370 307.94 0.040983 15.380 0.057748
264.38 602.41 undefined 1028.1 1120.4 3.3603 45.000 0.022222 1028.1 1120.4 3.3603 2.5233 2.8401 308.36 0.040749 15.405 0.057939 45.000 0.022222 1028.1 1120.4 3.3603 2.5233 2.8401 308.36 0.040749 15.405 0.057939
265.38 603.87 undefined 1030.6 1123.1 3.3650 45.000 0.022222 1030.6 1123.1 3.3650 2.5269 2.8432 308.77 0.040517 15.430 0.058130 45.000 0.022222 1030.6 1123.1 3.3650 2.5269 2.8432 308.77 0.040517 15.430 0.058130
266.38 605.32 undefined 1033.1 1125.9 3.3697 45.000 0.022222 1033.1 1125.9 3.3697 2.5305 2.8462 309.19 0.040287 15.456 0.058321 45.000 0.022222 1033.1 1125.9 3.3697 2.5305 2.8462 309.19 0.040287 15.456 0.058321
267.38 606.78 undefined 1035.7 1128.6 3.3744 45.000 0.022222 1035.7 1128.6 3.3744 2.5340 2.8493 309.61 0.040059 15.481 0.058513 45.000 0.022222 1035.7 1128.6 3.3744 2.5340 2.8493 309.61 0.040059 15.481 0.058513
268.38 608.23 undefined 1038.2 1131.4 3.3791 45.000 0.022222 1038.2 1131.4 3.3791 2.5376 2.8524 310.02 0.039833 15.506 0.058705 45.000 0.022222 1038.2 1131.4 3.3791 2.5376 2.8524 310.02 0.039833 15.506 0.058705
269.38 609.69 undefined 1040.7 1134.2 3.3838 45.000 0.022222 1040.7 1134.2 3.3838 2.5412 2.8555 310.44 0.039609 15.531 0.058897 45.000 0.022222 1040.7 1134.2 3.3838 2.5412 2.8555 310.44 0.039609 15.531 0.058897
270.38 611.14 undefined 1043.3 1136.9 3.3885 45.000 0.022222 1043.3 1136.9 3.3885 2.5447 2.8586 310.85 0.039386 15.557 0.059089 45.000 0.022222 1043.3 1136.9 3.3885 2.5447 2.8586 310.85 0.039386 15.557 0.059089
271.38 612.60 undefined 1045.8 1139.7 3.3932 45.000 0.022222 1045.8 1139.7 3.3932 2.5483 2.8617 311.27 0.039165 15.582 0.059282 45.000 0.022222 1045.8 1139.7 3.3932 2.5483 2.8617 311.27 0.039165 15.582 0.059282
272.38 614.05 undefined 1048.4 1142.5 3.3978 45.000 0.022222 1048.4 1142.5 3.3978 2.5518 2.8647 311.68 0.038946 15.607 0.059474 45.000 0.022222 1048.4 1142.5 3.3978 2.5518 2.8647 311.68 0.038946 15.607 0.059474
273.38 615.51 undefined 1050.9 1145.2 3.4025 45.000 0.022222 1050.9 1145.2 3.4025 2.5554 2.8678 312.09 0.038729 15.632 0.059667 45.000 0.022222 1050.9 1145.2 3.4025 2.5554 2.8678 312.09 0.038729 15.632 0.059667
274.38 616.96 undefined 1053.5 1148.0 3.4072 45.000 0.022222 1053.5 1148.0 3.4072 2.5589 2.8709 312.50 0.038513 15.657 0.059860 45.000 0.022222 1053.5 1148.0 3.4072 2.5589 2.8709 312.50 0.038513 15.657 0.059860
275.38 618.41 undefined 1056.1 1150.8 3.4119 45.000 0.022222 1056.1 1150.8 3.4119 2.5624 2.8740 312.91 0.038299 15.682 0.060054 45.000 0.022222 1056.1 1150.8 3.4119 2.5624 2.8740 312.91 0.038299 15.682 0.060054
276.38 619.87 undefined 1058.6 1153.6 3.4165 45.000 0.022222 1058.6 1153.6 3.4165 2.5660 2.8771 313.32 0.038087 15.707 0.060247 45.000 0.022222 1058.6 1153.6 3.4165 2.5660 2.8771 313.32 0.038087 15.707 0.060247
277.38 621.32 undefined 1061.2 1156.4 3.4212 45.000 0.022222 1061.2 1156.4 3.4212 2.5695 2.8802 313.73 0.037876 15.732 0.060440 45.000 0.022222 1061.2 1156.4 3.4212 2.5695 2.8802 313.73 0.037876 15.732 0.060440
278.38 622.77 undefined 1063.8 1159.2 3.4259 45.000 0.022222 1063.8 1159.2 3.4259 2.5730 2.8832 314.14 0.037667 15.757 0.060634 45.000 0.022222 1063.8 1159.2 3.4259 2.5730 2.8832 314.14 0.037667 15.757 0.060634
279.38 624.23 undefined 1066.3 1162.0 3.4305 45.000 0.022222 1066.3 1162.0 3.4305 2.5765 2.8863 314.55 0.037460 15.782 0.060827 45.000 0.022222 1066.3 1162.0 3.4305 2.5765 2.8863 314.55 0.037460 15.782 0.060827
280.38 625.68 undefined 1068.9 1164.8 3.4352 45.000 0.022222 1068.9 1164.8 3.4352 2.5801 2.8894 314.96 0.037254 15.807 0.061019 45.000 0.022222 1068.9 1164.8 3.4352 2.5801 2.8894 314.96 0.037254 15.807 0.061019
281.38 627.13 undefined 1071.5 1167.6 3.4399 45.000 0.022222 1071.5 1167.6 3.4399 2.5836 2.8925 315.37 0.037050 15.832 0.061209 45.000 0.022222 1071.5 1167.6 3.4399 2.5836 2.8925 315.37 0.037050 15.832 0.061209
282.38 628.58 undefined 1074.1 1170.4 3.4445 45.000 0.022222 1074.1 1170.4 3.4445 2.5871 2.8955 315.78 0.036848 15.857 0.061401 45.000 0.022222 1074.1 1170.4 3.4445 2.5871 2.8955 315.78 0.036848 15.857 0.061401
283.38 630.03 undefined 1076.7 1173.2 3.4492 45.000 0.022222 1076.7 1173.2 3.4492 2.5906 2.8986 316.18 0.036647 15.882 0.061599 45.000 0.022222 1076.7 1173.2 3.4492 2.5906 2.8986 316.18 0.036647 15.882 0.061599
284.38 631.48 undefined 1079.3 1176.0 3.4538 45.000 0.022222 1079.3 1176.0 3.4538 2.5941 2.9017 316.59 0.036448 15.907 0.061797 45.000 0.022222 1079.3 1176.0 3.4538 2.5941 2.9017 316.59 0.036448 15.907 0.061797
285.38 632.94 undefined 1081.9 1178.8 3.4585 45.000 0.022222 1081.9 1178.8 3.4585 2.5976 2.9048 316.99 0.036250 15.932 0.061996 45.000 0.022222 1081.9 1178.8 3.4585 2.5976 2.9048 316.99 0.036250 15.932 0.061996
286.38 634.39 undefined 1084.5 1181.7 3.4631 45.000 0.022222 1084.5 1181.7 3.4631 2.6011 2.9079 317.40 0.036053 15.957 0.062195 45.000 0.022222 1084.5 1181.7 3.4631 2.6011 2.9079 317.40 0.036053 15.957 0.062195
287.38 635.84 undefined 1087.1 1184.5 3.4678 45.000 0.022222 1087.1 1184.5 3.4678 2.6046 2.9109 317.80 0.035859 15.981 0.062394 45.000 0.022222 1087.1 1184.5 3.4678 2.6046 2.9109 317.80 0.035859 15.981 0.062394
288.38 637.29 undefined 1089.7 1187.3 3.4724 45.000 0.022222 1089.7 1187.3 3.4724 2.6081 2.9140 318.21 0.035665 16.006 0.062593 45.000 0.022222 1089.7 1187.3 3.4724 2.6081 2.9140 318.21 0.035665 16.006 0.062593
289.38 638.74 undefined 1092.3 1190.1 3.4771 45.000 0.022222 1092.3 1190.1 3.4771 2.6115 2.9171 318.61 0.035473 16.031 0.062793 45.000 0.022222 1092.3 1190.1 3.4771 2.6115 2.9171 318.61 0.035473 16.031 0.062793
290.38 640.19 undefined 1094.9 1193.0 3.4817 45.000 0.022222 1094.9 1193.0 3.4817 2.6150 2.9201 319.01 0.035283 16.056 0.062993 45.000 0.022222 1094.9 1193.0 3.4817 2.6150 2.9201 319.01 0.035283 16.056 0.062993
291.38 641.64 undefined 1097.5 1195.8 3.4863 45.000 0.022222 1097.5 1195.8 3.4863 2.6185 2.9232 319.41 0.035094 16.080 0.063194 45.000 0.022222 1097.5 1195.8 3.4863 2.6185 2.9232 319.41 0.035094 16.080 0.063194
292.38 643.09 undefined 1100.1 1198.7 3.4910 45.000 0.022222 1100.1 1198.7 3.4910 2.6220 2.9263 319.82 0.034906 16.105 0.063394 45.000 0.022222 1100.1 1198.7 3.4910 2.6220 2.9263 319.82 0.034906 16.105 0.063394
293.38 644.54 undefined 1102.8 1201.5 3.4956 45.000 0.022222 1102.8 1201.5 3.4956 2.6254 2.9293 320.22 0.034720 16.130 0.063595 45.000 0.022222 1102.8 1201.5 3.4956 2.6254 2.9293 320.22 0.034720 16.130 0.063595
294.38 645.99 undefined 1105.4 1204.4 3.5002 45.000 0.022222 1105.4 1204.4 3.5002 2.6289 2.9324 320.62 0.034536 16.154 0.063796 45.000 0.022222 1105.4 1204.4 3.5002 2.6289 2.9324 320.62 0.034536 16.154 0.063796
295.38 647.43 undefined 1108.0 1207.2 3.5049 45.000 0.022222 1108.0 1207.2 3.5049 2.6323 2.9355 321.02 0.034352 16.179 0.063998 45.000 0.022222 1108.0 1207.2 3.5049 2.6323 2.9355 321.02 0.034352 16.179 0.063998
296.38 648.88 undefined 1110.6 1210.1 3.5095 45.000 0.022222 1110.6 1210.1 3.5095 2.6358 2.9385 321.42 0.034170 16.203 0.064200 45.000 0.022222 1110.6 1210.1 3.5095 2.6358 2.9385 321.42 0.034170 16.203 0.064200
297.38 650.33 undefined 1113.3 1212.9 3.5141 45.000 0.022222 1113.3 1212.9 3.5141 2.6392 2.9416 321.81 0.033990 16.228 0.064402 45.000 0.022222 1113.3 1212.9 3.5141 2.6392 2.9416 321.81 0.033990 16.228 0.064402
298.38 651.78 undefined 1115.9 1215.8 3.5188 45.000 0.022222 1115.9 1215.8 3.5188 2.6427 2.9447 322.21 0.033810 16.252 0.064604 45.000 0.022222 1115.9 1215.8 3.5188 2.6427 2.9447 322.21 0.033810 16.252 0.064604
299.38 653.23 undefined 1118.6 1218.7 3.5234 45.000 0.022222 1118.6 1218.7 3.5234 2.6461 2.9477 322.61 0.033632 16.277 0.064807 45.000 0.022222 1118.6 1218.7 3.5234 2.6461 2.9477 322.61 0.033632 16.277 0.064807
300.38 654.68 undefined 1121.2 1221.5 3.5280 45.000 0.022222 1121.2 1221.5 3.5280 2.6496 2.9508 323.01 0.033455 16.301 0.065010 45.000 0.022222 1121.2 1221.5 3.5280 2.6496 2.9508 323.01 0.033455 16.301 0.065010