Temperature (C) Pressure (psia) Quality (l+v) Internal Energy (l+v, kJ/kg) Enthalpy (l+v, kJ/kg) Entropy (l+v, J/g*K) Density (l, kg/m3) Volume (l, m3/kg) Internal Energy (l, kJ/kg) Enthalpy (l, kJ/kg) Entropy (l, J/g*K) Cv (l, J/g*K) Cp (l, J/g*K) Sound Spd. (l, m/s) Joule-Thomson (l, F/psia) Viscosity (l, uPa*s) Therm. Cond. (l, W/m*K) Density (v, kg/m3) Volume (v, m3/kg) Internal Energy (v, kJ/kg) Enthalpy (v, kJ/kg) Entropy (v, J/g*K) Cv (v, J/g*K) Cp (v, J/g*K) Sound Spd. (v, m/s) Joule-Thomson (v, F/psia) Viscosity (v, uPa*s) Therm. Cond. (v, W/m*K)
-187.62 2.4953e-08 8.1470e-12 -196.64 -196.64 -1.3959 733.13 0.0013640 -196.64 -196.64 -1.3959 1.3553 1.9158 2136.4 -0.0077592 10960. 0.20792 1.0669e-08 9.3732e+07 350.13 366.26 5.1858 0.69067 0.87923 143.28 6.1051 2.3259 0.0017061
-186.62 3.7339e-08 1.2019e-11 -194.73 -194.73 -1.3736 732.08 0.0013660 -194.73 -194.73 -1.3736 1.3539 1.9166 2129.6 -0.0077546 10073. 0.20765 1.5780e-08 6.3371e+07 350.82 367.14 5.1200 0.69462 0.88317 144.03 5.9178 2.3534 0.0017533
-185.62 5.5322e-08 1.7559e-11 -192.81 -192.81 -1.3516 731.04 0.0013679 -192.81 -192.81 -1.3516 1.3525 1.9174 2122.9 -0.0077498 9276.1 0.20737 2.3112e-08 4.3267e+07 351.52 368.02 5.0561 0.69857 0.88713 144.77 5.7383 2.3808 0.0018007
-184.62 8.1182e-08 2.5411e-11 -190.89 -190.89 -1.3298 730.00 0.0013699 -190.89 -190.89 -1.3298 1.3513 1.9182 2116.1 -0.0077448 8557.8 0.20708 3.3533e-08 2.9821e+07 352.22 368.91 4.9939 0.70253 0.89108 145.51 5.5662 2.4083 0.0018485
-183.62 1.1803e-07 3.6440e-11 -188.97 -188.97 -1.3083 728.96 0.0013718 -188.97 -188.97 -1.3083 1.3501 1.9191 2109.3 -0.0077395 7909.8 0.20678 4.8211e-08 2.0742e+07 352.92 369.81 4.9333 0.70648 0.89504 146.24 5.4011 2.4357 0.0018965
-182.62 1.7009e-07 5.1795e-11 -187.05 -187.05 -1.2869 727.92 0.0013738 -187.05 -187.05 -1.2869 1.3490 1.9201 2102.5 -0.0077340 7324.3 0.20647 6.8704e-08 1.4555e+07 353.63 370.70 4.8744 0.71043 0.89899 146.97 5.2426 2.4632 0.0019448
-181.62 2.4299e-07 7.2996e-11 -185.13 -185.13 -1.2658 726.88 0.0013757 -185.13 -185.13 -1.2658 1.3480 1.9210 2095.7 -0.0077283 6794.5 0.20616 9.7079e-08 1.0301e+07 354.35 371.60 4.8170 0.71438 0.90294 147.69 5.0904 2.4906 0.0019934
-180.62 3.4425e-07 1.0203e-10 -183.21 -183.21 -1.2450 725.85 0.0013777 -183.21 -183.21 -1.2450 1.3470 1.9220 2088.9 -0.0077225 6314.4 0.20584 1.3605e-07 7.3504e+06 355.06 372.51 4.7612 0.71833 0.90688 148.41 4.9442 2.5181 0.0020423
-179.62 4.8378e-07 1.4148e-10 -181.29 -181.29 -1.2243 724.81 0.0013797 -181.29 -181.29 -1.2243 1.3461 1.9231 2082.0 -0.0077164 5878.8 0.20551 1.8915e-07 5.2868e+06 355.78 373.42 4.7068 0.72227 0.91082 149.13 4.8038 2.5456 0.0020915
-178.62 6.7459e-07 1.9468e-10 -179.37 -179.37 -1.2038 723.78 0.0013816 -179.37 -179.37 -1.2038 1.3453 1.9241 2075.2 -0.0077102 5482.9 0.20517 2.6096e-07 3.8320e+06 356.51 374.33 4.6538 0.72620 0.91475 149.84 4.6688 2.5731 0.0021410
-177.62 9.3358e-07 2.6590e-10 -177.44 -177.44 -1.1836 722.75 0.0013836 -177.44 -177.44 -1.1836 1.3445 1.9252 2068.4 -0.0077039 5122.6 0.20483 3.5737e-07 2.7982e+06 357.23 375.25 4.6022 0.73012 0.91867 150.54 4.5390 2.6005 0.0021907
-176.62 1.2826e-06 3.6056e-10 -175.52 -175.52 -1.1635 721.72 0.0013856 -175.52 -175.52 -1.1635 1.3437 1.9263 2061.5 -0.0076973 4794.1 0.20447 4.8588e-07 2.0581e+06 357.97 376.17 4.5519 0.73403 0.92258 151.25 4.4142 2.6280 0.0022408
-175.62 1.7496e-06 4.8552e-10 -173.59 -173.59 -1.1437 720.69 0.0013876 -173.59 -173.59 -1.1437 1.3430 1.9274 2054.7 -0.0076907 4494.3 0.20411 6.5601e-07 1.5244e+06 358.70 377.09 4.5029 0.73792 0.92648 151.95 4.2941 2.6555 0.0022912
-174.62 2.3705e-06 6.4937e-10 -171.66 -171.66 -1.1240 719.66 0.0013895 -171.66 -171.66 -1.1240 1.3423 1.9286 2047.9 -0.0076838 4220.2 0.20375 8.7976e-07 1.1367e+06 359.44 378.02 4.4551 0.74181 0.93036 152.64 4.1784 2.6830 0.0023418
-173.62 3.1903e-06 8.6285e-10 -169.73 -169.73 -1.1045 718.64 0.0013915 -169.73 -169.73 -1.1045 1.3417 1.9298 2041.0 -0.0076769 3969.3 0.20338 1.1721e-06 8.5314e+05 360.19 378.95 4.4085 0.74568 0.93423 153.33 4.0671 2.7105 0.0023928
-172.62 4.2661e-06 1.1393e-09 -167.80 -167.80 -1.0852 717.61 0.0013935 -167.80 -167.80 -1.0852 1.3411 1.9310 2034.2 -0.0076698 3739.3 0.20300 1.5518e-06 6.4441e+05 360.93 379.89 4.3631 0.74953 0.93809 154.02 3.9599 2.7379 0.0024440
-171.62 5.6692e-06 1.4950e-09 -165.87 -165.87 -1.0661 716.58 0.0013955 -165.87 -165.87 -1.0661 1.3405 1.9322 2027.3 -0.0076625 3528.0 0.20261 2.0419e-06 4.8974e+05 361.69 380.83 4.3188 0.75337 0.94193 154.71 3.8566 2.7654 0.0024955
-170.62 7.4884e-06 1.9501e-09 -163.94 -163.94 -1.0472 715.56 0.0013975 -163.94 -163.94 -1.0472 1.3400 1.9334 2020.5 -0.0076552 3333.8 0.20222 2.6708e-06 3.7442e+05 362.44 381.77 4.2755 0.75720 0.94575 155.39 3.7570 2.7929 0.0025473
-169.62 9.8334e-06 2.5291e-09 -162.00 -162.00 -1.0284 714.54 0.0013995 -162.00 -162.00 -1.0284 1.3395 1.9347 2013.6 -0.0076477 3154.9 0.20182 3.4733e-06 2.8791e+05 363.20 382.72 4.2334 0.76100 0.94956 156.07 3.6609 2.8204 0.0025994
-168.62 1.2839e-05 3.2616e-09 -160.07 -160.07 -1.0098 713.52 0.0014015 -160.07 -160.07 -1.0098 1.3390 1.9359 2006.8 -0.0076401 2989.9 0.20141 4.4917e-06 2.2263e+05 363.96 383.67 4.1922 0.76479 0.95335 156.74 3.5683 2.8479 0.0026518
-167.62 1.6672e-05 4.1835e-09 -158.13 -158.13 -0.99134 712.49 0.0014035 -158.13 -158.13 -0.99134 1.3386 1.9372 2000.0 -0.0076323 2837.5 0.20100 5.7771e-06 1.7310e+05 364.73 384.63 4.1521 0.76856 0.95712 157.41 3.4790 2.8754 0.0027045
-166.62 2.1533e-05 5.3375e-09 -156.19 -156.19 -0.97306 711.47 0.0014055 -156.19 -156.19 -0.97306 1.3382 1.9385 1993.1 -0.0076245 2696.5 0.20058 7.3914e-06 1.3529e+05 365.50 385.59 4.1129 0.77232 0.96087 158.08 3.3927 2.9029 0.0027575
-165.62 2.7666e-05 6.7751e-09 -154.25 -154.25 -0.95494 710.45 0.0014075 -154.25 -154.25 -0.95494 1.3378 1.9398 1986.3 -0.0076165 2566.0 0.20016 9.4084e-06 1.0629e+05 366.27 386.55 4.0746 0.77605 0.96460 158.75 3.3095 2.9304 0.0028108
-164.62 3.5367e-05 8.5570e-09 -152.31 -152.31 -0.93698 709.44 0.0014096 -152.31 -152.31 -0.93698 1.3375 1.9411 1979.4 -0.0076084 2444.9 0.19973 1.1916e-05 83918. 367.05 387.52 4.0372 0.77976 0.96832 159.41 3.2291 2.9579 0.0028643
-163.62 4.4989e-05 1.0755e-08 -150.37 -150.37 -0.91917 708.42 0.0014116 -150.37 -150.37 -0.91917 1.3371 1.9424 1972.6 -0.0076002 2332.3 0.19930 1.5020e-05 66577. 367.83 388.49 4.0008 0.78346 0.97201 160.07 3.1514 2.9854 0.0029182
-162.62 5.6956e-05 1.3455e-08 -148.43 -148.43 -0.90151 707.40 0.0014136 -148.43 -148.43 -0.90151 1.3368 1.9437 1965.8 -0.0075919 2227.7 0.19886 1.8844e-05 53068. 368.62 389.46 3.9651 0.78713 0.97569 160.72 3.0764 3.0129 0.0029723
-161.62 7.1773e-05 1.6755e-08 -146.48 -146.48 -0.88400 706.38 0.0014157 -146.48 -146.48 -0.88400 1.3365 1.9451 1959.0 -0.0075834 2130.2 0.19841 2.3533e-05 42494. 369.41 390.44 3.9304 0.79079 0.97935 161.38 3.0038 3.0404 0.0030268
-160.62 9.0036e-05 2.0772e-08 -144.54 -144.54 -0.86663 705.37 0.0014177 -144.54 -144.54 -0.86663 1.3363 1.9465 1952.1 -0.0075748 2039.2 0.19796 2.9258e-05 34178. 370.20 391.42 3.8964 0.79443 0.98298 162.03 2.9337 3.0679 0.0030815
-159.62 0.00011245 2.5641e-08 -142.59 -142.59 -0.84940 704.35 0.0014197 -142.59 -142.59 -0.84940 1.3360 1.9478 1945.3 -0.0075661 1954.2 0.19751 3.6221e-05 27609. 371.00 392.40 3.8632 0.79805 0.98660 162.68 2.8658 3.0955 0.0031365
-158.62 0.00013985 3.1518e-08 -140.64 -140.64 -0.83231 703.34 0.0014218 -140.64 -140.64 -0.83231 1.3358 1.9492 1938.5 -0.0075573 1874.8 0.19705 4.4652e-05 22395. 371.80 393.39 3.8307 0.80164 0.99020 163.32 2.8002 3.1230 0.0031918
-157.62 0.00017320 3.8584e-08 -138.69 -138.69 -0.81536 702.32 0.0014238 -138.69 -138.69 -0.81536 1.3356 1.9506 1931.7 -0.0075484 1800.3 0.19658 5.4822e-05 18241. 372.60 394.38 3.7990 0.80522 0.99378 163.96 2.7367 3.1505 0.0032474
-156.62 0.00021364 4.7046e-08 -136.74 -136.74 -0.79854 701.31 0.0014259 -136.74 -136.74 -0.79854 1.3354 1.9520 1924.9 -0.0075393 1730.5 0.19611 6.7040e-05 14916. 373.41 395.38 3.7680 0.80878 0.99734 164.60 2.6752 3.1780 0.0033033
-155.62 0.00026248 5.7142e-08 -134.79 -134.79 -0.78185 700.30 0.0014280 -134.79 -134.79 -0.78185 1.3352 1.9534 1918.1 -0.0075302 1664.9 0.19564 8.1666e-05 12245. 374.22 396.38 3.7377 0.81232 1.0009 165.24 2.6157 3.2055 0.0033595
-154.62 0.00032125 6.9141e-08 -132.83 -132.83 -0.76530 699.29 0.0014300 -132.83 -132.83 -0.76530 1.3350 1.9548 1911.3 -0.0075209 1603.3 0.19516 9.9109e-05 10090. 375.03 397.38 3.7081 0.81585 1.0044 165.87 2.5580 3.2330 0.0034160
-153.62 0.00039171 8.3354e-08 -130.88 -130.88 -0.74887 698.27 0.0014321 -130.88 -130.88 -0.74887 1.3349 1.9563 1904.5 -0.0075114 1545.3 0.19468 0.00011984 8344.6 375.85 398.39 3.6792 0.81935 1.0079 166.50 2.5022 3.2606 0.0034727
-152.62 0.00047590 1.0013e-07 -128.92 -128.92 -0.73256 697.26 0.0014342 -128.92 -128.92 -0.73256 1.3348 1.9577 1897.8 -0.0075019 1490.6 0.19419 0.00014439 6925.9 376.67 399.40 3.6509 0.82284 1.0114 167.13 2.4481 3.2881 0.0035298
-151.62 0.00057613 1.1986e-07 -126.96 -126.96 -0.71638 696.25 0.0014363 -126.96 -126.96 -0.71638 1.3346 1.9592 1891.0 -0.0074922 1438.9 0.19370 0.00017336 5768.4 377.49 400.41 3.6232 0.82631 1.0149 167.76 2.3957 3.3156 0.0035872
-150.62 0.00069507 1.4299e-07 -125.00 -125.00 -0.70032 695.24 0.0014384 -125.00 -125.00 -0.70032 1.3345 1.9606 1884.2 -0.0074824 1390.2 0.19320 0.00020744 4820.7 378.32 401.42 3.5962 0.82976 1.0183 168.38 2.3448 3.3431 0.0036448
-149.62 0.00083574 1.7002e-07 -123.04 -123.04 -0.68438 694.23 0.0014404 -123.04 -123.04 -0.68438 1.3345 1.9621 1877.4 -0.0074724 1344.0 0.19270 0.00024740 4042.0 379.15 402.44 3.5697 0.83319 1.0218 169.00 2.2956 3.3706 0.0037027
-148.62 0.0010016 2.0150e-07 -121.08 -121.08 -0.66855 693.22 0.0014425 -121.08 -121.08 -0.66855 1.3344 1.9636 1870.7 -0.0074623 1300.3 0.19220 0.00029412 3400.0 379.99 403.47 3.5438 0.83661 1.0252 169.62 2.2478 3.3982 0.0037610
-147.62 0.0011965 2.3807e-07 -119.11 -119.11 -0.65284 692.21 0.0014447 -119.11 -119.11 -0.65284 1.3343 1.9651 1863.9 -0.0074521 1258.9 0.19169 0.00034856 2869.0 380.83 404.49 3.5185 0.84001 1.0286 170.24 2.2014 3.4257 0.0038195
-146.62 0.0014249 2.8040e-07 -117.15 -117.15 -0.63724 691.20 0.0014468 -117.15 -117.15 -0.63724 1.3343 1.9666 1857.2 -0.0074417 1219.6 0.19117 0.00041181 2428.3 381.67 405.52 3.4938 0.84340 1.0320 170.85 2.1565 3.4532 0.0038783
-145.62 0.0016917 3.2927e-07 -115.18 -115.18 -0.62175 690.19 0.0014489 -115.18 -115.18 -0.62175 1.3343 1.9682 1850.4 -0.0074312 1182.3 0.19066 0.00048510 2061.4 382.51 406.56 3.4695 0.84677 1.0353 171.46 2.1128 3.4807 0.0039374
-144.62 0.0020026 3.8553e-07 -113.21 -113.21 -0.60637 689.18 0.0014510 -113.21 -113.21 -0.60637 1.3343 1.9697 1843.7 -0.0074206 1146.8 0.19014 0.00056976 1755.1 383.36 407.59 3.4458 0.85012 1.0387 172.07 2.0705 3.5082 0.0039967
-143.62 0.0023637 4.5012e-07 -111.24 -111.24 -0.59110 688.17 0.0014531 -111.24 -111.24 -0.59110 1.3343 1.9713 1836.9 -0.0074098 1113.0 0.18962 0.00066731 1498.6 384.21 408.63 3.4226 0.85346 1.0420 172.68 2.0294 3.5358 0.0040564
-142.62 0.0027820 5.2405e-07 -109.27 -109.27 -0.57593 687.16 0.0014553 -109.27 -109.27 -0.57593 1.3343 1.9728 1830.2 -0.0073988 1080.8 0.18909 0.00077939 1283.1 385.07 409.68 3.3999 0.85679 1.0454 173.28 1.9896 3.5633 0.0041164
-141.62 0.0032653 6.0848e-07 -107.30 -107.30 -0.56087 686.15 0.0014574 -107.30 -107.30 -0.56087 1.3343 1.9744 1823.5 -0.0073878 1050.1 0.18856 0.00090784 1101.5 385.93 410.72 3.3777 0.86011 1.0487 173.88 1.9508 3.5908 0.0041766
-140.62 0.0038222 7.0463e-07 -105.32 -105.32 -0.54591 685.14 0.0014596 -105.32 -105.32 -0.54591 1.3344 1.9760 1816.7 -0.0073765 1020.7 0.18803 0.0010547 948.16 386.79 411.77 3.3560 0.86341 1.0520 174.48 1.9133 3.6183 0.0042372
-139.62 0.0044623 8.1385e-07 -103.34 -103.34 -0.53104 684.13 0.0014617 -103.34 -103.34 -0.53105 1.3344 1.9776 1810.0 -0.0073651 992.74 0.18749 0.0012221 818.26 387.65 412.83 3.3347 0.86670 1.0553 175.08 1.8768 3.6459 0.0042980
-138.62 0.0051963 9.3763e-07 -101.37 -101.37 -0.51628 683.12 0.0014639 -101.37 -101.37 -0.51629 1.3345 1.9792 1803.3 -0.0073536 965.97 0.18695 0.0014125 707.94 388.52 413.88 3.3139 0.86998 1.0586 175.67 1.8413 3.6734 0.0043592
-137.62 0.0060358 1.0776e-06 -99.386 -99.386 -0.50162 682.11 0.0014660 -99.386 -99.386 -0.50162 1.3346 1.9808 1796.6 -0.0073419 940.35 0.18641 0.0016287 614.00 389.39 414.94 3.2935 0.87325 1.0619 176.26 1.8069 3.7009 0.0044206
-136.62 0.0069938 1.2354e-06 -97.404 -97.404 -0.48705 681.10 0.0014682 -97.404 -97.404 -0.48705 1.3347 1.9825 1789.9 -0.0073301 915.81 0.18586 0.0018733 533.80 390.26 416.00 3.2735 0.87650 1.0651 176.85 1.7734 3.7284 0.0044823
-135.62 0.0080843 1.4129e-06 -95.420 -95.420 -0.47257 680.09 0.0014704 -95.421 -95.421 -0.47258 1.3348 1.9841 1783.2 -0.0073180 892.30 0.18531 0.0021497 465.17 391.14 417.07 3.2540 0.87975 1.0684 177.44 1.7409 3.7559 0.0045443
-134.62 0.0093230 1.6123e-06 -93.435 -93.435 -0.45819 679.08 0.0014726 -93.436 -93.436 -0.45820 1.3350 1.9858 1776.5 -0.0073059 869.75 0.18476 0.0024613 406.30 392.02 418.14 3.2348 0.88299 1.0716 178.02 1.7093 3.7834 0.0046066
-133.62 0.010727 1.8357e-06 -91.449 -91.448 -0.44390 678.07 0.0014748 -91.450 -91.449 -0.44391 1.3351 1.9875 1769.8 -0.0072935 848.11 0.18421 0.0028116 355.67 392.91 419.21 3.2161 0.88622 1.0749 178.61 1.6786 3.8109 0.0046691
-132.62 0.012315 2.0853e-06 -89.460 -89.460 -0.42970 677.06 0.0014770 -89.461 -89.461 -0.42971 1.3353 1.9892 1763.1 -0.0072810 827.32 0.18365 0.0032049 312.03 393.79 420.29 3.1977 0.88944 1.0781 179.19 1.6488 3.8385 0.0047320
-131.62 0.014106 2.3638e-06 -87.470 -87.470 -0.41559 676.04 0.0014792 -87.471 -87.471 -0.41560 1.3354 1.9909 1756.4 -0.0072684 807.34 0.18309 0.0036453 274.33 394.68 421.36 3.1798 0.89266 1.0813 179.76 1.6197 3.8660 0.0047951
-130.62 0.016124 2.6739e-06 -85.478 -85.478 -0.40156 675.03 0.0014814 -85.479 -85.479 -0.40157 1.3356 1.9926 1749.7 -0.0072555 788.12 0.18253 0.0041375 241.69 395.58 422.44 3.1622 0.89586 1.0846 180.34 1.5915 3.8935 0.0048586
-129.62 0.018392 3.0184e-06 -83.484 -83.484 -0.38762 674.02 0.0014836 -83.486 -83.486 -0.38763 1.3358 1.9944 1743.0 -0.0072425 769.63 0.18196 0.0046867 213.37 396.47 423.53 3.1450 0.89906 1.0878 180.91 1.5641 3.9210 0.0049223
-128.62 0.020935 3.4003e-06 -81.489 -81.489 -0.37377 673.01 0.0014859 -81.491 -81.490 -0.37378 1.3360 1.9961 1736.3 -0.0072294 751.83 0.18140 0.0052981 188.75 397.37 424.62 3.1281 0.90226 1.0910 181.48 1.5374 3.9485 0.0049863
-127.62 0.023783 3.8230e-06 -79.492 -79.491 -0.36000 672.00 0.0014881 -79.494 -79.493 -0.36001 1.3363 1.9979 1729.6 -0.0072160 734.67 0.18083 0.0059776 167.29 398.27 425.71 3.1116 0.90545 1.0942 182.05 1.5114 3.9760 0.0050506
-126.62 0.026966 4.2900e-06 -77.493 -77.492 -0.34631 670.98 0.0014904 -77.495 -77.495 -0.34632 1.3365 1.9997 1722.9 -0.0072025 718.14 0.18025 0.0067313 148.56 399.18 426.80 3.0954 0.90863 1.0974 182.62 1.4861 4.0035 0.0051152
-125.62 0.030515 4.8048e-06 -75.492 -75.492 -0.33270 669.97 0.0014926 -75.494 -75.494 -0.33272 1.3368 2.0015 1716.2 -0.0071888 702.18 0.17968 0.0075660 132.17 400.09 427.89 3.0795 0.91181 1.1006 183.18 1.4615 4.0310 0.0051800
-124.62 0.034467 5.3715e-06 -73.489 -73.489 -0.31917 668.95 0.0014949 -73.492 -73.492 -0.31919 1.3371 2.0033 1709.5 -0.0071749 686.79 0.17910 0.0084885 117.81 401.00 428.99 3.0640 0.91499 1.1038 183.74 1.4375 4.0584 0.0052452
-123.62 0.038859 5.9941e-06 -71.485 -71.484 -0.30572 667.94 0.0014971 -71.488 -71.487 -0.30574 1.3374 2.0051 1702.8 -0.0071609 671.93 0.17852 0.0095065 105.19 401.91 430.10 3.0488 0.91816 1.1070 184.30 1.4141 4.0859 0.0053106
-122.62 0.043731 6.6770e-06 -69.478 -69.478 -0.29235 666.92 0.0014994 -69.482 -69.481 -0.29237 1.3377 2.0070 1696.2 -0.0071466 657.57 0.17794 0.010628 94.092 402.83 431.20 3.0339 0.92134 1.1102 184.86 1.3913 4.1134 0.0053764
-121.62 0.049128 7.4247e-06 -67.470 -67.469 -0.27905 665.91 0.0015017 -67.474 -67.473 -0.27907 1.3380 2.0089 1689.5 -0.0071322 643.70 0.17736 0.011861 84.309 403.75 432.31 3.0193 0.92451 1.1134 185.41 1.3691 4.1409 0.0054424
-120.62 0.055096 8.2420e-06 -65.460 -65.459 -0.26583 664.89 0.0015040 -65.464 -65.463 -0.26585 1.3384 2.0107 1682.8 -0.0071176 630.28 0.17678 0.013215 75.669 404.67 433.42 3.0050 0.92767 1.1166 185.96 1.3475 4.1683 0.0055087
-119.62 0.061684 9.1341e-06 -63.448 -63.447 -0.25268 663.87 0.0015063 -63.452 -63.452 -0.25271 1.3387 2.0126 1676.1 -0.0071028 617.30 0.17619 0.014700 68.027 405.60 434.53 2.9909 0.93084 1.1198 186.51 1.3264 4.1958 0.0055752
-118.62 0.068946 1.0106e-05 -61.434 -61.433 -0.23960 662.86 0.0015086 -61.439 -61.438 -0.23963 1.3391 2.0146 1669.4 -0.0070878 604.74 0.17560 0.016325 61.255 406.53 435.64 2.9772 0.93401 1.1231 187.06 1.3058 4.2233 0.0056421
-117.62 0.076937 1.1164e-05 -59.418 -59.417 -0.22660 661.84 0.0015109 -59.423 -59.422 -0.22663 1.3395 2.0165 1662.8 -0.0070726 592.58 0.17501 0.018101 55.245 407.46 436.76 2.9638 0.93718 1.1263 187.60 1.2857 4.2507 0.0057092
-116.62 0.085718 1.2312e-05 -57.400 -57.399 -0.21366 660.82 0.0015133 -57.406 -57.405 -0.21370 1.3400 2.0184 1656.1 -0.0070573 580.80 0.17442 0.020040 49.901 408.39 437.88 2.9506 0.94035 1.1295 188.14 1.2660 4.2782 0.0057767
-115.62 0.095353 1.3559e-05 -55.380 -55.379 -0.20080 659.80 0.0015156 -55.386 -55.385 -0.20084 1.3404 2.0204 1649.4 -0.0070417 569.38 0.17383 0.022152 45.142 409.33 439.01 2.9377 0.94352 1.1327 188.68 1.2468 4.3056 0.0058444
-114.62 0.10591 1.4908e-05 -53.358 -53.356 -0.18800 658.78 0.0015180 -53.365 -53.364 -0.18805 1.3409 2.0224 1642.7 -0.0070260 558.32 0.17323 0.024451 40.898 410.27 440.13 2.9250 0.94669 1.1360 189.22 1.2281 4.3330 0.0059123
-113.62 0.11746 1.6368e-05 -51.334 -51.332 -0.17528 657.76 0.0015203 -51.342 -51.340 -0.17533 1.3413 2.0244 1636.0 -0.0070100 547.59 0.17264 0.026949 37.107 411.21 441.26 2.9126 0.94987 1.1392 189.75 1.2097 4.3604 0.0059806
-112.62 0.13008 1.7945e-05 -49.308 -49.306 -0.16261 656.73 0.0015227 -49.316 -49.315 -0.16267 1.3418 2.0264 1629.3 -0.0069938 537.18 0.17204 0.029661 33.715 412.16 442.39 2.9005 0.95305 1.1424 190.28 1.1918 4.3879 0.0060491
-111.62 0.14384 1.9645e-05 -47.280 -47.278 -0.15002 655.71 0.0015251 -47.289 -47.287 -0.15008 1.3424 2.0285 1622.7 -0.0069774 527.08 0.17144 0.032600 30.675 413.10 443.53 2.8885 0.95623 1.1457 190.81 1.1742 4.4153 0.0061180
-110.62 0.15884 2.1477e-05 -45.249 -45.247 -0.13749 654.69 0.0015274 -45.259 -45.258 -0.13755 1.3429 2.0305 1616.0 -0.0069609 517.28 0.17084 0.035781 27.948 414.06 444.66 2.8769 0.95942 1.1490 191.34 1.1570 4.4427 0.0061871
-109.62 0.17516 2.3448e-05 -43.217 -43.214 -0.12502 653.66 0.0015298 -43.228 -43.226 -0.12509 1.3435 2.0326 1609.3 -0.0069441 507.76 0.17024 0.039220 25.497 415.01 445.80 2.8654 0.96261 1.1522 191.86 1.1402 4.4701 0.0062564
-108.62 0.19290 2.5564e-05 -41.182 -41.180 -0.11262 652.64 0.0015322 -41.194 -41.192 -0.11269 1.3441 2.0347 1602.6 -0.0069271 498.51 0.16964 0.042933 23.292 415.96 446.94 2.8542 0.96581 1.1555 192.38 1.1236 4.4974 0.0063261
-107.62 0.21215 2.7836e-05 -39.146 -39.143 -0.10028 651.61 0.0015347 -39.158 -39.156 -0.10036 1.3447 2.0369 1595.9 -0.0069098 489.52 0.16903 0.046937 21.305 416.92 448.09 2.8433 0.96901 1.1588 192.90 1.1075 4.5248 0.0063960
-106.62 0.23301 3.0269e-05 -37.107 -37.103 -0.087994 650.58 0.0015371 -37.120 -37.118 -0.088082 1.3453 2.0390 1589.2 -0.0068924 480.79 0.16843 0.051250 19.512 417.88 449.23 2.8325 0.97222 1.1621 193.41 1.0916 4.5522 0.0064662
-105.62 0.25561 3.2874e-05 -35.066 -35.062 -0.075773 649.55 0.0015395 -35.080 -35.078 -0.075868 1.3460 2.0412 1582.6 -0.0068747 472.30 0.16782 0.055891 17.892 418.85 450.38 2.8220 0.97544 1.1655 193.93 1.0760 4.5795 0.0065367
-104.62 0.28004 3.5659e-05 -33.022 -33.018 -0.063612 648.52 0.0015420 -33.038 -33.035 -0.063714 1.3467 2.0434 1575.9 -0.0068569 464.04 0.16721 0.060878 16.426 419.81 451.53 2.8116 0.97867 1.1688 194.44 1.0608 4.6069 0.0066074
-103.62 0.30643 3.8632e-05 -30.976 -30.972 -0.051509 647.49 0.0015444 -30.994 -30.991 -0.051619 1.3474 2.0456 1569.2 -0.0068387 456.00 0.16660 0.066231 15.099 420.78 452.68 2.8015 0.98191 1.1722 194.94 1.0458 4.6342 0.0066785
-102.62 0.33490 4.1803e-05 -28.928 -28.923 -0.039463 646.46 0.0015469 -28.947 -28.944 -0.039582 1.3481 2.0478 1562.5 -0.0068204 448.18 0.16600 0.071971 13.894 421.75 453.84 2.7916 0.98516 1.1755 195.44 1.0310 4.6615 0.0067498
-101.62 0.36558 4.5182e-05 -26.878 -26.873 -0.027475 645.43 0.0015494 -26.898 -26.894 -0.027602 1.3489 2.0501 1555.8 -0.0068018 440.57 0.16539 0.078120 12.801 422.73 454.99 2.7818 0.98841 1.1789 195.95 1.0166 4.6888 0.0068213
-100.62 0.39862 4.8776e-05 -24.825 -24.819 -0.015542 644.39 0.0015519 -24.847 -24.843 -0.015678 1.3497 2.0524 1549.1 -0.0067830 433.16 0.16478 0.084699 11.807 423.70 456.15 2.7723 0.99168 1.1823 196.44 1.0024 4.7161 0.0068932
-99.625 0.43414 5.2598e-05 -22.770 -22.764 -0.0036647 643.36 0.0015544 -22.794 -22.789 -0.0038103 1.3505 2.0547 1542.4 -0.0067639 425.95 0.16416 0.091731 10.901 424.68 457.31 2.7630 0.99496 1.1858 196.94 0.98838 4.7434 0.0069653
-98.625 0.47230 5.6655e-05 -20.713 -20.706 0.0081583 642.32 0.0015569 -20.738 -20.733 0.0080027 1.3514 2.0570 1535.7 -0.0067447 418.92 0.16355 0.099240 10.077 425.66 458.48 2.7538 0.99825 1.1892 197.43 0.97464 4.7707 0.0070377
-97.625 0.51325 6.0959e-05 -18.653 -18.645 0.019928 641.28 0.0015594 -18.680 -18.674 0.019762 1.3522 2.0594 1529.0 -0.0067251 412.07 0.16294 0.10725 9.3239 426.65 459.64 2.7448 1.0016 1.1927 197.92 0.96112 4.7979 0.0071103
-96.625 0.55714 6.5519e-05 -16.590 -16.582 0.031644 640.24 0.0015619 -16.620 -16.614 0.031467 1.3531 2.0618 1522.3 -0.0067053 405.39 0.16233 0.11579 8.6365 427.63 460.81 2.7360 1.0049 1.1962 198.40 0.94783 4.8251 0.0071832
-95.625 0.60416 7.0346e-05 -14.525 -14.517 0.043309 639.20 0.0015645 -14.557 -14.550 0.043120 1.3540 2.0642 1515.7 -0.0066853 398.88 0.16171 0.12488 8.0078 428.62 461.98 2.7274 1.0082 1.1997 198.88 0.93475 4.8524 0.0072564
-94.625 0.65446 7.5450e-05 -12.458 -12.448 0.054922 638.16 0.0015670 -12.491 -12.484 0.054721 1.3550 2.0667 1509.0 -0.0066650 392.53 0.16110 0.13455 7.4323 429.61 463.15 2.7189 1.0116 1.2032 199.36 0.92188 4.8796 0.0073299
-93.625 0.70822 8.0842e-05 -10.388 -10.378 0.066485 637.12 0.0015696 -10.424 -10.416 0.066271 1.3560 2.0691 1502.3 -0.0066444 386.34 0.16048 0.14482 6.9050 430.60 464.32 2.7107 1.0149 1.2068 199.83 0.90921 4.9068 0.0074036
-92.625 0.76564 8.6533e-05 -8.3155 -8.3042 0.077998 636.07 0.0015722 -8.3535 -8.3452 0.077771 1.3570 2.0716 1495.6 -0.0066236 380.31 0.15987 0.15573 6.4212 431.60 465.49 2.7025 1.0183 1.2104 200.30 0.89673 4.9340 0.0074776
-91.625 0.82689 9.2533e-05 -6.2402 -6.2281 0.089461 635.02 0.0015747 -6.2808 -6.2719 0.089220 1.3580 2.0742 1488.9 -0.0066025 374.41 0.15925 0.16731 5.9769 432.59 466.67 2.6946 1.0217 1.2140 200.77 0.88445 4.9611 0.0075518
-90.625 0.89218 9.8854e-05 -4.1624 -4.1493 0.10088 633.98 0.0015773 -4.2056 -4.1959 0.10062 1.3591 2.0767 1482.2 -0.0065811 368.66 0.15864 0.17958 5.5685 433.59 467.84 2.6868 1.0251 1.2177 201.24 0.87236 4.9883 0.0076263
-89.625 0.96172 0.00010551 -2.0818 -2.0677 0.11224 632.93 0.0015800 -2.1279 -2.1174 0.11197 1.3602 2.0793 1475.5 -0.0065595 363.05 0.15802 0.19258 5.1928 434.59 469.02 2.6791 1.0285 1.2213 201.70 0.86045 5.0154 0.0077011
-88.625 1.0357 0.00011250 0.0014939 0.016687 0.12357 631.88 0.0015826 -0.047516 -0.036215 0.12328 1.3613 2.0819 1468.8 -0.0065375 357.56 0.15740 0.20633 4.8466 435.59 470.20 2.6717 1.0320 1.2250 202.15 0.84873 5.0425 0.0077761
-87.625 1.1144 0.00011985 2.0875 2.1039 0.13484 630.83 0.0015852 2.0355 2.0476 0.13454 1.3625 2.0846 1462.1 -0.0065153 352.21 0.15679 0.22087 4.5276 436.60 471.39 2.6643 1.0354 1.2288 202.61 0.83718 5.0696 0.0078514
-86.625 1.1979 0.00012756 4.1764 4.1939 0.14607 629.77 0.0015879 4.1211 4.1342 0.14575 1.3637 2.0873 1455.4 -0.0064928 346.98 0.15617 0.23623 4.2331 437.61 472.57 2.6571 1.0389 1.2325 203.06 0.82580 5.0967 0.0079270
-85.625 1.2866 0.00013565 6.2680 6.2869 0.15725 628.72 0.0015905 6.2094 6.2235 0.15691 1.3649 2.0900 1448.8 -0.0064701 341.87 0.15555 0.25245 3.9612 438.61 473.75 2.6501 1.0424 1.2363 203.50 0.81460 5.1237 0.0080028
-84.625 1.3806 0.00014413 8.3625 8.3828 0.16839 627.66 0.0015932 8.3004 8.3155 0.16803 1.3661 2.0927 1442.1 -0.0064470 336.87 0.15494 0.26956 3.7097 439.63 474.94 2.6432 1.0460 1.2402 203.95 0.80356 5.1508 0.0080789
-83.625 1.4803 0.00015300 10.460 10.482 0.17949 626.60 0.0015959 10.394 10.410 0.17911 1.3674 2.0955 1435.4 -0.0064236 331.99 0.15432 0.28760 3.4771 440.64 476.13 2.6364 1.0495 1.2440 204.38 0.79269 5.1778 0.0081553
-82.625 1.5858 0.00016228 12.560 12.584 0.19054 625.54 0.0015986 12.491 12.508 0.19014 1.3687 2.0983 1428.7 -0.0063999 327.22 0.15370 0.30659 3.2616 441.65 477.31 2.6298 1.0531 1.2479 204.82 0.78199 5.2048 0.0082319
-81.625 1.6975 0.00017199 14.664 14.688 0.20155 624.48 0.0016013 14.590 14.609 0.20113 1.3700 2.1012 1422.0 -0.0063759 322.55 0.15309 0.32659 3.0619 442.67 478.50 2.6233 1.0567 1.2519 205.25 0.77144 5.2318 0.0083088
-80.625 1.8155 0.00018212 16.770 16.796 0.21252 623.42 0.0016041 16.692 16.712 0.21208 1.3714 2.1041 1415.4 -0.0063516 317.99 0.15247 0.34763 2.8766 443.69 479.70 2.6169 1.0603 1.2558 205.67 0.76106 5.2587 0.0083860
-79.625 1.9402 0.00019270 18.879 18.908 0.22345 622.36 0.0016068 18.797 18.819 0.22299 1.3728 2.1070 1408.7 -0.0063270 313.52 0.15186 0.36974 2.7046 444.71 480.89 2.6106 1.0639 1.2598 206.10 0.75083 5.2857 0.0084634
-78.625 2.0718 0.00020373 20.992 21.022 0.23433 621.29 0.0016096 20.905 20.928 0.23385 1.3742 2.1099 1402.0 -0.0063021 309.15 0.15124 0.39296 2.5448 445.73 482.08 2.6045 1.0676 1.2639 206.51 0.74076 5.3126 0.0085411
-77.625 2.2107 0.00021522 23.107 23.139 0.24518 620.22 0.0016123 23.016 23.040 0.24468 1.3757 2.1129 1395.3 -0.0062768 304.88 0.15062 0.41735 2.3961 446.75 483.27 2.5985 1.0712 1.2680 206.93 0.73084 5.3395 0.0086190
-76.625 2.3571 0.00022718 25.226 25.260 0.25599 619.15 0.0016151 25.130 25.156 0.25546 1.3772 2.1159 1388.7 -0.0062512 300.69 0.15001 0.44292 2.2577 447.78 484.47 2.5926 1.0749 1.2721 207.34 0.72107 5.3664 0.0086972
-75.625 2.5113 0.00023963 27.348 27.384 0.26676 618.08 0.0016179 27.247 27.275 0.26620 1.3787 2.1190 1382.0 -0.0062253 296.59 0.14939 0.46974 2.1288 448.81 485.67 2.5869 1.0787 1.2762 207.74 0.71146 5.3933 0.0087757
-74.625 2.6736 0.00025257 29.473 29.512 0.27749 617.01 0.0016207 29.366 29.396 0.27691 1.3802 2.1221 1375.4 -0.0061990 292.58 0.14878 0.49783 2.0087 449.83 486.86 2.5812 1.0824 1.2804 208.14 0.70200 5.4201 0.0088544
-73.625 2.8444 0.00026602 31.601 31.643 0.28818 615.93 0.0016236 31.489 31.521 0.28758 1.3818 2.1252 1368.7 -0.0061724 288.65 0.14816 0.52725 1.8966 450.86 488.06 2.5757 1.0862 1.2847 208.54 0.69268 5.4469 0.0089334
-72.625 3.0240 0.00027998 33.733 33.777 0.29884 614.85 0.0016264 33.615 33.649 0.29821 1.3834 2.1284 1362.0 -0.0061454 284.81 0.14755 0.55804 1.7920 451.90 489.26 2.5703 1.0900 1.2889 208.93 0.68351 5.4737 0.0090126
-71.625 3.2127 0.00029446 35.867 35.915 0.30946 613.78 0.0016293 35.745 35.781 0.30880 1.3851 2.1316 1355.4 -0.0061181 281.03 0.14694 0.59024 1.6942 452.93 490.46 2.5650 1.0938 1.2932 209.32 0.67448 5.5005 0.0090922
-70.625 3.4108 0.00030947 38.006 38.056 0.32005 612.69 0.0016321 37.877 37.915 0.31935 1.3867 2.1349 1348.7 -0.0060904 277.34 0.14632 0.62390 1.6028 453.96 491.66 2.5598 1.0976 1.2976 209.70 0.66560 5.5273 0.0091720
-69.625 3.6187 0.00032503 40.148 40.201 0.33060 611.61 0.0016350 40.013 40.053 0.32987 1.3884 2.1382 1342.1 -0.0060624 273.72 0.14571 0.65906 1.5173 455.00 492.86 2.5547 1.1015 1.3020 210.08 0.65687 5.5540 0.0092520
-68.625 3.8367 0.00034113 42.293 42.349 0.34111 610.53 0.0016379 42.152 42.195 0.34036 1.3902 2.1415 1335.5 -0.0060339 270.17 0.14510 0.69577 1.4372 456.04 494.06 2.5497 1.1054 1.3064 210.45 0.64827 5.5807 0.0093324
-67.625 4.0652 0.00035779 44.441 44.501 0.35159 609.44 0.0016409 44.294 44.340 0.35080 1.3919 2.1449 1328.8 -0.0060051 266.69 0.14449 0.73408 1.3622 457.08 495.26 2.5448 1.1093 1.3109 210.82 0.63981 5.6074 0.0094130
-66.625 4.3046 0.00037501 46.594 46.657 0.36204 608.35 0.0016438 46.439 46.488 0.36122 1.3937 2.1483 1322.2 -0.0059760 263.28 0.14388 0.77404 1.2919 458.12 496.46 2.5400 1.1133 1.3154 211.18 0.63150 5.6341 0.0094939
-65.625 4.5551 0.00039281 48.749 48.816 0.37245 607.26 0.0016467 48.588 48.640 0.37160 1.3955 2.1518 1315.6 -0.0059464 259.93 0.14327 0.81570 1.2259 459.16 497.67 2.5353 1.1172 1.3200 211.54 0.62332 5.6608 0.0095750
-64.625 4.8173 0.00041118 50.909 50.979 0.38283 606.16 0.0016497 50.740 50.795 0.38195 1.3974 2.1553 1308.9 -0.0059164 256.65 0.14266 0.85910 1.1640 460.21 498.87 2.5307 1.1212 1.3246 211.89 0.61527 5.6874 0.0096564
-63.625 5.0915 0.00043014 53.072 53.147 0.39318 605.07 0.0016527 52.896 52.954 0.39226 1.3993 2.1588 1302.3 -0.0058861 253.42 0.14205 0.90429 1.1058 461.25 500.07 2.5262 1.1252 1.3293 212.24 0.60736 5.7140 0.0097382
-62.625 5.3781 0.00044969 55.239 55.317 0.40349 603.97 0.0016557 55.055 55.117 0.40254 1.4012 2.1624 1295.7 -0.0058553 250.26 0.14144 0.95134 1.0511 462.30 501.28 2.5218 1.1293 1.3340 212.58 0.59958 5.7406 0.0098201
-61.625 5.6774 0.00046984 57.409 57.492 0.41378 602.87 0.0016587 57.218 57.283 0.41279 1.4031 2.1660 1289.1 -0.0058241 247.16 0.14084 1.0003 0.99972 463.35 502.48 2.5175 1.1333 1.3387 212.92 0.59194 5.7672 0.0099024
-60.625 5.9899 0.00049059 59.583 59.671 0.42403 601.77 0.0016618 59.385 59.453 0.42301 1.4051 2.1697 1282.5 -0.0057925 244.12 0.14023 1.0512 0.95131 464.40 503.68 2.5133 1.1374 1.3435 213.26 0.58442 5.7938 0.0099850
-59.625 6.3160 0.00051195 61.761 61.854 0.43426 600.66 0.0016648 61.554 61.627 0.43320 1.4071 2.1734 1275.9 -0.0057605 241.13 0.13962 1.1041 0.90573 465.45 504.89 2.5091 1.1415 1.3483 213.58 0.57704 5.8203 0.010068
-58.625 6.6561 0.00053391 63.943 64.041 0.44445 599.55 0.0016679 63.728 63.805 0.44335 1.4091 2.1772 1269.3 -0.0057280 238.19 0.13902 1.1591 0.86277 466.50 506.09 2.5051 1.1457 1.3532 213.90 0.56978 5.8468 0.010151
-57.625 7.0107 0.00055649 66.129 66.232 0.45462 598.44 0.0016710 65.905 65.986 0.45348 1.4111 2.1810 1262.7 -0.0056951 235.31 0.13842 1.2161 0.82228 467.55 507.30 2.5011 1.1498 1.3581 214.22 0.56265 5.8733 0.010234
-56.625 7.3801 0.00057969 68.319 68.427 0.46475 597.33 0.0016741 68.086 68.172 0.46358 1.4132 2.1848 1256.1 -0.0056617 232.48 0.13781 1.2754 0.78408 468.60 508.50 2.4972 1.1540 1.3631 214.53 0.55564 5.8998 0.010318
-55.625 7.7648 0.00060350 70.512 70.626 0.47486 596.22 0.0016772 70.271 70.361 0.47364 1.4153 2.1887 1249.5 -0.0056279 229.69 0.13721 1.3369 0.74802 469.66 509.71 2.4934 1.1582 1.3681 214.84 0.54875 5.9263 0.010402
-54.625 8.1652 0.00062794 72.710 72.830 0.48494 595.10 0.0016804 72.460 72.554 0.48368 1.4174 2.1927 1242.9 -0.0055937 226.96 0.13661 1.4006 0.71396 470.72 510.91 2.4897 1.1624 1.3731 215.14 0.54199 5.9527 0.010486
-53.625 8.5819 0.00065299 74.912 75.038 0.49500 593.98 0.0016836 74.652 74.752 0.49369 1.4196 2.1967 1236.3 -0.0055589 224.27 0.13601 1.4667 0.68178 471.77 512.11 2.4860 1.1667 1.3782 215.43 0.53535 5.9792 0.010571
-52.625 9.0151 0.00067867 77.117 77.250 0.50502 592.86 0.0016867 76.849 76.954 0.50368 1.4218 2.2007 1229.8 -0.0055237 221.63 0.13541 1.5353 0.65136 472.83 513.32 2.4824 1.1710 1.3834 215.72 0.52882 6.0056 0.010656
-51.625 9.4655 0.00070496 79.327 79.466 0.51502 591.73 0.0016900 79.049 79.159 0.51363 1.4240 2.2048 1223.2 -0.0054880 219.04 0.13482 1.6062 0.62258 473.89 514.52 2.4789 1.1752 1.3886 216.00 0.52241 6.0320 0.010741
-50.625 9.9335 0.00073188 81.542 81.687 0.52499 590.60 0.0016932 81.253 81.369 0.52356 1.4262 2.2089 1216.6 -0.0054519 216.48 0.13422 1.6797 0.59534 474.95 515.73 2.4755 1.1796 1.3938 216.28 0.51612 6.0584 0.010827
-49.625 10.419 0.00075941 83.760 83.913 0.53494 589.47 0.0016964 83.462 83.584 0.53347 1.4285 2.2131 1210.1 -0.0054152 213.98 0.13363 1.7558 0.56954 476.01 516.93 2.4722 1.1839 1.3991 216.55 0.50994 6.0848 0.010913
-48.625 10.924 0.00078755 85.982 86.143 0.54486 588.34 0.0016997 85.674 85.802 0.54334 1.4308 2.2173 1203.5 -0.0053780 211.51 0.13303 1.8345 0.54510 477.07 518.13 2.4689 1.1883 1.4044 216.82 0.50387 6.1112 0.010999
-47.625 11.448 0.00081630 88.209 88.377 0.55475 587.20 0.0017030 87.891 88.025 0.55319 1.4331 2.2216 1196.9 -0.0053403 209.08 0.13244 1.9159 0.52194 478.14 519.33 2.4657 1.1927 1.4098 217.08 0.49792 6.1375 0.011085
-46.625 11.991 0.00084565 90.440 90.616 0.56463 586.06 0.0017063 90.111 90.252 0.56302 1.4354 2.2259 1190.4 -0.0053020 206.69 0.13185 2.0001 0.49997 479.20 520.53 2.4625 1.1971 1.4153 217.33 0.49207 6.1639 0.011172
-45.625 12.554 0.00087560 92.676 92.860 0.57447 584.92 0.0017096 92.336 92.484 0.57282 1.4378 2.2303 1183.8 -0.0052633 204.34 0.13126 2.0872 0.47912 480.27 521.74 2.4594 1.2015 1.4207 217.58 0.48633 6.1902 0.011259
-44.625 13.137 0.00090615 94.916 95.108 0.58430 583.77 0.0017130 94.565 94.720 0.58260 1.4402 2.2347 1177.3 -0.0052240 202.03 0.13067 2.1771 0.45933 481.33 522.94 2.4564 1.2060 1.4263 217.82 0.48069 6.2165 0.011347
-43.625 13.741 0.00093727 97.160 97.362 0.59410 582.62 0.0017164 96.799 96.961 0.59235 1.4426 2.2392 1170.7 -0.0051841 199.75 0.13008 2.2700 0.44053 482.40 524.14 2.4535 1.2104 1.4319 218.05 0.47516 6.2429 0.011435
-42.625 14.367 0.00096897 99.409 99.620 0.60387 581.47 0.0017198 99.036 99.207 0.60208 1.4450 2.2437 1164.2 -0.0051437 197.51 0.12949 2.3659 0.42267 483.46 525.33 2.4506 1.2149 1.4375 218.28 0.46973 6.2692 0.011523
-41.625 15.015 0.0010012 101.66 101.88 0.61363 580.32 0.0017232 101.28 101.46 0.61179 1.4475 2.2483 1157.7 -0.0051027 195.30 0.12891 2.4649 0.40569 484.53 526.53 2.4478 1.2195 1.4432 218.50 0.46440 6.2955 0.011612
-40.625 15.686 0.0010340 103.92 104.15 0.62336 579.16 0.0017266 103.52 103.71 0.62147 1.4500 2.2529 1151.1 -0.0050611 193.13 0.12832 2.5671 0.38954 485.60 527.73 2.4450 1.2240 1.4489 218.72 0.45917 6.3218 0.011701
-39.625 16.380 0.0010674 106.18 106.42 0.63307 578.00 0.0017301 105.78 105.97 0.63113 1.4525 2.2576 1144.6 -0.0050189 190.99 0.12774 2.6725 0.37418 486.67 528.93 2.4423 1.2286 1.4547 218.93 0.45403 6.3481 0.011790
-38.625 17.097 0.0011013 108.45 108.70 0.64275 576.83 0.0017336 108.03 108.24 0.64077 1.4550 2.2623 1138.0 -0.0049761 188.88 0.12716 2.7813 0.35955 487.74 530.12 2.4397 1.2332 1.4606 219.13 0.44900 6.3744 0.011880
-37.625 17.838 0.0011357 110.72 110.98 0.65242 575.66 0.0017371 110.29 110.51 0.65039 1.4576 2.2671 1131.5 -0.0049327 186.81 0.12658 2.8934 0.34562 488.81 531.32 2.4371 1.2378 1.4665 219.33 0.44405 6.4007 0.011970
-36.625 18.604 0.0011706 113.00 113.27 0.66206 574.49 0.0017407 112.56 112.78 0.65999 1.4602 2.2719 1125.0 -0.0048887 184.76 0.12600 3.0089 0.33235 489.88 532.51 2.4346 1.2424 1.4724 219.52 0.43920 6.4270 0.012060
-35.625 19.395 0.0012059 115.28 115.56 0.67169 573.32 0.0017442 114.83 115.06 0.66956 1.4628 2.2768 1118.5 -0.0048440 182.75 0.12542 3.1280 0.31969 490.95 533.70 2.4321 1.2471 1.4784 219.70 0.43444 6.4533 0.012151
-34.625 20.212 0.0012418 117.56 117.86 0.68129 572.14 0.0017478 117.10 117.34 0.67912 1.4654 2.2818 1111.9 -0.0047987 180.76 0.12485 3.2506 0.30763 492.02 534.89 2.4297 1.2517 1.4845 219.88 0.42977 6.4797 0.012243
-33.625 21.056 0.0012780 119.86 120.16 0.69088 570.96 0.0017514 119.38 119.63 0.68865 1.4681 2.2868 1105.4 -0.0047527 178.80 0.12427 3.3770 0.29612 493.09 536.08 2.4273 1.2564 1.4906 220.05 0.42519 6.5060 0.012334
-32.625 21.926 0.0013147 122.15 122.47 0.70044 569.77 0.0017551 121.66 121.93 0.69817 1.4708 2.2918 1098.9 -0.0047061 176.87 0.12370 3.5071 0.28514 494.17 537.27 2.4250 1.2611 1.4968 220.21 0.42070 6.5323 0.012426
-31.625 22.823 0.0013518 124.45 124.79 0.70998 568.58 0.0017588 123.95 124.23 0.70767 1.4735 2.2970 1092.3 -0.0046587 174.97 0.12313 3.6410 0.27465 495.24 538.46 2.4227 1.2659 1.5031 220.36 0.41629 6.5587 0.012519
-30.625 23.749 0.0013892 126.76 127.11 0.71951 567.39 0.0017625 126.24 126.53 0.71714 1.4762 2.3021 1085.8 -0.0046107 173.09 0.12256 3.7787 0.26464 496.31 539.64 2.4205 1.2706 1.5094 220.51 0.41196 6.5850 0.012612
-29.625 24.703 0.0014270 129.07 129.43 0.72902 566.19 0.0017662 128.54 128.84 0.72660 1.4790 2.3074 1079.3 -0.0045619 171.24 0.12200 3.9205 0.25507 497.38 540.83 2.4184 1.2754 1.5157 220.65 0.40772 6.6114 0.012706
-28.625 25.687 0.0014651 131.38 131.76 0.73850 564.99 0.0017699 130.84 131.16 0.73604 1.4818 2.3126 1072.8 -0.0045124 169.42 0.12143 4.0663 0.24592 498.46 542.01 2.4162 1.2802 1.5222 220.79 0.40356 6.6378 0.012800
-27.625 26.700 0.0015035 133.70 134.09 0.74797 563.78 0.0017737 133.15 133.48 0.74547 1.4846 2.3180 1066.2 -0.0044621 167.62 0.12087 4.2163 0.23717 499.53 543.19 2.4142 1.2850 1.5286 220.91 0.39947 6.6642 0.012894
-26.625 27.743 0.0015421 136.03 136.44 0.75743 562.57 0.0017775 135.47 135.81 0.75487 1.4874 2.3234 1059.7 -0.0044111 165.84 0.12031 4.3705 0.22881 500.60 544.37 2.4122 1.2899 1.5352 221.03 0.39547 6.6906 0.012989
-25.625 28.817 0.0015810 138.36 138.78 0.76686 561.36 0.0017814 137.78 138.14 0.76426 1.4902 2.3289 1053.2 -0.0043593 164.09 0.11975 4.5290 0.22080 501.68 545.55 2.4102 1.2947 1.5418 221.14 0.39154 6.7171 0.013084
-24.625 29.923 0.0016200 140.69 141.13 0.77628 560.14 0.0017853 140.11 140.48 0.77363 1.4931 2.3344 1046.7 -0.0043067 162.36 0.11919 4.6918 0.21314 502.75 546.72 2.4083 1.2996 1.5485 221.25 0.38768 6.7436 0.013180
-23.625 31.061 0.0016592 143.04 143.49 0.78568 558.92 0.0017892 142.44 142.82 0.78298 1.4960 2.3400 1040.1 -0.0042533 160.65 0.11863 4.8592 0.20580 503.82 547.90 2.4064 1.3045 1.5552 221.35 0.38391 6.7701 0.013277
-22.625 32.232 0.0016985 145.38 145.85 0.79506 557.69 0.0017931 144.77 145.17 0.79232 1.4990 2.3457 1033.6 -0.0041990 158.97 0.11807 5.0311 0.19877 504.90 549.07 2.4045 1.3095 1.5621 221.44 0.38020 6.7967 0.013374
-21.625 33.435 0.0017378 147.73 148.22 0.80443 556.46 0.0017971 147.11 147.52 0.80164 1.5019 2.3514 1027.1 -0.0041439 157.30 0.11752 5.2076 0.19203 505.97 550.24 2.4027 1.3144 1.5690 221.52 0.37656 6.8232 0.013471
-20.625 34.673 0.0017772 150.09 150.60 0.81378 555.23 0.0018011 149.45 149.88 0.81095 1.5049 2.3572 1020.6 -0.0040879 155.66 0.11697 5.3889 0.18557 507.04 551.40 2.4010 1.3194 1.5759 221.59 0.37300 6.8499 0.013569
-19.625 35.946 0.0018165 152.45 152.98 0.82311 553.99 0.0018051 151.80 152.25 0.82024 1.5079 2.3630 1014.0 -0.0040311 154.04 0.11642 5.5750 0.17937 508.11 552.57 2.3992 1.3244 1.5829 221.66 0.36950 6.8765 0.013668
-18.625 37.253 0.0018558 154.82 155.36 0.83243 552.74 0.0018092 154.16 154.62 0.82952 1.5109 2.3689 1007.5 -0.0039733 152.44 0.11587 5.7660 0.17343 509.19 553.73 2.3976 1.3294 1.5901 221.72 0.36608 6.9032 0.013767
-17.625 38.596 0.0018949 157.19 157.76 0.84173 551.49 0.0018133 156.52 157.00 0.83878 1.5140 2.3749 1001.0 -0.0039145 150.86 0.11532 5.9621 0.16773 510.26 554.89 2.3959 1.3345 1.5972 221.77 0.36272 6.9300 0.013867
-16.625 39.976 0.0019339 159.57 160.16 0.85102 550.24 0.0018174 158.89 159.39 0.84803 1.5171 2.3810 994.44 -0.0038549 149.29 0.11478 6.1632 0.16225 511.33 556.05 2.3943 1.3395 1.6045 221.81 0.35942 6.9568 0.013968
-15.625 41.392 0.0019725 161.95 162.56 0.86029 548.98 0.0018216 161.26 161.78 0.85726 1.5202 2.3871 987.91 -0.0037942 147.75 0.11423 6.3696 0.15700 512.40 557.20 2.3927 1.3446 1.6119 221.85 0.35619 6.9836 0.014069
-14.625 42.846 0.0020109 164.34 164.97 0.86955 547.71 0.0018258 163.64 164.18 0.86649 1.5233 2.3933 981.37 -0.0037325 146.22 0.11369 6.5812 0.15195 513.47 558.36 2.3912 1.3497 1.6193 221.87 0.35302 7.0105 0.014170
-13.625 44.338 0.0020490 166.74 167.39 0.87880 546.44 0.0018300 166.02 166.58 0.87569 1.5264 2.3996 974.83 -0.0036698 144.72 0.11315 6.7983 0.14710 514.54 559.51 2.3897 1.3549 1.6268 221.89 0.34992 7.0375 0.014273
-12.625 45.870 0.0020866 169.14 169.81 0.88802 545.17 0.0018343 168.41 168.99 0.88489 1.5296 2.4059 968.29 -0.0036061 143.23 0.11261 7.0208 0.14243 515.61 560.65 2.3883 1.3600 1.6344 221.90 0.34688 7.0646 0.014376
-11.625 47.440 0.0021236 171.54 172.24 0.89724 543.89 0.0018386 170.81 171.41 0.89407 1.5328 2.4124 961.75 -0.0035413 141.76 0.11208 7.2490 0.13795 516.68 561.80 2.3868 1.3652 1.6421 221.91 0.34389 7.0917 0.014479
-10.625 49.051 0.0021601 173.95 174.67 0.90644 542.60 0.0018430 173.21 173.83 0.90324 1.5360 2.4189 955.20 -0.0034753 140.30 0.11154 7.4829 0.13364 517.75 562.94 2.3854 1.3704 1.6498 221.90 0.34097 7.1188 0.014584
-9.6250 50.703 0.0021960 176.37 177.11 0.91563 541.31 0.0018474 175.61 176.26 0.91240 1.5393 2.4255 948.65 -0.0034082 138.86 0.11101 7.7226 0.12949 518.81 564.08 2.3841 1.3757 1.6577 221.88 0.33810 7.1461 0.014689
-8.6250 52.396 0.0022311 178.79 179.56 0.92480 540.02 0.0018518 178.03 178.70 0.92154 1.5426 2.4321 942.10 -0.0033400 137.44 0.11048 7.9683 0.12550 519.88 565.21 2.3827 1.3809 1.6657 221.86 0.33529 7.1734 0.014795
-7.6250 54.131 0.0022654 181.22 182.01 0.93397 538.72 0.0018563 180.45 181.14 0.93068 1.5459 2.4389 935.55 -0.0032705 136.03 0.10995 8.2200 0.12165 520.94 566.35 2.3814 1.3862 1.6737 221.83 0.33254 7.2008 0.014902
-6.6250 55.909 0.0022988 183.65 184.47 0.94312 537.41 0.0018608 182.87 183.59 0.93980 1.5492 2.4457 928.99 -0.0031998 134.64 0.10942 8.4779 0.11795 522.01 567.48 2.3801 1.3915 1.6819 221.79 0.32984 7.2284 0.015009
-5.6250 57.730 0.0023312 186.09 186.94 0.95225 536.10 0.0018653 185.30 186.05 0.94892 1.5525 2.4526 922.43 -0.0031279 133.27 0.10889 8.7420 0.11439 523.07 568.60 2.3789 1.3969 1.6902 221.74 0.32720 7.2560 0.015117
-4.6250 59.595 0.0023625 188.54 189.41 0.96138 534.78 0.0018699 187.74 188.51 0.95802 1.5559 2.4596 915.87 -0.0030546 131.91 0.10837 9.0126 0.11096 524.13 569.72 2.3777 1.4022 1.6985 221.68 0.32461 7.2837 0.015226
-3.6250 61.505 0.0023926 190.99 191.89 0.97049 533.45 0.0018746 190.19 190.98 0.96711 1.5593 2.4667 909.30 -0.0029800 130.56 0.10785 9.2896 0.10765 525.19 570.84 2.3765 1.4076 1.7070 221.62 0.32207 7.3115 0.015336
-2.6250 63.461 0.0024214 193.45 194.38 0.97959 532.12 0.0018793 192.64 193.46 0.97620 1.5627 2.4739 902.73 -0.0029041 129.23 0.10733 9.5733 0.10446 526.25 571.96 2.3753 1.4131 1.7156 221.54 0.31958 7.3394 0.015447
-1.6250 65.462 0.0024488 195.91 196.87 0.98867 530.78 0.0018840 195.10 195.95 0.98527 1.5662 2.4811 896.16 -0.0028267 127.91 0.10681 9.8638 0.10138 527.31 573.07 2.3742 1.4185 1.7243 221.45 0.31715 7.3674 0.015559
-0.62500 67.510 0.0024746 198.38 199.37 0.99775 529.44 0.0018888 197.56 198.44 0.99434 1.5696 2.4885 889.58 -0.0027478 126.61 0.10629 10.161 0.098414 528.37 574.18 2.3731 1.4240 1.7331 221.36 0.31476 7.3956 0.015671
0.37500 69.606 0.0024988 200.85 201.87 1.0068 528.09 0.0018936 200.03 200.94 1.0034 1.5731 2.4960 883.00 -0.0026675 125.32 0.10578 10.466 0.095552 529.42 575.28 2.3720 1.4295 1.7421 221.26 0.31242 7.4239 0.015785
1.3750 71.749 0.0025212 203.33 204.39 1.0159 526.73 0.0018985 202.51 203.45 1.0124 1.5767 2.5035 876.42 -0.0025856 124.04 0.10527 10.777 0.092790 530.48 576.38 2.3709 1.4350 1.7512 221.14 0.31013 7.4523 0.015899
2.3750 73.941 0.0025416 205.82 206.91 1.0249 525.37 0.0019034 204.99 205.96 1.0215 1.5802 2.5112 869.83 -0.0025022 122.78 0.10476 11.096 0.090123 531.53 577.47 2.3699 1.4406 1.7604 221.02 0.30789 7.4808 0.016015
3.3750 76.183 0.0025600 208.31 209.43 1.0339 523.99 0.0019084 207.48 208.48 1.0305 1.5838 2.5190 863.24 -0.0024171 121.53 0.10425 11.422 0.087549 532.58 578.56 2.3688 1.4462 1.7697 220.89 0.30569 7.5095 0.016131
4.3750 78.475 0.0025762 210.81 211.96 1.0430 522.62 0.0019134 209.98 211.01 1.0395 1.5874 2.5268 856.64 -0.0023303 120.29 0.10374 11.756 0.085062 533.63 579.65 2.3678 1.4518 1.7792 220.75 0.30354 7.5384 0.016249
5.3750 80.817 0.0025900 213.32 214.50 1.0520 521.23 0.0019185 212.48 213.55 1.0486 1.5910 2.5348 850.04 -0.0022417 119.06 0.10324 12.098 0.082660 534.67 580.73 2.3669 1.4575 1.7888 220.60 0.30144 7.5674 0.016368
6.3750 83.211 0.0026013 215.83 217.05 1.0610 519.84 0.0019237 215.00 216.10 1.0576 1.5946 2.5429 843.43 -0.0021514 117.85 0.10273 12.447 0.080340 535.72 581.81 2.3659 1.4632 1.7986 220.44 0.29938 7.5966 0.016487
7.3750 85.657 0.0026099 218.35 219.60 1.0700 518.44 0.0019289 217.51 218.65 1.0666 1.5983 2.5511 836.82 -0.0020593 116.65 0.10223 12.805 0.078096 536.76 582.88 2.3650 1.4689 1.8085 220.27 0.29736 7.6259 0.016608
8.3750 88.156 0.0026156 220.87 222.16 1.0789 517.03 0.0019341 220.04 221.22 1.0756 1.6020 2.5595 830.20 -0.0019652 115.46 0.10173 13.170 0.075928 537.80 583.95 2.3640 1.4746 1.8186 220.08 0.29538 7.6555 0.016730
9.3750 90.708 0.0026183 223.40 224.73 1.0879 515.62 0.0019394 222.57 223.79 1.0846 1.6057 2.5679 823.58 -0.0018691 114.28 0.10124 13.545 0.073830 538.84 585.01 2.3631 1.4804 1.8288 219.89 0.29345 7.6852 0.016853
10.375 93.315 0.0026177 225.94 227.31 1.0969 514.19 0.0019448 225.11 226.37 1.0936 1.6095 2.5765 816.96 -0.0017710 113.11 0.10074 13.927 0.071802 539.87 586.07 2.3622 1.4863 1.8392 219.69 0.29156 7.7151 0.016978
11.375 95.977 0.0026136 228.48 229.89 1.1058 512.76 0.0019502 227.66 228.95 1.1025 1.6132 2.5852 810.32 -0.0016708 111.95 0.10025 14.319 0.069840 540.90 587.12 2.3614 1.4921 1.8498 219.48 0.28971 7.7452 0.017103
12.375 98.694 0.0026058 231.03 232.48 1.1148 511.32 0.0019557 230.22 231.55 1.1115 1.6170 2.5940 803.68 -0.0015685 110.80 0.099756 14.719 0.067941 541.93 588.17 2.3605 1.4980 1.8605 219.26 0.28790 7.7756 0.017230
13.375 101.47 0.0025941 233.59 235.07 1.1237 509.87 0.0019613 232.78 234.15 1.1205 1.6208 2.6030 797.04 -0.0014639 109.67 0.099267 15.128 0.066103 542.96 589.21 2.3597 1.5040 1.8715 219.03 0.28612 7.8061 0.017359
14.375 104.30 0.0025783 236.15 237.68 1.1326 508.42 0.0019669 235.35 236.77 1.1295 1.6247 2.6121 790.39 -0.0013569 108.54 0.098779 15.547 0.064323 543.99 590.24 2.3588 1.5099 1.8826 218.79 0.28439 7.8369 0.017488
15.375 107.19 0.0025581 238.72 240.29 1.1416 506.95 0.0019726 237.93 239.39 1.1384 1.6286 2.6214 783.73 -0.0012476 107.43 0.098294 15.974 0.062600 545.01 591.27 2.3580 1.5159 1.8940 218.53 0.28270 7.8680 0.017619
16.375 110.13 0.0025332 241.29 242.91 1.1505 505.48 0.0019783 240.52 242.02 1.1474 1.6324 2.6308 777.07 -0.0011357 106.32 0.097810 16.412 0.060931 546.03 592.29 2.3572 1.5220 1.9055 218.27 0.28104 7.8993 0.017752
17.375 113.14 0.0025033 243.87 245.53 1.1594 504.00 0.0019841 243.11 244.66 1.1564 1.6364 2.6403 770.40 -0.0010213 105.22 0.097328 16.859 0.059314 547.04 593.31 2.3564 1.5281 1.9172 217.99 0.27942 7.9308 0.017886
18.375 116.21 0.0024682 246.46 248.17 1.1683 502.50 0.0019900 245.72 247.31 1.1653 1.6403 2.6501 763.72 -0.00090422 104.14 0.096848 17.317 0.057747 548.05 594.32 2.3557 1.5342 1.9292 217.71 0.27783 7.9626 0.018021
19.375 119.33 0.0024276 249.06 250.81 1.1772 501.00 0.0019960 248.33 249.97 1.1743 1.6443 2.6599 757.04 -0.00078435 103.06 0.096371 17.785 0.056228 549.06 595.33 2.3549 1.5404 1.9414 217.41 0.27628 7.9947 0.018159
20.375 122.52 0.0023811 251.66 253.46 1.1860 499.49 0.0020020 250.95 252.64 1.1832 1.6483 2.6700 750.35 -0.00066161 101.99 0.095895 18.263 0.054756 550.07 596.32 2.3541 1.5466 1.9538 217.10 0.27477 8.0272 0.018297
21.375 125.77 0.0023284 254.27 256.11 1.1949 497.97 0.0020082 253.57 255.32 1.1922 1.6523 2.6802 743.64 -0.00053589 100.93 0.095420 18.752 0.053328 551.07 597.31 2.3534 1.5528 1.9665 216.78 0.27329 8.0599 0.018438
22.375 129.08 0.0022692 256.88 258.78 1.2038 496.43 0.0020144 256.21 258.00 1.2012 1.6563 2.6906 736.94 -0.00040708 99.877 0.094948 19.252 0.051943 552.07 598.30 2.3526 1.5591 1.9795 216.45 0.27184 8.0929 0.018580
23.375 132.46 0.0022030 259.50 261.45 1.2126 494.89 0.0020206 258.86 260.70 1.2101 1.6604 2.7012 730.22 -0.00027505 98.834 0.094478 19.763 0.050600 553.06 599.27 2.3519 1.5655 1.9927 216.11 0.27043 8.1263 0.018724
24.375 135.90 0.0021294 262.13 264.13 1.2215 493.34 0.0020270 261.51 263.41 1.2191 1.6645 2.7120 723.49 -0.00013968 97.800 0.094009 20.285 0.049297 554.05 600.24 2.3512 1.5718 2.0061 215.75 0.26906 8.1600 0.018870
25.375 139.41 0.0020481 264.77 266.81 1.2303 491.77 0.0020335 264.17 266.13 1.2280 1.6686 2.7230 716.76 -8.3775e-07 96.773 0.093543 20.820 0.048032 555.03 601.20 2.3504 1.5783 2.0199 215.39 0.26771 8.1941 0.019017
26.375 142.98 0.0019586 267.41 269.51 1.2391 490.20 0.0020400 266.84 268.85 1.2370 1.6728 2.7342 710.01 0.00014161 95.755 0.093078 21.366 0.046804 556.01 602.15 2.3497 1.5847 2.0340 215.01 0.26640 8.2286 0.019167
27.375 146.62 0.0018604 270.06 272.21 1.2480 488.61 0.0020466 269.52 271.59 1.2459 1.6770 2.7456 703.26 0.00028782 94.745 0.092615 21.924 0.045612 556.99 603.10 2.3490 1.5913 2.0484 214.62 0.26512 8.2634 0.019319
28.375 150.33 0.0017531 272.72 274.92 1.2568 487.01 0.0020533 272.21 274.34 1.2549 1.6812 2.7573 696.49 0.00043793 93.742 0.092154 22.495 0.044454 557.96 604.03 2.3483 1.5978 2.0631 214.21 0.26387 8.2987 0.019472
29.375 154.10 0.0016361 275.38 277.64 1.2656 485.40 0.0020601 274.91 277.10 1.2638 1.6854 2.7691 689.72 0.00059212 92.747 0.091695 23.079 0.043329 558.92 604.96 2.3476 1.6044 2.0781 213.80 0.26265 8.3344 0.019628
30.375 157.94 0.0015088 278.05 280.37 1.2744 483.78 0.0020671 277.62 279.87 1.2728 1.6897 2.7813 682.93 0.00075055 91.760 0.091238 23.676 0.042237 559.88 605.88 2.3469 1.6111 2.0935 213.37 0.26147 8.3705 0.019786
31.375 161.86 0.0013707 280.73 283.10 1.2832 482.15 0.0020741 280.34 282.66 1.2818 1.6939 2.7936 676.13 0.00091340 90.779 0.090782 24.287 0.041175 560.84 606.79 2.3462 1.6178 2.1092 212.93 0.26031 8.4071 0.019947
32.375 165.84 0.0012212 283.41 285.84 1.2920 480.50 0.0020812 283.07 285.45 1.2908 1.6983 2.8063 669.32 0.0010809 89.806 0.090328 24.911 0.040143 561.79 607.69 2.3455 1.6246 2.1254 212.48 0.25919 8.4442 0.020110
33.375 169.90 0.0010595 286.10 288.59 1.3008 478.83 0.0020884 285.81 288.26 1.2997 1.7026 2.8192 662.50 0.0012532 88.840 0.089876 25.549 0.039140 562.73 608.58 2.3448 1.6314 2.1419 212.01 0.25809 8.4818 0.020275
34.375 174.02 0.00088506 288.80 291.35 1.3096 477.16 0.0020957 288.56 291.07 1.3087 1.7070 2.8324 655.67 0.0014305 87.880 0.089426 26.202 0.038164 563.67 609.46 2.3440 1.6383 2.1589 211.53 0.25702 8.5199 0.020443
35.375 178.22 0.00069706 291.51 294.12 1.3184 475.47 0.0021032 291.32 293.90 1.3177 1.7114 2.8459 648.82 0.0016131 86.927 0.088977 26.870 0.037216 564.60 610.33 2.3433 1.6452 2.1763 211.04 0.25599 8.5586 0.020613
36.375 182.50 0.00049472 294.22 296.90 1.3272 473.77 0.0021107 294.09 296.74 1.3267 1.7158 2.8597 641.96 0.0018012 85.980 0.088531 27.553 0.036293 565.52 611.19 2.3426 1.6522 2.1942 210.53 0.25498 8.5978 0.020786
37.375 186.84 0.00027721 296.94 299.68 1.3360 472.05 0.0021184 296.87 299.60 1.3357 1.7203 2.8739 635.08 0.0019950 85.040 0.088085 28.252 0.035395 566.44 612.04 2.3419 1.6592 2.2125 210.01 0.25400 8.6376 0.020962
38.375 191.27 4.3638e-05 299.67 302.48 1.3447 470.31 0.0021262 299.66 302.46 1.3447 1.7248 2.8884 628.19 0.0021949 84.105 0.087642 28.967 0.034522 567.35 612.88 2.3411 1.6663 2.2314 209.47 0.25305 8.6780 0.021141
39.375 244.49 undefined 301.58 305.16 1.3509 470.00 0.0021277 301.58 305.16 1.3509 1.7284 2.8844 629.65 0.0021348 83.951 0.087640 470.00 0.0021277 301.58 305.16 1.3509 1.7284 2.8844 629.65 0.0021348 83.951 0.087640
40.375 308.43 undefined 303.31 307.83 1.3564 470.00 0.0021277 303.31 307.83 1.3564 1.7318 2.8766 632.89 0.0020200 83.966 0.087734 470.00 0.0021277 303.31 307.83 1.3564 1.7318 2.8766 632.89 0.0020200 83.966 0.087734
41.375 372.42 undefined 305.04 310.50 1.3619 470.00 0.0021277 305.04 310.50 1.3619 1.7352 2.8692 636.08 0.0019083 83.982 0.087828 470.00 0.0021277 305.04 310.50 1.3619 1.7352 2.8692 636.08 0.0019083 83.982 0.087828
42.375 436.48 undefined 306.78 313.18 1.3674 470.00 0.0021277 306.78 313.18 1.3674 1.7386 2.8621 639.22 0.0017995 83.997 0.087923 470.00 0.0021277 306.78 313.18 1.3674 1.7386 2.8621 639.22 0.0017995 83.997 0.087923
43.375 500.59 undefined 308.52 315.86 1.3729 470.00 0.0021277 308.52 315.86 1.3729 1.7421 2.8554 642.32 0.0016937 84.013 0.088019 470.00 0.0021277 308.52 315.86 1.3729 1.7421 2.8554 642.32 0.0016937 84.013 0.088019
44.375 564.76 undefined 310.26 318.55 1.3784 470.00 0.0021277 310.26 318.55 1.3784 1.7456 2.8489 645.37 0.0015905 84.028 0.088114 470.00 0.0021277 310.26 318.55 1.3784 1.7456 2.8489 645.37 0.0015905 84.028 0.088114
45.375 628.97 undefined 312.01 321.24 1.3839 470.00 0.0021277 312.01 321.24 1.3839 1.7492 2.8427 648.38 0.0014899 84.044 0.088210 470.00 0.0021277 312.01 321.24 1.3839 1.7492 2.8427 648.38 0.0014899 84.044 0.088210
46.375 693.24 undefined 313.76 323.93 1.3894 470.00 0.0021277 313.76 323.93 1.3894 1.7528 2.8368 651.35 0.0013919 84.060 0.088307 470.00 0.0021277 313.76 323.93 1.3894 1.7528 2.8368 651.35 0.0013919 84.060 0.088307
47.375 757.55 undefined 315.52 326.63 1.3949 470.00 0.0021277 315.52 326.63 1.3949 1.7564 2.8312 654.28 0.0012962 84.075 0.088404 470.00 0.0021277 315.52 326.63 1.3949 1.7564 2.8312 654.28 0.0012962 84.075 0.088404
48.375 821.89 undefined 317.27 329.33 1.4004 470.00 0.0021277 317.27 329.33 1.4004 1.7600 2.8258 657.17 0.0012028 84.091 0.088501 470.00 0.0021277 317.27 329.33 1.4004 1.7600 2.8258 657.17 0.0012028 84.091 0.088501
49.375 886.28 undefined 319.04 332.04 1.4058 470.00 0.0021277 319.04 332.04 1.4058 1.7637 2.8207 660.03 0.0011117 84.107 0.088599 470.00 0.0021277 319.04 332.04 1.4058 1.7637 2.8207 660.03 0.0011117 84.107 0.088599
50.375 950.71 undefined 320.80 334.75 1.4113 470.00 0.0021277 320.80 334.75 1.4113 1.7674 2.8158 662.85 0.0010226 84.123 0.088697 470.00 0.0021277 320.80 334.75 1.4113 1.7674 2.8158 662.85 0.0010226 84.123 0.088697
51.375 1015.2 undefined 322.57 337.46 1.4168 470.00 0.0021277 322.57 337.46 1.4168 1.7711 2.8111 665.63 0.00093564 84.139 0.088796 470.00 0.0021277 322.57 337.46 1.4168 1.7711 2.8111 665.63 0.00093564 84.139 0.088796
52.375 1079.7 undefined 324.34 340.18 1.4222 470.00 0.0021277 324.34 340.18 1.4222 1.7748 2.8066 668.38 0.00085063 84.155 0.088894 470.00 0.0021277 324.34 340.18 1.4222 1.7748 2.8066 668.38 0.00085063 84.155 0.088894
53.375 1144.2 undefined 326.12 342.90 1.4277 470.00 0.0021277 326.12 342.90 1.4277 1.7786 2.8024 671.10 0.00076753 84.170 0.088994 470.00 0.0021277 326.12 342.90 1.4277 1.7786 2.8024 671.10 0.00076753 84.170 0.088994
54.375 1208.7 undefined 327.90 345.63 1.4331 470.00 0.0021277 327.90 345.63 1.4331 1.7824 2.7983 673.79 0.00068627 84.186 0.089093 470.00 0.0021277 327.90 345.63 1.4331 1.7824 2.7983 673.79 0.00068627 84.186 0.089093
55.375 1273.3 undefined 329.68 348.36 1.4386 470.00 0.0021277 329.68 348.36 1.4386 1.7862 2.7944 676.45 0.00060678 84.203 0.089193 470.00 0.0021277 329.68 348.36 1.4386 1.7862 2.7944 676.45 0.00060678 84.203 0.089193
56.375 1337.9 undefined 331.47 351.10 1.4440 470.00 0.0021277 331.47 351.10 1.4440 1.7900 2.7907 679.07 0.00052901 84.219 0.089293 470.00 0.0021277 331.47 351.10 1.4440 1.7900 2.7907 679.07 0.00052901 84.219 0.089293
57.375 1402.5 undefined 333.26 353.84 1.4494 470.00 0.0021277 333.26 353.84 1.4494 1.7938 2.7872 681.67 0.00045290 84.235 0.089394 470.00 0.0021277 333.26 353.84 1.4494 1.7938 2.7872 681.67 0.00045290 84.235 0.089394
58.375 1467.1 undefined 335.06 356.58 1.4548 470.00 0.0021277 335.06 356.58 1.4548 1.7977 2.7839 684.25 0.00037839 84.251 0.089495 470.00 0.0021277 335.06 356.58 1.4548 1.7977 2.7839 684.25 0.00037839 84.251 0.089495
59.375 1531.8 undefined 336.86 359.33 1.4603 470.00 0.0021277 336.86 359.33 1.4603 1.8016 2.7807 686.79 0.00030545 84.267 0.089596 470.00 0.0021277 336.86 359.33 1.4603 1.8016 2.7807 686.79 0.00030545 84.267 0.089596
60.375 1596.5 undefined 338.66 362.08 1.4657 470.00 0.0021277 338.66 362.08 1.4657 1.8055 2.7777 689.31 0.00023401 84.283 0.089698 470.00 0.0021277 338.66 362.08 1.4657 1.8055 2.7777 689.31 0.00023401 84.283 0.089698
61.375 1661.2 undefined 340.47 364.84 1.4711 470.00 0.0021277 340.47 364.84 1.4711 1.8094 2.7748 691.81 0.00016404 84.300 0.089800 470.00 0.0021277 340.47 364.84 1.4711 1.8094 2.7748 691.81 0.00016404 84.300 0.089800
62.375 1725.9 undefined 342.28 367.60 1.4765 470.00 0.0021277 342.28 367.60 1.4765 1.8134 2.7721 694.28 9.5492e-05 84.316 0.089903 470.00 0.0021277 342.28 367.60 1.4765 1.8134 2.7721 694.28 9.5492e-05 84.316 0.089903
63.375 1790.6 undefined 344.10 370.36 1.4819 470.00 0.0021277 344.10 370.36 1.4819 1.8173 2.7695 696.73 2.8319e-05 84.332 0.090005 470.00 0.0021277 344.10 370.36 1.4819 1.8173 2.7695 696.73 2.8319e-05 84.332 0.090005
64.375 1855.3 undefined 345.92 373.13 1.4873 470.00 0.0021277 345.92 373.13 1.4873 1.8213 2.7671 699.15 -3.7514e-05 84.349 0.090108 470.00 0.0021277 345.92 373.13 1.4873 1.8213 2.7671 699.15 -3.7514e-05 84.349 0.090108
65.375 1920.0 undefined 347.74 375.91 1.4927 470.00 0.0021277 347.74 375.91 1.4927 1.8253 2.7648 701.55 -0.00010205 84.365 0.090212 470.00 0.0021277 347.74 375.91 1.4927 1.8253 2.7648 701.55 -0.00010205 84.365 0.090212
66.375 1984.8 undefined 349.57 378.68 1.4981 470.00 0.0021277 349.57 378.68 1.4981 1.8293 2.7626 703.94 -0.00016531 84.382 0.090316 470.00 0.0021277 349.57 378.68 1.4981 1.8293 2.7626 703.94 -0.00016531 84.382 0.090316
67.375 2049.5 undefined 351.40 381.46 1.5035 470.00 0.0021277 351.40 381.46 1.5035 1.8333 2.7606 706.30 -0.00022735 84.398 0.090420 470.00 0.0021277 351.40 381.46 1.5035 1.8333 2.7606 706.30 -0.00022735 84.398 0.090420
68.375 2114.2 undefined 353.23 384.25 1.5088 470.00 0.0021277 353.23 384.25 1.5088 1.8374 2.7586 708.64 -0.00028819 84.415 0.090524 470.00 0.0021277 353.23 384.25 1.5088 1.8374 2.7586 708.64 -0.00028819 84.415 0.090524
69.375 2179.0 undefined 355.07 387.04 1.5142 470.00 0.0021277 355.07 387.04 1.5142 1.8414 2.7568 710.96 -0.00034786 84.431 0.090629 470.00 0.0021277 355.07 387.04 1.5142 1.8414 2.7568 710.96 -0.00034786 84.431 0.090629
70.375 2243.7 undefined 356.92 389.83 1.5196 470.00 0.0021277 356.92 389.83 1.5196 1.8455 2.7551 713.26 -0.00040639 84.448 0.090734 470.00 0.0021277 356.92 389.83 1.5196 1.8455 2.7551 713.26 -0.00040639 84.448 0.090734
71.375 2308.5 undefined 358.76 392.63 1.5250 470.00 0.0021277 358.76 392.63 1.5250 1.8496 2.7536 715.55 -0.00046382 84.465 0.090839 470.00 0.0021277 358.76 392.63 1.5250 1.8496 2.7536 715.55 -0.00046382 84.465 0.090839
72.375 2373.3 undefined 360.62 395.43 1.5303 470.00 0.0021277 360.62 395.43 1.5303 1.8536 2.7521 717.81 -0.00052018 84.481 0.090945 470.00 0.0021277 360.62 395.43 1.5303 1.8536 2.7521 717.81 -0.00052018 84.481 0.090945
73.375 2438.0 undefined 362.47 398.24 1.5357 470.00 0.0021277 362.47 398.24 1.5357 1.8577 2.7507 720.06 -0.00057548 84.498 0.091051 470.00 0.0021277 362.47 398.24 1.5357 1.8577 2.7507 720.06 -0.00057548 84.498 0.091051
74.375 2502.8 undefined 364.33 401.05 1.5411 470.00 0.0021277 364.33 401.05 1.5411 1.8618 2.7495 722.29 -0.00062976 84.515 0.091158 470.00 0.0021277 364.33 401.05 1.5411 1.8618 2.7495 722.29 -0.00062976 84.515 0.091158
75.375 2567.5 undefined 366.20 403.86 1.5464 470.00 0.0021277 366.20 403.86 1.5464 1.8659 2.7483 724.51 -0.00068303 84.532 0.091264 470.00 0.0021277 366.20 403.86 1.5464 1.8659 2.7483 724.51 -0.00068303 84.532 0.091264
76.375 2632.3 undefined 368.06 406.68 1.5518 470.00 0.0021277 368.06 406.68 1.5518 1.8701 2.7472 726.71 -0.00073534 84.549 0.091371 470.00 0.0021277 368.06 406.68 1.5518 1.8701 2.7472 726.71 -0.00073534 84.549 0.091371
77.375 2697.0 undefined 369.94 409.50 1.5571 470.00 0.0021277 369.94 409.50 1.5571 1.8742 2.7462 728.89 -0.00078669 84.566 0.091479 470.00 0.0021277 369.94 409.50 1.5571 1.8742 2.7462 728.89 -0.00078669 84.566 0.091479
78.375 2761.8 undefined 371.81 412.33 1.5625 470.00 0.0021277 371.81 412.33 1.5625 1.8783 2.7454 731.06 -0.00083711 84.582 0.091586 470.00 0.0021277 371.81 412.33 1.5625 1.8783 2.7454 731.06 -0.00083711 84.582 0.091586
79.375 2826.5 undefined 373.69 415.16 1.5678 470.00 0.0021277 373.69 415.16 1.5678 1.8825 2.7446 733.21 -0.00088662 84.599 0.091694 470.00 0.0021277 373.69 415.16 1.5678 1.8825 2.7446 733.21 -0.00088662 84.599 0.091694
80.375 2891.2 undefined 375.58 417.99 1.5731 470.00 0.0021277 375.58 417.99 1.5731 1.8866 2.7439 735.35 -0.00093524 84.616 0.091803 470.00 0.0021277 375.58 417.99 1.5731 1.8866 2.7439 735.35 -0.00093524 84.616 0.091803
81.375 2955.9 undefined 377.47 420.83 1.5785 470.00 0.0021277 377.47 420.83 1.5785 1.8908 2.7432 737.47 -0.00098300 84.633 0.091911 470.00 0.0021277 377.47 420.83 1.5785 1.8908 2.7432 737.47 -0.00098300 84.633 0.091911
82.375 3020.7 undefined 379.36 423.67 1.5838 470.00 0.0021277 379.36 423.67 1.5838 1.8950 2.7427 739.58 -0.0010299 84.650 0.092020 470.00 0.0021277 379.36 423.67 1.5838 1.8950 2.7427 739.58 -0.0010299 84.650 0.092020
83.375 3085.4 undefined 381.26 426.52 1.5891 470.00 0.0021277 381.26 426.52 1.5891 1.8991 2.7422 741.68 -0.0010760 84.668 0.092130 470.00 0.0021277 381.26 426.52 1.5891 1.8991 2.7422 741.68 -0.0010760 84.668 0.092130
84.375 3150.1 undefined 383.16 429.37 1.5945 470.00 0.0021277 383.16 429.37 1.5945 1.9033 2.7418 743.76 -0.0011213 84.685 0.092239 470.00 0.0021277 383.16 429.37 1.5945 1.9033 2.7418 743.76 -0.0011213 84.685 0.092239
85.375 3214.7 undefined 385.06 432.22 1.5998 470.00 0.0021277 385.06 432.22 1.5998 1.9075 2.7415 745.83 -0.0011658 84.702 0.092349 470.00 0.0021277 385.06 432.22 1.5998 1.9075 2.7415 745.83 -0.0011658 84.702 0.092349
86.375 3279.4 undefined 386.97 435.08 1.6051 470.00 0.0021277 386.97 435.08 1.6051 1.9117 2.7413 747.89 -0.0012095 84.719 0.092459 470.00 0.0021277 386.97 435.08 1.6051 1.9117 2.7413 747.89 -0.0012095 84.719 0.092459
87.375 3344.1 undefined 388.89 437.94 1.6104 470.00 0.0021277 388.89 437.94 1.6104 1.9159 2.7411 749.93 -0.0012524 84.736 0.092570 470.00 0.0021277 388.89 437.94 1.6104 1.9159 2.7411 749.93 -0.0012524 84.736 0.092570
88.375 3408.7 undefined 390.80 440.81 1.6157 470.00 0.0021277 390.80 440.81 1.6157 1.9201 2.7410 751.97 -0.0012946 84.753 0.092681 470.00 0.0021277 390.80 440.81 1.6157 1.9201 2.7410 751.97 -0.0012946 84.753 0.092681
89.375 3473.4 undefined 392.73 443.68 1.6210 470.00 0.0021277 392.73 443.68 1.6210 1.9243 2.7410 753.99 -0.0013361 84.771 0.092792 470.00 0.0021277 392.73 443.68 1.6210 1.9243 2.7410 753.99 -0.0013361 84.771 0.092792
90.375 3538.0 undefined 394.65 446.55 1.6263 470.00 0.0021277 394.65 446.55 1.6263 1.9285 2.7410 756.00 -0.0013769 84.788 0.092903 470.00 0.0021277 394.65 446.55 1.6263 1.9285 2.7410 756.00 -0.0013769 84.788 0.092903
91.375 3602.6 undefined 396.58 449.43 1.6316 470.00 0.0021277 396.58 449.43 1.6316 1.9327 2.7411 757.99 -0.0014170 84.805 0.093015 470.00 0.0021277 396.58 449.43 1.6316 1.9327 2.7411 757.99 -0.0014170 84.805 0.093015
92.375 3667.2 undefined 398.52 452.31 1.6369 470.00 0.0021277 398.52 452.31 1.6369 1.9369 2.7413 759.98 -0.0014564 84.823 0.093127 470.00 0.0021277 398.52 452.31 1.6369 1.9369 2.7413 759.98 -0.0014564 84.823 0.093127
93.375 3731.8 undefined 400.46 455.20 1.6422 470.00 0.0021277 400.46 455.20 1.6422 1.9411 2.7415 761.95 -0.0014952 84.840 0.093240 470.00 0.0021277 400.46 455.20 1.6422 1.9411 2.7415 761.95 -0.0014952 84.840 0.093240
94.375 3796.4 undefined 402.40 458.09 1.6475 470.00 0.0021277 402.40 458.09 1.6475 1.9453 2.7418 763.92 -0.0015332 84.858 0.093353 470.00 0.0021277 402.40 458.09 1.6475 1.9453 2.7418 763.92 -0.0015332 84.858 0.093353
95.375 3861.0 undefined 404.35 460.99 1.6528 470.00 0.0021277 404.35 460.99 1.6528 1.9496 2.7421 765.87 -0.0015707 84.875 0.093466 470.00 0.0021277 404.35 460.99 1.6528 1.9496 2.7421 765.87 -0.0015707 84.875 0.093466
96.375 3925.5 undefined 406.30 463.89 1.6581 470.00 0.0021277 406.30 463.89 1.6581 1.9538 2.7425 767.82 -0.0016075 84.893 0.093579 470.00 0.0021277 406.30 463.89 1.6581 1.9538 2.7425 767.82 -0.0016075 84.893 0.093579
97.375 3990.1 undefined 408.25 466.79 1.6634 470.00 0.0021277 408.25 466.79 1.6634 1.9580 2.7430 769.75 -0.0016437 84.910 0.093693 470.00 0.0021277 408.25 466.79 1.6634 1.9580 2.7430 769.75 -0.0016437 84.910 0.093693
98.375 4054.6 undefined 410.21 469.69 1.6687 470.00 0.0021277 410.21 469.69 1.6687 1.9622 2.7435 771.67 -0.0016794 84.928 0.093806 470.00 0.0021277 410.21 469.69 1.6687 1.9622 2.7435 771.67 -0.0016794 84.928 0.093806
99.375 4119.1 undefined 412.18 472.60 1.6740 470.00 0.0021277 412.18 472.60 1.6740 1.9664 2.7440 773.58 -0.0017144 84.945 0.093921 470.00 0.0021277 412.18 472.60 1.6740 1.9664 2.7440 773.58 -0.0017144 84.945 0.093921
100.38 4183.6 undefined 414.15 475.52 1.6792 470.00 0.0021277 414.15 475.52 1.6792 1.9707 2.7446 775.49 -0.0017488 84.963 0.094035 470.00 0.0021277 414.15 475.52 1.6792 1.9707 2.7446 775.49 -0.0017488 84.963 0.094035
101.38 4248.0 undefined 416.12 478.44 1.6845 470.00 0.0021277 416.12 478.44 1.6845 1.9749 2.7453 777.38 -0.0017827 84.980 0.094150 470.00 0.0021277 416.12 478.44 1.6845 1.9749 2.7453 777.38 -0.0017827 84.980 0.094150
102.38 4312.5 undefined 418.10 481.36 1.6898 470.00 0.0021277 418.10 481.36 1.6898 1.9791 2.7460 779.27 -0.0018161 84.998 0.094265 470.00 0.0021277 418.10 481.36 1.6898 1.9791 2.7460 779.27 -0.0018161 84.998 0.094265
103.38 4376.9 undefined 420.08 484.29 1.6951 470.00 0.0021277 420.08 484.29 1.6951 1.9834 2.7467 781.14 -0.0018489 85.016 0.094381 470.00 0.0021277 420.08 484.29 1.6951 1.9834 2.7467 781.14 -0.0018489 85.016 0.094381
104.38 4441.3 undefined 422.06 487.22 1.7003 470.00 0.0021277 422.06 487.22 1.7003 1.9876 2.7475 783.01 -0.0018811 85.033 0.094497 470.00 0.0021277 422.06 487.22 1.7003 1.9876 2.7475 783.01 -0.0018811 85.033 0.094497
105.38 4505.7 undefined 424.05 490.15 1.7056 470.00 0.0021277 424.05 490.15 1.7056 1.9918 2.7484 784.86 -0.0019129 85.051 0.094613 470.00 0.0021277 424.05 490.15 1.7056 1.9918 2.7484 784.86 -0.0019129 85.051 0.094613
106.38 4570.1 undefined 426.05 493.09 1.7109 470.00 0.0021277 426.05 493.09 1.7109 1.9961 2.7492 786.71 -0.0019441 85.069 0.094729 470.00 0.0021277 426.05 493.09 1.7109 1.9961 2.7492 786.71 -0.0019441 85.069 0.094729
107.38 4634.5 undefined 428.05 496.03 1.7161 470.00 0.0021277 428.05 496.03 1.7161 2.0003 2.7502 788.55 -0.0019748 85.087 0.094846 470.00 0.0021277 428.05 496.03 1.7161 2.0003 2.7502 788.55 -0.0019748 85.087 0.094846
108.38 4698.8 undefined 430.05 498.98 1.7214 470.00 0.0021277 430.05 498.98 1.7214 2.0045 2.7511 790.38 -0.0020050 85.104 0.094963 470.00 0.0021277 430.05 498.98 1.7214 2.0045 2.7511 790.38 -0.0020050 85.104 0.094963
109.38 4763.2 undefined 432.06 501.93 1.7266 470.00 0.0021277 432.06 501.93 1.7266 2.0087 2.7522 792.20 -0.0020348 85.122 0.095080 470.00 0.0021277 432.06 501.93 1.7266 2.0087 2.7522 792.20 -0.0020348 85.122 0.095080
110.38 4827.5 undefined 434.07 504.88 1.7319 470.00 0.0021277 434.07 504.88 1.7319 2.0130 2.7532 794.02 -0.0020641 85.140 0.095198 470.00 0.0021277 434.07 504.88 1.7319 2.0130 2.7532 794.02 -0.0020641 85.140 0.095198
111.38 4891.8 undefined 436.08 507.84 1.7371 470.00 0.0021277 436.08 507.84 1.7371 2.0172 2.7543 795.82 -0.0020929 85.158 0.095316 470.00 0.0021277 436.08 507.84 1.7371 2.0172 2.7543 795.82 -0.0020929 85.158 0.095316
112.38 4956.0 undefined 438.10 510.80 1.7424 470.00 0.0021277 438.10 510.80 1.7424 2.0214 2.7554 797.62 -0.0021212 85.176 0.095434 470.00 0.0021277 438.10 510.80 1.7424 2.0214 2.7554 797.62 -0.0021212 85.176 0.095434
113.38 5020.3 undefined 440.12 513.77 1.7476 470.00 0.0021277 440.12 513.77 1.7476 2.0257 2.7566 799.41 -0.0021492 85.194 0.095552 470.00 0.0021277 440.12 513.77 1.7476 2.0257 2.7566 799.41 -0.0021492 85.194 0.095552
114.38 5084.5 undefined 442.15 516.74 1.7528 470.00 0.0021277 442.15 516.74 1.7528 2.0299 2.7578 801.19 -0.0021766 85.212 0.095671 470.00 0.0021277 442.15 516.74 1.7528 2.0299 2.7578 801.19 -0.0021766 85.212 0.095671
115.38 5148.7 undefined 444.18 519.71 1.7581 470.00 0.0021277 444.18 519.71 1.7581 2.0341 2.7590 802.97 -0.0022037 85.230 0.095790 470.00 0.0021277 444.18 519.71 1.7581 2.0341 2.7590 802.97 -0.0022037 85.230 0.095790
116.38 5212.9 undefined 446.22 522.69 1.7633 470.00 0.0021277 446.22 522.69 1.7633 2.0383 2.7603 804.73 -0.0022303 85.248 0.095910 470.00 0.0021277 446.22 522.69 1.7633 2.0383 2.7603 804.73 -0.0022303 85.248 0.095910
117.38 5277.1 undefined 448.26 525.67 1.7685 470.00 0.0021277 448.26 525.67 1.7685 2.0425 2.7616 806.49 -0.0022565 85.266 0.096029 470.00 0.0021277 448.26 525.67 1.7685 2.0425 2.7616 806.49 -0.0022565 85.266 0.096029
118.38 5341.2 undefined 450.30 528.66 1.7738 470.00 0.0021277 450.30 528.66 1.7738 2.0468 2.7629 808.25 -0.0022823 85.284 0.096149 470.00 0.0021277 450.30 528.66 1.7738 2.0468 2.7629 808.25 -0.0022823 85.284 0.096149
119.38 5405.3 undefined 452.35 531.65 1.7790 470.00 0.0021277 452.35 531.65 1.7790 2.0510 2.7643 809.99 -0.0023077 85.302 0.096270 470.00 0.0021277 452.35 531.65 1.7790 2.0510 2.7643 809.99 -0.0023077 85.302 0.096270
120.38 5469.4 undefined 454.41 534.64 1.7842 470.00 0.0021277 454.41 534.64 1.7842 2.0552 2.7657 811.73 -0.0023327 85.320 0.096390 470.00 0.0021277 454.41 534.64 1.7842 2.0552 2.7657 811.73 -0.0023327 85.320 0.096390
121.38 5533.5 undefined 456.46 537.64 1.7894 470.00 0.0021277 456.46 537.64 1.7894 2.0594 2.7671 813.46 -0.0023573 85.338 0.096511 470.00 0.0021277 456.46 537.64 1.7894 2.0594 2.7671 813.46 -0.0023573 85.338 0.096511
122.38 5597.6 undefined 458.53 540.64 1.7947 470.00 0.0021277 458.53 540.64 1.7947 2.0636 2.7686 815.18 -0.0023816 85.356 0.096632 470.00 0.0021277 458.53 540.64 1.7947 2.0636 2.7686 815.18 -0.0023816 85.356 0.096632
123.38 5661.6 undefined 460.59 543.65 1.7999 470.00 0.0021277 460.59 543.65 1.7999 2.0678 2.7701 816.90 -0.0024054 85.374 0.096754 470.00 0.0021277 460.59 543.65 1.7999 2.0678 2.7701 816.90 -0.0024054 85.374 0.096754
124.38 5725.6 undefined 462.66 546.65 1.8051 470.00 0.0021277 462.66 546.65 1.8051 2.0721 2.7716 818.60 -0.0024289 85.393 0.096876 470.00 0.0021277 462.66 546.65 1.8051 2.0721 2.7716 818.60 -0.0024289 85.393 0.096876
125.38 5789.6 undefined 464.74 549.67 1.8103 470.00 0.0021277 464.74 549.67 1.8103 2.0763 2.7732 820.31 -0.0024521 85.411 0.096998 470.00 0.0021277 464.74 549.67 1.8103 2.0763 2.7732 820.31 -0.0024521 85.411 0.096998
126.38 5853.6 undefined 466.81 552.68 1.8155 470.00 0.0021277 466.81 552.68 1.8155 2.0805 2.7747 822.00 -0.0024749 85.429 0.097120 470.00 0.0021277 466.81 552.68 1.8155 2.0805 2.7747 822.00 -0.0024749 85.429 0.097120
127.38 5917.6 undefined 468.90 555.71 1.8207 470.00 0.0021277 468.90 555.71 1.8207 2.0847 2.7763 823.69 -0.0024973 85.447 0.097243 470.00 0.0021277 468.90 555.71 1.8207 2.0847 2.7763 823.69 -0.0024973 85.447 0.097243
128.38 5981.5 undefined 470.98 558.73 1.8259 470.00 0.0021277 470.98 558.73 1.8259 2.0889 2.7780 825.37 -0.0025195 85.465 0.097366 470.00 0.0021277 470.98 558.73 1.8259 2.0889 2.7780 825.37 -0.0025195 85.465 0.097366
129.38 6045.4 undefined 473.07 561.76 1.8311 470.00 0.0021277 473.07 561.76 1.8311 2.0931 2.7796 827.05 -0.0025412 85.484 0.097489 470.00 0.0021277 473.07 561.76 1.8311 2.0931 2.7796 827.05 -0.0025412 85.484 0.097489
130.38 6109.3 undefined 475.17 564.79 1.8363 470.00 0.0021277 475.17 564.79 1.8363 2.0973 2.7813 828.72 -0.0025627 85.502 0.097613 470.00 0.0021277 475.17 564.79 1.8363 2.0973 2.7813 828.72 -0.0025627 85.502 0.097613
131.38 6173.1 undefined 477.27 567.83 1.8415 470.00 0.0021277 477.27 567.83 1.8415 2.1015 2.7830 830.38 -0.0025838 85.520 0.097737 470.00 0.0021277 477.27 567.83 1.8415 2.1015 2.7830 830.38 -0.0025838 85.520 0.097737
132.38 6237.0 undefined 479.37 570.87 1.8467 470.00 0.0021277 479.37 570.87 1.8467 2.1057 2.7847 832.04 -0.0026046 85.539 0.097861 470.00 0.0021277 479.37 570.87 1.8467 2.1057 2.7847 832.04 -0.0026046 85.539 0.097861
133.38 6300.8 undefined 481.48 573.91 1.8519 470.00 0.0021277 481.48 573.91 1.8519 2.1098 2.7865 833.69 -0.0026251 85.557 0.097985 470.00 0.0021277 481.48 573.91 1.8519 2.1098 2.7865 833.69 -0.0026251 85.557 0.097985
134.38 6364.6 undefined 483.59 576.96 1.8571 470.00 0.0021277 483.59 576.96 1.8571 2.1140 2.7883 835.33 -0.0026453 85.575 0.098110 470.00 0.0021277 483.59 576.96 1.8571 2.1140 2.7883 835.33 -0.0026453 85.575 0.098110
135.38 6428.3 undefined 485.71 580.01 1.8623 470.00 0.0021277 485.71 580.01 1.8623 2.1182 2.7901 836.97 -0.0026652 85.594 0.098235 470.00 0.0021277 485.71 580.01 1.8623 2.1182 2.7901 836.97 -0.0026652 85.594 0.098235
136.38 6492.1 undefined 487.83 583.07 1.8675 470.00 0.0021277 487.83 583.07 1.8675 2.1224 2.7919 838.60 -0.0026848 85.612 0.098361 470.00 0.0021277 487.83 583.07 1.8675 2.1224 2.7919 838.60 -0.0026848 85.612 0.098361
137.38 6555.8 undefined 489.95 586.12 1.8726 470.00 0.0021277 489.95 586.12 1.8726 2.1266 2.7937 840.23 -0.0027041 85.631 0.098486 470.00 0.0021277 489.95 586.12 1.8726 2.1266 2.7937 840.23 -0.0027041 85.631 0.098486
138.38 6619.5 undefined 492.08 589.19 1.8778 470.00 0.0021277 492.08 589.19 1.8778 2.1307 2.7956 841.85 -0.0027231 85.649 0.098612 470.00 0.0021277 492.08 589.19 1.8778 2.1307 2.7956 841.85 -0.0027231 85.649 0.098612
139.38 6683.1 undefined 494.21 592.25 1.8830 470.00 0.0021277 494.21 592.25 1.8830 2.1349 2.7975 843.46 -0.0027419 85.667 0.098739 470.00 0.0021277 494.21 592.25 1.8830 2.1349 2.7975 843.46 -0.0027419 85.667 0.098739
140.38 6746.8 undefined 496.35 595.32 1.8882 470.00 0.0021277 496.35 595.32 1.8882 2.1391 2.7994 845.07 -0.0027603 85.686 0.098865 470.00 0.0021277 496.35 595.32 1.8882 2.1391 2.7994 845.07 -0.0027603 85.686 0.098865
141.38 6810.4 undefined 498.49 598.40 1.8933 470.00 0.0021277 498.49 598.40 1.8933 2.1432 2.8013 846.67 -0.0027785 85.704 0.098992 470.00 0.0021277 498.49 598.40 1.8933 2.1432 2.8013 846.67 -0.0027785 85.704 0.098992
142.38 6874.0 undefined 500.64 601.48 1.8985 470.00 0.0021277 500.64 601.48 1.8985 2.1474 2.8032 848.27 -0.0027965 85.723 0.099119 470.00 0.0021277 500.64 601.48 1.8985 2.1474 2.8032 848.27 -0.0027965 85.723 0.099119
143.38 6937.6 undefined 502.79 604.56 1.9037 470.00 0.0021277 502.79 604.56 1.9037 2.1516 2.8052 849.86 -0.0028141 85.741 0.099247 470.00 0.0021277 502.79 604.56 1.9037 2.1516 2.8052 849.86 -0.0028141 85.741 0.099247
144.38 7001.1 undefined 504.94 607.65 1.9088 470.00 0.0021277 504.94 607.65 1.9088 2.1557 2.8072 851.45 -0.0028315 85.760 0.099374 470.00 0.0021277 504.94 607.65 1.9088 2.1557 2.8072 851.45 -0.0028315 85.760 0.099374
145.38 7064.6 undefined 507.10 610.73 1.9140 470.00 0.0021277 507.10 610.73 1.9140 2.1599 2.8092 853.03 -0.0028487 85.778 0.099502 470.00 0.0021277 507.10 610.73 1.9140 2.1599 2.8092 853.03 -0.0028487 85.778 0.099502
146.38 7128.1 undefined 509.26 613.83 1.9192 470.00 0.0021277 509.26 613.83 1.9192 2.1640 2.8112 854.60 -0.0028656 85.797 0.099631 470.00 0.0021277 509.26 613.83 1.9192 2.1640 2.8112 854.60 -0.0028656 85.797 0.099631
147.38 7191.6 undefined 511.43 616.93 1.9243 470.00 0.0021277 511.43 616.93 1.9243 2.1682 2.8132 856.17 -0.0028823 85.816 0.099759 470.00 0.0021277 511.43 616.93 1.9243 2.1682 2.8132 856.17 -0.0028823 85.816 0.099759
148.38 7255.0 undefined 513.60 620.03 1.9295 470.00 0.0021277 513.60 620.03 1.9295 2.1723 2.8153 857.74 -0.0028987 85.834 0.099888 470.00 0.0021277 513.60 620.03 1.9295 2.1723 2.8153 857.74 -0.0028987 85.834 0.099888
149.38 7318.5 undefined 515.77 623.13 1.9346 470.00 0.0021277 515.77 623.13 1.9346 2.1764 2.8173 859.30 -0.0029149 85.853 0.10002 470.00 0.0021277 515.77 623.13 1.9346 2.1764 2.8173 859.30 -0.0029149 85.853 0.10002
150.38 7381.9 undefined 517.95 626.24 1.9398 470.00 0.0021277 517.95 626.24 1.9398 2.1806 2.8194 860.85 -0.0029308 85.871 0.10015 470.00 0.0021277 517.95 626.24 1.9398 2.1806 2.8194 860.85 -0.0029308 85.871 0.10015
151.38 7445.2 undefined 520.13 629.35 1.9449 470.00 0.0021277 520.13 629.35 1.9449 2.1847 2.8215 862.40 -0.0029465 85.890 0.10028 470.00 0.0021277 520.13 629.35 1.9449 2.1847 2.8215 862.40 -0.0029465 85.890 0.10028
152.38 7508.6 undefined 522.32 632.47 1.9501 470.00 0.0021277 522.32 632.47 1.9501 2.1888 2.8236 863.95 -0.0029620 85.909 0.10041 470.00 0.0021277 522.32 632.47 1.9501 2.1888 2.8236 863.95 -0.0029620 85.909 0.10041
153.38 7571.9 undefined 524.51 635.59 1.9552 470.00 0.0021277 524.51 635.59 1.9552 2.1930 2.8258 865.48 -0.0029773 85.927 0.10054 470.00 0.0021277 524.51 635.59 1.9552 2.1930 2.8258 865.48 -0.0029773 85.927 0.10054
154.38 7635.2 undefined 526.71 638.71 1.9604 470.00 0.0021277 526.71 638.71 1.9604 2.1971 2.8279 867.02 -0.0029923 85.946 0.10067 470.00 0.0021277 526.71 638.71 1.9604 2.1971 2.8279 867.02 -0.0029923 85.946 0.10067
155.38 7698.5 undefined 528.90 641.84 1.9655 470.00 0.0021277 528.90 641.84 1.9655 2.2012 2.8301 868.55 -0.0030072 85.965 0.10080 470.00 0.0021277 528.90 641.84 1.9655 2.2012 2.8301 868.55 -0.0030072 85.965 0.10080
156.38 7761.7 undefined 531.11 644.97 1.9706 470.00 0.0021277 531.11 644.97 1.9706 2.2053 2.8322 870.07 -0.0030218 85.983 0.10093 470.00 0.0021277 531.11 644.97 1.9706 2.2053 2.8322 870.07 -0.0030218 85.983 0.10093
157.38 7824.9 undefined 533.32 648.10 1.9758 470.00 0.0021277 533.32 648.10 1.9758 2.2094 2.8344 871.59 -0.0030362 86.002 0.10106 470.00 0.0021277 533.32 648.10 1.9758 2.2094 2.8344 871.59 -0.0030362 86.002 0.10106
158.38 7888.1 undefined 535.53 651.24 1.9809 470.00 0.0021277 535.53 651.24 1.9809 2.2135 2.8366 873.10 -0.0030504 86.021 0.10119 470.00 0.0021277 535.53 651.24 1.9809 2.2135 2.8366 873.10 -0.0030504 86.021 0.10119
159.38 7951.3 undefined 537.74 654.38 1.9860 470.00 0.0021277 537.74 654.38 1.9860 2.2176 2.8388 874.61 -0.0030644 86.040 0.10133 470.00 0.0021277 537.74 654.38 1.9860 2.2176 2.8388 874.61 -0.0030644 86.040 0.10133
160.38 8014.4 undefined 539.96 657.53 1.9911 470.00 0.0021277 539.96 657.53 1.9911 2.2217 2.8410 876.12 -0.0030782 86.058 0.10146 470.00 0.0021277 539.96 657.53 1.9911 2.2217 2.8410 876.12 -0.0030782 86.058 0.10146
161.38 8077.5 undefined 542.19 660.68 1.9963 470.00 0.0021277 542.19 660.68 1.9963 2.2258 2.8433 877.62 -0.0030918 86.077 0.10159 470.00 0.0021277 542.19 660.68 1.9963 2.2258 2.8433 877.62 -0.0030918 86.077 0.10159
162.38 8140.6 undefined 544.41 663.83 2.0014 470.00 0.0021277 544.41 663.83 2.0014 2.2299 2.8455 879.11 -0.0031053 86.096 0.10172 470.00 0.0021277 544.41 663.83 2.0014 2.2299 2.8455 879.11 -0.0031053 86.096 0.10172
163.38 8203.7 undefined 546.65 666.99 2.0065 470.00 0.0021277 546.65 666.99 2.0065 2.2340 2.8478 880.60 -0.0031185 86.115 0.10186 470.00 0.0021277 546.65 666.99 2.0065 2.2340 2.8478 880.60 -0.0031185 86.115 0.10186
164.38 8266.7 undefined 548.88 670.15 2.0116 470.00 0.0021277 548.88 670.15 2.0116 2.2381 2.8501 882.09 -0.0031315 86.134 0.10199 470.00 0.0021277 548.88 670.15 2.0116 2.2381 2.8501 882.09 -0.0031315 86.134 0.10199
165.38 8329.7 undefined 551.12 673.32 2.0167 470.00 0.0021277 551.12 673.32 2.0167 2.2421 2.8524 883.57 -0.0031444 86.152 0.10213 470.00 0.0021277 551.12 673.32 2.0167 2.2421 2.8524 883.57 -0.0031444 86.152 0.10213
166.38 8392.7 undefined 553.37 676.48 2.0219 470.00 0.0021277 553.37 676.48 2.0219 2.2462 2.8547 885.05 -0.0031571 86.171 0.10227 470.00 0.0021277 553.37 676.48 2.0219 2.2462 2.8547 885.05 -0.0031571 86.171 0.10227
167.38 8455.6 undefined 555.61 679.66 2.0270 470.00 0.0021277 555.61 679.66 2.0270 2.2503 2.8570 886.52 -0.0031696 86.190 0.10240 470.00 0.0021277 555.61 679.66 2.0270 2.2503 2.8570 886.52 -0.0031696 86.190 0.10240
168.38 8518.6 undefined 557.87 682.83 2.0321 470.00 0.0021277 557.87 682.83 2.0321 2.2544 2.8593 887.99 -0.0031819 86.209 0.10254 470.00 0.0021277 557.87 682.83 2.0321 2.2544 2.8593 887.99 -0.0031819 86.209 0.10254
169.38 8581.5 undefined 560.12 686.01 2.0372 470.00 0.0021277 560.12 686.01 2.0372 2.2584 2.8616 889.45 -0.0031940 86.228 0.10268 470.00 0.0021277 560.12 686.01 2.0372 2.2584 2.8616 889.45 -0.0031940 86.228 0.10268
170.38 8644.3 undefined 562.38 689.19 2.0423 470.00 0.0021277 562.38 689.19 2.0423 2.2625 2.8640 890.91 -0.0032060 86.247 0.10281 470.00 0.0021277 562.38 689.19 2.0423 2.2625 2.8640 890.91 -0.0032060 86.247 0.10281
171.38 8707.2 undefined 564.65 692.38 2.0474 470.00 0.0021277 564.65 692.38 2.0474 2.2665 2.8663 892.36 -0.0032178 86.265 0.10295 470.00 0.0021277 564.65 692.38 2.0474 2.2665 2.8663 892.36 -0.0032178 86.265 0.10295
172.38 8770.0 undefined 566.92 695.57 2.0525 470.00 0.0021277 566.92 695.57 2.0525 2.2706 2.8687 893.81 -0.0032295 86.284 0.10309 470.00 0.0021277 566.92 695.57 2.0525 2.2706 2.8687 893.81 -0.0032295 86.284 0.10309
173.38 8832.8 undefined 569.19 698.76 2.0576 470.00 0.0021277 569.19 698.76 2.0576 2.2746 2.8710 895.26 -0.0032410 86.303 0.10323 470.00 0.0021277 569.19 698.76 2.0576 2.2746 2.8710 895.26 -0.0032410 86.303 0.10323
174.38 8895.6 undefined 571.47 701.96 2.0627 470.00 0.0021277 571.47 701.96 2.0627 2.2787 2.8734 896.70 -0.0032523 86.322 0.10337 470.00 0.0021277 571.47 701.96 2.0627 2.2787 2.8734 896.70 -0.0032523 86.322 0.10337
175.38 8958.3 undefined 573.75 705.16 2.0678 470.00 0.0021277 573.75 705.16 2.0678 2.2827 2.8758 898.14 -0.0032635 86.341 0.10350 470.00 0.0021277 573.75 705.16 2.0678 2.2827 2.8758 898.14 -0.0032635 86.341 0.10350
176.38 9021.0 undefined 576.03 708.37 2.0728 470.00 0.0021277 576.03 708.37 2.0728 2.2867 2.8782 899.57 -0.0032745 86.360 0.10364 470.00 0.0021277 576.03 708.37 2.0728 2.2867 2.8782 899.57 -0.0032745 86.360 0.10364
177.38 9083.7 undefined 578.32 711.57 2.0779 470.00 0.0021277 578.32 711.57 2.0779 2.2908 2.8806 901.00 -0.0032853 86.379 0.10378 470.00 0.0021277 578.32 711.57 2.0779 2.2908 2.8806 901.00 -0.0032853 86.379 0.10378
178.38 9146.3 undefined 580.61 714.79 2.0830 470.00 0.0021277 580.61 714.79 2.0830 2.2948 2.8830 902.43 -0.0032960 86.398 0.10392 470.00 0.0021277 580.61 714.79 2.0830 2.2948 2.8830 902.43 -0.0032960 86.398 0.10392
179.38 9209.0 undefined 582.91 718.00 2.0881 470.00 0.0021277 582.91 718.00 2.0881 2.2988 2.8855 903.85 -0.0033066 86.417 0.10406 470.00 0.0021277 582.91 718.00 2.0881 2.2988 2.8855 903.85 -0.0033066 86.417 0.10406
180.38 9271.6 undefined 585.21 721.22 2.0932 470.00 0.0021277 585.21 721.22 2.0932 2.3028 2.8879 905.27 -0.0033170 86.436 0.10420 470.00 0.0021277 585.21 721.22 2.0932 2.3028 2.8879 905.27 -0.0033170 86.436 0.10420
181.38 9334.2 undefined 587.51 724.44 2.0982 470.00 0.0021277 587.51 724.44 2.0982 2.3068 2.8903 906.68 -0.0033273 86.455 0.10434 470.00 0.0021277 587.51 724.44 2.0982 2.3068 2.8903 906.68 -0.0033273 86.455 0.10434
182.38 9396.7 undefined 589.82 727.67 2.1033 470.00 0.0021277 589.82 727.67 2.1033 2.3108 2.8928 908.09 -0.0033374 86.474 0.10448 470.00 0.0021277 589.82 727.67 2.1033 2.3108 2.8928 908.09 -0.0033374 86.474 0.10448
183.38 9459.2 undefined 592.14 730.90 2.1084 470.00 0.0021277 592.14 730.90 2.1084 2.3148 2.8953 909.50 -0.0033474 86.493 0.10463 470.00 0.0021277 592.14 730.90 2.1084 2.3148 2.8953 909.50 -0.0033474 86.493 0.10463
184.38 9521.7 undefined 594.45 734.13 2.1135 470.00 0.0021277 594.45 734.13 2.1135 2.3188 2.8977 910.90 -0.0033572 86.512 0.10477 470.00 0.0021277 594.45 734.13 2.1135 2.3188 2.8977 910.90 -0.0033572 86.512 0.10477
185.38 9584.2 undefined 596.77 737.37 2.1185 470.00 0.0021277 596.77 737.37 2.1185 2.3228 2.9002 912.30 -0.0033669 86.531 0.10491 470.00 0.0021277 596.77 737.37 2.1185 2.3228 2.9002 912.30 -0.0033669 86.531 0.10491
186.38 9646.6 undefined 599.10 740.61 2.1236 470.00 0.0021277 599.10 740.61 2.1236 2.3268 2.9027 913.69 -0.0033765 86.550 0.10505 470.00 0.0021277 599.10 740.61 2.1236 2.3268 2.9027 913.69 -0.0033765 86.550 0.10505
187.38 9709.0 undefined 601.43 743.86 2.1287 470.00 0.0021277 601.43 743.86 2.1287 2.3308 2.9052 915.08 -0.0033860 86.569 0.10519 470.00 0.0021277 601.43 743.86 2.1287 2.3308 2.9052 915.08 -0.0033860 86.569 0.10519
188.38 9771.4 undefined 603.76 747.10 2.1337 470.00 0.0021277 603.76 747.10 2.1337 2.3348 2.9077 916.47 -0.0033953 86.588 0.10534 470.00 0.0021277 603.76 747.10 2.1337 2.3348 2.9077 916.47 -0.0033953 86.588 0.10534
189.38 9833.8 undefined 606.10 750.36 2.1388 470.00 0.0021277 606.10 750.36 2.1388 2.3388 2.9102 917.85 -0.0034044 86.607 0.10548 470.00 0.0021277 606.10 750.36 2.1388 2.3388 2.9102 917.85 -0.0034044 86.607 0.10548
190.38 9896.1 undefined 608.44 753.61 2.1438 470.00 0.0021277 608.44 753.61 2.1438 2.3427 2.9127 919.23 -0.0034135 86.626 0.10562 470.00 0.0021277 608.44 753.61 2.1438 2.3427 2.9127 919.23 -0.0034135 86.626 0.10562
191.38 9958.4 undefined 610.78 756.87 2.1489 470.00 0.0021277 610.78 756.87 2.1489 2.3467 2.9152 920.60 -0.0034224 86.645 0.10577 470.00 0.0021277 610.78 756.87 2.1489 2.3467 2.9152 920.60 -0.0034224 86.645 0.10577
192.38 10021. undefined 613.13 760.13 2.1539 470.00 0.0021277 613.13 760.13 2.1539 2.3506 2.9177 921.98 -0.0034313 86.664 0.10591 470.00 0.0021277 613.13 760.13 2.1539 2.3506 2.9177 921.98 -0.0034313 86.664 0.10591
193.38 10083. undefined 615.48 763.40 2.1590 470.00 0.0021277 615.48 763.40 2.1590 2.3546 2.9202 923.34 -0.0034399 86.683 0.10605 470.00 0.0021277 615.48 763.40 2.1590 2.3546 2.9202 923.34 -0.0034399 86.683 0.10605
194.38 10145. undefined 617.84 766.67 2.1640 470.00 0.0021277 617.84 766.67 2.1640 2.3586 2.9228 924.71 -0.0034485 86.702 0.10620 470.00 0.0021277 617.84 766.67 2.1640 2.3586 2.9228 924.71 -0.0034485 86.702 0.10620
195.38 10207. undefined 620.20 769.94 2.1691 470.00 0.0021277 620.20 769.94 2.1691 2.3625 2.9253 926.07 -0.0034570 86.721 0.10634 470.00 0.0021277 620.20 769.94 2.1691 2.3625 2.9253 926.07 -0.0034570 86.721 0.10634
196.38 10270. undefined 622.57 773.22 2.1741 470.00 0.0021277 622.57 773.22 2.1741 2.3664 2.9279 927.43 -0.0034653 86.740 0.10649 470.00 0.0021277 622.57 773.22 2.1741 2.3664 2.9279 927.43 -0.0034653 86.740 0.10649
197.38 10332. undefined 624.93 776.50 2.1792 470.00 0.0021277 624.93 776.50 2.1792 2.3704 2.9304 928.78 -0.0034735 86.759 0.10663 470.00 0.0021277 624.93 776.50 2.1792 2.3704 2.9304 928.78 -0.0034735 86.759 0.10663
198.38 10394. undefined 627.31 779.78 2.1842 470.00 0.0021277 627.31 779.78 2.1842 2.3743 2.9330 930.13 -0.0034816 86.778 0.10678 470.00 0.0021277 627.31 779.78 2.1842 2.3743 2.9330 930.13 -0.0034816 86.778 0.10678
199.38 10456. undefined 629.68 783.07 2.1892 470.00 0.0021277 629.68 783.07 2.1892 2.3783 2.9355 931.48 -0.0034896 86.798 0.10693 470.00 0.0021277 629.68 783.07 2.1892 2.3783 2.9355 931.48 -0.0034896 86.798 0.10693
200.38 10518. undefined 632.06 786.36 2.1943 470.00 0.0021277 632.06 786.36 2.1943 2.3822 2.9381 932.82 -0.0034975 86.817 0.10707 470.00 0.0021277 632.06 786.36 2.1943 2.3822 2.9381 932.82 -0.0034975 86.817 0.10707
201.38 10580. undefined 634.45 789.65 2.1993 470.00 0.0021277 634.45 789.65 2.1993 2.3861 2.9407 934.16 -0.0035053 86.836 0.10722 470.00 0.0021277 634.45 789.65 2.1993 2.3861 2.9407 934.16 -0.0035053 86.836 0.10722
202.38 10642. undefined 636.84 792.95 2.2043 470.00 0.0021277 636.84 792.95 2.2043 2.3900 2.9432 935.50 -0.0035130 86.855 0.10736 470.00 0.0021277 636.84 792.95 2.2043 2.3900 2.9432 935.50 -0.0035130 86.855 0.10736
203.38 10704. undefined 639.23 796.25 2.2093 470.00 0.0021277 639.23 796.25 2.2093 2.3939 2.9458 936.83 -0.0035205 86.874 0.10751 470.00 0.0021277 639.23 796.25 2.2093 2.3939 2.9458 936.83 -0.0035205 86.874 0.10751
204.38 10766. undefined 641.62 799.55 2.2144 470.00 0.0021277 641.62 799.55 2.2144 2.3978 2.9484 938.16 -0.0035280 86.893 0.10766 470.00 0.0021277 641.62 799.55 2.2144 2.3978 2.9484 938.16 -0.0035280 86.893 0.10766
205.38 10828. undefined 644.02 802.86 2.2194 470.00 0.0021277 644.02 802.86 2.2194 2.4017 2.9510 939.49 -0.0035353 86.912 0.10781 470.00 0.0021277 644.02 802.86 2.2194 2.4017 2.9510 939.49 -0.0035353 86.912 0.10781
206.38 10890. undefined 646.43 806.17 2.2244 470.00 0.0021277 646.43 806.17 2.2244 2.4056 2.9536 940.81 -0.0035426 86.931 0.10795 470.00 0.0021277 646.43 806.17 2.2244 2.4056 2.9536 940.81 -0.0035426 86.931 0.10795
207.38 10951. undefined 648.83 809.49 2.2294 470.00 0.0021277 648.83 809.49 2.2294 2.4095 2.9562 942.13 -0.0035498 86.951 0.10810 470.00 0.0021277 648.83 809.49 2.2294 2.4095 2.9562 942.13 -0.0035498 86.951 0.10810
208.38 11013. undefined 651.25 812.81 2.2344 470.00 0.0021277 651.25 812.81 2.2344 2.4134 2.9588 943.45 -0.0035568 86.970 0.10825 470.00 0.0021277 651.25 812.81 2.2344 2.4134 2.9588 943.45 -0.0035568 86.970 0.10825
209.38 11075. undefined 653.66 816.13 2.2394 470.00 0.0021277 653.66 816.13 2.2394 2.4173 2.9614 944.76 -0.0035638 86.989 0.10840 470.00 0.0021277 653.66 816.13 2.2394 2.4173 2.9614 944.76 -0.0035638 86.989 0.10840
210.38 11137. undefined 656.08 819.45 2.2444 470.00 0.0021277 656.08 819.45 2.2444 2.4212 2.9640 946.07 -0.0035706 87.008 0.10855 470.00 0.0021277 656.08 819.45 2.2444 2.4212 2.9640 946.07 -0.0035706 87.008 0.10855
211.38 11199. undefined 658.50 822.78 2.2494 470.00 0.0021277 658.50 822.78 2.2494 2.4250 2.9667 947.38 -0.0035774 87.027 0.10870 470.00 0.0021277 658.50 822.78 2.2494 2.4250 2.9667 947.38 -0.0035774 87.027 0.10870
212.38 11260. undefined 660.93 826.12 2.2545 470.00 0.0021277 660.93 826.12 2.2545 2.4289 2.9693 948.68 -0.0035841 87.046 0.10885 470.00 0.0021277 660.93 826.12 2.2545 2.4289 2.9693 948.68 -0.0035841 87.046 0.10885
213.38 11322. undefined 663.36 829.45 2.2595 470.00 0.0021277 663.36 829.45 2.2595 2.4328 2.9719 949.98 -0.0035907 87.065 0.10900 470.00 0.0021277 663.36 829.45 2.2595 2.4328 2.9719 949.98 -0.0035907 87.065 0.10900
214.38 11384. undefined 665.80 832.79 2.2645 470.00 0.0021277 665.80 832.79 2.2645 2.4366 2.9745 951.28 -0.0035972 87.085 0.10915 470.00 0.0021277 665.80 832.79 2.2645 2.4366 2.9745 951.28 -0.0035972 87.085 0.10915
215.38 11445. undefined 668.23 836.13 2.2695 470.00 0.0021277 668.23 836.13 2.2695 2.4405 2.9772 952.57 -0.0036036 87.104 0.10930 470.00 0.0021277 668.23 836.13 2.2695 2.4405 2.9772 952.57 -0.0036036 87.104 0.10930
216.38 11507. undefined 670.68 839.48 2.2744 470.00 0.0021277 670.68 839.48 2.2744 2.4443 2.9798 953.86 -0.0036099 87.123 0.10945 470.00 0.0021277 670.68 839.48 2.2744 2.4443 2.9798 953.86 -0.0036099 87.123 0.10945
217.38 11569. undefined 673.12 842.83 2.2794 470.00 0.0021277 673.12 842.83 2.2794 2.4482 2.9824 955.15 -0.0036161 87.142 0.10960 470.00 0.0021277 673.12 842.83 2.2794 2.4482 2.9824 955.15 -0.0036161 87.142 0.10960
218.38 11630. undefined 675.57 846.18 2.2844 470.00 0.0021277 675.57 846.18 2.2844 2.4520 2.9851 956.44 -0.0036223 87.161 0.10975 470.00 0.0021277 675.57 846.18 2.2844 2.4520 2.9851 956.44 -0.0036223 87.161 0.10975
219.38 11692. undefined 678.03 849.54 2.2894 470.00 0.0021277 678.03 849.54 2.2894 2.4559 2.9877 957.72 -0.0036283 87.180 0.10990 470.00 0.0021277 678.03 849.54 2.2894 2.4559 2.9877 957.72 -0.0036283 87.180 0.10990
220.38 11753. undefined 680.48 852.90 2.2944 470.00 0.0021277 680.48 852.90 2.2944 2.4597 2.9904 959.00 -0.0036343 87.200 0.11006 470.00 0.0021277 680.48 852.90 2.2944 2.4597 2.9904 959.00 -0.0036343 87.200 0.11006
221.38 11815. undefined 682.95 856.26 2.2994 470.00 0.0021277 682.95 856.26 2.2994 2.4635 2.9930 960.28 -0.0036402 87.219 0.11021 470.00 0.0021277 682.95 856.26 2.2994 2.4635 2.9930 960.28 -0.0036402 87.219 0.11021
222.38 11876. undefined 685.41 859.63 2.3044 470.00 0.0021277 685.41 859.63 2.3044 2.4673 2.9957 961.55 -0.0036460 87.238 0.11036 470.00 0.0021277 685.41 859.63 2.3044 2.4673 2.9957 961.55 -0.0036460 87.238 0.11036
223.38 11937. undefined 687.88 863.00 2.3093 470.00 0.0021277 687.88 863.00 2.3093 2.4711 2.9984 962.82 -0.0036518 87.257 0.11051 470.00 0.0021277 687.88 863.00 2.3093 2.4711 2.9984 962.82 -0.0036518 87.257 0.11051
224.38 11999. undefined 690.35 866.37 2.3143 470.00 0.0021277 690.35 866.37 2.3143 2.4750 3.0010 964.09 -0.0036574 87.276 0.11067 470.00 0.0021277 690.35 866.37 2.3143 2.4750 3.0010 964.09 -0.0036574 87.276 0.11067
225.38 12060. undefined 692.83 869.75 2.3193 470.00 0.0021277 692.83 869.75 2.3193 2.4788 3.0037 965.35 -0.0036630 87.295 0.11082 470.00 0.0021277 692.83 869.75 2.3193 2.4788 3.0037 965.35 -0.0036630 87.295 0.11082
226.38 12121. undefined 695.31 873.13 2.3243 470.00 0.0021277 695.31 873.13 2.3243 2.4826 3.0063 966.61 -0.0036685 87.315 0.11098 470.00 0.0021277 695.31 873.13 2.3243 2.4826 3.0063 966.61 -0.0036685 87.315 0.11098
227.38 12183. undefined 697.80 876.51 2.3292 470.00 0.0021277 697.80 876.51 2.3292 2.4864 3.0090 967.87 -0.0036739 87.334 0.11113 470.00 0.0021277 697.80 876.51 2.3292 2.4864 3.0090 967.87 -0.0036739 87.334 0.11113
228.38 12244. undefined 700.28 879.90 2.3342 470.00 0.0021277 700.28 879.90 2.3342 2.4901 3.0117 969.13 -0.0036792 87.353 0.11128 470.00 0.0021277 700.28 879.90 2.3342 2.4901 3.0117 969.13 -0.0036792 87.353 0.11128
229.38 12305. undefined 702.78 883.29 2.3392 470.00 0.0021277 702.78 883.29 2.3392 2.4939 3.0144 970.38 -0.0036845 87.372 0.11144 470.00 0.0021277 702.78 883.29 2.3392 2.4939 3.0144 970.38 -0.0036845 87.372 0.11144
230.38 12367. undefined 705.27 886.69 2.3441 470.00 0.0021277 705.27 886.69 2.3441 2.4977 3.0170 971.63 -0.0036897 87.391 0.11159 470.00 0.0021277 705.27 886.69 2.3441 2.4977 3.0170 971.63 -0.0036897 87.391 0.11159
231.38 12428. undefined 707.77 890.08 2.3491 470.00 0.0021277 707.77 890.08 2.3491 2.5015 3.0197 972.88 -0.0036948 87.411 0.11175 470.00 0.0021277 707.77 890.08 2.3491 2.5015 3.0197 972.88 -0.0036948 87.411 0.11175
232.38 12489. undefined 710.27 893.48 2.3540 470.00 0.0021277 710.27 893.48 2.3540 2.5053 3.0224 974.12 -0.0036999 87.430 0.11190 470.00 0.0021277 710.27 893.48 2.3540 2.5053 3.0224 974.12 -0.0036999 87.430 0.11190
233.38 12550. undefined 712.78 896.89 2.3590 470.00 0.0021277 712.78 896.89 2.3590 2.5090 3.0251 975.36 -0.0037049 87.449 0.11206 470.00 0.0021277 712.78 896.89 2.3590 2.5090 3.0251 975.36 -0.0037049 87.449 0.11206
234.38 12611. undefined 715.29 900.29 2.3639 470.00 0.0021277 715.29 900.29 2.3639 2.5128 3.0278 976.60 -0.0037098 87.468 0.11222 470.00 0.0021277 715.29 900.29 2.3639 2.5128 3.0278 976.60 -0.0037098 87.468 0.11222
235.38 12672. undefined 717.81 903.70 2.3689 470.00 0.0021277 717.81 903.70 2.3689 2.5166 3.0304 977.84 -0.0037146 87.487 0.11237 470.00 0.0021277 717.81 903.70 2.3689 2.5166 3.0304 977.84 -0.0037146 87.487 0.11237
236.38 12733. undefined 720.33 907.12 2.3738 470.00 0.0021277 720.33 907.12 2.3738 2.5203 3.0331 979.07 -0.0037194 87.507 0.11253 470.00 0.0021277 720.33 907.12 2.3738 2.5203 3.0331 979.07 -0.0037194 87.507 0.11253
237.38 12794. undefined 722.85 910.54 2.3788 470.00 0.0021277 722.85 910.54 2.3788 2.5241 3.0358 980.30 -0.0037241 87.526 0.11269 470.00 0.0021277 722.85 910.54 2.3788 2.5241 3.0358 980.30 -0.0037241 87.526 0.11269
238.38 12855. undefined 725.37 913.96 2.3837 470.00 0.0021277 725.37 913.96 2.3837 2.5278 3.0385 981.53 -0.0037288 87.545 0.11284 470.00 0.0021277 725.37 913.96 2.3837 2.5278 3.0385 981.53 -0.0037288 87.545 0.11284
239.38 12916. undefined 727.90 917.38 2.3887 470.00 0.0021277 727.90 917.38 2.3887 2.5315 3.0412 982.76 -0.0037333 87.564 0.11300 470.00 0.0021277 727.90 917.38 2.3887 2.5315 3.0412 982.76 -0.0037333 87.564 0.11300
240.38 12977. undefined 730.44 920.81 2.3936 470.00 0.0021277 730.44 920.81 2.3936 2.5353 3.0439 983.98 -0.0037378 87.583 0.11316 470.00 0.0021277 730.44 920.81 2.3936 2.5353 3.0439 983.98 -0.0037378 87.583 0.11316
241.38 13038. undefined 732.97 924.24 2.3985 470.00 0.0021277 732.97 924.24 2.3985 2.5390 3.0466 985.20 -0.0037423 87.603 0.11332 470.00 0.0021277 732.97 924.24 2.3985 2.5390 3.0466 985.20 -0.0037423 87.603 0.11332
242.38 13099. undefined 735.52 927.67 2.4035 470.00 0.0021277 735.52 927.67 2.4035 2.5427 3.0493 986.42 -0.0037467 87.622 0.11348 470.00 0.0021277 735.52 927.67 2.4035 2.5427 3.0493 986.42 -0.0037467 87.622 0.11348
243.38 13160. undefined 738.06 931.11 2.4084 470.00 0.0021277 738.06 931.11 2.4084 2.5464 3.0520 987.63 -0.0037510 87.641 0.11363 470.00 0.0021277 738.06 931.11 2.4084 2.5464 3.0520 987.63 -0.0037510 87.641 0.11363
244.38 13221. undefined 740.61 934.55 2.4133 470.00 0.0021277 740.61 934.55 2.4133 2.5501 3.0547 988.84 -0.0037553 87.660 0.11379 470.00 0.0021277 740.61 934.55 2.4133 2.5501 3.0547 988.84 -0.0037553 87.660 0.11379
245.38 13281. undefined 743.16 937.99 2.4183 470.00 0.0021277 743.16 937.99 2.4183 2.5539 3.0574 990.05 -0.0037595 87.679 0.11395 470.00 0.0021277 743.16 937.99 2.4183 2.5539 3.0574 990.05 -0.0037595 87.679 0.11395
246.38 13342. undefined 745.72 941.44 2.4232 470.00 0.0021277 745.72 941.44 2.4232 2.5576 3.0601 991.26 -0.0037636 87.698 0.11411 470.00 0.0021277 745.72 941.44 2.4232 2.5576 3.0601 991.26 -0.0037636 87.698 0.11411
247.38 13403. undefined 748.28 944.89 2.4281 470.00 0.0021277 748.28 944.89 2.4281 2.5613 3.0628 992.46 -0.0037677 87.718 0.11427 470.00 0.0021277 748.28 944.89 2.4281 2.5613 3.0628 992.46 -0.0037677 87.718 0.11427
248.38 13464. undefined 750.84 948.35 2.4330 470.00 0.0021277 750.84 948.35 2.4330 2.5650 3.0655 993.67 -0.0037717 87.737 0.11443 470.00 0.0021277 750.84 948.35 2.4330 2.5650 3.0655 993.67 -0.0037717 87.737 0.11443
249.38 13524. undefined 753.41 951.80 2.4379 470.00 0.0021277 753.41 951.80 2.4379 2.5686 3.0682 994.87 -0.0037757 87.756 0.11459 470.00 0.0021277 753.41 951.80 2.4379 2.5686 3.0682 994.87 -0.0037757 87.756 0.11459
250.38 13585. undefined 755.98 955.26 2.4429 470.00 0.0021277 755.98 955.26 2.4429 2.5723 3.0709 996.06 -0.0037796 87.775 0.11475 470.00 0.0021277 755.98 955.26 2.4429 2.5723 3.0709 996.06 -0.0037796 87.775 0.11475
251.38 13646. undefined 758.55 958.73 2.4478 470.00 0.0021277 758.55 958.73 2.4478 2.5760 3.0736 997.26 -0.0037835 87.794 0.11492 470.00 0.0021277 758.55 958.73 2.4478 2.5760 3.0736 997.26 -0.0037835 87.794 0.11492
252.38 13706. undefined 761.13 962.19 2.4527 470.00 0.0021277 761.13 962.19 2.4527 2.5797 3.0763 998.45 -0.0037873 87.814 0.11508 470.00 0.0021277 761.13 962.19 2.4527 2.5797 3.0763 998.45 -0.0037873 87.814 0.11508
253.38 13767. undefined 763.71 965.66 2.4576 470.00 0.0021277 763.71 965.66 2.4576 2.5834 3.0790 999.64 -0.0037910 87.833 0.11524 470.00 0.0021277 763.71 965.66 2.4576 2.5834 3.0790 999.64 -0.0037910 87.833 0.11524
254.38 13827. undefined 766.29 969.14 2.4625 470.00 0.0021277 766.29 969.14 2.4625 2.5870 3.0818 1000.8 -0.0037947 87.852 0.11540 470.00 0.0021277 766.29 969.14 2.4625 2.5870 3.0818 1000.8 -0.0037947 87.852 0.11540
255.38 13888. undefined 768.88 972.61 2.4674 470.00 0.0021277 768.88 972.61 2.4674 2.5907 3.0845 1002.0 -0.0037983 87.871 0.11556 470.00 0.0021277 768.88 972.61 2.4674 2.5907 3.0845 1002.0 -0.0037983 87.871 0.11556
256.38 13948. undefined 771.48 976.09 2.4723 470.00 0.0021277 771.48 976.09 2.4723 2.5943 3.0872 1003.2 -0.0038019 87.890 0.11573 470.00 0.0021277 771.48 976.09 2.4723 2.5943 3.0872 1003.2 -0.0038019 87.890 0.11573
257.38 14009. undefined 774.07 979.58 2.4772 470.00 0.0021277 774.07 979.58 2.4772 2.5980 3.0899 1004.4 -0.0038054 87.909 0.11589 470.00 0.0021277 774.07 979.58 2.4772 2.5980 3.0899 1004.4 -0.0038054 87.909 0.11589
258.38 14069. undefined 776.67 983.06 2.4821 470.00 0.0021277 776.67 983.06 2.4821 2.6016 3.0926 1005.5 -0.0038089 87.929 0.11605 470.00 0.0021277 776.67 983.06 2.4821 2.6016 3.0926 1005.5 -0.0038089 87.929 0.11605
259.38 14130. undefined 779.28 986.55 2.4870 470.00 0.0021277 779.28 986.55 2.4870 2.6053 3.0953 1006.7 -0.0038123 87.948 0.11621 470.00 0.0021277 779.28 986.55 2.4870 2.6053 3.0953 1006.7 -0.0038123 87.948 0.11621
260.38 14190. undefined 781.88 990.05 2.4919 470.00 0.0021277 781.88 990.05 2.4919 2.6089 3.0980 1007.9 -0.0038157 87.967 0.11638 470.00 0.0021277 781.88 990.05 2.4919 2.6089 3.0980 1007.9 -0.0038157 87.967 0.11638
261.38 14250. undefined 784.49 993.54 2.4968 470.00 0.0021277 784.49 993.54 2.4968 2.6125 3.1008 1009.1 -0.0038191 87.986 0.11654 470.00 0.0021277 784.49 993.54 2.4968 2.6125 3.1008 1009.1 -0.0038191 87.986 0.11654
262.38 14311. undefined 787.11 997.04 2.5017 470.00 0.0021277 787.11 997.04 2.5017 2.6162 3.1035 1010.2 -0.0038223 88.005 0.11671 470.00 0.0021277 787.11 997.04 2.5017 2.6162 3.1035 1010.2 -0.0038223 88.005 0.11671
263.38 14371. undefined 789.73 1000.5 2.5065 470.00 0.0021277 789.73 1000.5 2.5065 2.6198 3.1062 1011.4 -0.0038256 88.024 0.11687 470.00 0.0021277 789.73 1000.5 2.5065 2.6198 3.1062 1011.4 -0.0038256 88.024 0.11687
264.38 14431. undefined 792.35 1004.0 2.5114 470.00 0.0021277 792.35 1004.0 2.5114 2.6234 3.1089 1012.6 -0.0038287 88.044 0.11704 470.00 0.0021277 792.35 1004.0 2.5114 2.6234 3.1089 1012.6 -0.0038287 88.044 0.11704
265.38 14492. undefined 794.97 1007.6 2.5163 470.00 0.0021277 794.97 1007.6 2.5163 2.6270 3.1116 1013.7 -0.0038319 88.063 0.11720 470.00 0.0021277 794.97 1007.6 2.5163 2.6270 3.1116 1013.7 -0.0038319 88.063 0.11720
266.38 14552. undefined 797.60 1011.1 2.5212 470.00 0.0021277 797.60 1011.1 2.5212 2.6306 3.1143 1014.9 -0.0038350 88.082 0.11737 470.00 0.0021277 797.60 1011.1 2.5212 2.6306 3.1143 1014.9 -0.0038350 88.082 0.11737
267.38 14612. undefined 800.23 1014.6 2.5260 470.00 0.0021277 800.23 1014.6 2.5260 2.6342 3.1170 1016.0 -0.0038380 88.101 0.11753 470.00 0.0021277 800.23 1014.6 2.5260 2.6342 3.1170 1016.0 -0.0038380 88.101 0.11753
268.38 14672. undefined 802.87 1018.1 2.5309 470.00 0.0021277 802.87 1018.1 2.5309 2.6378 3.1198 1017.2 -0.0038410 88.120 0.11770 470.00 0.0021277 802.87 1018.1 2.5309 2.6378 3.1198 1017.2 -0.0038410 88.120 0.11770
269.38 14732. undefined 805.51 1021.6 2.5358 470.00 0.0021277 805.51 1021.6 2.5358 2.6414 3.1225 1018.3 -0.0038440 88.139 0.11787 470.00 0.0021277 805.51 1021.6 2.5358 2.6414 3.1225 1018.3 -0.0038440 88.139 0.11787
270.38 14792. undefined 808.15 1025.2 2.5407 470.00 0.0021277 808.15 1025.2 2.5407 2.6450 3.1252 1019.5 -0.0038469 88.158 0.11803 470.00 0.0021277 808.15 1025.2 2.5407 2.6450 3.1252 1019.5 -0.0038469 88.158 0.11803
271.38 14852. undefined 810.80 1028.7 2.5455 470.00 0.0021277 810.80 1028.7 2.5455 2.6486 3.1279 1020.6 -0.0038497 88.178 0.11820 470.00 0.0021277 810.80 1028.7 2.5455 2.6486 3.1279 1020.6 -0.0038497 88.178 0.11820
272.38 14913. undefined 813.45 1032.2 2.5504 470.00 0.0021277 813.45 1032.2 2.5504 2.6521 3.1306 1021.8 -0.0038525 88.197 0.11837 470.00 0.0021277 813.45 1032.2 2.5504 2.6521 3.1306 1021.8 -0.0038525 88.197 0.11837
273.38 14973. undefined 816.10 1035.7 2.5552 470.00 0.0021277 816.10 1035.7 2.5552 2.6557 3.1333 1022.9 -0.0038553 88.216 0.11853 470.00 0.0021277 816.10 1035.7 2.5552 2.6557 3.1333 1022.9 -0.0038553 88.216 0.11853
274.38 15033. undefined 818.76 1039.3 2.5601 470.00 0.0021277 818.76 1039.3 2.5601 2.6593 3.1361 1024.1 -0.0038581 88.235 0.11870 470.00 0.0021277 818.76 1039.3 2.5601 2.6593 3.1361 1024.1 -0.0038581 88.235 0.11870
275.38 15093. undefined 821.42 1042.8 2.5650 470.00 0.0021277 821.42 1042.8 2.5650 2.6629 3.1388 1025.2 -0.0038608 88.254 0.11887 470.00 0.0021277 821.42 1042.8 2.5650 2.6629 3.1388 1025.2 -0.0038608 88.254 0.11887
276.38 15152. undefined 824.09 1046.4 2.5698 470.00 0.0021277 824.09 1046.4 2.5698 2.6664 3.1415 1026.3 -0.0038634 88.273 0.11904 470.00 0.0021277 824.09 1046.4 2.5698 2.6664 3.1415 1026.3 -0.0038634 88.273 0.11904
277.38 15212. undefined 826.75 1049.9 2.5747 470.00 0.0021277 826.75 1049.9 2.5747 2.6700 3.1442 1027.5 -0.0038660 88.292 0.11921 470.00 0.0021277 826.75 1049.9 2.5747 2.6700 3.1442 1027.5 -0.0038660 88.292 0.11921
278.38 15272. undefined 829.43 1053.5 2.5795 470.00 0.0021277 829.43 1053.5 2.5795 2.6735 3.1469 1028.6 -0.0038686 88.311 0.11938 470.00 0.0021277 829.43 1053.5 2.5795 2.6735 3.1469 1028.6 -0.0038686 88.311 0.11938
279.38 15332. undefined 832.10 1057.0 2.5844 470.00 0.0021277 832.10 1057.0 2.5844 2.6771 3.1496 1029.7 -0.0038711 88.331 0.11955 470.00 0.0021277 832.10 1057.0 2.5844 2.6771 3.1496 1029.7 -0.0038711 88.331 0.11955
280.38 15392. undefined 834.78 1060.6 2.5892 470.00 0.0021277 834.78 1060.6 2.5892 2.6806 3.1524 1030.9 -0.0038736 88.350 0.11971 470.00 0.0021277 834.78 1060.6 2.5892 2.6806 3.1524 1030.9 -0.0038736 88.350 0.11971
281.38 15452. undefined 837.46 1064.1 2.5940 470.00 0.0021277 837.46 1064.1 2.5940 2.6841 3.1551 1032.0 -0.0038760 88.369 0.11988 470.00 0.0021277 837.46 1064.1 2.5940 2.6841 3.1551 1032.0 -0.0038760 88.369 0.11988
282.38 15512. undefined 840.15 1067.7 2.5989 470.00 0.0021277 840.15 1067.7 2.5989 2.6877 3.1578 1033.1 -0.0038785 88.388 0.11970 470.00 0.0021277 840.15 1067.7 2.5989 2.6877 3.1578 1033.1 -0.0038785 88.388 0.11970
283.38 15571. undefined 842.84 1071.3 2.6037 470.00 0.0021277 842.84 1071.3 2.6037 2.6912 3.1605 1034.2 -0.0038808 88.407 0.11987 470.00 0.0021277 842.84 1071.3 2.6037 2.6912 3.1605 1034.2 -0.0038808 88.407 0.11987
284.38 15631. undefined 845.53 1074.8 2.6086 470.00 0.0021277 845.53 1074.8 2.6086 2.6947 3.1632 1035.4 -0.0038832 88.426 0.12004 470.00 0.0021277 845.53 1074.8 2.6086 2.6947 3.1632 1035.4 -0.0038832 88.426 0.12004
285.38 15691. undefined 848.23 1078.4 2.6134 470.00 0.0021277 848.23 1078.4 2.6134 2.6982 3.1659 1036.5 -0.0038855 88.445 0.12021 470.00 0.0021277 848.23 1078.4 2.6134 2.6982 3.1659 1036.5 -0.0038855 88.445 0.12021
286.38 15750. undefined 850.93 1082.0 2.6182 470.00 0.0021277 850.93 1082.0 2.6182 2.7017 3.1686 1037.6 -0.0038877 88.464 0.12038 470.00 0.0021277 850.93 1082.0 2.6182 2.7017 3.1686 1037.6 -0.0038877 88.464 0.12038
287.38 15810. undefined 853.63 1085.6 2.6230 470.00 0.0021277 853.63 1085.6 2.6230 2.7052 3.1713 1038.7 -0.0038900 88.483 0.12055 470.00 0.0021277 853.63 1085.6 2.6230 2.7052 3.1713 1038.7 -0.0038900 88.483 0.12055
288.38 15870. undefined 856.34 1089.1 2.6279 470.00 0.0021277 856.34 1089.1 2.6279 2.7087 3.1741 1039.8 -0.0038921 88.502 0.12072 470.00 0.0021277 856.34 1089.1 2.6279 2.7087 3.1741 1039.8 -0.0038921 88.502 0.12072
289.38 15929. undefined 859.05 1092.7 2.6327 470.00 0.0021277 859.05 1092.7 2.6327 2.7122 3.1768 1040.9 -0.0038943 88.521 0.12089 470.00 0.0021277 859.05 1092.7 2.6327 2.7122 3.1768 1040.9 -0.0038943 88.521 0.12089
290.38 15989. undefined 861.76 1096.3 2.6375 470.00 0.0021277 861.76 1096.3 2.6375 2.7157 3.1795 1042.0 -0.0038964 88.540 0.12106 470.00 0.0021277 861.76 1096.3 2.6375 2.7157 3.1795 1042.0 -0.0038964 88.540 0.12106
291.38 16048. undefined 864.48 1099.9 2.6423 470.00 0.0021277 864.48 1099.9 2.6423 2.7192 3.1822 1043.1 -0.0038985 88.559 0.12124 470.00 0.0021277 864.48 1099.9 2.6423 2.7192 3.1822 1043.1 -0.0038985 88.559 0.12124
292.38 16108. undefined 867.20 1103.5 2.6471 470.00 0.0021277 867.20 1103.5 2.6471 2.7227 3.1849 1044.2 -0.0039005 88.578 0.12141 470.00 0.0021277 867.20 1103.5 2.6471 2.7227 3.1849 1044.2 -0.0039005 88.578 0.12141
293.38 16167. undefined 869.93 1107.1 2.6520 470.00 0.0021277 869.93 1107.1 2.6520 2.7262 3.1876 1045.3 -0.0039026 88.597 0.12158 470.00 0.0021277 869.93 1107.1 2.6520 2.7262 3.1876 1045.3 -0.0039026 88.597 0.12158
294.38 16227. undefined 872.65 1110.7 2.6568 470.00 0.0021277 872.65 1110.7 2.6568 2.7296 3.1903 1046.4 -0.0039045 88.616 0.12175 470.00 0.0021277 872.65 1110.7 2.6568 2.7296 3.1903 1046.4 -0.0039045 88.616 0.12175
295.38 16286. undefined 875.38 1114.3 2.6616 470.00 0.0021277 875.38 1114.3 2.6616 2.7331 3.1930 1047.5 -0.0039065 88.635 0.12193 470.00 0.0021277 875.38 1114.3 2.6616 2.7331 3.1930 1047.5 -0.0039065 88.635 0.12193
296.38 16346. undefined 878.12 1117.9 2.6664 470.00 0.0021277 878.12 1117.9 2.6664 2.7366 3.1957 1048.6 -0.0039084 88.654 0.12210 470.00 0.0021277 878.12 1117.9 2.6664 2.7366 3.1957 1048.6 -0.0039084 88.654 0.12210
297.38 16405. undefined 880.86 1121.5 2.6712 470.00 0.0021277 880.86 1121.5 2.6712 2.7400 3.1984 1049.7 -0.0039103 88.673 0.12227 470.00 0.0021277 880.86 1121.5 2.6712 2.7400 3.1984 1049.7 -0.0039103 88.673 0.12227
298.38 16464. undefined 883.60 1125.1 2.6760 470.00 0.0021277 883.60 1125.1 2.6760 2.7435 3.2011 1050.8 -0.0039121 88.692 0.12245 470.00 0.0021277 883.60 1125.1 2.6760 2.7435 3.2011 1050.8 -0.0039121 88.692 0.12245
299.38 16524. undefined 886.34 1128.7 2.6808 470.00 0.0021277 886.34 1128.7 2.6808 2.7469 3.2038 1051.9 -0.0039140 88.711 0.12262 470.00 0.0021277 886.34 1128.7 2.6808 2.7469 3.2038 1051.9 -0.0039140 88.711 0.12262
300.38 16583. undefined 889.09 1132.4 2.6856 470.00 0.0021277 889.09 1132.4 2.6856 2.7504 3.2065 1053.0 -0.0039158 88.730 0.12280 470.00 0.0021277 889.09 1132.4 2.6856 2.7504 3.2065 1053.0 -0.0039158 88.730 0.12280