Temperature (C) Pressure (psia) Quality (l+v) Internal Energy (l+v, kJ/kg) Enthalpy (l+v, kJ/kg) Entropy (l+v, J/g*K) Density (l, kg/m3) Volume (l, m3/kg) Internal Energy (l, kJ/kg) Enthalpy (l, kJ/kg) Entropy (l, J/g*K) Cv (l, J/g*K) Cp (l, J/g*K) Sound Spd. (l, m/s) Joule-Thomson (l, F/psia) Viscosity (l, uPa*s) Therm. Cond. (l, W/m*K) Density (v, kg/m3) Volume (v, m3/kg) Internal Energy (v, kJ/kg) Enthalpy (v, kJ/kg) Entropy (v, J/g*K) Cv (v, J/g*K) Cp (v, J/g*K) Sound Spd. (v, m/s) Joule-Thomson (v, F/psia) Viscosity (v, uPa*s) Therm. Cond. (v, W/m*K)
-187.62 2.4953e-08 7.4450e-12 -196.64 -196.64 -1.3959 733.13 0.0013640 -196.64 -196.64 -1.3959 1.3553 1.9158 2136.4 -0.0077592 10960. 0.20792 1.0669e-08 9.3732e+07 350.13 366.26 5.1858 0.69067 0.87923 143.28 6.1051 2.3259 0.0017061
-186.62 3.7339e-08 1.0981e-11 -194.73 -194.73 -1.3736 732.08 0.0013660 -194.73 -194.73 -1.3736 1.3539 1.9166 2129.6 -0.0077546 10073. 0.20765 1.5780e-08 6.3371e+07 350.82 367.14 5.1200 0.69462 0.88317 144.03 5.9178 2.3534 0.0017533
-185.62 5.5322e-08 1.6039e-11 -192.81 -192.81 -1.3516 731.04 0.0013679 -192.81 -192.81 -1.3516 1.3525 1.9174 2122.9 -0.0077498 9276.1 0.20737 2.3112e-08 4.3267e+07 351.52 368.02 5.0561 0.69857 0.88713 144.77 5.7383 2.3808 0.0018007
-184.62 8.1182e-08 2.3205e-11 -190.89 -190.89 -1.3298 730.00 0.0013699 -190.89 -190.89 -1.3298 1.3513 1.9182 2116.1 -0.0077448 8557.8 0.20708 3.3533e-08 2.9821e+07 352.22 368.91 4.9939 0.70253 0.89108 145.51 5.5662 2.4083 0.0018485
-183.62 1.1803e-07 3.3267e-11 -188.97 -188.97 -1.3083 728.96 0.0013718 -188.97 -188.97 -1.3083 1.3501 1.9191 2109.3 -0.0077395 7909.8 0.20678 4.8211e-08 2.0742e+07 352.92 369.81 4.9333 0.70648 0.89504 146.24 5.4011 2.4357 0.0018965
-182.62 1.7009e-07 4.7274e-11 -187.05 -187.05 -1.2869 727.92 0.0013738 -187.05 -187.05 -1.2869 1.3490 1.9201 2102.5 -0.0077340 7324.3 0.20647 6.8704e-08 1.4555e+07 353.63 370.70 4.8744 0.71043 0.89899 146.97 5.2426 2.4632 0.0019448
-181.62 2.4299e-07 6.6608e-11 -185.13 -185.13 -1.2658 726.88 0.0013757 -185.13 -185.13 -1.2658 1.3480 1.9210 2095.7 -0.0077283 6794.5 0.20616 9.7079e-08 1.0301e+07 354.35 371.60 4.8170 0.71438 0.90294 147.69 5.0904 2.4906 0.0019934
-180.62 3.4425e-07 9.3078e-11 -183.21 -183.21 -1.2450 725.85 0.0013777 -183.21 -183.21 -1.2450 1.3470 1.9220 2088.9 -0.0077225 6314.4 0.20584 1.3605e-07 7.3504e+06 355.06 372.51 4.7612 0.71833 0.90688 148.41 4.9442 2.5181 0.0020423
-179.62 4.8378e-07 1.2904e-10 -181.29 -181.29 -1.2243 724.81 0.0013797 -181.29 -181.29 -1.2243 1.3461 1.9231 2082.0 -0.0077164 5878.8 0.20551 1.8915e-07 5.2868e+06 355.78 373.42 4.7068 0.72227 0.91082 149.13 4.8038 2.5456 0.0020915
-178.62 6.7459e-07 1.7751e-10 -179.37 -179.37 -1.2038 723.78 0.0013816 -179.37 -179.37 -1.2038 1.3453 1.9241 2075.2 -0.0077102 5482.9 0.20517 2.6096e-07 3.8320e+06 356.51 374.33 4.6538 0.72620 0.91475 149.84 4.6688 2.5731 0.0021410
-177.62 9.3358e-07 2.4239e-10 -177.44 -177.44 -1.1836 722.75 0.0013836 -177.44 -177.44 -1.1836 1.3445 1.9252 2068.4 -0.0077039 5122.6 0.20483 3.5737e-07 2.7982e+06 357.23 375.25 4.6022 0.73012 0.91867 150.54 4.5390 2.6005 0.0021907
-176.62 1.2826e-06 3.2859e-10 -175.52 -175.52 -1.1635 721.72 0.0013856 -175.52 -175.52 -1.1635 1.3437 1.9263 2061.5 -0.0076973 4794.1 0.20447 4.8588e-07 2.0581e+06 357.97 376.17 4.5519 0.73403 0.92258 151.25 4.4142 2.6280 0.0022408
-175.62 1.7496e-06 4.4235e-10 -173.59 -173.59 -1.1437 720.69 0.0013876 -173.59 -173.59 -1.1437 1.3430 1.9274 2054.7 -0.0076907 4494.3 0.20411 6.5601e-07 1.5244e+06 358.70 377.09 4.5029 0.73792 0.92648 151.95 4.2941 2.6555 0.0022912
-174.62 2.3705e-06 5.9148e-10 -171.66 -171.66 -1.1240 719.66 0.0013895 -171.66 -171.66 -1.1240 1.3423 1.9286 2047.9 -0.0076838 4220.2 0.20375 8.7976e-07 1.1367e+06 359.44 378.02 4.4551 0.74181 0.93036 152.64 4.1784 2.6830 0.0023418
-173.62 3.1903e-06 7.8572e-10 -169.73 -169.73 -1.1045 718.64 0.0013915 -169.73 -169.73 -1.1045 1.3417 1.9298 2041.0 -0.0076769 3969.3 0.20338 1.1721e-06 8.5314e+05 360.19 378.95 4.4085 0.74568 0.93423 153.33 4.0671 2.7105 0.0023928
-172.62 4.2661e-06 1.0371e-09 -167.80 -167.80 -1.0852 717.61 0.0013935 -167.80 -167.80 -1.0852 1.3411 1.9310 2034.2 -0.0076698 3739.3 0.20300 1.5518e-06 6.4441e+05 360.93 379.89 4.3631 0.74953 0.93809 154.02 3.9599 2.7379 0.0024440
-171.62 5.6692e-06 1.3606e-09 -165.87 -165.87 -1.0661 716.58 0.0013955 -165.87 -165.87 -1.0661 1.3405 1.9322 2027.3 -0.0076625 3528.0 0.20261 2.0419e-06 4.8974e+05 361.69 380.83 4.3188 0.75337 0.94193 154.71 3.8566 2.7654 0.0024955
-170.62 7.4884e-06 1.7743e-09 -163.94 -163.94 -1.0472 715.56 0.0013975 -163.94 -163.94 -1.0472 1.3400 1.9334 2020.5 -0.0076552 3333.8 0.20222 2.6708e-06 3.7442e+05 362.44 381.77 4.2755 0.75720 0.94575 155.39 3.7570 2.7929 0.0025473
-169.62 9.8334e-06 2.3005e-09 -162.00 -162.00 -1.0284 714.54 0.0013995 -162.00 -162.00 -1.0284 1.3395 1.9347 2013.6 -0.0076477 3154.9 0.20182 3.4733e-06 2.8791e+05 363.20 382.72 4.2334 0.76100 0.94956 156.07 3.6609 2.8204 0.0025994
-168.62 1.2839e-05 2.9660e-09 -160.07 -160.07 -1.0098 713.52 0.0014015 -160.07 -160.07 -1.0098 1.3390 1.9359 2006.8 -0.0076401 2989.9 0.20141 4.4917e-06 2.2263e+05 363.96 383.67 4.1922 0.76479 0.95335 156.74 3.5683 2.8479 0.0026518
-167.62 1.6672e-05 3.8033e-09 -158.13 -158.13 -0.99134 712.49 0.0014035 -158.13 -158.13 -0.99134 1.3386 1.9372 2000.0 -0.0076323 2837.5 0.20100 5.7771e-06 1.7310e+05 364.73 384.63 4.1521 0.76856 0.95712 157.41 3.4790 2.8754 0.0027045
-166.62 2.1533e-05 4.8511e-09 -156.19 -156.19 -0.97306 711.47 0.0014055 -156.19 -156.19 -0.97306 1.3382 1.9385 1993.1 -0.0076245 2696.5 0.20058 7.3914e-06 1.3529e+05 365.50 385.59 4.1129 0.77232 0.96087 158.08 3.3927 2.9029 0.0027575
-165.62 2.7666e-05 6.1560e-09 -154.25 -154.25 -0.95494 710.45 0.0014075 -154.25 -154.25 -0.95494 1.3378 1.9398 1986.3 -0.0076165 2566.0 0.20016 9.4084e-06 1.0629e+05 366.27 386.55 4.0746 0.77605 0.96460 158.75 3.3095 2.9304 0.0028108
-164.62 3.5367e-05 7.7729e-09 -152.31 -152.31 -0.93698 709.44 0.0014096 -152.31 -152.31 -0.93698 1.3375 1.9411 1979.4 -0.0076084 2444.9 0.19973 1.1916e-05 83918. 367.05 387.52 4.0372 0.77976 0.96832 159.41 3.2291 2.9579 0.0028643
-163.62 4.4989e-05 9.7670e-09 -150.37 -150.37 -0.91917 708.42 0.0014116 -150.37 -150.37 -0.91917 1.3371 1.9424 1972.6 -0.0076002 2332.3 0.19930 1.5020e-05 66577. 367.83 388.49 4.0008 0.78346 0.97201 160.07 3.1514 2.9854 0.0029182
-162.62 5.6956e-05 1.2215e-08 -148.43 -148.43 -0.90151 707.40 0.0014136 -148.43 -148.43 -0.90151 1.3368 1.9437 1965.8 -0.0075919 2227.7 0.19886 1.8844e-05 53068. 368.62 389.46 3.9651 0.78713 0.97569 160.72 3.0764 3.0129 0.0029723
-161.62 7.1773e-05 1.5207e-08 -146.48 -146.48 -0.88400 706.38 0.0014157 -146.48 -146.48 -0.88400 1.3365 1.9451 1959.0 -0.0075834 2130.2 0.19841 2.3533e-05 42494. 369.41 390.44 3.9304 0.79079 0.97935 161.38 3.0038 3.0404 0.0030268
-160.62 9.0036e-05 1.8847e-08 -144.54 -144.54 -0.86663 705.37 0.0014177 -144.54 -144.54 -0.86663 1.3363 1.9465 1952.1 -0.0075748 2039.2 0.19796 2.9258e-05 34178. 370.20 391.42 3.8964 0.79443 0.98298 162.03 2.9337 3.0679 0.0030815
-159.62 0.00011245 2.3258e-08 -142.59 -142.59 -0.84940 704.35 0.0014197 -142.59 -142.59 -0.84940 1.3360 1.9478 1945.3 -0.0075661 1954.2 0.19751 3.6221e-05 27609. 371.00 392.40 3.8632 0.79805 0.98660 162.68 2.8658 3.0955 0.0031365
-158.62 0.00013985 2.8580e-08 -140.64 -140.64 -0.83231 703.34 0.0014218 -140.64 -140.64 -0.83231 1.3358 1.9492 1938.5 -0.0075573 1874.8 0.19705 4.4652e-05 22395. 371.80 393.39 3.8307 0.80164 0.99020 163.32 2.8002 3.1230 0.0031918
-157.62 0.00017320 3.4977e-08 -138.69 -138.69 -0.81536 702.32 0.0014238 -138.69 -138.69 -0.81536 1.3356 1.9506 1931.7 -0.0075484 1800.3 0.19658 5.4822e-05 18241. 372.60 394.38 3.7990 0.80522 0.99378 163.96 2.7367 3.1505 0.0032474
-156.62 0.00021364 4.2635e-08 -136.74 -136.74 -0.79854 701.31 0.0014259 -136.74 -136.74 -0.79854 1.3354 1.9520 1924.9 -0.0075393 1730.5 0.19611 6.7040e-05 14916. 373.41 395.38 3.7680 0.80878 0.99734 164.60 2.6752 3.1780 0.0033033
-155.62 0.00026248 5.1768e-08 -134.79 -134.79 -0.78185 700.30 0.0014280 -134.79 -134.79 -0.78185 1.3352 1.9534 1918.1 -0.0075302 1664.9 0.19564 8.1666e-05 12245. 374.22 396.38 3.7377 0.81232 1.0009 165.24 2.6157 3.2055 0.0033595
-154.62 0.00032125 6.2620e-08 -132.83 -132.83 -0.76530 699.29 0.0014300 -132.83 -132.83 -0.76530 1.3350 1.9548 1911.3 -0.0075209 1603.3 0.19516 9.9109e-05 10090. 375.03 397.38 3.7081 0.81585 1.0044 165.87 2.5580 3.2330 0.0034160
-153.62 0.00039171 7.5468e-08 -130.88 -130.88 -0.74887 698.27 0.0014321 -130.88 -130.88 -0.74887 1.3349 1.9563 1904.5 -0.0075114 1545.3 0.19468 0.00011984 8344.6 375.85 398.39 3.6792 0.81935 1.0079 166.50 2.5022 3.2606 0.0034727
-152.62 0.00047590 9.0627e-08 -128.92 -128.92 -0.73256 697.26 0.0014342 -128.92 -128.92 -0.73256 1.3348 1.9577 1897.8 -0.0075019 1490.6 0.19419 0.00014439 6925.9 376.67 399.40 3.6509 0.82284 1.0114 167.13 2.4481 3.2881 0.0035298
-151.62 0.00057613 1.0845e-07 -126.96 -126.96 -0.71638 696.25 0.0014363 -126.96 -126.96 -0.71638 1.3346 1.9592 1891.0 -0.0074922 1438.9 0.19370 0.00017336 5768.4 377.49 400.41 3.6232 0.82631 1.0149 167.76 2.3957 3.3156 0.0035872
-150.62 0.00069507 1.2934e-07 -125.00 -125.00 -0.70032 695.24 0.0014384 -125.00 -125.00 -0.70032 1.3345 1.9606 1884.2 -0.0074824 1390.2 0.19320 0.00020744 4820.7 378.32 401.42 3.5962 0.82976 1.0183 168.38 2.3448 3.3431 0.0036448
-149.62 0.00083574 1.5374e-07 -123.04 -123.04 -0.68438 694.23 0.0014404 -123.04 -123.04 -0.68438 1.3345 1.9621 1877.4 -0.0074724 1344.0 0.19270 0.00024740 4042.0 379.15 402.44 3.5697 0.83319 1.0218 169.00 2.2956 3.3706 0.0037027
-148.62 0.0010016 1.8215e-07 -121.08 -121.08 -0.66855 693.22 0.0014425 -121.08 -121.08 -0.66855 1.3344 1.9636 1870.7 -0.0074623 1300.3 0.19220 0.00029412 3400.0 379.99 403.47 3.5438 0.83661 1.0252 169.62 2.2478 3.3982 0.0037610
-147.62 0.0011965 2.1513e-07 -119.11 -119.11 -0.65284 692.21 0.0014447 -119.11 -119.11 -0.65284 1.3343 1.9651 1863.9 -0.0074521 1258.9 0.19169 0.00034856 2869.0 380.83 404.49 3.5185 0.84001 1.0286 170.24 2.2014 3.4257 0.0038195
-146.62 0.0014249 2.5330e-07 -117.15 -117.15 -0.63724 691.20 0.0014468 -117.15 -117.15 -0.63724 1.3343 1.9666 1857.2 -0.0074417 1219.6 0.19117 0.00041181 2428.3 381.67 405.52 3.4938 0.84340 1.0320 170.85 2.1565 3.4532 0.0038783
-145.62 0.0016917 2.9735e-07 -115.18 -115.18 -0.62175 690.19 0.0014489 -115.18 -115.18 -0.62175 1.3343 1.9682 1850.4 -0.0074312 1182.3 0.19066 0.00048510 2061.4 382.51 406.56 3.4695 0.84677 1.0353 171.46 2.1128 3.4807 0.0039374
-144.62 0.0020026 3.4804e-07 -113.21 -113.21 -0.60637 689.18 0.0014510 -113.21 -113.21 -0.60637 1.3343 1.9697 1843.7 -0.0074206 1146.8 0.19014 0.00056976 1755.1 383.36 407.59 3.4458 0.85012 1.0387 172.07 2.0705 3.5082 0.0039967
-143.62 0.0023637 4.0620e-07 -111.24 -111.24 -0.59110 688.17 0.0014531 -111.24 -111.24 -0.59110 1.3343 1.9713 1836.9 -0.0074098 1113.0 0.18962 0.00066731 1498.6 384.21 408.63 3.4226 0.85346 1.0420 172.68 2.0294 3.5358 0.0040564
-142.62 0.0027820 4.7277e-07 -109.27 -109.27 -0.57593 687.16 0.0014553 -109.27 -109.27 -0.57593 1.3343 1.9728 1830.2 -0.0073988 1080.8 0.18909 0.00077939 1283.1 385.07 409.68 3.3999 0.85679 1.0454 173.28 1.9896 3.5633 0.0041164
-141.62 0.0032653 5.4874e-07 -107.30 -107.30 -0.56087 686.15 0.0014574 -107.30 -107.30 -0.56087 1.3343 1.9744 1823.5 -0.0073878 1050.1 0.18856 0.00090784 1101.5 385.93 410.72 3.3777 0.86011 1.0487 173.88 1.9508 3.5908 0.0041766
-140.62 0.0038222 6.3523e-07 -105.32 -105.32 -0.54591 685.14 0.0014596 -105.32 -105.32 -0.54591 1.3344 1.9760 1816.7 -0.0073765 1020.7 0.18803 0.0010547 948.16 386.79 411.77 3.3560 0.86341 1.0520 174.48 1.9133 3.6183 0.0042372
-139.62 0.0044623 7.3343e-07 -103.34 -103.34 -0.53104 684.13 0.0014617 -103.34 -103.34 -0.53105 1.3344 1.9776 1810.0 -0.0073651 992.74 0.18749 0.0012221 818.26 387.65 412.83 3.3347 0.86670 1.0553 175.08 1.8768 3.6459 0.0042980
-138.62 0.0051963 8.4468e-07 -101.37 -101.37 -0.51628 683.12 0.0014639 -101.37 -101.37 -0.51629 1.3345 1.9792 1803.3 -0.0073536 965.97 0.18695 0.0014125 707.94 388.52 413.88 3.3139 0.86998 1.0586 175.67 1.8413 3.6734 0.0043592
-137.62 0.0060358 9.7038e-07 -99.386 -99.386 -0.50162 682.11 0.0014660 -99.386 -99.386 -0.50162 1.3346 1.9808 1796.6 -0.0073419 940.35 0.18641 0.0016287 614.00 389.39 414.94 3.2935 0.87325 1.0619 176.26 1.8069 3.7009 0.0044206
-136.62 0.0069938 1.1121e-06 -97.404 -97.404 -0.48705 681.10 0.0014682 -97.404 -97.404 -0.48705 1.3347 1.9825 1789.9 -0.0073301 915.81 0.18586 0.0018733 533.80 390.26 416.00 3.2735 0.87650 1.0651 176.85 1.7734 3.7284 0.0044823
-135.62 0.0080843 1.2715e-06 -95.421 -95.420 -0.47257 680.09 0.0014704 -95.421 -95.421 -0.47258 1.3348 1.9841 1783.2 -0.0073180 892.30 0.18531 0.0021497 465.17 391.14 417.07 3.2540 0.87975 1.0684 177.44 1.7409 3.7559 0.0045443
-134.62 0.0093230 1.4504e-06 -93.435 -93.435 -0.45819 679.08 0.0014726 -93.436 -93.436 -0.45820 1.3350 1.9858 1776.5 -0.0073059 869.75 0.18476 0.0024613 406.30 392.02 418.14 3.2348 0.88299 1.0716 178.02 1.7093 3.7834 0.0046066
-133.62 0.010727 1.6506e-06 -91.449 -91.449 -0.44390 678.07 0.0014748 -91.450 -91.449 -0.44391 1.3351 1.9875 1769.8 -0.0072935 848.11 0.18421 0.0028116 355.67 392.91 419.21 3.2161 0.88622 1.0749 178.61 1.6786 3.8109 0.0046691
-132.62 0.012315 1.8744e-06 -89.460 -89.460 -0.42970 677.06 0.0014770 -89.461 -89.461 -0.42971 1.3353 1.9892 1763.1 -0.0072810 827.32 0.18365 0.0032049 312.03 393.79 420.29 3.1977 0.88944 1.0781 179.19 1.6488 3.8385 0.0047320
-131.62 0.014106 2.1240e-06 -87.470 -87.470 -0.41559 676.04 0.0014792 -87.471 -87.471 -0.41560 1.3354 1.9909 1756.4 -0.0072684 807.34 0.18309 0.0036453 274.33 394.68 421.36 3.1798 0.89266 1.0813 179.76 1.6197 3.8660 0.0047951
-130.62 0.016124 2.4016e-06 -85.478 -85.478 -0.40156 675.03 0.0014814 -85.479 -85.479 -0.40157 1.3356 1.9926 1749.7 -0.0072555 788.12 0.18253 0.0041375 241.69 395.58 422.44 3.1622 0.89586 1.0846 180.34 1.5915 3.8935 0.0048586
-129.62 0.018392 2.7100e-06 -83.485 -83.484 -0.38763 674.02 0.0014836 -83.486 -83.486 -0.38763 1.3358 1.9944 1743.0 -0.0072425 769.63 0.18196 0.0046867 213.37 396.47 423.53 3.1450 0.89906 1.0878 180.91 1.5641 3.9210 0.0049223
-128.62 0.020935 3.0517e-06 -81.489 -81.489 -0.37377 673.01 0.0014859 -81.491 -81.490 -0.37378 1.3360 1.9961 1736.3 -0.0072294 751.83 0.18140 0.0052981 188.75 397.37 424.62 3.1281 0.90226 1.0910 181.48 1.5374 3.9485 0.0049863
-127.62 0.023783 3.4297e-06 -79.492 -79.492 -0.36000 672.00 0.0014881 -79.494 -79.493 -0.36001 1.3363 1.9979 1729.6 -0.0072160 734.67 0.18083 0.0059776 167.29 398.27 425.71 3.1116 0.90545 1.0942 182.05 1.5114 3.9760 0.0050506
-126.62 0.026966 3.8470e-06 -77.493 -77.493 -0.34631 670.98 0.0014904 -77.495 -77.495 -0.34632 1.3365 1.9997 1722.9 -0.0072025 718.14 0.18025 0.0067313 148.56 399.18 426.80 3.0954 0.90863 1.0974 182.62 1.4861 4.0035 0.0051152
-125.62 0.030515 4.3070e-06 -75.492 -75.492 -0.33270 669.97 0.0014926 -75.494 -75.494 -0.33272 1.3368 2.0015 1716.2 -0.0071888 702.18 0.17968 0.0075660 132.17 400.09 427.89 3.0795 0.91181 1.1006 183.18 1.4615 4.0310 0.0051800
-124.62 0.034467 4.8129e-06 -73.490 -73.489 -0.31917 668.95 0.0014949 -73.492 -73.492 -0.31919 1.3371 2.0033 1709.5 -0.0071749 686.79 0.17910 0.0084885 117.81 401.00 428.99 3.0640 0.91499 1.1038 183.74 1.4375 4.0584 0.0052452
-123.62 0.038859 5.3685e-06 -71.485 -71.485 -0.30572 667.94 0.0014971 -71.488 -71.487 -0.30574 1.3374 2.0051 1702.8 -0.0071609 671.93 0.17852 0.0095065 105.19 401.91 430.10 3.0488 0.91816 1.1070 184.30 1.4141 4.0859 0.0053106
-122.62 0.043731 5.9776e-06 -69.479 -69.478 -0.29235 666.92 0.0014994 -69.482 -69.481 -0.29237 1.3377 2.0070 1696.2 -0.0071466 657.57 0.17794 0.010628 94.092 402.83 431.20 3.0339 0.92134 1.1102 184.86 1.3913 4.1134 0.0053764
-121.62 0.049128 6.6441e-06 -67.471 -67.470 -0.27905 665.91 0.0015017 -67.474 -67.473 -0.27907 1.3380 2.0089 1689.5 -0.0071322 643.70 0.17736 0.011861 84.309 403.75 432.31 3.0193 0.92451 1.1134 185.41 1.3691 4.1409 0.0054424
-120.62 0.055096 7.3724e-06 -65.460 -65.460 -0.26583 664.89 0.0015040 -65.464 -65.463 -0.26585 1.3384 2.0107 1682.8 -0.0071176 630.28 0.17678 0.013215 75.669 404.67 433.42 3.0050 0.92767 1.1166 185.96 1.3475 4.1683 0.0055087
-119.62 0.061684 8.1667e-06 -63.448 -63.448 -0.25268 663.87 0.0015063 -63.452 -63.452 -0.25271 1.3387 2.0126 1676.1 -0.0071028 617.30 0.17619 0.014700 68.027 405.60 434.53 2.9909 0.93084 1.1198 186.51 1.3264 4.1958 0.0055752
-118.62 0.068946 9.0318e-06 -61.434 -61.433 -0.23960 662.86 0.0015086 -61.439 -61.438 -0.23963 1.3391 2.0146 1669.4 -0.0070878 604.74 0.17560 0.016325 61.255 406.53 435.64 2.9772 0.93401 1.1231 187.06 1.3058 4.2233 0.0056421
-117.62 0.076937 9.9725e-06 -59.418 -59.417 -0.22660 661.84 0.0015109 -59.423 -59.422 -0.22663 1.3395 2.0165 1662.8 -0.0070726 592.58 0.17501 0.018101 55.245 407.46 436.76 2.9638 0.93718 1.1263 187.60 1.2857 4.2507 0.0057092
-116.62 0.085718 1.0994e-05 -57.401 -57.399 -0.21367 660.82 0.0015133 -57.406 -57.405 -0.21370 1.3400 2.0184 1656.1 -0.0070573 580.80 0.17442 0.020040 49.901 408.39 437.88 2.9506 0.94035 1.1295 188.14 1.2660 4.2782 0.0057767
-115.62 0.095353 1.2101e-05 -55.381 -55.379 -0.20080 659.80 0.0015156 -55.386 -55.385 -0.20084 1.3404 2.0204 1649.4 -0.0070417 569.38 0.17383 0.022152 45.142 409.33 439.01 2.9377 0.94352 1.1327 188.68 1.2468 4.3056 0.0058444
-114.62 0.10591 1.3299e-05 -53.359 -53.357 -0.18801 658.78 0.0015180 -53.365 -53.364 -0.18805 1.3409 2.0224 1642.7 -0.0070260 558.32 0.17323 0.024451 40.898 410.27 440.13 2.9250 0.94669 1.1360 189.22 1.2281 4.3330 0.0059123
-113.62 0.11746 1.4595e-05 -51.335 -51.333 -0.17528 657.76 0.0015203 -51.342 -51.340 -0.17533 1.3413 2.0244 1636.0 -0.0070100 547.59 0.17264 0.026949 37.107 411.21 441.26 2.9126 0.94987 1.1392 189.75 1.2097 4.3604 0.0059806
-112.62 0.13008 1.5993e-05 -49.309 -49.307 -0.16262 656.73 0.0015227 -49.316 -49.315 -0.16267 1.3418 2.0264 1629.3 -0.0069938 537.18 0.17204 0.029661 33.715 412.16 442.39 2.9005 0.95305 1.1424 190.28 1.1918 4.3879 0.0060491
-111.62 0.14384 1.7500e-05 -47.281 -47.279 -0.15003 655.71 0.0015251 -47.289 -47.287 -0.15008 1.3424 2.0285 1622.7 -0.0069774 527.08 0.17144 0.032600 30.675 413.10 443.53 2.8885 0.95623 1.1457 190.81 1.1742 4.4153 0.0061180
-110.62 0.15884 1.9123e-05 -45.250 -45.248 -0.13750 654.69 0.0015274 -45.259 -45.258 -0.13755 1.3429 2.0305 1616.0 -0.0069609 517.28 0.17084 0.035781 27.948 414.06 444.66 2.8769 0.95942 1.1490 191.34 1.1570 4.4427 0.0061871
-109.62 0.17516 2.0867e-05 -43.218 -43.216 -0.12503 653.66 0.0015298 -43.228 -43.226 -0.12509 1.3435 2.0326 1609.3 -0.0069441 507.76 0.17024 0.039220 25.497 415.01 445.80 2.8654 0.96261 1.1522 191.86 1.1402 4.4701 0.0062564
-108.62 0.19290 2.2739e-05 -41.184 -41.181 -0.11263 652.64 0.0015322 -41.194 -41.192 -0.11269 1.3441 2.0347 1602.6 -0.0069271 498.51 0.16964 0.042933 23.292 415.96 446.94 2.8542 0.96581 1.1555 192.38 1.1236 4.4974 0.0063261
-107.62 0.21215 2.4747e-05 -39.147 -39.144 -0.10028 651.61 0.0015347 -39.158 -39.156 -0.10036 1.3447 2.0369 1595.9 -0.0069098 489.52 0.16903 0.046937 21.305 416.92 448.09 2.8433 0.96901 1.1588 192.90 1.1075 4.5248 0.0063960
-106.62 0.23301 2.6897e-05 -37.108 -37.105 -0.088004 650.58 0.0015371 -37.120 -37.118 -0.088082 1.3453 2.0390 1589.2 -0.0068924 480.79 0.16843 0.051250 19.512 417.88 449.23 2.8325 0.97222 1.1621 193.41 1.0916 4.5522 0.0064662
-105.62 0.25561 2.9196e-05 -35.067 -35.064 -0.075784 649.55 0.0015395 -35.080 -35.078 -0.075868 1.3460 2.0412 1582.6 -0.0068747 472.30 0.16782 0.055891 17.892 418.85 450.38 2.8220 0.97544 1.1655 193.93 1.0760 4.5795 0.0065367
-104.62 0.28004 3.1653e-05 -33.024 -33.020 -0.063623 648.52 0.0015420 -33.038 -33.035 -0.063714 1.3467 2.0434 1575.9 -0.0068569 464.04 0.16721 0.060878 16.426 419.81 451.53 2.8116 0.97867 1.1688 194.44 1.0608 4.6069 0.0066074
-103.62 0.30643 3.4274e-05 -30.978 -30.974 -0.051521 647.49 0.0015444 -30.994 -30.991 -0.051619 1.3474 2.0456 1569.2 -0.0068387 456.00 0.16660 0.066231 15.099 420.78 452.68 2.8015 0.98191 1.1722 194.94 1.0458 4.6342 0.0066785
-102.62 0.33490 3.7067e-05 -28.931 -28.926 -0.039477 646.46 0.0015469 -28.947 -28.944 -0.039582 1.3481 2.0478 1562.5 -0.0068204 448.18 0.16600 0.071971 13.894 421.75 453.84 2.7916 0.98516 1.1755 195.44 1.0310 4.6615 0.0067498
-101.62 0.36558 4.0040e-05 -26.880 -26.875 -0.027489 645.43 0.0015494 -26.898 -26.894 -0.027602 1.3489 2.0501 1555.8 -0.0068018 440.57 0.16539 0.078120 12.801 422.73 454.99 2.7818 0.98841 1.1789 195.95 1.0166 4.6888 0.0068213
-100.62 0.39862 4.3202e-05 -24.828 -24.822 -0.015558 644.39 0.0015519 -24.847 -24.843 -0.015678 1.3497 2.0524 1549.1 -0.0067830 433.16 0.16478 0.084699 11.807 423.70 456.15 2.7723 0.99168 1.1823 196.44 1.0024 4.7161 0.0068932
-99.625 0.43414 4.6561e-05 -22.773 -22.767 -0.0036814 643.36 0.0015544 -22.794 -22.789 -0.0038103 1.3505 2.0547 1542.4 -0.0067639 425.95 0.16416 0.091731 10.901 424.68 457.31 2.7630 0.99496 1.1858 196.94 0.98838 4.7434 0.0069653
-98.625 0.47230 5.0124e-05 -20.716 -20.709 0.0081404 642.32 0.0015569 -20.738 -20.733 0.0080027 1.3514 2.0570 1535.7 -0.0067447 418.92 0.16355 0.099240 10.077 425.66 458.48 2.7538 0.99825 1.1892 197.43 0.97464 4.7707 0.0070377
-97.625 0.51325 5.3900e-05 -18.656 -18.649 0.019908 641.28 0.0015594 -18.680 -18.674 0.019762 1.3522 2.0594 1529.0 -0.0067251 412.07 0.16294 0.10725 9.3239 426.65 459.64 2.7448 1.0016 1.1927 197.92 0.96112 4.7979 0.0071103
-96.625 0.55714 5.7898e-05 -16.594 -16.586 0.031624 640.24 0.0015619 -16.620 -16.614 0.031467 1.3531 2.0618 1522.3 -0.0067053 405.39 0.16233 0.11579 8.6365 427.63 460.81 2.7360 1.0049 1.1962 198.40 0.94783 4.8251 0.0071832
-95.625 0.60416 6.2126e-05 -14.529 -14.521 0.043287 639.20 0.0015645 -14.557 -14.550 0.043120 1.3540 2.0642 1515.7 -0.0066853 398.88 0.16171 0.12488 8.0078 428.62 461.98 2.7274 1.0082 1.1997 198.88 0.93475 4.8524 0.0072564
-94.625 0.65446 6.6594e-05 -12.462 -12.453 0.054899 638.16 0.0015670 -12.491 -12.484 0.054721 1.3550 2.0667 1509.0 -0.0066650 392.53 0.16110 0.13455 7.4323 429.61 463.15 2.7189 1.0116 1.2032 199.36 0.92188 4.8796 0.0073299
-93.625 0.70822 7.1310e-05 -10.392 -10.382 0.066460 637.12 0.0015696 -10.424 -10.416 0.066271 1.3560 2.0691 1502.3 -0.0066444 386.34 0.16048 0.14482 6.9050 430.60 464.32 2.7107 1.0149 1.2068 199.83 0.90921 4.9068 0.0074036
-92.625 0.76564 7.6282e-05 -8.3200 -8.3091 0.077971 636.07 0.0015722 -8.3535 -8.3452 0.077771 1.3570 2.0716 1495.6 -0.0066236 380.31 0.15987 0.15573 6.4212 431.60 465.49 2.7025 1.0183 1.2104 200.30 0.89673 4.9340 0.0074776
-91.625 0.82689 8.1521e-05 -6.2451 -6.2333 0.089433 635.02 0.0015747 -6.2808 -6.2719 0.089220 1.3580 2.0742 1488.9 -0.0066025 374.41 0.15925 0.16731 5.9769 432.59 466.67 2.6946 1.0217 1.2140 200.77 0.88445 4.9611 0.0075518
-90.625 0.89218 8.7034e-05 -4.1675 -4.1548 0.10085 633.98 0.0015773 -4.2056 -4.1959 0.10062 1.3591 2.0767 1482.2 -0.0065811 368.66 0.15864 0.17958 5.5685 433.59 467.84 2.6868 1.0251 1.2177 201.24 0.87236 4.9883 0.0076263
-89.625 0.96172 9.2830e-05 -2.0873 -2.0737 0.11221 632.93 0.0015800 -2.1279 -2.1174 0.11197 1.3602 2.0793 1475.5 -0.0065595 363.05 0.15802 0.19258 5.1928 434.59 469.02 2.6791 1.0285 1.2213 201.70 0.86045 5.0154 0.0077011
-88.625 1.0357 9.8920e-05 -0.0044228 0.010301 0.12353 631.88 0.0015826 -0.047516 -0.036215 0.12328 1.3613 2.0819 1468.8 -0.0065375 357.56 0.15740 0.20633 4.8466 435.59 470.20 2.6717 1.0320 1.2250 202.15 0.84873 5.0425 0.0077761
-87.625 1.1144 0.00010531 2.0812 2.0971 0.13480 630.83 0.0015852 2.0355 2.0476 0.13454 1.3625 2.0846 1462.1 -0.0065153 352.21 0.15679 0.22087 4.5276 436.60 471.39 2.6643 1.0354 1.2288 202.61 0.83718 5.0696 0.0078514
-86.625 1.1979 0.00011201 4.1696 4.1867 0.14603 629.77 0.0015879 4.1211 4.1342 0.14575 1.3637 2.0873 1455.4 -0.0064928 346.98 0.15617 0.23623 4.2331 437.61 472.57 2.6571 1.0389 1.2325 203.06 0.82580 5.0967 0.0079270
-85.625 1.2866 0.00011903 6.2608 6.2791 0.15721 628.72 0.0015905 6.2094 6.2235 0.15691 1.3649 2.0900 1448.8 -0.0064701 341.87 0.15555 0.25245 3.9612 438.61 473.75 2.6501 1.0424 1.2363 203.50 0.81460 5.1237 0.0080028
-84.625 1.3806 0.00012638 8.3549 8.3745 0.16835 627.66 0.0015932 8.3004 8.3155 0.16803 1.3661 2.0927 1442.1 -0.0064470 336.87 0.15494 0.26956 3.7097 439.63 474.94 2.6432 1.0460 1.2402 203.95 0.80356 5.1508 0.0080789
-83.625 1.4803 0.00013407 10.452 10.473 0.17944 626.60 0.0015959 10.394 10.410 0.17911 1.3674 2.0955 1435.4 -0.0064236 331.99 0.15432 0.28760 3.4771 440.64 476.13 2.6364 1.0495 1.2440 204.38 0.79269 5.1778 0.0081553
-82.625 1.5858 0.00014210 12.552 12.574 0.19049 625.54 0.0015986 12.491 12.508 0.19014 1.3687 2.0983 1428.7 -0.0063999 327.22 0.15370 0.30659 3.2616 441.65 477.31 2.6298 1.0531 1.2479 204.82 0.78199 5.2048 0.0082319
-81.625 1.6975 0.00015049 14.654 14.678 0.20150 624.48 0.0016013 14.590 14.609 0.20113 1.3700 2.1012 1422.0 -0.0063759 322.55 0.15309 0.32659 3.0619 442.67 478.50 2.6233 1.0567 1.2519 205.25 0.77144 5.2318 0.0083088
-80.625 1.8155 0.00015923 16.760 16.786 0.21246 623.42 0.0016041 16.692 16.712 0.21208 1.3714 2.1041 1415.4 -0.0063516 317.99 0.15247 0.34763 2.8766 443.69 479.70 2.6169 1.0603 1.2558 205.67 0.76106 5.2587 0.0083860
-79.625 1.9402 0.00016835 18.869 18.896 0.22339 622.36 0.0016068 18.797 18.819 0.22299 1.3728 2.1070 1408.7 -0.0063270 313.52 0.15186 0.36974 2.7046 444.71 480.89 2.6106 1.0639 1.2598 206.10 0.75083 5.2857 0.0084634
-78.625 2.0718 0.00017785 20.981 21.010 0.23427 621.29 0.0016096 20.905 20.928 0.23385 1.3742 2.1099 1402.0 -0.0063021 309.15 0.15124 0.39296 2.5448 445.73 482.08 2.6045 1.0676 1.2639 206.51 0.74076 5.3126 0.0085411
-77.625 2.2107 0.00018774 23.095 23.127 0.24512 620.22 0.0016123 23.016 23.040 0.24468 1.3757 2.1129 1395.3 -0.0062768 304.88 0.15062 0.41735 2.3961 446.75 483.27 2.5985 1.0712 1.2680 206.93 0.73084 5.3395 0.0086190
-76.625 2.3571 0.00019801 25.213 25.247 0.25592 619.15 0.0016151 25.130 25.156 0.25546 1.3772 2.1159 1388.7 -0.0062512 300.69 0.15001 0.44292 2.2577 447.78 484.47 2.5926 1.0749 1.2721 207.34 0.72107 5.3664 0.0086972
-75.625 2.5113 0.00020870 27.334 27.370 0.26669 618.08 0.0016179 27.247 27.275 0.26620 1.3787 2.1190 1382.0 -0.0062253 296.59 0.14939 0.46974 2.1288 448.81 485.67 2.5869 1.0787 1.2762 207.74 0.71146 5.3933 0.0087757
-74.625 2.6736 0.00021979 29.459 29.497 0.27742 617.01 0.0016207 29.366 29.396 0.27691 1.3802 2.1221 1375.4 -0.0061990 292.58 0.14878 0.49783 2.0087 449.83 486.86 2.5812 1.0824 1.2804 208.14 0.70200 5.4201 0.0088544
-73.625 2.8444 0.00023129 31.586 31.627 0.28811 615.93 0.0016236 31.489 31.521 0.28758 1.3818 2.1252 1368.7 -0.0061724 288.65 0.14816 0.52725 1.8966 450.86 488.06 2.5757 1.0862 1.2847 208.54 0.69268 5.4469 0.0089334
-72.625 3.0240 0.00024322 33.717 33.760 0.29876 614.85 0.0016264 33.615 33.649 0.29821 1.3834 2.1284 1362.0 -0.0061454 284.81 0.14755 0.55804 1.7920 451.90 489.26 2.5703 1.0900 1.2889 208.93 0.68351 5.4737 0.0090126
-71.625 3.2127 0.00025558 35.851 35.897 0.30937 613.78 0.0016293 35.745 35.781 0.30880 1.3851 2.1316 1355.4 -0.0061181 281.03 0.14694 0.59024 1.6942 452.93 490.46 2.5650 1.0938 1.2932 209.32 0.67448 5.5005 0.0090922
-70.625 3.4108 0.00026838 37.989 38.037 0.31995 612.69 0.0016321 37.877 37.915 0.31935 1.3867 2.1349 1348.7 -0.0060904 277.34 0.14632 0.62390 1.6028 453.96 491.66 2.5598 1.0976 1.2976 209.70 0.66560 5.5273 0.0091720
-69.625 3.6187 0.00028161 40.130 40.181 0.33050 611.61 0.0016350 40.013 40.053 0.32987 1.3884 2.1382 1342.1 -0.0060624 273.72 0.14571 0.65906 1.5173 455.00 492.86 2.5547 1.1015 1.3020 210.08 0.65687 5.5540 0.0092520
-68.625 3.8367 0.00029529 42.274 42.328 0.34101 610.53 0.0016379 42.152 42.195 0.34036 1.3902 2.1415 1335.5 -0.0060339 270.17 0.14510 0.69577 1.4372 456.04 494.06 2.5497 1.1054 1.3064 210.45 0.64827 5.5807 0.0093324
-67.625 4.0652 0.00030942 44.421 44.479 0.35148 609.44 0.0016409 44.294 44.340 0.35080 1.3919 2.1449 1328.8 -0.0060051 266.69 0.14449 0.73408 1.3622 457.08 495.26 2.5448 1.1093 1.3109 210.82 0.63981 5.6074 0.0094130
-66.625 4.3046 0.00032401 46.573 46.634 0.36193 608.35 0.0016438 46.439 46.488 0.36122 1.3937 2.1483 1322.2 -0.0059760 263.28 0.14388 0.77404 1.2919 458.12 496.46 2.5400 1.1133 1.3154 211.18 0.63150 5.6341 0.0094939
-65.625 4.5551 0.00033906 48.727 48.792 0.37233 607.26 0.0016467 48.588 48.640 0.37160 1.3955 2.1518 1315.6 -0.0059464 259.93 0.14327 0.81570 1.2259 459.16 497.67 2.5353 1.1172 1.3200 211.54 0.62332 5.6608 0.0095750
-64.625 4.8173 0.00035457 50.886 50.954 0.38271 606.16 0.0016497 50.740 50.795 0.38195 1.3974 2.1553 1308.9 -0.0059164 256.65 0.14266 0.85910 1.1640 460.21 498.87 2.5307 1.1212 1.3246 211.89 0.61527 5.6874 0.0096564
-63.625 5.0915 0.00037055 53.047 53.120 0.39305 605.07 0.0016527 52.896 52.954 0.39226 1.3993 2.1588 1302.3 -0.0058861 253.42 0.14205 0.90429 1.1058 461.25 500.07 2.5262 1.1252 1.3293 212.24 0.60736 5.7140 0.0097382
-62.625 5.3781 0.00038699 55.213 55.289 0.40336 603.97 0.0016557 55.055 55.117 0.40254 1.4012 2.1624 1295.7 -0.0058553 250.26 0.14144 0.95134 1.0511 462.30 501.28 2.5218 1.1293 1.3340 212.58 0.59958 5.7406 0.0098201
-61.625 5.6774 0.00040391 57.382 57.463 0.41364 602.87 0.0016587 57.218 57.283 0.41279 1.4031 2.1660 1289.1 -0.0058241 247.16 0.14084 1.0003 0.99972 463.35 502.48 2.5175 1.1333 1.3387 212.92 0.59194 5.7672 0.0099024
-60.625 5.9899 0.00042130 59.555 59.640 0.42389 601.77 0.0016618 59.385 59.453 0.42301 1.4051 2.1697 1282.5 -0.0057925 244.12 0.14023 1.0512 0.95131 464.40 503.68 2.5133 1.1374 1.3435 213.26 0.58442 5.7938 0.0099850
-59.625 6.3160 0.00043916 61.732 61.822 0.43411 600.66 0.0016648 61.554 61.627 0.43320 1.4071 2.1734 1275.9 -0.0057605 241.13 0.13962 1.1041 0.90573 465.45 504.89 2.5091 1.1415 1.3483 213.58 0.57704 5.8203 0.010068
-58.625 6.6561 0.00045749 63.912 64.007 0.44430 599.55 0.0016679 63.728 63.805 0.44335 1.4091 2.1772 1269.3 -0.0057280 238.19 0.13902 1.1591 0.86277 466.50 506.09 2.5051 1.1457 1.3532 213.90 0.56978 5.8468 0.010151
-57.625 7.0107 0.00047630 66.097 66.196 0.45445 598.44 0.0016710 65.905 65.986 0.45348 1.4111 2.1810 1262.7 -0.0056951 235.31 0.13842 1.2161 0.82228 467.55 507.30 2.5011 1.1498 1.3581 214.22 0.56265 5.8733 0.010234
-56.625 7.3801 0.00049558 68.285 68.390 0.46458 597.33 0.0016741 68.086 68.172 0.46358 1.4132 2.1848 1256.1 -0.0056617 232.48 0.13781 1.2754 0.78408 468.60 508.50 2.4972 1.1540 1.3631 214.53 0.55564 5.8998 0.010318
-55.625 7.7648 0.00051533 70.477 70.587 0.47468 596.22 0.0016772 70.271 70.361 0.47364 1.4153 2.1887 1249.5 -0.0056279 229.69 0.13721 1.3369 0.74802 469.66 509.71 2.4934 1.1582 1.3681 214.84 0.54875 5.9263 0.010402
-54.625 8.1652 0.00053555 72.673 72.789 0.48476 595.10 0.0016804 72.460 72.554 0.48368 1.4174 2.1927 1242.9 -0.0055937 226.96 0.13661 1.4006 0.71396 470.72 510.91 2.4897 1.1624 1.3731 215.14 0.54199 5.9527 0.010486
-53.625 8.5819 0.00055624 74.873 74.995 0.49480 593.98 0.0016836 74.652 74.752 0.49369 1.4196 2.1967 1236.3 -0.0055589 224.27 0.13601 1.4667 0.68178 471.77 512.11 2.4860 1.1667 1.3782 215.43 0.53535 5.9792 0.010571
-52.625 9.0151 0.00057738 77.077 77.206 0.50482 592.86 0.0016867 76.849 76.954 0.50368 1.4218 2.2007 1229.8 -0.0055237 221.63 0.13541 1.5353 0.65136 472.83 513.32 2.4824 1.1710 1.3834 215.72 0.52882 6.0056 0.010656
-51.625 9.4655 0.00059898 79.286 79.420 0.51481 591.73 0.0016900 79.049 79.159 0.51363 1.4240 2.2048 1223.2 -0.0054880 219.04 0.13482 1.6062 0.62258 473.89 514.52 2.4789 1.1752 1.3886 216.00 0.52241 6.0320 0.010741
-50.625 9.9335 0.00062103 81.498 81.639 0.52477 590.60 0.0016932 81.253 81.369 0.52356 1.4262 2.2089 1216.6 -0.0054519 216.48 0.13422 1.6797 0.59534 474.95 515.73 2.4755 1.1796 1.3938 216.28 0.51612 6.0584 0.010827
-49.625 10.419 0.00064352 83.714 83.862 0.53471 589.47 0.0016964 83.462 83.584 0.53347 1.4285 2.2131 1210.1 -0.0054152 213.98 0.13363 1.7558 0.56954 476.01 516.93 2.4722 1.1839 1.3991 216.55 0.50994 6.0848 0.010913
-48.625 10.924 0.00066645 85.935 86.090 0.54463 588.34 0.0016997 85.674 85.802 0.54334 1.4308 2.2173 1203.5 -0.0053780 211.51 0.13303 1.8345 0.54510 477.07 518.13 2.4689 1.1883 1.4044 216.82 0.50387 6.1112 0.010999
-47.625 11.448 0.00068981 88.160 88.323 0.55451 587.20 0.0017030 87.891 88.025 0.55319 1.4331 2.2216 1196.9 -0.0053403 209.08 0.13244 1.9159 0.52194 478.14 519.33 2.4657 1.1927 1.4098 217.08 0.49792 6.1375 0.011085
-46.625 11.991 0.00071359 90.389 90.559 0.56437 586.06 0.0017063 90.111 90.252 0.56302 1.4354 2.2259 1190.4 -0.0053020 206.69 0.13185 2.0001 0.49997 479.20 520.53 2.4625 1.1971 1.4153 217.33 0.49207 6.1639 0.011172
-45.625 12.554 0.00073777 92.622 92.801 0.57421 584.92 0.0017096 92.336 92.484 0.57282 1.4378 2.2303 1183.8 -0.0052633 204.34 0.13126 2.0872 0.47912 480.27 521.74 2.4594 1.2015 1.4207 217.58 0.48633 6.1902 0.011259
-44.625 13.137 0.00076235 94.860 95.047 0.58403 583.77 0.0017130 94.565 94.720 0.58260 1.4402 2.2347 1177.3 -0.0052240 202.03 0.13067 2.1771 0.45933 481.33 522.94 2.4564 1.2060 1.4263 217.82 0.48069 6.2165 0.011347
-43.625 13.741 0.00078731 97.102 97.298 0.59382 582.62 0.0017164 96.799 96.961 0.59235 1.4426 2.2392 1170.7 -0.0051841 199.75 0.13008 2.2700 0.44053 482.40 524.14 2.4535 1.2104 1.4319 218.05 0.47516 6.2429 0.011435
-42.625 14.367 0.00081265 99.349 99.553 0.60358 581.47 0.0017198 99.036 99.207 0.60208 1.4450 2.2437 1164.2 -0.0051437 197.51 0.12949 2.3659 0.42267 483.46 525.33 2.4506 1.2149 1.4375 218.28 0.46973 6.2692 0.011523
-41.625 15.015 0.00083834 101.60 101.81 0.61333 580.32 0.0017232 101.28 101.46 0.61179 1.4475 2.2483 1157.7 -0.0051027 195.30 0.12891 2.4649 0.40569 484.53 526.53 2.4478 1.2195 1.4432 218.50 0.46440 6.2955 0.011612
-40.625 15.686 0.00086437 103.86 104.08 0.62305 579.16 0.0017266 103.52 103.71 0.62147 1.4500 2.2529 1151.1 -0.0050611 193.13 0.12832 2.5671 0.38954 485.60 527.73 2.4450 1.2240 1.4489 218.72 0.45917 6.3218 0.011701
-39.625 16.380 0.00089072 106.12 106.35 0.63275 578.00 0.0017301 105.78 105.97 0.63113 1.4525 2.2576 1144.6 -0.0050189 190.99 0.12774 2.6725 0.37418 486.67 528.93 2.4423 1.2286 1.4547 218.93 0.45403 6.3481 0.011790
-38.625 17.097 0.00091738 108.38 108.62 0.64242 576.83 0.0017336 108.03 108.24 0.64077 1.4550 2.2623 1138.0 -0.0049761 188.88 0.12716 2.7813 0.35955 487.74 530.12 2.4397 1.2332 1.4606 219.13 0.44900 6.3744 0.011880
-37.625 17.838 0.00094432 110.65 110.90 0.65208 575.66 0.0017371 110.29 110.51 0.65039 1.4576 2.2671 1131.5 -0.0049327 186.81 0.12658 2.8934 0.34562 488.81 531.32 2.4371 1.2378 1.4665 219.33 0.44405 6.4007 0.011970
-36.625 18.604 0.00097153 112.92 113.19 0.66171 574.49 0.0017407 112.56 112.78 0.65999 1.4602 2.2719 1125.0 -0.0048887 184.76 0.12600 3.0089 0.33235 489.88 532.51 2.4346 1.2424 1.4724 219.52 0.43920 6.4270 0.012060
-35.625 19.395 0.00099897 115.20 115.48 0.67132 573.32 0.0017442 114.83 115.06 0.66956 1.4628 2.2768 1118.5 -0.0048440 182.75 0.12542 3.1280 0.31969 490.95 533.70 2.4321 1.2471 1.4784 219.70 0.43444 6.4533 0.012151
-34.625 20.212 0.0010266 117.48 117.77 0.68092 572.14 0.0017478 117.10 117.34 0.67912 1.4654 2.2818 1111.9 -0.0047987 180.76 0.12485 3.2506 0.30763 492.02 534.89 2.4297 1.2517 1.4845 219.88 0.42977 6.4797 0.012243
-33.625 21.056 0.0010545 119.77 120.07 0.69049 570.96 0.0017514 119.38 119.63 0.68865 1.4681 2.2868 1105.4 -0.0047527 178.80 0.12427 3.3770 0.29612 493.09 536.08 2.4273 1.2564 1.4906 220.05 0.42519 6.5060 0.012334
-32.625 21.926 0.0010825 122.06 122.38 0.70004 569.77 0.0017551 121.66 121.93 0.69817 1.4708 2.2918 1098.9 -0.0047061 176.87 0.12370 3.5071 0.28514 494.17 537.27 2.4250 1.2611 1.4968 220.21 0.42070 6.5323 0.012426
-31.625 22.823 0.0011106 124.36 124.69 0.70957 568.58 0.0017588 123.95 124.23 0.70767 1.4735 2.2970 1092.3 -0.0046587 174.97 0.12313 3.6410 0.27465 495.24 538.46 2.4227 1.2659 1.5031 220.36 0.41629 6.5587 0.012519
-30.625 23.749 0.0011389 126.66 127.00 0.71908 567.39 0.0017625 126.24 126.53 0.71714 1.4762 2.3021 1085.8 -0.0046107 173.09 0.12256 3.7787 0.26464 496.31 539.64 2.4205 1.2706 1.5094 220.51 0.41196 6.5850 0.012612
-29.625 24.703 0.0011672 128.97 129.32 0.72858 566.19 0.0017662 128.54 128.84 0.72660 1.4790 2.3074 1079.3 -0.0045619 171.24 0.12200 3.9205 0.25507 497.38 540.83 2.4184 1.2754 1.5157 220.65 0.40772 6.6114 0.012706
-28.625 25.687 0.0011956 131.28 131.65 0.73805 564.99 0.0017699 130.84 131.16 0.73604 1.4818 2.3126 1072.8 -0.0045124 169.42 0.12143 4.0663 0.24592 498.46 542.01 2.4162 1.2802 1.5222 220.79 0.40356 6.6378 0.012800
-27.625 26.700 0.0012240 133.60 133.98 0.74751 563.78 0.0017737 133.15 133.48 0.74547 1.4846 2.3180 1066.2 -0.0044621 167.62 0.12087 4.2163 0.23717 499.53 543.19 2.4142 1.2850 1.5286 220.91 0.39947 6.6642 0.012894
-26.625 27.743 0.0012523 135.92 136.32 0.75695 562.57 0.0017775 135.47 135.81 0.75487 1.4874 2.3234 1059.7 -0.0044111 165.84 0.12031 4.3705 0.22881 500.60 544.37 2.4122 1.2899 1.5352 221.03 0.39547 6.6906 0.012989
-25.625 28.817 0.0012805 138.25 138.66 0.76637 561.36 0.0017814 137.78 138.14 0.76426 1.4902 2.3289 1053.2 -0.0043593 164.09 0.11975 4.5290 0.22080 501.68 545.55 2.4102 1.2947 1.5418 221.14 0.39154 6.7171 0.013084
-24.625 29.923 0.0013087 140.58 141.01 0.77577 560.14 0.0017853 140.11 140.48 0.77363 1.4931 2.3344 1046.7 -0.0043067 162.36 0.11919 4.6918 0.21314 502.75 546.72 2.4083 1.2996 1.5485 221.25 0.38768 6.7436 0.013180
-23.625 31.061 0.0013366 142.92 143.36 0.78515 558.92 0.0017892 142.44 142.82 0.78298 1.4960 2.3400 1040.1 -0.0042533 160.65 0.11863 4.8592 0.20580 503.82 547.90 2.4064 1.3045 1.5552 221.35 0.38391 6.7701 0.013277
-22.625 32.232 0.0013644 145.26 145.72 0.79452 557.69 0.0017931 144.77 145.17 0.79232 1.4990 2.3457 1033.6 -0.0041990 158.97 0.11807 5.0311 0.19877 504.90 549.07 2.4045 1.3095 1.5621 221.44 0.38020 6.7967 0.013374
-21.625 33.435 0.0013919 147.61 148.08 0.80387 556.46 0.0017971 147.11 147.52 0.80164 1.5019 2.3514 1027.1 -0.0041439 157.30 0.11752 5.2076 0.19203 505.97 550.24 2.4027 1.3144 1.5690 221.52 0.37656 6.8232 0.013471
-20.625 34.673 0.0014191 149.96 150.45 0.81321 555.23 0.0018011 149.45 149.88 0.81095 1.5049 2.3572 1020.6 -0.0040879 155.66 0.11697 5.3889 0.18557 507.04 551.40 2.4010 1.3194 1.5759 221.59 0.37300 6.8499 0.013569
-19.625 35.946 0.0014459 152.32 152.83 0.82253 553.99 0.0018051 151.80 152.25 0.82024 1.5079 2.3630 1014.0 -0.0040311 154.04 0.11642 5.5750 0.17937 508.11 552.57 2.3992 1.3244 1.5829 221.66 0.36950 6.8765 0.013668
-18.625 37.253 0.0014724 154.68 155.21 0.83183 552.74 0.0018092 154.16 154.62 0.82952 1.5109 2.3689 1007.5 -0.0039733 152.44 0.11587 5.7660 0.17343 509.19 553.73 2.3976 1.3294 1.5901 221.72 0.36608 6.9032 0.013767
-17.625 38.596 0.0014983 157.05 157.60 0.84112 551.49 0.0018133 156.52 157.00 0.83878 1.5140 2.3749 1001.0 -0.0039145 150.86 0.11532 5.9621 0.16773 510.26 554.89 2.3959 1.3345 1.5972 221.77 0.36272 6.9300 0.013867
-16.625 39.976 0.0015237 159.42 159.99 0.85039 550.24 0.0018174 158.89 159.39 0.84803 1.5171 2.3810 994.44 -0.0038549 149.29 0.11478 6.1632 0.16225 511.33 556.05 2.3943 1.3395 1.6045 221.81 0.35942 6.9568 0.013968
-15.625 41.392 0.0015485 161.80 162.39 0.85964 548.98 0.0018216 161.26 161.78 0.85726 1.5202 2.3871 987.91 -0.0037942 147.75 0.11423 6.3696 0.15700 512.40 557.20 2.3927 1.3446 1.6119 221.85 0.35619 6.9836 0.014069
-14.625 42.846 0.0015726 164.19 164.80 0.86888 547.71 0.0018258 163.64 164.18 0.86649 1.5233 2.3933 981.37 -0.0037325 146.22 0.11369 6.5812 0.15195 513.47 558.36 2.3912 1.3497 1.6193 221.87 0.35302 7.0105 0.014170
-13.625 44.338 0.0015960 166.58 167.21 0.87811 546.44 0.0018300 166.02 166.58 0.87569 1.5264 2.3996 974.83 -0.0036698 144.72 0.11315 6.7983 0.14710 514.54 559.51 2.3897 1.3549 1.6268 221.89 0.34992 7.0375 0.014273
-12.625 45.870 0.0016185 168.97 169.62 0.88732 545.17 0.0018343 168.41 168.99 0.88489 1.5296 2.4059 968.29 -0.0036061 143.23 0.11261 7.0208 0.14243 515.61 560.65 2.3883 1.3600 1.6344 221.90 0.34688 7.0646 0.014376
-11.625 47.440 0.0016402 171.37 172.05 0.89652 543.89 0.0018386 170.81 171.41 0.89407 1.5328 2.4124 961.75 -0.0035413 141.76 0.11208 7.2490 0.13795 516.68 561.80 2.3868 1.3652 1.6421 221.91 0.34389 7.0917 0.014479
-10.625 49.051 0.0016609 173.78 174.48 0.90570 542.60 0.0018430 173.21 173.83 0.90324 1.5360 2.4189 955.20 -0.0034753 140.30 0.11154 7.4829 0.13364 517.75 562.94 2.3854 1.3704 1.6498 221.90 0.34097 7.1188 0.014584
-9.6250 50.703 0.0016805 176.19 176.91 0.91487 541.31 0.0018474 175.61 176.26 0.91240 1.5393 2.4255 948.65 -0.0034082 138.86 0.11101 7.7226 0.12949 518.81 564.08 2.3841 1.3757 1.6577 221.88 0.33810 7.1461 0.014689
-8.6250 52.396 0.0016989 178.61 179.35 0.92403 540.02 0.0018518 178.03 178.70 0.92154 1.5426 2.4321 942.10 -0.0033400 137.44 0.11048 7.9683 0.12550 519.88 565.21 2.3827 1.3809 1.6657 221.86 0.33529 7.1734 0.014795
-7.6250 54.131 0.0017161 181.03 181.80 0.93317 538.72 0.0018563 180.45 181.14 0.93068 1.5459 2.4389 935.55 -0.0032705 136.03 0.10995 8.2200 0.12165 520.94 566.35 2.3814 1.3862 1.6737 221.83 0.33254 7.2008 0.014902
-6.6250 55.909 0.0017320 183.46 184.26 0.94230 537.41 0.0018608 182.87 183.59 0.93980 1.5492 2.4457 928.99 -0.0031998 134.64 0.10942 8.4779 0.11795 522.01 567.48 2.3801 1.3915 1.6819 221.79 0.32984 7.2284 0.015009
-5.6250 57.730 0.0017464 185.89 186.72 0.95142 536.10 0.0018653 185.30 186.05 0.94892 1.5525 2.4526 922.43 -0.0031279 133.27 0.10889 8.7420 0.11439 523.07 568.60 2.3789 1.3969 1.6902 221.74 0.32720 7.2560 0.015117
-4.6250 59.595 0.0017593 188.33 189.18 0.96052 534.78 0.0018699 187.74 188.51 0.95802 1.5559 2.4596 915.87 -0.0030546 131.91 0.10837 9.0126 0.11096 524.13 569.72 2.3777 1.4022 1.6985 221.68 0.32461 7.2837 0.015226
-3.6250 61.505 0.0017705 190.78 191.65 0.96961 533.45 0.0018746 190.19 190.98 0.96711 1.5593 2.4667 909.30 -0.0029800 130.56 0.10785 9.2896 0.10765 525.19 570.84 2.3765 1.4076 1.7070 221.62 0.32207 7.3115 0.015336
-2.6250 63.461 0.0017799 193.23 194.13 0.97869 532.12 0.0018793 192.64 193.46 0.97620 1.5627 2.4739 902.73 -0.0029041 129.23 0.10733 9.5733 0.10446 526.25 571.96 2.3753 1.4131 1.7156 221.54 0.31958 7.3394 0.015447
-1.6250 65.462 0.0017874 195.69 196.62 0.98776 530.78 0.0018840 195.10 195.95 0.98527 1.5662 2.4811 896.16 -0.0028267 127.91 0.10681 9.8638 0.10138 527.31 573.07 2.3742 1.4185 1.7243 221.45 0.31715 7.3674 0.015559
-0.62500 67.510 0.0017929 198.15 199.11 0.99681 529.44 0.0018888 197.56 198.44 0.99434 1.5696 2.4885 889.58 -0.0027478 126.61 0.10629 10.161 0.098414 528.37 574.18 2.3731 1.4240 1.7331 221.36 0.31476 7.3956 0.015671
0.37500 69.606 0.0017962 200.62 201.61 1.0059 528.09 0.0018936 200.03 200.94 1.0034 1.5731 2.4960 883.00 -0.0026675 125.32 0.10578 10.466 0.095552 529.42 575.28 2.3720 1.4295 1.7421 221.26 0.31242 7.4239 0.015785
1.3750 71.749 0.0017972 203.10 204.12 1.0149 526.73 0.0018985 202.51 203.45 1.0124 1.5767 2.5035 876.42 -0.0025856 124.04 0.10527 10.777 0.092790 530.48 576.38 2.3709 1.4350 1.7512 221.14 0.31013 7.4523 0.015899
2.3750 73.941 0.0017957 205.58 206.63 1.0239 525.37 0.0019034 204.99 205.96 1.0215 1.5802 2.5112 869.83 -0.0025022 122.78 0.10476 11.096 0.090123 531.53 577.47 2.3699 1.4406 1.7604 221.02 0.30789 7.4808 0.016015
3.3750 76.183 0.0017916 208.06 209.15 1.0329 523.99 0.0019084 207.48 208.48 1.0305 1.5838 2.5190 863.24 -0.0024171 121.53 0.10425 11.422 0.087549 532.58 578.56 2.3688 1.4462 1.7697 220.89 0.30569 7.5095 0.016131
4.3750 78.475 0.0017848 210.56 211.67 1.0419 522.62 0.0019134 209.98 211.01 1.0395 1.5874 2.5268 856.64 -0.0023303 120.29 0.10374 11.756 0.085062 533.63 579.65 2.3678 1.4518 1.7792 220.75 0.30354 7.5384 0.016249
5.3750 80.817 0.0017750 213.06 214.20 1.0509 521.23 0.0019185 212.48 213.55 1.0486 1.5910 2.5348 850.04 -0.0022417 119.06 0.10324 12.098 0.082660 534.67 580.73 2.3669 1.4575 1.7888 220.60 0.30144 7.5674 0.016368
6.3750 83.211 0.0017622 215.56 216.74 1.0599 519.84 0.0019237 215.00 216.10 1.0576 1.5946 2.5429 843.43 -0.0021514 117.85 0.10273 12.447 0.080340 535.72 581.81 2.3659 1.4632 1.7986 220.44 0.29938 7.5966 0.016487
7.3750 85.657 0.0017460 218.07 219.29 1.0688 518.44 0.0019289 217.51 218.65 1.0666 1.5983 2.5511 836.82 -0.0020593 116.65 0.10223 12.805 0.078096 536.76 582.88 2.3650 1.4689 1.8085 220.27 0.29736 7.6259 0.016608
8.3750 88.156 0.0017263 220.59 221.84 1.0778 517.03 0.0019341 220.04 221.22 1.0756 1.6020 2.5595 830.20 -0.0019652 115.46 0.10173 13.170 0.075928 537.80 583.95 2.3640 1.4746 1.8186 220.08 0.29538 7.6555 0.016730
9.3750 90.708 0.0017030 223.11 224.40 1.0868 515.62 0.0019394 222.57 223.79 1.0846 1.6057 2.5679 823.58 -0.0018691 114.28 0.10124 13.545 0.073830 538.84 585.01 2.3631 1.4804 1.8288 219.89 0.29345 7.6852 0.016853
10.375 93.315 0.0016757 225.64 226.97 1.0957 514.19 0.0019448 225.11 226.37 1.0936 1.6095 2.5765 816.96 -0.0017710 113.11 0.10074 13.927 0.071802 539.87 586.07 2.3622 1.4863 1.8392 219.69 0.29156 7.7151 0.016978
11.375 95.977 0.0016443 228.18 229.54 1.1046 512.76 0.0019502 227.66 228.95 1.1025 1.6132 2.5852 810.32 -0.0016708 111.95 0.10025 14.319 0.069840 540.90 587.12 2.3614 1.4921 1.8498 219.48 0.28971 7.7452 0.017103
12.375 98.694 0.0016086 230.72 232.12 1.1135 511.32 0.0019557 230.22 231.55 1.1115 1.6170 2.5940 803.68 -0.0015685 110.80 0.099756 14.719 0.067941 541.93 588.17 2.3605 1.4980 1.8605 219.26 0.28790 7.7756 0.017230
13.375 101.47 0.0015682 233.27 234.71 1.1224 509.87 0.0019613 232.78 234.15 1.1205 1.6208 2.6030 797.04 -0.0014639 109.67 0.099267 15.128 0.066103 542.96 589.21 2.3597 1.5040 1.8715 219.03 0.28612 7.8061 0.017359
14.375 104.30 0.0015230 235.82 237.30 1.1313 508.42 0.0019669 235.35 236.77 1.1295 1.6247 2.6121 790.39 -0.0013569 108.54 0.098779 15.547 0.064323 543.99 590.24 2.3588 1.5099 1.8826 218.79 0.28439 7.8369 0.017488
15.375 107.19 0.0014727 238.38 239.91 1.1402 506.95 0.0019726 237.93 239.39 1.1384 1.6286 2.6214 783.73 -0.0012476 107.43 0.098294 15.974 0.062600 545.01 591.27 2.3580 1.5159 1.8940 218.53 0.28270 7.8680 0.017619
16.375 110.13 0.0014170 240.95 242.52 1.1491 505.48 0.0019783 240.52 242.02 1.1474 1.6324 2.6308 777.07 -0.0011357 106.32 0.097810 16.412 0.060931 546.03 592.29 2.3572 1.5220 1.9055 218.27 0.28104 7.8993 0.017752
17.375 113.14 0.0013555 243.52 245.13 1.1580 504.00 0.0019841 243.11 244.66 1.1564 1.6364 2.6403 770.40 -0.0010213 105.22 0.097328 16.859 0.059314 547.04 593.31 2.3564 1.5281 1.9172 217.99 0.27942 7.9308 0.017886
18.375 116.21 0.0012880 246.10 247.76 1.1669 502.50 0.0019900 245.72 247.31 1.1653 1.6403 2.6501 763.72 -0.00090422 104.14 0.096848 17.317 0.057747 548.05 594.32 2.3557 1.5342 1.9292 217.71 0.27783 7.9626 0.018021
19.375 119.33 0.0012142 248.69 250.39 1.1757 501.00 0.0019960 248.33 249.97 1.1743 1.6443 2.6599 757.04 -0.00078435 103.06 0.096371 17.785 0.056228 549.06 595.33 2.3549 1.5404 1.9414 217.41 0.27628 7.9947 0.018159
20.375 122.52 0.0011337 251.28 253.03 1.1846 499.49 0.0020020 250.95 252.64 1.1832 1.6483 2.6700 750.35 -0.00066161 101.99 0.095895 18.263 0.054756 550.07 596.32 2.3541 1.5466 1.9538 217.10 0.27477 8.0272 0.018297
21.375 125.77 0.0010462 253.88 255.67 1.1934 497.97 0.0020082 253.57 255.32 1.1922 1.6523 2.6802 743.64 -0.00053589 100.93 0.095420 18.752 0.053328 551.07 597.31 2.3534 1.5528 1.9665 216.78 0.27329 8.0599 0.018438
22.375 129.08 0.00095120 256.49 258.33 1.2022 496.43 0.0020144 256.21 258.00 1.2012 1.6563 2.6906 736.94 -0.00040708 99.877 0.094948 19.252 0.051943 552.07 598.30 2.3526 1.5591 1.9795 216.45 0.27184 8.0929 0.018580
23.375 132.46 0.00084839 259.10 260.99 1.2111 494.89 0.0020206 258.86 260.70 1.2101 1.6604 2.7012 730.22 -0.00027505 98.834 0.094478 19.763 0.050600 553.06 599.27 2.3519 1.5655 1.9927 216.11 0.27043 8.1263 0.018724
24.375 135.90 0.00073731 261.72 263.66 1.2199 493.34 0.0020270 261.51 263.41 1.2191 1.6645 2.7120 723.49 -0.00013968 97.800 0.094009 20.285 0.049297 554.05 600.24 2.3512 1.5718 2.0061 215.75 0.26906 8.1600 0.018870
25.375 139.41 0.00061753 264.35 266.33 1.2287 491.77 0.0020335 264.17 266.13 1.2280 1.6686 2.7230 716.76 -8.3775e-07 96.773 0.093543 20.820 0.048032 555.03 601.20 2.3504 1.5783 2.0199 215.39 0.26771 8.1941 0.019017
26.375 142.98 0.00048858 266.98 269.02 1.2375 490.20 0.0020400 266.84 268.85 1.2370 1.6728 2.7342 710.01 0.00014161 95.755 0.093078 21.366 0.046804 556.01 602.15 2.3497 1.5847 2.0340 215.01 0.26640 8.2286 0.019167
27.375 146.62 0.00034995 269.62 271.71 1.2463 488.61 0.0020466 269.52 271.59 1.2459 1.6770 2.7456 703.26 0.00028782 94.745 0.092615 21.924 0.045612 556.99 603.10 2.3490 1.5913 2.0484 214.62 0.26512 8.2634 0.019319
28.375 150.33 0.00020113 272.27 274.41 1.2551 487.01 0.0020533 272.21 274.34 1.2549 1.6812 2.7573 696.49 0.00043793 93.742 0.092154 22.495 0.044454 557.96 604.03 2.3483 1.5978 2.0631 214.21 0.26387 8.2987 0.019472
29.375 154.10 4.1554e-05 274.93 277.12 1.2639 485.40 0.0020601 274.91 277.10 1.2638 1.6854 2.7691 689.72 0.00059212 92.747 0.091695 23.079 0.043329 558.92 604.96 2.3476 1.6044 2.0781 213.80 0.26265 8.3344 0.019628
30.375 208.72 undefined 276.86 279.82 1.2703 485.00 0.0020619 276.86 279.82 1.2703 1.6891 2.7676 690.41 0.00056196 92.509 0.091653 485.00 0.0020619 276.86 279.82 1.2703 1.6891 2.7676 690.41 0.00056196 92.509 0.091653
31.375 280.26 undefined 278.55 282.53 1.2758 485.00 0.0020619 278.55 282.53 1.2758 1.6927 2.7619 693.56 0.00047176 92.521 0.091749 485.00 0.0020619 278.55 282.53 1.2758 1.6927 2.7619 693.56 0.00047176 92.521 0.091749
32.375 351.85 undefined 280.24 285.24 1.2814 485.00 0.0020619 280.24 285.24 1.2814 1.6963 2.7564 696.66 0.00038388 92.533 0.091845 485.00 0.0020619 280.24 285.24 1.2814 1.6963 2.7564 696.66 0.00038388 92.533 0.091845
33.375 423.48 undefined 281.94 287.96 1.2869 485.00 0.0020619 281.94 287.96 1.2869 1.6999 2.7511 699.72 0.00029821 92.545 0.091942 485.00 0.0020619 281.94 287.96 1.2869 1.6999 2.7511 699.72 0.00029821 92.545 0.091942
34.375 495.15 undefined 283.64 290.68 1.2925 485.00 0.0020619 283.64 290.68 1.2925 1.7035 2.7461 702.73 0.00021468 92.558 0.092039 485.00 0.0020619 283.64 290.68 1.2925 1.7035 2.7461 702.73 0.00021468 92.558 0.092039
35.375 566.85 undefined 285.35 293.40 1.2980 485.00 0.0020619 285.35 293.40 1.2980 1.7072 2.7413 705.72 0.00013319 92.570 0.092137 485.00 0.0020619 285.35 293.40 1.2980 1.7072 2.7413 705.72 0.00013319 92.570 0.092137
36.375 638.59 undefined 287.05 296.13 1.3035 485.00 0.0020619 287.05 296.13 1.3035 1.7109 2.7368 708.66 5.3666e-05 92.582 0.092235 485.00 0.0020619 287.05 296.13 1.3035 1.7109 2.7368 708.66 5.3666e-05 92.582 0.092235
37.375 710.36 undefined 288.77 298.87 1.3091 485.00 0.0020619 288.77 298.87 1.3091 1.7146 2.7325 711.56 -2.3965e-05 92.594 0.092333 485.00 0.0020619 288.77 298.87 1.3091 1.7146 2.7325 711.56 -2.3965e-05 92.594 0.092333
38.375 782.16 undefined 290.48 301.60 1.3146 485.00 0.0020619 290.48 301.60 1.3146 1.7183 2.7283 714.43 -9.9774e-05 92.607 0.092432 485.00 0.0020619 290.48 301.60 1.3146 1.7183 2.7283 714.43 -9.9774e-05 92.607 0.092432
39.375 853.99 undefined 292.20 304.34 1.3201 485.00 0.0020619 292.20 304.34 1.3201 1.7220 2.7244 717.27 -0.00017383 92.619 0.092531 485.00 0.0020619 292.20 304.34 1.3201 1.7220 2.7244 717.27 -0.00017383 92.619 0.092531
40.375 925.84 undefined 293.93 307.09 1.3256 485.00 0.0020619 293.93 307.09 1.3256 1.7258 2.7207 720.07 -0.00024619 92.632 0.092630 485.00 0.0020619 293.93 307.09 1.3256 1.7258 2.7207 720.07 -0.00024619 92.632 0.092630
41.375 997.71 undefined 295.66 309.84 1.3311 485.00 0.0020619 295.66 309.84 1.3311 1.7296 2.7171 722.84 -0.00031691 92.645 0.092730 485.00 0.0020619 295.66 309.84 1.3311 1.7296 2.7171 722.84 -0.00031691 92.645 0.092730
42.375 1069.6 undefined 297.39 312.59 1.3366 485.00 0.0020619 297.39 312.59 1.3366 1.7334 2.7137 725.58 -0.00038606 92.657 0.092830 485.00 0.0020619 297.39 312.59 1.3366 1.7334 2.7137 725.58 -0.00038606 92.657 0.092830
43.375 1141.5 undefined 299.12 315.35 1.3421 485.00 0.0020619 299.12 315.35 1.3421 1.7373 2.7105 728.29 -0.00045369 92.670 0.092930 485.00 0.0020619 299.12 315.35 1.3421 1.7373 2.7105 728.29 -0.00045369 92.670 0.092930
44.375 1213.4 undefined 300.86 318.11 1.3476 485.00 0.0020619 300.86 318.11 1.3476 1.7411 2.7075 730.97 -0.00051984 92.683 0.093031 485.00 0.0020619 300.86 318.11 1.3476 1.7411 2.7075 730.97 -0.00051984 92.683 0.093031
45.375 1285.4 undefined 302.60 320.88 1.3531 485.00 0.0020619 302.60 320.88 1.3531 1.7450 2.7046 733.62 -0.00058456 92.696 0.093132 485.00 0.0020619 302.60 320.88 1.3531 1.7450 2.7046 733.62 -0.00058456 92.696 0.093132
46.375 1357.3 undefined 304.35 323.65 1.3585 485.00 0.0020619 304.35 323.65 1.3585 1.7489 2.7018 736.24 -0.00064791 92.709 0.093234 485.00 0.0020619 304.35 323.65 1.3585 1.7489 2.7018 736.24 -0.00064791 92.709 0.093234
47.375 1429.3 undefined 306.10 326.42 1.3640 485.00 0.0020619 306.10 326.42 1.3640 1.7528 2.6993 738.83 -0.00070991 92.722 0.093336 485.00 0.0020619 306.10 326.42 1.3640 1.7528 2.6993 738.83 -0.00070991 92.722 0.093336
48.375 1501.3 undefined 307.86 329.20 1.3695 485.00 0.0020619 307.86 329.20 1.3695 1.7567 2.6968 741.40 -0.00077062 92.735 0.093438 485.00 0.0020619 307.86 329.20 1.3695 1.7567 2.6968 741.40 -0.00077062 92.735 0.093438
49.375 1573.2 undefined 309.62 331.98 1.3749 485.00 0.0020619 309.62 331.98 1.3749 1.7607 2.6945 743.94 -0.00083007 92.748 0.093540 485.00 0.0020619 309.62 331.98 1.3749 1.7607 2.6945 743.94 -0.00083007 92.748 0.093540
50.375 1645.2 undefined 311.38 334.77 1.3804 485.00 0.0020619 311.38 334.77 1.3804 1.7646 2.6923 746.46 -0.00088829 92.761 0.093643 485.00 0.0020619 311.38 334.77 1.3804 1.7646 2.6923 746.46 -0.00088829 92.761 0.093643
51.375 1717.2 undefined 313.15 337.56 1.3858 485.00 0.0020619 313.15 337.56 1.3858 1.7686 2.6903 748.96 -0.00094534 92.774 0.093746 485.00 0.0020619 313.15 337.56 1.3858 1.7686 2.6903 748.96 -0.00094534 92.774 0.093746
52.375 1789.2 undefined 314.92 340.35 1.3913 485.00 0.0020619 314.92 340.35 1.3913 1.7726 2.6884 751.43 -0.0010012 92.788 0.093850 485.00 0.0020619 314.92 340.35 1.3913 1.7726 2.6884 751.43 -0.0010012 92.788 0.093850
53.375 1861.2 undefined 316.69 343.15 1.3967 485.00 0.0020619 316.69 343.15 1.3967 1.7766 2.6866 753.88 -0.0010560 92.801 0.093953 485.00 0.0020619 316.69 343.15 1.3967 1.7766 2.6866 753.88 -0.0010560 92.801 0.093953
54.375 1933.2 undefined 318.47 345.95 1.4022 485.00 0.0020619 318.47 345.95 1.4022 1.7806 2.6849 756.30 -0.0011097 92.815 0.094057 485.00 0.0020619 318.47 345.95 1.4022 1.7806 2.6849 756.30 -0.0011097 92.815 0.094057
55.375 2005.2 undefined 320.25 348.76 1.4076 485.00 0.0020619 320.25 348.76 1.4076 1.7847 2.6833 758.71 -0.0011623 92.828 0.094162 485.00 0.0020619 320.25 348.76 1.4076 1.7847 2.6833 758.71 -0.0011623 92.828 0.094162
56.375 2077.2 undefined 322.04 351.57 1.4130 485.00 0.0020619 322.04 351.57 1.4130 1.7887 2.6819 761.09 -0.0012139 92.842 0.094267 485.00 0.0020619 322.04 351.57 1.4130 1.7887 2.6819 761.09 -0.0012139 92.842 0.094267
57.375 2149.1 undefined 323.83 354.38 1.4185 485.00 0.0020619 323.83 354.38 1.4185 1.7928 2.6805 763.45 -0.0012645 92.855 0.094372 485.00 0.0020619 323.83 354.38 1.4185 1.7928 2.6805 763.45 -0.0012645 92.855 0.094372
58.375 2221.1 undefined 325.62 357.20 1.4239 485.00 0.0020619 325.62 357.20 1.4239 1.7969 2.6793 765.80 -0.0013141 92.869 0.094477 485.00 0.0020619 325.62 357.20 1.4239 1.7969 2.6793 765.80 -0.0013141 92.869 0.094477
59.375 2293.1 undefined 327.42 360.02 1.4293 485.00 0.0020619 327.42 360.02 1.4293 1.8010 2.6781 768.12 -0.0013627 92.883 0.094583 485.00 0.0020619 327.42 360.02 1.4293 1.8010 2.6781 768.12 -0.0013627 92.883 0.094583
60.375 2365.0 undefined 329.23 362.85 1.4347 485.00 0.0020619 329.23 362.85 1.4347 1.8051 2.6771 770.43 -0.0014105 92.896 0.094689 485.00 0.0020619 329.23 362.85 1.4347 1.8051 2.6771 770.43 -0.0014105 92.896 0.094689
61.375 2437.0 undefined 331.03 365.68 1.4401 485.00 0.0020619 331.03 365.68 1.4401 1.8092 2.6761 772.72 -0.0014573 92.910 0.094795 485.00 0.0020619 331.03 365.68 1.4401 1.8092 2.6761 772.72 -0.0014573 92.910 0.094795
62.375 2508.9 undefined 332.84 368.51 1.4455 485.00 0.0020619 332.84 368.51 1.4455 1.8133 2.6753 774.99 -0.0015032 92.924 0.094902 485.00 0.0020619 332.84 368.51 1.4455 1.8133 2.6753 774.99 -0.0015032 92.924 0.094902
63.375 2580.9 undefined 334.66 371.35 1.4509 485.00 0.0020619 334.66 371.35 1.4509 1.8175 2.6745 777.24 -0.0015483 92.938 0.095009 485.00 0.0020619 334.66 371.35 1.4509 1.8175 2.6745 777.24 -0.0015483 92.938 0.095009
64.375 2652.8 undefined 336.48 374.19 1.4563 485.00 0.0020619 336.48 374.19 1.4563 1.8216 2.6738 779.48 -0.0015925 92.952 0.095116 485.00 0.0020619 336.48 374.19 1.4563 1.8216 2.6738 779.48 -0.0015925 92.952 0.095116
65.375 2724.7 undefined 338.30 377.04 1.4617 485.00 0.0020619 338.30 377.04 1.4617 1.8258 2.6732 781.70 -0.0016359 92.966 0.095224 485.00 0.0020619 338.30 377.04 1.4617 1.8258 2.6732 781.70 -0.0016359 92.966 0.095224
66.375 2796.6 undefined 340.13 379.89 1.4671 485.00 0.0020619 340.13 379.89 1.4671 1.8299 2.6727 783.90 -0.0016786 92.980 0.095332 485.00 0.0020619 340.13 379.89 1.4671 1.8299 2.6727 783.90 -0.0016786 92.980 0.095332
67.375 2868.5 undefined 341.96 382.74 1.4725 485.00 0.0020619 341.96 382.74 1.4725 1.8341 2.6723 786.09 -0.0017204 92.995 0.095440 485.00 0.0020619 341.96 382.74 1.4725 1.8341 2.6723 786.09 -0.0017204 92.995 0.095440
68.375 2940.3 undefined 343.80 385.60 1.4779 485.00 0.0020619 343.80 385.60 1.4779 1.8383 2.6719 788.27 -0.0017614 93.009 0.095549 485.00 0.0020619 343.80 385.60 1.4779 1.8383 2.6719 788.27 -0.0017614 93.009 0.095549
69.375 3012.2 undefined 345.64 388.46 1.4833 485.00 0.0020619 345.64 388.46 1.4833 1.8425 2.6717 790.42 -0.0018018 93.023 0.095658 485.00 0.0020619 345.64 388.46 1.4833 1.8425 2.6717 790.42 -0.0018018 93.023 0.095658
70.375 3084.0 undefined 347.48 391.33 1.4887 485.00 0.0020619 347.48 391.33 1.4887 1.8467 2.6715 792.57 -0.0018413 93.037 0.095767 485.00 0.0020619 347.48 391.33 1.4887 1.8467 2.6715 792.57 -0.0018413 93.037 0.095767
71.375 3155.8 undefined 349.33 394.20 1.4940 485.00 0.0020619 349.33 394.20 1.4940 1.8509 2.6713 794.70 -0.0018802 93.052 0.095876 485.00 0.0020619 349.33 394.20 1.4940 1.8509 2.6713 794.70 -0.0018802 93.052 0.095876
72.375 3227.6 undefined 351.19 397.07 1.4994 485.00 0.0020619 351.19 397.07 1.4994 1.8551 2.6713 796.82 -0.0019184 93.066 0.095986 485.00 0.0020619 351.19 397.07 1.4994 1.8551 2.6713 796.82 -0.0019184 93.066 0.095986
73.375 3299.4 undefined 353.04 399.95 1.5048 485.00 0.0020619 353.04 399.95 1.5048 1.8593 2.6713 798.92 -0.0019558 93.081 0.096096 485.00 0.0020619 353.04 399.95 1.5048 1.8593 2.6713 798.92 -0.0019558 93.081 0.096096
74.375 3371.2 undefined 354.90 402.83 1.5101 485.00 0.0020619 354.90 402.83 1.5101 1.8635 2.6714 801.01 -0.0019927 93.095 0.096207 485.00 0.0020619 354.90 402.83 1.5101 1.8635 2.6714 801.01 -0.0019927 93.095 0.096207
75.375 3442.9 undefined 356.77 405.71 1.5155 485.00 0.0020619 356.77 405.71 1.5155 1.8678 2.6715 803.09 -0.0020288 93.110 0.096317 485.00 0.0020619 356.77 405.71 1.5155 1.8678 2.6715 803.09 -0.0020288 93.110 0.096317
76.375 3514.6 undefined 358.64 408.60 1.5208 485.00 0.0020619 358.64 408.60 1.5208 1.8720 2.6717 805.15 -0.0020643 93.124 0.096428 485.00 0.0020619 358.64 408.60 1.5208 1.8720 2.6717 805.15 -0.0020643 93.124 0.096428
77.375 3586.3 undefined 360.51 411.50 1.5262 485.00 0.0020619 360.51 411.50 1.5262 1.8762 2.6720 807.20 -0.0020992 93.139 0.096540 485.00 0.0020619 360.51 411.50 1.5262 1.8762 2.6720 807.20 -0.0020992 93.139 0.096540
78.375 3658.0 undefined 362.39 414.39 1.5316 485.00 0.0020619 362.39 414.39 1.5316 1.8805 2.6723 809.24 -0.0021335 93.154 0.096651 485.00 0.0020619 362.39 414.39 1.5316 1.8805 2.6723 809.24 -0.0021335 93.154 0.096651
79.375 3729.7 undefined 364.28 417.30 1.5369 485.00 0.0020619 364.28 417.30 1.5369 1.8847 2.6727 811.27 -0.0021672 93.168 0.096763 485.00 0.0020619 364.28 417.30 1.5369 1.8847 2.6727 811.27 -0.0021672 93.168 0.096763
80.375 3801.3 undefined 366.16 420.20 1.5422 485.00 0.0020619 366.16 420.20 1.5422 1.8890 2.6732 813.29 -0.0022002 93.183 0.096876 485.00 0.0020619 366.16 420.20 1.5422 1.8890 2.6732 813.29 -0.0022002 93.183 0.096876
81.375 3872.9 undefined 368.05 423.11 1.5476 485.00 0.0020619 368.05 423.11 1.5476 1.8932 2.6737 815.29 -0.0022328 93.198 0.096988 485.00 0.0020619 368.05 423.11 1.5476 1.8932 2.6737 815.29 -0.0022328 93.198 0.096988
82.375 3944.5 undefined 369.95 426.02 1.5529 485.00 0.0020619 369.95 426.02 1.5529 1.8975 2.6742 817.29 -0.0022647 93.213 0.097101 485.00 0.0020619 369.95 426.02 1.5529 1.8975 2.6742 817.29 -0.0022647 93.213 0.097101
83.375 4016.1 undefined 371.85 428.94 1.5583 485.00 0.0020619 371.85 428.94 1.5583 1.9018 2.6748 819.27 -0.0022961 93.228 0.097214 485.00 0.0020619 371.85 428.94 1.5583 1.9018 2.6748 819.27 -0.0022961 93.228 0.097214
84.375 4087.6 undefined 373.75 431.86 1.5636 485.00 0.0020619 373.75 431.86 1.5636 1.9060 2.6755 821.25 -0.0023269 93.243 0.097328 485.00 0.0020619 373.75 431.86 1.5636 1.9060 2.6755 821.25 -0.0023269 93.243 0.097328
85.375 4159.1 undefined 375.66 434.79 1.5689 485.00 0.0020619 375.66 434.79 1.5689 1.9103 2.6762 823.21 -0.0023572 93.258 0.097442 485.00 0.0020619 375.66 434.79 1.5689 1.9103 2.6762 823.21 -0.0023572 93.258 0.097442
86.375 4230.6 undefined 377.57 437.72 1.5742 485.00 0.0020619 377.57 437.72 1.5742 1.9146 2.6770 825.16 -0.0023870 93.273 0.097556 485.00 0.0020619 377.57 437.72 1.5742 1.9146 2.6770 825.16 -0.0023870 93.273 0.097556
87.375 4302.1 undefined 379.49 440.65 1.5796 485.00 0.0020619 379.49 440.65 1.5796 1.9188 2.6778 827.10 -0.0024163 93.288 0.097670 485.00 0.0020619 379.49 440.65 1.5796 1.9188 2.6778 827.10 -0.0024163 93.288 0.097670
88.375 4373.5 undefined 381.41 443.58 1.5849 485.00 0.0020619 381.41 443.58 1.5849 1.9231 2.6787 829.03 -0.0024451 93.303 0.097785 485.00 0.0020619 381.41 443.58 1.5849 1.9231 2.6787 829.03 -0.0024451 93.303 0.097785
89.375 4445.0 undefined 383.34 446.53 1.5902 485.00 0.0020619 383.34 446.53 1.5902 1.9274 2.6796 830.96 -0.0024734 93.319 0.097900 485.00 0.0020619 383.34 446.53 1.5902 1.9274 2.6796 830.96 -0.0024734 93.319 0.097900
90.375 4516.4 undefined 385.27 449.47 1.5955 485.00 0.0020619 385.27 449.47 1.5955 1.9317 2.6805 832.87 -0.0025012 93.334 0.098015 485.00 0.0020619 385.27 449.47 1.5955 1.9317 2.6805 832.87 -0.0025012 93.334 0.098015
91.375 4587.7 undefined 387.20 452.42 1.6008 485.00 0.0020619 387.20 452.42 1.6008 1.9359 2.6815 834.77 -0.0025286 93.349 0.098131 485.00 0.0020619 387.20 452.42 1.6008 1.9359 2.6815 834.77 -0.0025286 93.349 0.098131
92.375 4659.1 undefined 389.14 455.37 1.6061 485.00 0.0020619 389.14 455.37 1.6061 1.9402 2.6826 836.66 -0.0025554 93.365 0.098247 485.00 0.0020619 389.14 455.37 1.6061 1.9402 2.6826 836.66 -0.0025554 93.365 0.098247
93.375 4730.4 undefined 391.08 458.33 1.6115 485.00 0.0020619 391.08 458.33 1.6115 1.9445 2.6837 838.55 -0.0025819 93.380 0.098363 485.00 0.0020619 391.08 458.33 1.6115 1.9445 2.6837 838.55 -0.0025819 93.380 0.098363
94.375 4801.7 undefined 393.03 461.29 1.6168 485.00 0.0020619 393.03 461.29 1.6168 1.9488 2.6848 840.42 -0.0026078 93.395 0.098480 485.00 0.0020619 393.03 461.29 1.6168 1.9488 2.6848 840.42 -0.0026078 93.395 0.098480
95.375 4872.9 undefined 394.98 464.25 1.6221 485.00 0.0020619 394.98 464.25 1.6221 1.9531 2.6860 842.29 -0.0026334 93.411 0.098596 485.00 0.0020619 394.98 464.25 1.6221 1.9531 2.6860 842.29 -0.0026334 93.411 0.098596
96.375 4944.2 undefined 396.93 467.22 1.6274 485.00 0.0020619 396.93 467.22 1.6274 1.9573 2.6872 844.15 -0.0026585 93.426 0.098714 485.00 0.0020619 396.93 467.22 1.6274 1.9573 2.6872 844.15 -0.0026585 93.426 0.098714
97.375 5015.4 undefined 398.89 470.19 1.6327 485.00 0.0020619 398.89 470.19 1.6327 1.9616 2.6884 846.00 -0.0026832 93.442 0.098831 485.00 0.0020619 398.89 470.19 1.6327 1.9616 2.6884 846.00 -0.0026832 93.442 0.098831
98.375 5086.6 undefined 400.86 473.17 1.6379 485.00 0.0020619 400.86 473.17 1.6379 1.9659 2.6897 847.84 -0.0027075 93.457 0.098949 485.00 0.0020619 400.86 473.17 1.6379 1.9659 2.6897 847.84 -0.0027075 93.457 0.098949
99.375 5157.7 undefined 402.82 476.15 1.6432 485.00 0.0020619 402.82 476.15 1.6432 1.9702 2.6910 849.67 -0.0027314 93.473 0.099067 485.00 0.0020619 402.82 476.15 1.6432 1.9702 2.6910 849.67 -0.0027314 93.473 0.099067
100.38 5228.9 undefined 404.80 479.13 1.6485 485.00 0.0020619 404.80 479.13 1.6485 1.9745 2.6924 851.50 -0.0027548 93.489 0.099185 485.00 0.0020619 404.80 479.13 1.6485 1.9745 2.6924 851.50 -0.0027548 93.489 0.099185
101.38 5299.9 undefined 406.77 482.12 1.6538 485.00 0.0020619 406.77 482.12 1.6538 1.9788 2.6937 853.31 -0.0027779 93.504 0.099304 485.00 0.0020619 406.77 482.12 1.6538 1.9788 2.6937 853.31 -0.0027779 93.504 0.099304
102.38 5371.0 undefined 408.75 485.11 1.6591 485.00 0.0020619 408.75 485.11 1.6591 1.9830 2.6952 855.12 -0.0028007 93.520 0.099423 485.00 0.0020619 408.75 485.11 1.6591 1.9830 2.6952 855.12 -0.0028007 93.520 0.099423
103.38 5442.1 undefined 410.74 488.10 1.6644 485.00 0.0020619 410.74 488.10 1.6644 1.9873 2.6966 856.92 -0.0028230 93.536 0.099542 485.00 0.0020619 410.74 488.10 1.6644 1.9873 2.6966 856.92 -0.0028230 93.536 0.099542
104.38 5513.1 undefined 412.73 491.10 1.6696 485.00 0.0020619 412.73 491.10 1.6696 1.9916 2.6981 858.72 -0.0028450 93.552 0.099661 485.00 0.0020619 412.73 491.10 1.6696 1.9916 2.6981 858.72 -0.0028450 93.552 0.099661
105.38 5584.0 undefined 414.72 494.10 1.6749 485.00 0.0020619 414.72 494.10 1.6749 1.9959 2.6996 860.50 -0.0028666 93.568 0.099781 485.00 0.0020619 414.72 494.10 1.6749 1.9959 2.6996 860.50 -0.0028666 93.568 0.099781
106.38 5655.0 undefined 416.72 497.11 1.6802 485.00 0.0020619 416.72 497.11 1.6802 2.0002 2.7012 862.28 -0.0028878 93.583 0.099901 485.00 0.0020619 416.72 497.11 1.6802 2.0002 2.7012 862.28 -0.0028878 93.583 0.099901
107.38 5725.9 undefined 418.72 500.12 1.6855 485.00 0.0020619 418.72 500.12 1.6855 2.0044 2.7028 864.05 -0.0029087 93.599 0.10002 485.00 0.0020619 418.72 500.12 1.6855 2.0044 2.7028 864.05 -0.0029087 93.599 0.10002
108.38 5796.8 undefined 420.73 503.14 1.6907 485.00 0.0020619 420.73 503.14 1.6907 2.0087 2.7044 865.81 -0.0029293 93.615 0.10014 485.00 0.0020619 420.73 503.14 1.6907 2.0087 2.7044 865.81 -0.0029293 93.615 0.10014
109.38 5867.7 undefined 422.74 506.15 1.6960 485.00 0.0020619 422.74 506.15 1.6960 2.0130 2.7060 867.57 -0.0029495 93.631 0.10026 485.00 0.0020619 422.74 506.15 1.6960 2.0130 2.7060 867.57 -0.0029495 93.631 0.10026
110.38 5938.5 undefined 424.75 509.18 1.7013 485.00 0.0020619 424.75 509.18 1.7013 2.0173 2.7077 869.31 -0.0029694 93.647 0.10038 485.00 0.0020619 424.75 509.18 1.7013 2.0173 2.7077 869.31 -0.0029694 93.647 0.10038
111.38 6009.3 undefined 426.77 512.20 1.7065 485.00 0.0020619 426.77 512.20 1.7065 2.0215 2.7094 871.06 -0.0029890 93.663 0.10051 485.00 0.0020619 426.77 512.20 1.7065 2.0215 2.7094 871.06 -0.0029890 93.663 0.10051
112.38 6080.1 undefined 428.80 515.23 1.7118 485.00 0.0020619 428.80 515.23 1.7118 2.0258 2.7111 872.79 -0.0030083 93.680 0.10063 485.00 0.0020619 428.80 515.23 1.7118 2.0258 2.7111 872.79 -0.0030083 93.680 0.10063
113.38 6150.8 undefined 430.83 518.27 1.7170 485.00 0.0020619 430.83 518.27 1.7170 2.0301 2.7128 874.52 -0.0030272 93.696 0.10075 485.00 0.0020619 430.83 518.27 1.7170 2.0301 2.7128 874.52 -0.0030272 93.696 0.10075
114.38 6221.5 undefined 432.86 521.30 1.7223 485.00 0.0020619 432.86 521.30 1.7223 2.0343 2.7146 876.24 -0.0030459 93.712 0.10087 485.00 0.0020619 432.86 521.30 1.7223 2.0343 2.7146 876.24 -0.0030459 93.712 0.10087
115.38 6292.2 undefined 434.89 524.34 1.7275 485.00 0.0020619 434.89 524.34 1.7275 2.0386 2.7164 877.95 -0.0030642 93.728 0.10100 485.00 0.0020619 434.89 524.34 1.7275 2.0386 2.7164 877.95 -0.0030642 93.728 0.10100
116.38 6362.9 undefined 436.93 527.39 1.7328 485.00 0.0020619 436.93 527.39 1.7328 2.0429 2.7182 879.66 -0.0030823 93.744 0.10112 485.00 0.0020619 436.93 527.39 1.7328 2.0429 2.7182 879.66 -0.0030823 93.744 0.10112
117.38 6433.5 undefined 438.98 530.44 1.7380 485.00 0.0020619 438.98 530.44 1.7380 2.0471 2.7201 881.36 -0.0031000 93.761 0.10124 485.00 0.0020619 438.98 530.44 1.7380 2.0471 2.7201 881.36 -0.0031000 93.761 0.10124
118.38 6504.1 undefined 441.03 533.49 1.7432 485.00 0.0020619 441.03 533.49 1.7432 2.0514 2.7220 883.05 -0.0031175 93.777 0.10137 485.00 0.0020619 441.03 533.49 1.7432 2.0514 2.7220 883.05 -0.0031175 93.777 0.10137
119.38 6574.6 undefined 443.08 536.55 1.7485 485.00 0.0020619 443.08 536.55 1.7485 2.0557 2.7238 884.74 -0.0031347 93.793 0.10149 485.00 0.0020619 443.08 536.55 1.7485 2.0557 2.7238 884.74 -0.0031347 93.793 0.10149
120.38 6645.2 undefined 445.14 539.61 1.7537 485.00 0.0020619 445.14 539.61 1.7537 2.0599 2.7258 886.42 -0.0031516 93.809 0.10161 485.00 0.0020619 445.14 539.61 1.7537 2.0599 2.7258 886.42 -0.0031516 93.809 0.10161
121.38 6715.6 undefined 447.20 542.67 1.7590 485.00 0.0020619 447.20 542.67 1.7590 2.0642 2.7277 888.10 -0.0031682 93.826 0.10174 485.00 0.0020619 447.20 542.67 1.7590 2.0642 2.7277 888.10 -0.0031682 93.826 0.10174
122.38 6786.1 undefined 449.27 545.74 1.7642 485.00 0.0020619 449.27 545.74 1.7642 2.0684 2.7297 889.77 -0.0031846 93.842 0.10186 485.00 0.0020619 449.27 545.74 1.7642 2.0684 2.7297 889.77 -0.0031846 93.842 0.10186
123.38 6856.5 undefined 451.34 548.81 1.7694 485.00 0.0020619 451.34 548.81 1.7694 2.0727 2.7316 891.43 -0.0032007 93.859 0.10199 485.00 0.0020619 451.34 548.81 1.7694 2.0727 2.7316 891.43 -0.0032007 93.859 0.10199
124.38 6926.9 undefined 453.41 551.89 1.7746 485.00 0.0020619 453.41 551.89 1.7746 2.0769 2.7336 893.09 -0.0032166 93.875 0.10211 485.00 0.0020619 453.41 551.89 1.7746 2.0769 2.7336 893.09 -0.0032166 93.875 0.10211
125.38 6997.3 undefined 455.49 554.97 1.7799 485.00 0.0020619 455.49 554.97 1.7799 2.0811 2.7357 894.74 -0.0032322 93.892 0.10224 485.00 0.0020619 455.49 554.97 1.7799 2.0811 2.7357 894.74 -0.0032322 93.892 0.10224
126.38 7067.6 undefined 457.58 558.05 1.7851 485.00 0.0020619 457.58 558.05 1.7851 2.0854 2.7377 896.38 -0.0032475 93.908 0.10237 485.00 0.0020619 457.58 558.05 1.7851 2.0854 2.7377 896.38 -0.0032475 93.908 0.10237
127.38 7137.9 undefined 459.66 561.14 1.7903 485.00 0.0020619 459.66 561.14 1.7903 2.0896 2.7398 898.02 -0.0032627 93.925 0.10249 485.00 0.0020619 459.66 561.14 1.7903 2.0896 2.7398 898.02 -0.0032627 93.925 0.10249
128.38 7208.2 undefined 461.76 564.23 1.7955 485.00 0.0020619 461.76 564.23 1.7955 2.0939 2.7419 899.65 -0.0032775 93.941 0.10262 485.00 0.0020619 461.76 564.23 1.7955 2.0939 2.7419 899.65 -0.0032775 93.941 0.10262
129.38 7278.5 undefined 463.85 567.32 1.8007 485.00 0.0020619 463.85 567.32 1.8007 2.0981 2.7440 901.28 -0.0032922 93.958 0.10275 485.00 0.0020619 463.85 567.32 1.8007 2.0981 2.7440 901.28 -0.0032922 93.958 0.10275
130.38 7348.7 undefined 465.95 570.42 1.8059 485.00 0.0020619 465.95 570.42 1.8059 2.1023 2.7461 902.90 -0.0033066 93.975 0.10287 485.00 0.0020619 465.95 570.42 1.8059 2.1023 2.7461 902.90 -0.0033066 93.975 0.10287
131.38 7418.8 undefined 468.06 573.52 1.8112 485.00 0.0020619 468.06 573.52 1.8112 2.1065 2.7482 904.52 -0.0033208 93.991 0.10300 485.00 0.0020619 468.06 573.52 1.8112 2.1065 2.7482 904.52 -0.0033208 93.991 0.10300
132.38 7489.0 undefined 470.16 576.63 1.8164 485.00 0.0020619 470.16 576.63 1.8164 2.1108 2.7504 906.13 -0.0033347 94.008 0.10313 485.00 0.0020619 470.16 576.63 1.8164 2.1108 2.7504 906.13 -0.0033347 94.008 0.10313
133.38 7559.1 undefined 472.28 579.74 1.8216 485.00 0.0020619 472.28 579.74 1.8216 2.1150 2.7525 907.73 -0.0033485 94.025 0.10326 485.00 0.0020619 472.28 579.74 1.8216 2.1150 2.7525 907.73 -0.0033485 94.025 0.10326
134.38 7629.2 undefined 474.39 582.85 1.8268 485.00 0.0020619 474.39 582.85 1.8268 2.1192 2.7547 909.33 -0.0033620 94.042 0.10339 485.00 0.0020619 474.39 582.85 1.8268 2.1192 2.7547 909.33 -0.0033620 94.042 0.10339
135.38 7699.2 undefined 476.52 585.97 1.8320 485.00 0.0020619 476.52 585.97 1.8320 2.1234 2.7569 910.93 -0.0033753 94.058 0.10351 485.00 0.0020619 476.52 585.97 1.8320 2.1234 2.7569 910.93 -0.0033753 94.058 0.10351
136.38 7769.2 undefined 478.64 589.09 1.8372 485.00 0.0020619 478.64 589.09 1.8372 2.1276 2.7591 912.52 -0.0033884 94.075 0.10364 485.00 0.0020619 478.64 589.09 1.8372 2.1276 2.7591 912.52 -0.0033884 94.075 0.10364
137.38 7839.2 undefined 480.77 592.21 1.8424 485.00 0.0020619 480.77 592.21 1.8424 2.1318 2.7614 914.10 -0.0034013 94.092 0.10377 485.00 0.0020619 480.77 592.21 1.8424 2.1318 2.7614 914.10 -0.0034013 94.092 0.10377
138.38 7909.2 undefined 482.91 595.34 1.8475 485.00 0.0020619 482.91 595.34 1.8475 2.1360 2.7636 915.68 -0.0034140 94.109 0.10390 485.00 0.0020619 482.91 595.34 1.8475 2.1360 2.7636 915.68 -0.0034140 94.109 0.10390
139.38 7979.1 undefined 485.04 598.47 1.8527 485.00 0.0020619 485.04 598.47 1.8527 2.1402 2.7659 917.25 -0.0034265 94.126 0.10403 485.00 0.0020619 485.04 598.47 1.8527 2.1402 2.7659 917.25 -0.0034265 94.126 0.10403
140.38 8049.0 undefined 487.19 601.61 1.8579 485.00 0.0020619 487.19 601.61 1.8579 2.1444 2.7682 918.82 -0.0034387 94.143 0.10416 485.00 0.0020619 487.19 601.61 1.8579 2.1444 2.7682 918.82 -0.0034387 94.143 0.10416
141.38 8118.8 undefined 489.33 604.75 1.8631 485.00 0.0020619 489.33 604.75 1.8631 2.1486 2.7705 920.38 -0.0034508 94.160 0.10429 485.00 0.0020619 489.33 604.75 1.8631 2.1486 2.7705 920.38 -0.0034508 94.160 0.10429
142.38 8188.6 undefined 491.48 607.89 1.8683 485.00 0.0020619 491.48 607.89 1.8683 2.1528 2.7728 921.94 -0.0034628 94.177 0.10442 485.00 0.0020619 491.48 607.89 1.8683 2.1528 2.7728 921.94 -0.0034628 94.177 0.10442
143.38 8258.4 undefined 493.64 611.04 1.8735 485.00 0.0020619 493.64 611.04 1.8735 2.1570 2.7751 923.49 -0.0034745 94.194 0.10456 485.00 0.0020619 493.64 611.04 1.8735 2.1570 2.7751 923.49 -0.0034745 94.194 0.10456
144.38 8328.1 undefined 495.80 614.19 1.8786 485.00 0.0020619 495.80 614.19 1.8786 2.1612 2.7774 925.04 -0.0034860 94.211 0.10469 485.00 0.0020619 495.80 614.19 1.8786 2.1612 2.7774 925.04 -0.0034860 94.211 0.10469
145.38 8397.9 undefined 497.96 617.34 1.8838 485.00 0.0020619 497.96 617.34 1.8838 2.1654 2.7798 926.58 -0.0034974 94.228 0.10482 485.00 0.0020619 497.96 617.34 1.8838 2.1654 2.7798 926.58 -0.0034974 94.228 0.10482
146.38 8467.5 undefined 500.13 620.50 1.8890 485.00 0.0020619 500.13 620.50 1.8890 2.1695 2.7821 928.12 -0.0035086 94.245 0.10496 485.00 0.0020619 500.13 620.50 1.8890 2.1695 2.7821 928.12 -0.0035086 94.245 0.10496
147.38 8537.2 undefined 502.30 623.66 1.8942 485.00 0.0020619 502.30 623.66 1.8942 2.1737 2.7845 929.65 -0.0035196 94.262 0.10509 485.00 0.0020619 502.30 623.66 1.8942 2.1737 2.7845 929.65 -0.0035196 94.262 0.10509
148.38 8606.8 undefined 504.48 626.83 1.8993 485.00 0.0020619 504.48 626.83 1.8993 2.1779 2.7869 931.18 -0.0035304 94.279 0.10523 485.00 0.0020619 504.48 626.83 1.8993 2.1779 2.7869 931.18 -0.0035304 94.279 0.10523
149.38 8676.4 undefined 506.66 630.00 1.9045 485.00 0.0020619 506.66 630.00 1.9045 2.1820 2.7893 932.70 -0.0035411 94.296 0.10536 485.00 0.0020619 506.66 630.00 1.9045 2.1820 2.7893 932.70 -0.0035411 94.296 0.10536
150.38 8745.9 undefined 508.84 633.17 1.9097 485.00 0.0020619 508.84 633.17 1.9097 2.1862 2.7917 934.22 -0.0035516 94.313 0.10549 485.00 0.0020619 508.84 633.17 1.9097 2.1862 2.7917 934.22 -0.0035516 94.313 0.10549
151.38 8815.5 undefined 511.03 636.35 1.9148 485.00 0.0020619 511.03 636.35 1.9148 2.1904 2.7941 935.73 -0.0035619 94.330 0.10563 485.00 0.0020619 511.03 636.35 1.9148 2.1904 2.7941 935.73 -0.0035619 94.330 0.10563
152.38 8884.9 undefined 513.22 639.53 1.9200 485.00 0.0020619 513.22 639.53 1.9200 2.1945 2.7965 937.24 -0.0035721 94.348 0.10577 485.00 0.0020619 513.22 639.53 1.9200 2.1945 2.7965 937.24 -0.0035721 94.348 0.10577
153.38 8954.4 undefined 515.42 642.71 1.9251 485.00 0.0020619 515.42 642.71 1.9251 2.1987 2.7990 938.75 -0.0035821 94.365 0.10590 485.00 0.0020619 515.42 642.71 1.9251 2.1987 2.7990 938.75 -0.0035821 94.365 0.10590
154.38 9023.8 undefined 517.62 645.90 1.9303 485.00 0.0020619 517.62 645.90 1.9303 2.2028 2.8014 940.25 -0.0035920 94.382 0.10604 485.00 0.0020619 517.62 645.90 1.9303 2.2028 2.8014 940.25 -0.0035920 94.382 0.10604
155.38 9093.2 undefined 519.82 649.09 1.9354 485.00 0.0020619 519.82 649.09 1.9354 2.2069 2.8039 941.74 -0.0036017 94.399 0.10617 485.00 0.0020619 519.82 649.09 1.9354 2.2069 2.8039 941.74 -0.0036017 94.399 0.10617
156.38 9162.5 undefined 522.03 652.29 1.9406 485.00 0.0020619 522.03 652.29 1.9406 2.2111 2.8064 943.23 -0.0036113 94.417 0.10631 485.00 0.0020619 522.03 652.29 1.9406 2.2111 2.8064 943.23 -0.0036113 94.417 0.10631
157.38 9231.9 undefined 524.24 655.48 1.9457 485.00 0.0020619 524.24 655.48 1.9457 2.2152 2.8088 944.72 -0.0036207 94.434 0.10645 485.00 0.0020619 524.24 655.48 1.9457 2.2152 2.8088 944.72 -0.0036207 94.434 0.10645
158.38 9301.1 undefined 526.46 658.69 1.9509 485.00 0.0020619 526.46 658.69 1.9509 2.2193 2.8113 946.20 -0.0036299 94.451 0.10658 485.00 0.0020619 526.46 658.69 1.9509 2.2193 2.8113 946.20 -0.0036299 94.451 0.10658
159.38 9370.4 undefined 528.68 661.89 1.9560 485.00 0.0020619 528.68 661.89 1.9560 2.2235 2.8138 947.68 -0.0036390 94.468 0.10672 485.00 0.0020619 528.68 661.89 1.9560 2.2235 2.8138 947.68 -0.0036390 94.468 0.10672
160.38 9439.6 undefined 530.91 665.10 1.9612 485.00 0.0020619 530.91 665.10 1.9612 2.2276 2.8163 949.15 -0.0036480 94.486 0.10686 485.00 0.0020619 530.91 665.10 1.9612 2.2276 2.8163 949.15 -0.0036480 94.486 0.10686
161.38 9508.8 undefined 533.14 668.32 1.9663 485.00 0.0020619 533.14 668.32 1.9663 2.2317 2.8189 950.62 -0.0036569 94.503 0.10700 485.00 0.0020619 533.14 668.32 1.9663 2.2317 2.8189 950.62 -0.0036569 94.503 0.10700
162.38 9577.9 undefined 535.37 671.53 1.9714 485.00 0.0020619 535.37 671.53 1.9714 2.2358 2.8214 952.08 -0.0036656 94.521 0.10714 485.00 0.0020619 535.37 671.53 1.9714 2.2358 2.8214 952.08 -0.0036656 94.521 0.10714
163.38 9647.0 undefined 537.61 674.75 1.9766 485.00 0.0020619 537.61 674.75 1.9766 2.2399 2.8239 953.55 -0.0036741 94.538 0.10727 485.00 0.0020619 537.61 674.75 1.9766 2.2399 2.8239 953.55 -0.0036741 94.538 0.10727
164.38 9716.1 undefined 539.85 677.98 1.9817 485.00 0.0020619 539.85 677.98 1.9817 2.2440 2.8265 955.00 -0.0036825 94.555 0.10741 485.00 0.0020619 539.85 677.98 1.9817 2.2440 2.8265 955.00 -0.0036825 94.555 0.10741
165.38 9785.2 undefined 542.10 681.20 1.9868 485.00 0.0020619 542.10 681.20 1.9868 2.2481 2.8290 956.45 -0.0036908 94.573 0.10755 485.00 0.0020619 542.10 681.20 1.9868 2.2481 2.8290 956.45 -0.0036908 94.573 0.10755
166.38 9854.2 undefined 544.35 684.44 1.9919 485.00 0.0020619 544.35 684.44 1.9919 2.2522 2.8316 957.90 -0.0036990 94.590 0.10769 485.00 0.0020619 544.35 684.44 1.9919 2.2522 2.8316 957.90 -0.0036990 94.590 0.10769
167.38 9923.2 undefined 546.60 687.67 1.9971 485.00 0.0020619 546.60 687.67 1.9971 2.2563 2.8341 959.35 -0.0037071 94.608 0.10783 485.00 0.0020619 546.60 687.67 1.9971 2.2563 2.8341 959.35 -0.0037071 94.608 0.10783
168.38 9992.1 undefined 548.86 690.91 2.0022 485.00 0.0020619 548.86 690.91 2.0022 2.2604 2.8367 960.79 -0.0037150 94.625 0.10797 485.00 0.0020619 548.86 690.91 2.0022 2.2604 2.8367 960.79 -0.0037150 94.625 0.10797
169.38 10061. undefined 551.12 694.15 2.0073 485.00 0.0020619 551.12 694.15 2.0073 2.2645 2.8393 962.22 -0.0037228 94.643 0.10811 485.00 0.0020619 551.12 694.15 2.0073 2.2645 2.8393 962.22 -0.0037228 94.643 0.10811
170.38 10130. undefined 553.39 697.40 2.0124 485.00 0.0020619 553.39 697.40 2.0124 2.2686 2.8419 963.65 -0.0037304 94.660 0.10825 485.00 0.0020619 553.39 697.40 2.0124 2.2686 2.8419 963.65 -0.0037304 94.660 0.10825
171.38 10199. undefined 555.66 700.65 2.0175 485.00 0.0020619 555.66 700.65 2.0175 2.2726 2.8445 965.08 -0.0037380 94.678 0.10839 485.00 0.0020619 555.66 700.65 2.0175 2.2726 2.8445 965.08 -0.0037380 94.678 0.10839
172.38 10268. undefined 557.93 703.90 2.0227 485.00 0.0020619 557.93 703.90 2.0227 2.2767 2.8471 966.51 -0.0037454 94.696 0.10853 485.00 0.0020619 557.93 703.90 2.0227 2.2767 2.8471 966.51 -0.0037454 94.696 0.10853
173.38 10336. undefined 560.21 707.15 2.0278 485.00 0.0020619 560.21 707.15 2.0278 2.2808 2.8497 967.93 -0.0037527 94.713 0.10868 485.00 0.0020619 560.21 707.15 2.0278 2.2808 2.8497 967.93 -0.0037527 94.713 0.10868
174.38 10405. undefined 562.50 710.41 2.0329 485.00 0.0020619 562.50 710.41 2.0329 2.2848 2.8523 969.34 -0.0037599 94.731 0.10882 485.00 0.0020619 562.50 710.41 2.0329 2.2848 2.8523 969.34 -0.0037599 94.731 0.10882
175.38 10474. undefined 564.78 713.68 2.0380 485.00 0.0020619 564.78 713.68 2.0380 2.2889 2.8550 970.75 -0.0037670 94.748 0.10896 485.00 0.0020619 564.78 713.68 2.0380 2.2889 2.8550 970.75 -0.0037670 94.748 0.10896
176.38 10542. undefined 567.07 716.95 2.0431 485.00 0.0020619 567.07 716.95 2.0431 2.2929 2.8576 972.16 -0.0037740 94.766 0.10910 485.00 0.0020619 567.07 716.95 2.0431 2.2929 2.8576 972.16 -0.0037740 94.766 0.10910
177.38 10611. undefined 569.37 720.22 2.0482 485.00 0.0020619 569.37 720.22 2.0482 2.2970 2.8602 973.57 -0.0037809 94.784 0.10925 485.00 0.0020619 569.37 720.22 2.0482 2.2970 2.8602 973.57 -0.0037809 94.784 0.10925
178.38 10680. undefined 571.67 723.49 2.0533 485.00 0.0020619 571.67 723.49 2.0533 2.3010 2.8629 974.97 -0.0037876 94.801 0.10939 485.00 0.0020619 571.67 723.49 2.0533 2.3010 2.8629 974.97 -0.0037876 94.801 0.10939
179.38 10748. undefined 573.97 726.77 2.0584 485.00 0.0020619 573.97 726.77 2.0584 2.3051 2.8655 976.36 -0.0037943 94.819 0.10953 485.00 0.0020619 573.97 726.77 2.0584 2.3051 2.8655 976.36 -0.0037943 94.819 0.10953
180.38 10817. undefined 576.28 730.05 2.0635 485.00 0.0020619 576.28 730.05 2.0635 2.3091 2.8682 977.76 -0.0038008 94.837 0.10967 485.00 0.0020619 576.28 730.05 2.0635 2.3091 2.8682 977.76 -0.0038008 94.837 0.10967
181.38 10885. undefined 578.59 733.33 2.0685 485.00 0.0020619 578.59 733.33 2.0685 2.3131 2.8709 979.15 -0.0038073 94.854 0.10982 485.00 0.0020619 578.59 733.33 2.0685 2.3131 2.8709 979.15 -0.0038073 94.854 0.10982
182.38 10954. undefined 580.90 736.62 2.0736 485.00 0.0020619 580.90 736.62 2.0736 2.3172 2.8735 980.53 -0.0038136 94.872 0.10996 485.00 0.0020619 580.90 736.62 2.0736 2.3172 2.8735 980.53 -0.0038136 94.872 0.10996
183.38 11022. undefined 583.22 739.92 2.0787 485.00 0.0020619 583.22 739.92 2.0787 2.3212 2.8762 981.92 -0.0038198 94.890 0.11011 485.00 0.0020619 583.22 739.92 2.0787 2.3212 2.8762 981.92 -0.0038198 94.890 0.11011
184.38 11091. undefined 585.55 743.21 2.0838 485.00 0.0020619 585.55 743.21 2.0838 2.3252 2.8789 983.30 -0.0038260 94.908 0.11025 485.00 0.0020619 585.55 743.21 2.0838 2.3252 2.8789 983.30 -0.0038260 94.908 0.11025
185.38 11159. undefined 587.87 746.51 2.0889 485.00 0.0020619 587.87 746.51 2.0889 2.3292 2.8816 984.67 -0.0038320 94.925 0.11040 485.00 0.0020619 587.87 746.51 2.0889 2.3292 2.8816 984.67 -0.0038320 94.925 0.11040
186.38 11227. undefined 590.21 749.81 2.0940 485.00 0.0020619 590.21 749.81 2.0940 2.3332 2.8842 986.04 -0.0038380 94.943 0.11054 485.00 0.0020619 590.21 749.81 2.0940 2.3332 2.8842 986.04 -0.0038380 94.943 0.11054
187.38 11296. undefined 592.54 753.12 2.0990 485.00 0.0020619 592.54 753.12 2.0990 2.3372 2.8869 987.41 -0.0038438 94.961 0.11069 485.00 0.0020619 592.54 753.12 2.0990 2.3372 2.8869 987.41 -0.0038438 94.961 0.11069
188.38 11364. undefined 594.88 756.43 2.1041 485.00 0.0020619 594.88 756.43 2.1041 2.3412 2.8896 988.77 -0.0038496 94.979 0.11083 485.00 0.0020619 594.88 756.43 2.1041 2.3412 2.8896 988.77 -0.0038496 94.979 0.11083
189.38 11432. undefined 597.22 759.74 2.1092 485.00 0.0020619 597.22 759.74 2.1092 2.3452 2.8923 990.14 -0.0038553 94.997 0.11098 485.00 0.0020619 597.22 759.74 2.1092 2.3452 2.8923 990.14 -0.0038553 94.997 0.11098
190.38 11500. undefined 599.57 763.06 2.1143 485.00 0.0020619 599.57 763.06 2.1143 2.3492 2.8950 991.49 -0.0038609 95.014 0.11113 485.00 0.0020619 599.57 763.06 2.1143 2.3492 2.8950 991.49 -0.0038609 95.014 0.11113
191.38 11568. undefined 601.92 766.38 2.1193 485.00 0.0020619 601.92 766.38 2.1193 2.3532 2.8978 992.85 -0.0038663 95.032 0.11127 485.00 0.0020619 601.92 766.38 2.1193 2.3532 2.8978 992.85 -0.0038663 95.032 0.11127
192.38 11637. undefined 604.28 769.70 2.1244 485.00 0.0020619 604.28 769.70 2.1244 2.3571 2.9005 994.20 -0.0038718 95.050 0.11142 485.00 0.0020619 604.28 769.70 2.1244 2.3571 2.9005 994.20 -0.0038718 95.050 0.11142
193.38 11705. undefined 606.64 773.03 2.1294 485.00 0.0020619 606.64 773.03 2.1294 2.3611 2.9032 995.55 -0.0038771 95.068 0.11157 485.00 0.0020619 606.64 773.03 2.1294 2.3611 2.9032 995.55 -0.0038771 95.068 0.11157
194.38 11773. undefined 609.00 776.36 2.1345 485.00 0.0020619 609.00 776.36 2.1345 2.3651 2.9059 996.89 -0.0038823 95.086 0.11172 485.00 0.0020619 609.00 776.36 2.1345 2.3651 2.9059 996.89 -0.0038823 95.086 0.11172
195.38 11841. undefined 611.37 779.69 2.1396 485.00 0.0020619 611.37 779.69 2.1396 2.3690 2.9086 998.23 -0.0038874 95.104 0.11186 485.00 0.0020619 611.37 779.69 2.1396 2.3690 2.9086 998.23 -0.0038874 95.104 0.11186
196.38 11909. undefined 613.74 783.03 2.1446 485.00 0.0020619 613.74 783.03 2.1446 2.3730 2.9114 999.57 -0.0038925 95.122 0.11201 485.00 0.0020619 613.74 783.03 2.1446 2.3730 2.9114 999.57 -0.0038925 95.122 0.11201
197.38 11977. undefined 616.11 786.37 2.1497 485.00 0.0020619 616.11 786.37 2.1497 2.3770 2.9141 1000.9 -0.0038975 95.140 0.11216 485.00 0.0020619 616.11 786.37 2.1497 2.3770 2.9141 1000.9 -0.0038975 95.140 0.11216
198.38 12045. undefined 618.49 789.72 2.1547 485.00 0.0020619 618.49 789.72 2.1547 2.3809 2.9168 1002.2 -0.0039024 95.158 0.11231 485.00 0.0020619 618.49 789.72 2.1547 2.3809 2.9168 1002.2 -0.0039024 95.158 0.11231
199.38 12112. undefined 620.87 793.06 2.1598 485.00 0.0020619 620.87 793.06 2.1598 2.3849 2.9196 1003.6 -0.0039072 95.176 0.11246 485.00 0.0020619 620.87 793.06 2.1598 2.3849 2.9196 1003.6 -0.0039072 95.176 0.11246
200.38 12180. undefined 623.26 796.42 2.1648 485.00 0.0020619 623.26 796.42 2.1648 2.3888 2.9223 1004.9 -0.0039120 95.193 0.11261 485.00 0.0020619 623.26 796.42 2.1648 2.3888 2.9223 1004.9 -0.0039120 95.193 0.11261
201.38 12248. undefined 625.65 799.77 2.1699 485.00 0.0020619 625.65 799.77 2.1699 2.3927 2.9251 1006.2 -0.0039166 95.211 0.11276 485.00 0.0020619 625.65 799.77 2.1699 2.3927 2.9251 1006.2 -0.0039166 95.211 0.11276
202.38 12316. undefined 628.05 803.13 2.1749 485.00 0.0020619 628.05 803.13 2.1749 2.3967 2.9278 1007.5 -0.0039212 95.229 0.11291 485.00 0.0020619 628.05 803.13 2.1749 2.3967 2.9278 1007.5 -0.0039212 95.229 0.11291
203.38 12384. undefined 630.44 806.49 2.1799 485.00 0.0020619 630.44 806.49 2.1799 2.4006 2.9306 1008.8 -0.0039257 95.247 0.11306 485.00 0.0020619 630.44 806.49 2.1799 2.4006 2.9306 1008.8 -0.0039257 95.247 0.11306
204.38 12451. undefined 632.85 809.86 2.1850 485.00 0.0020619 632.85 809.86 2.1850 2.4045 2.9333 1010.2 -0.0039302 95.265 0.11321 485.00 0.0020619 632.85 809.86 2.1850 2.4045 2.9333 1010.2 -0.0039302 95.265 0.11321
205.38 12519. undefined 635.25 813.23 2.1900 485.00 0.0020619 635.25 813.23 2.1900 2.4084 2.9361 1011.5 -0.0039345 95.283 0.11336 485.00 0.0020619 635.25 813.23 2.1900 2.4084 2.9361 1011.5 -0.0039345 95.283 0.11336
206.38 12587. undefined 637.66 816.60 2.1950 485.00 0.0020619 637.66 816.60 2.1950 2.4123 2.9389 1012.8 -0.0039388 95.301 0.11351 485.00 0.0020619 637.66 816.60 2.1950 2.4123 2.9389 1012.8 -0.0039388 95.301 0.11351
207.38 12654. undefined 640.08 819.97 2.2001 485.00 0.0020619 640.08 819.97 2.2001 2.4162 2.9416 1014.1 -0.0039431 95.319 0.11366 485.00 0.0020619 640.08 819.97 2.2001 2.4162 2.9416 1014.1 -0.0039431 95.319 0.11366
208.38 12722. undefined 642.50 823.35 2.2051 485.00 0.0020619 642.50 823.35 2.2051 2.4201 2.9444 1015.4 -0.0039472 95.337 0.11381 485.00 0.0020619 642.50 823.35 2.2051 2.4201 2.9444 1015.4 -0.0039472 95.337 0.11381
209.38 12790. undefined 644.92 826.73 2.2101 485.00 0.0020619 644.92 826.73 2.2101 2.4240 2.9472 1016.7 -0.0039513 95.355 0.11397 485.00 0.0020619 644.92 826.73 2.2101 2.4240 2.9472 1016.7 -0.0039513 95.355 0.11397
210.38 12857. undefined 647.34 830.12 2.2151 485.00 0.0020619 647.34 830.12 2.2151 2.4279 2.9499 1018.0 -0.0039553 95.373 0.11412 485.00 0.0020619 647.34 830.12 2.2151 2.4279 2.9499 1018.0 -0.0039553 95.373 0.11412
211.38 12925. undefined 649.77 833.51 2.2202 485.00 0.0020619 649.77 833.51 2.2202 2.4318 2.9527 1019.3 -0.0039593 95.392 0.11427 485.00 0.0020619 649.77 833.51 2.2202 2.4318 2.9527 1019.3 -0.0039593 95.392 0.11427
212.38 12992. undefined 652.21 836.90 2.2252 485.00 0.0020619 652.21 836.90 2.2252 2.4357 2.9555 1020.5 -0.0039631 95.410 0.11442 485.00 0.0020619 652.21 836.90 2.2252 2.4357 2.9555 1020.5 -0.0039631 95.410 0.11442
213.38 13059. undefined 654.65 840.30 2.2302 485.00 0.0020619 654.65 840.30 2.2302 2.4396 2.9583 1021.8 -0.0039670 95.428 0.11458 485.00 0.0020619 654.65 840.30 2.2302 2.4396 2.9583 1021.8 -0.0039670 95.428 0.11458
214.38 13127. undefined 657.09 843.70 2.2352 485.00 0.0020619 657.09 843.70 2.2352 2.4434 2.9611 1023.1 -0.0039707 95.446 0.11473 485.00 0.0020619 657.09 843.70 2.2352 2.4434 2.9611 1023.1 -0.0039707 95.446 0.11473
215.38 13194. undefined 659.53 847.10 2.2402 485.00 0.0020619 659.53 847.10 2.2402 2.4473 2.9638 1024.4 -0.0039744 95.464 0.11489 485.00 0.0020619 659.53 847.10 2.2402 2.4473 2.9638 1024.4 -0.0039744 95.464 0.11489
216.38 13261. undefined 661.98 850.51 2.2452 485.00 0.0020619 661.98 850.51 2.2452 2.4512 2.9666 1025.7 -0.0039780 95.482 0.11504 485.00 0.0020619 661.98 850.51 2.2452 2.4512 2.9666 1025.7 -0.0039780 95.482 0.11504
217.38 13329. undefined 664.43 853.92 2.2502 485.00 0.0020619 664.43 853.92 2.2502 2.4550 2.9694 1026.9 -0.0039816 95.500 0.11519 485.00 0.0020619 664.43 853.92 2.2502 2.4550 2.9694 1026.9 -0.0039816 95.500 0.11519
218.38 13396. undefined 666.89 857.33 2.2552 485.00 0.0020619 666.89 857.33 2.2552 2.4589 2.9722 1028.2 -0.0039851 95.518 0.11535 485.00 0.0020619 666.89 857.33 2.2552 2.4589 2.9722 1028.2 -0.0039851 95.518 0.11535
219.38 13463. undefined 669.35 860.74 2.2602 485.00 0.0020619 669.35 860.74 2.2602 2.4627 2.9750 1029.5 -0.0039885 95.536 0.11550 485.00 0.0020619 669.35 860.74 2.2602 2.4627 2.9750 1029.5 -0.0039885 95.536 0.11550
220.38 13530. undefined 671.82 864.16 2.2652 485.00 0.0020619 671.82 864.16 2.2652 2.4666 2.9778 1030.7 -0.0039919 95.554 0.11566 485.00 0.0020619 671.82 864.16 2.2652 2.4666 2.9778 1030.7 -0.0039919 95.554 0.11566
221.38 13597. undefined 674.29 867.59 2.2702 485.00 0.0020619 674.29 867.59 2.2702 2.4704 2.9806 1032.0 -0.0039953 95.573 0.11581 485.00 0.0020619 674.29 867.59 2.2702 2.4704 2.9806 1032.0 -0.0039953 95.573 0.11581
222.38 13665. undefined 676.76 871.01 2.2752 485.00 0.0020619 676.76 871.01 2.2752 2.4742 2.9834 1033.3 -0.0039985 95.591 0.11597 485.00 0.0020619 676.76 871.01 2.2752 2.4742 2.9834 1033.3 -0.0039985 95.591 0.11597
223.38 13732. undefined 679.23 874.44 2.2802 485.00 0.0020619 679.23 874.44 2.2802 2.4781 2.9862 1034.5 -0.0040017 95.609 0.11613 485.00 0.0020619 679.23 874.44 2.2802 2.4781 2.9862 1034.5 -0.0040017 95.609 0.11613
224.38 13799. undefined 681.71 877.88 2.2852 485.00 0.0020619 681.71 877.88 2.2852 2.4819 2.9890 1035.8 -0.0040049 95.627 0.11628 485.00 0.0020619 681.71 877.88 2.2852 2.4819 2.9890 1035.8 -0.0040049 95.627 0.11628
225.38 13866. undefined 684.20 881.31 2.2902 485.00 0.0020619 684.20 881.31 2.2902 2.4857 2.9918 1037.0 -0.0040080 95.645 0.11644 485.00 0.0020619 684.20 881.31 2.2902 2.4857 2.9918 1037.0 -0.0040080 95.645 0.11644
226.38 13933. undefined 686.69 884.75 2.2952 485.00 0.0020619 686.69 884.75 2.2952 2.4895 2.9946 1038.3 -0.0040110 95.663 0.11660 485.00 0.0020619 686.69 884.75 2.2952 2.4895 2.9946 1038.3 -0.0040110 95.663 0.11660
227.38 14000. undefined 689.18 888.20 2.3002 485.00 0.0020619 689.18 888.20 2.3002 2.4933 2.9974 1039.5 -0.0040140 95.681 0.11675 485.00 0.0020619 689.18 888.20 2.3002 2.4933 2.9974 1039.5 -0.0040140 95.681 0.11675
228.38 14067. undefined 691.67 891.64 2.3052 485.00 0.0020619 691.67 891.64 2.3052 2.4971 3.0002 1040.7 -0.0040170 95.700 0.11691 485.00 0.0020619 691.67 891.64 2.3052 2.4971 3.0002 1040.7 -0.0040170 95.700 0.11691
229.38 14133. undefined 694.17 895.09 2.3101 485.00 0.0020619 694.17 895.09 2.3101 2.5009 3.0030 1042.0 -0.0040198 95.718 0.11707 485.00 0.0020619 694.17 895.09 2.3101 2.5009 3.0030 1042.0 -0.0040198 95.718 0.11707
230.38 14200. undefined 696.67 898.55 2.3151 485.00 0.0020619 696.67 898.55 2.3151 2.5047 3.0058 1043.2 -0.0040227 95.736 0.11723 485.00 0.0020619 696.67 898.55 2.3151 2.5047 3.0058 1043.2 -0.0040227 95.736 0.11723
231.38 14267. undefined 699.18 902.00 2.3201 485.00 0.0020619 699.18 902.00 2.3201 2.5085 3.0086 1044.5 -0.0040255 95.754 0.11739 485.00 0.0020619 699.18 902.00 2.3201 2.5085 3.0086 1044.5 -0.0040255 95.754 0.11739
232.38 14334. undefined 701.69 905.46 2.3250 485.00 0.0020619 701.69 905.46 2.3250 2.5123 3.0114 1045.7 -0.0040282 95.772 0.11754 485.00 0.0020619 701.69 905.46 2.3250 2.5123 3.0114 1045.7 -0.0040282 95.772 0.11754
233.38 14401. undefined 704.21 908.92 2.3300 485.00 0.0020619 704.21 908.92 2.3300 2.5160 3.0142 1046.9 -0.0040309 95.791 0.11770 485.00 0.0020619 704.21 908.92 2.3300 2.5160 3.0142 1046.9 -0.0040309 95.791 0.11770
234.38 14467. undefined 706.72 912.39 2.3350 485.00 0.0020619 706.72 912.39 2.3350 2.5198 3.0170 1048.1 -0.0040335 95.809 0.11786 485.00 0.0020619 706.72 912.39 2.3350 2.5198 3.0170 1048.1 -0.0040335 95.809 0.11786
235.38 14534. undefined 709.24 915.86 2.3399 485.00 0.0020619 709.24 915.86 2.3399 2.5236 3.0199 1049.4 -0.0040361 95.827 0.11802 485.00 0.0020619 709.24 915.86 2.3399 2.5236 3.0199 1049.4 -0.0040361 95.827 0.11802
236.38 14601. undefined 711.77 919.33 2.3449 485.00 0.0020619 711.77 919.33 2.3449 2.5273 3.0227 1050.6 -0.0040386 95.845 0.11818 485.00 0.0020619 711.77 919.33 2.3449 2.5273 3.0227 1050.6 -0.0040386 95.845 0.11818
237.38 14667. undefined 714.30 922.81 2.3499 485.00 0.0020619 714.30 922.81 2.3499 2.5311 3.0255 1051.8 -0.0040411 95.863 0.11834 485.00 0.0020619 714.30 922.81 2.3499 2.5311 3.0255 1051.8 -0.0040411 95.863 0.11834
238.38 14734. undefined 716.83 926.29 2.3548 485.00 0.0020619 716.83 926.29 2.3548 2.5349 3.0283 1053.0 -0.0040435 95.882 0.11850 485.00 0.0020619 716.83 926.29 2.3548 2.5349 3.0283 1053.0 -0.0040435 95.882 0.11850
239.38 14800. undefined 719.37 929.77 2.3598 485.00 0.0020619 719.37 929.77 2.3598 2.5386 3.0311 1054.2 -0.0040459 95.900 0.11866 485.00 0.0020619 719.37 929.77 2.3598 2.5386 3.0311 1054.2 -0.0040459 95.900 0.11866
240.38 14867. undefined 721.91 933.26 2.3647 485.00 0.0020619 721.91 933.26 2.3647 2.5423 3.0339 1055.4 -0.0040483 95.918 0.11883 485.00 0.0020619 721.91 933.26 2.3647 2.5423 3.0339 1055.4 -0.0040483 95.918 0.11883
241.38 14933. undefined 724.45 936.75 2.3697 485.00 0.0020619 724.45 936.75 2.3697 2.5461 3.0367 1056.7 -0.0040506 95.936 0.11899 485.00 0.0020619 724.45 936.75 2.3697 2.5461 3.0367 1056.7 -0.0040506 95.936 0.11899
242.38 15000. undefined 727.00 940.24 2.3746 485.00 0.0020619 727.00 940.24 2.3746 2.5498 3.0395 1057.9 -0.0040529 95.955 0.11915 485.00 0.0020619 727.00 940.24 2.3746 2.5498 3.0395 1057.9 -0.0040529 95.955 0.11915
243.38 15066. undefined 729.55 943.73 2.3796 485.00 0.0020619 729.55 943.73 2.3796 2.5535 3.0424 1059.1 -0.0040551 95.973 0.11931 485.00 0.0020619 729.55 943.73 2.3796 2.5535 3.0424 1059.1 -0.0040551 95.973 0.11931
244.38 15133. undefined 732.11 947.23 2.3845 485.00 0.0020619 732.11 947.23 2.3845 2.5573 3.0452 1060.3 -0.0040572 95.991 0.11947 485.00 0.0020619 732.11 947.23 2.3845 2.5573 3.0452 1060.3 -0.0040572 95.991 0.11947
245.38 15199. undefined 734.67 950.74 2.3895 485.00 0.0020619 734.67 950.74 2.3895 2.5610 3.0480 1061.5 -0.0040594 96.009 0.11964 485.00 0.0020619 734.67 950.74 2.3895 2.5610 3.0480 1061.5 -0.0040594 96.009 0.11964
246.38 15265. undefined 737.23 954.24 2.3944 485.00 0.0020619 737.23 954.24 2.3944 2.5647 3.0508 1062.7 -0.0040615 96.028 0.11980 485.00 0.0020619 737.23 954.24 2.3944 2.5647 3.0508 1062.7 -0.0040615 96.028 0.11980
247.38 15332. undefined 739.80 957.75 2.3993 485.00 0.0020619 739.80 957.75 2.3993 2.5684 3.0536 1063.9 -0.0040635 96.046 0.11996 485.00 0.0020619 739.80 957.75 2.3993 2.5684 3.0536 1063.9 -0.0040635 96.046 0.11996
248.38 15398. undefined 742.37 961.26 2.4043 485.00 0.0020619 742.37 961.26 2.4043 2.5721 3.0564 1065.0 -0.0040655 96.064 0.12013 485.00 0.0020619 742.37 961.26 2.4043 2.5721 3.0564 1065.0 -0.0040655 96.064 0.12013
249.38 15464. undefined 744.94 964.78 2.4092 485.00 0.0020619 744.94 964.78 2.4092 2.5758 3.0592 1066.2 -0.0040675 96.082 0.12029 485.00 0.0020619 744.94 964.78 2.4092 2.5758 3.0592 1066.2 -0.0040675 96.082 0.12029
250.38 15530. undefined 747.52 968.30 2.4141 485.00 0.0020619 747.52 968.30 2.4141 2.5795 3.0621 1067.4 -0.0040694 96.101 0.12045 485.00 0.0020619 747.52 968.30 2.4141 2.5795 3.0621 1067.4 -0.0040694 96.101 0.12045
251.38 15596. undefined 750.10 971.82 2.4190 485.00 0.0020619 750.10 971.82 2.4190 2.5832 3.0649 1068.6 -0.0040713 96.119 0.12062 485.00 0.0020619 750.10 971.82 2.4190 2.5832 3.0649 1068.6 -0.0040713 96.119 0.12062
252.38 15662. undefined 752.69 975.34 2.4240 485.00 0.0020619 752.69 975.34 2.4240 2.5869 3.0677 1069.8 -0.0040731 96.137 0.12078 485.00 0.0020619 752.69 975.34 2.4240 2.5869 3.0677 1069.8 -0.0040731 96.137 0.12078
253.38 15729. undefined 755.27 978.87 2.4289 485.00 0.0020619 755.27 978.87 2.4289 2.5905 3.0705 1071.0 -0.0040750 96.155 0.12095 485.00 0.0020619 755.27 978.87 2.4289 2.5905 3.0705 1071.0 -0.0040750 96.155 0.12095
254.38 15795. undefined 757.87 982.40 2.4338 485.00 0.0020619 757.87 982.40 2.4338 2.5942 3.0733 1072.1 -0.0040767 96.174 0.12111 485.00 0.0020619 757.87 982.40 2.4338 2.5942 3.0733 1072.1 -0.0040767 96.174 0.12111
255.38 15861. undefined 760.46 985.94 2.4387 485.00 0.0020619 760.46 985.94 2.4387 2.5979 3.0761 1073.3 -0.0040785 96.192 0.12128 485.00 0.0020619 760.46 985.94 2.4387 2.5979 3.0761 1073.3 -0.0040785 96.192 0.12128
256.38 15927. undefined 763.06 989.47 2.4436 485.00 0.0020619 763.06 989.47 2.4436 2.6015 3.0789 1074.5 -0.0040802 96.210 0.12144 485.00 0.0020619 763.06 989.47 2.4436 2.6015 3.0789 1074.5 -0.0040802 96.210 0.12144
257.38 15993. undefined 765.67 993.02 2.4486 485.00 0.0020619 765.67 993.02 2.4486 2.6052 3.0818 1075.7 -0.0040818 96.229 0.12161 485.00 0.0020619 765.67 993.02 2.4486 2.6052 3.0818 1075.7 -0.0040818 96.229 0.12161
258.38 16058. undefined 768.27 996.56 2.4535 485.00 0.0020619 768.27 996.56 2.4535 2.6089 3.0846 1076.8 -0.0040834 96.247 0.12178 485.00 0.0020619 768.27 996.56 2.4535 2.6089 3.0846 1076.8 -0.0040834 96.247 0.12178
259.38 16124. undefined 770.88 1000.1 2.4584 485.00 0.0020619 770.88 1000.1 2.4584 2.6125 3.0874 1078.0 -0.0040850 96.265 0.12194 485.00 0.0020619 770.88 1000.1 2.4584 2.6125 3.0874 1078.0 -0.0040850 96.265 0.12194
260.38 16190. undefined 773.50 1003.7 2.4633 485.00 0.0020619 773.50 1003.7 2.4633 2.6161 3.0902 1079.2 -0.0040866 96.283 0.12211 485.00 0.0020619 773.50 1003.7 2.4633 2.6161 3.0902 1079.2 -0.0040866 96.283 0.12211
261.38 16256. undefined 776.12 1007.2 2.4682 485.00 0.0020619 776.12 1007.2 2.4682 2.6198 3.0930 1080.3 -0.0040881 96.302 0.12228 485.00 0.0020619 776.12 1007.2 2.4682 2.6198 3.0930 1080.3 -0.0040881 96.302 0.12228
262.38 16322. undefined 778.74 1010.8 2.4731 485.00 0.0020619 778.74 1010.8 2.4731 2.6234 3.0958 1081.5 -0.0040896 96.320 0.12245 485.00 0.0020619 778.74 1010.8 2.4731 2.6234 3.0958 1081.5 -0.0040896 96.320 0.12245
263.38 16388. undefined 781.36 1014.3 2.4780 485.00 0.0020619 781.36 1014.3 2.4780 2.6270 3.0986 1082.6 -0.0040910 96.338 0.12261 485.00 0.0020619 781.36 1014.3 2.4780 2.6270 3.0986 1082.6 -0.0040910 96.338 0.12261
264.38 16453. undefined 783.99 1017.9 2.4829 485.00 0.0020619 783.99 1017.9 2.4829 2.6307 3.1014 1083.8 -0.0040925 96.356 0.12278 485.00 0.0020619 783.99 1017.9 2.4829 2.6307 3.1014 1083.8 -0.0040925 96.356 0.12278
265.38 16519. undefined 786.62 1021.5 2.4878 485.00 0.0020619 786.62 1021.5 2.4878 2.6343 3.1043 1084.9 -0.0040938 96.375 0.12295 485.00 0.0020619 786.62 1021.5 2.4878 2.6343 3.1043 1084.9 -0.0040938 96.375 0.12295
266.38 16585. undefined 789.26 1025.0 2.4927 485.00 0.0020619 789.26 1025.0 2.4927 2.6379 3.1071 1086.1 -0.0040952 96.393 0.12312 485.00 0.0020619 789.26 1025.0 2.4927 2.6379 3.1071 1086.1 -0.0040952 96.393 0.12312
267.38 16650. undefined 791.90 1028.6 2.4975 485.00 0.0020619 791.90 1028.6 2.4975 2.6415 3.1099 1087.2 -0.0040965 96.411 0.12329 485.00 0.0020619 791.90 1028.6 2.4975 2.6415 3.1099 1087.2 -0.0040965 96.411 0.12329
268.38 16716. undefined 794.54 1032.2 2.5024 485.00 0.0020619 794.54 1032.2 2.5024 2.6451 3.1127 1088.4 -0.0040978 96.430 0.12346 485.00 0.0020619 794.54 1032.2 2.5024 2.6451 3.1127 1088.4 -0.0040978 96.430 0.12346
269.38 16781. undefined 797.19 1035.8 2.5073 485.00 0.0020619 797.19 1035.8 2.5073 2.6487 3.1155 1089.5 -0.0040991 96.448 0.12363 485.00 0.0020619 797.19 1035.8 2.5073 2.6487 3.1155 1089.5 -0.0040991 96.448 0.12363
270.38 16847. undefined 799.84 1039.3 2.5122 485.00 0.0020619 799.84 1039.3 2.5122 2.6523 3.1183 1090.7 -0.0041003 96.466 0.12380 485.00 0.0020619 799.84 1039.3 2.5122 2.6523 3.1183 1090.7 -0.0041003 96.466 0.12380
271.38 16912. undefined 802.49 1042.9 2.5171 485.00 0.0020619 802.49 1042.9 2.5171 2.6559 3.1211 1091.8 -0.0041015 96.484 0.12397 485.00 0.0020619 802.49 1042.9 2.5171 2.6559 3.1211 1091.8 -0.0041015 96.484 0.12397
272.38 16978. undefined 805.15 1046.5 2.5219 485.00 0.0020619 805.15 1046.5 2.5219 2.6595 3.1239 1092.9 -0.0041027 96.503 0.12414 485.00 0.0020619 805.15 1046.5 2.5219 2.6595 3.1239 1092.9 -0.0041027 96.503 0.12414
273.38 17043. undefined 807.81 1050.1 2.5268 485.00 0.0020619 807.81 1050.1 2.5268 2.6630 3.1267 1094.1 -0.0041038 96.521 0.12431 485.00 0.0020619 807.81 1050.1 2.5268 2.6630 3.1267 1094.1 -0.0041038 96.521 0.12431
274.38 17109. undefined 810.48 1053.7 2.5317 485.00 0.0020619 810.48 1053.7 2.5317 2.6666 3.1295 1095.2 -0.0041049 96.539 0.12448 485.00 0.0020619 810.48 1053.7 2.5317 2.6666 3.1295 1095.2 -0.0041049 96.539 0.12448
275.38 17174. undefined 813.15 1057.3 2.5366 485.00 0.0020619 813.15 1057.3 2.5366 2.6702 3.1323 1096.3 -0.0041060 96.558 0.12465 485.00 0.0020619 813.15 1057.3 2.5366 2.6702 3.1323 1096.3 -0.0041060 96.558 0.12465
276.38 17239. undefined 815.82 1060.9 2.5414 485.00 0.0020619 815.82 1060.9 2.5414 2.6737 3.1351 1097.5 -0.0041070 96.576 0.12482 485.00 0.0020619 815.82 1060.9 2.5414 2.6737 3.1351 1097.5 -0.0041070 96.576 0.12482
277.38 17305. undefined 818.49 1064.5 2.5463 485.00 0.0020619 818.49 1064.5 2.5463 2.6773 3.1379 1098.6 -0.0041080 96.594 0.12499 485.00 0.0020619 818.49 1064.5 2.5463 2.6773 3.1379 1098.6 -0.0041080 96.594 0.12499
278.38 17370. undefined 821.17 1068.1 2.5512 485.00 0.0020619 821.17 1068.1 2.5512 2.6809 3.1407 1099.7 -0.0041090 96.612 0.12517 485.00 0.0020619 821.17 1068.1 2.5512 2.6809 3.1407 1099.7 -0.0041090 96.612 0.12517
279.38 17435. undefined 823.86 1071.7 2.5560 485.00 0.0020619 823.86 1071.7 2.5560 2.6844 3.1435 1100.8 -0.0041100 96.631 0.12534 485.00 0.0020619 823.86 1071.7 2.5560 2.6844 3.1435 1100.8 -0.0041100 96.631 0.12534
280.38 17501. undefined 826.54 1075.3 2.5609 485.00 0.0020619 826.54 1075.3 2.5609 2.6880 3.1463 1102.0 -0.0041109 96.649 0.12551 485.00 0.0020619 826.54 1075.3 2.5609 2.6880 3.1463 1102.0 -0.0041109 96.649 0.12551
281.38 17566. undefined 829.23 1078.9 2.5657 485.00 0.0020619 829.23 1078.9 2.5657 2.6915 3.1491 1103.1 -0.0041119 96.667 0.12568 485.00 0.0020619 829.23 1078.9 2.5657 2.6915 3.1491 1103.1 -0.0041119 96.667 0.12568
282.38 17631. undefined 831.93 1082.6 2.5706 485.00 0.0020619 831.93 1082.6 2.5706 2.6950 3.1519 1104.2 -0.0041127 96.686 0.12552 485.00 0.0020619 831.93 1082.6 2.5706 2.6950 3.1519 1104.2 -0.0041127 96.686 0.12552
283.38 17696. undefined 834.62 1086.2 2.5754 485.00 0.0020619 834.62 1086.2 2.5754 2.6986 3.1547 1105.3 -0.0041136 96.704 0.12570 485.00 0.0020619 834.62 1086.2 2.5754 2.6986 3.1547 1105.3 -0.0041136 96.704 0.12570
284.38 17761. undefined 837.32 1089.8 2.5803 485.00 0.0020619 837.32 1089.8 2.5803 2.7021 3.1575 1106.4 -0.0041144 96.722 0.12587 485.00 0.0020619 837.32 1089.8 2.5803 2.7021 3.1575 1106.4 -0.0041144 96.722 0.12587
285.38 17826. undefined 840.03 1093.4 2.5851 485.00 0.0020619 840.03 1093.4 2.5851 2.7056 3.1603 1107.5 -0.0041152 96.740 0.12604 485.00 0.0020619 840.03 1093.4 2.5851 2.7056 3.1603 1107.5 -0.0041152 96.740 0.12604
286.38 17891. undefined 842.73 1097.1 2.5900 485.00 0.0020619 842.73 1097.1 2.5900 2.7091 3.1631 1108.6 -0.0041160 96.759 0.12622 485.00 0.0020619 842.73 1097.1 2.5900 2.7091 3.1631 1108.6 -0.0041160 96.759 0.12622
287.38 17956. undefined 845.44 1100.7 2.5948 485.00 0.0020619 845.44 1100.7 2.5948 2.7126 3.1659 1109.7 -0.0041168 96.777 0.12639 485.00 0.0020619 845.44 1100.7 2.5948 2.7126 3.1659 1109.7 -0.0041168 96.777 0.12639
288.38 18021. undefined 848.16 1104.3 2.5996 485.00 0.0020619 848.16 1104.3 2.5996 2.7161 3.1686 1110.8 -0.0041175 96.795 0.12656 485.00 0.0020619 848.16 1104.3 2.5996 2.7161 3.1686 1110.8 -0.0041175 96.795 0.12656
289.38 18086. undefined 850.88 1108.0 2.6045 485.00 0.0020619 850.88 1108.0 2.6045 2.7196 3.1714 1111.9 -0.0041182 96.814 0.12674 485.00 0.0020619 850.88 1108.0 2.6045 2.7196 3.1714 1111.9 -0.0041182 96.814 0.12674
290.38 18151. undefined 853.60 1111.6 2.6093 485.00 0.0020619 853.60 1111.6 2.6093 2.7231 3.1742 1113.0 -0.0041189 96.832 0.12691 485.00 0.0020619 853.60 1111.6 2.6093 2.7231 3.1742 1113.0 -0.0041189 96.832 0.12691
291.38 18216. undefined 856.32 1115.3 2.6141 485.00 0.0020619 856.32 1115.3 2.6141 2.7266 3.1770 1114.1 -0.0041196 96.850 0.12709 485.00 0.0020619 856.32 1115.3 2.6141 2.7266 3.1770 1114.1 -0.0041196 96.850 0.12709
292.38 18281. undefined 859.05 1118.9 2.6190 485.00 0.0020619 859.05 1118.9 2.6190 2.7301 3.1798 1115.2 -0.0041202 96.868 0.12726 485.00 0.0020619 859.05 1118.9 2.6190 2.7301 3.1798 1115.2 -0.0041202 96.868 0.12726
293.38 18345. undefined 861.78 1122.6 2.6238 485.00 0.0020619 861.78 1122.6 2.6238 2.7336 3.1826 1116.3 -0.0041208 96.887 0.12744 485.00 0.0020619 861.78 1122.6 2.6238 2.7336 3.1826 1116.3 -0.0041208 96.887 0.12744
294.38 18410. undefined 864.52 1126.2 2.6286 485.00 0.0020619 864.52 1126.2 2.6286 2.7370 3.1853 1117.4 -0.0041214 96.905 0.12762 485.00 0.0020619 864.52 1126.2 2.6286 2.7370 3.1853 1117.4 -0.0041214 96.905 0.12762
295.38 18475. undefined 867.26 1129.9 2.6334 485.00 0.0020619 867.26 1129.9 2.6334 2.7405 3.1881 1118.5 -0.0041220 96.923 0.12779 485.00 0.0020619 867.26 1129.9 2.6334 2.7405 3.1881 1118.5 -0.0041220 96.923 0.12779
296.38 18540. undefined 870.00 1133.6 2.6383 485.00 0.0020619 870.00 1133.6 2.6383 2.7440 3.1909 1119.6 -0.0041225 96.941 0.12797 485.00 0.0020619 870.00 1133.6 2.6383 2.7440 3.1909 1119.6 -0.0041225 96.941 0.12797
297.38 18604. undefined 872.74 1137.2 2.6431 485.00 0.0020619 872.74 1137.2 2.6431 2.7474 3.1937 1120.7 -0.0041230 96.960 0.12815 485.00 0.0020619 872.74 1137.2 2.6431 2.7474 3.1937 1120.7 -0.0041230 96.960 0.12815
298.38 18669. undefined 875.49 1140.9 2.6479 485.00 0.0020619 875.49 1140.9 2.6479 2.7509 3.1964 1121.8 -0.0041236 96.978 0.12832 485.00 0.0020619 875.49 1140.9 2.6479 2.7509 3.1964 1121.8 -0.0041236 96.978 0.12832
299.38 18734. undefined 878.25 1144.6 2.6527 485.00 0.0020619 878.25 1144.6 2.6527 2.7544 3.1992 1122.9 -0.0041240 96.996 0.12850 485.00 0.0020619 878.25 1144.6 2.6527 2.7544 3.1992 1122.9 -0.0041240 96.996 0.12850
300.38 18798. undefined 881.00 1148.2 2.6575 485.00 0.0020619 881.00 1148.2 2.6575 2.7578 3.2020 1123.9 -0.0041245 97.014 0.12868 485.00 0.0020619 881.00 1148.2 2.6575 2.7578 3.2020 1123.9 -0.0041245 97.014 0.12868