Temperature (C) Pressure (psia) Quality (l+v) Internal Energy (l+v, kJ/kg) Enthalpy (l+v, kJ/kg) Entropy (l+v, J/g*K) Density (l, kg/m3) Volume (l, m3/kg) Internal Energy (l, kJ/kg) Enthalpy (l, kJ/kg) Entropy (l, J/g*K) Cv (l, J/g*K) Cp (l, J/g*K) Sound Spd. (l, m/s) Joule-Thomson (l, F/psia) Viscosity (l, uPa*s) Therm. Cond. (l, W/m*K) Density (v, kg/m3) Volume (v, m3/kg) Internal Energy (v, kJ/kg) Enthalpy (v, kJ/kg) Entropy (v, J/g*K) Cv (v, J/g*K) Cp (v, J/g*K) Sound Spd. (v, m/s) Joule-Thomson (v, F/psia) Viscosity (v, uPa*s) Therm. Cond. (v, W/m*K)
-187.62 2.4953e-08 7.2205e-12 -196.64 -196.64 -1.3959 733.13 0.0013640 -196.64 -196.64 -1.3959 1.3553 1.9158 2136.4 -0.0077592 10960. 0.20792 1.0669e-08 9.3732e+07 350.13 366.26 5.1858 0.69067 0.87923 143.28 6.1051 2.3259 0.0017061
-186.62 3.7339e-08 1.0649e-11 -194.73 -194.73 -1.3736 732.08 0.0013660 -194.73 -194.73 -1.3736 1.3539 1.9166 2129.6 -0.0077546 10073. 0.20765 1.5780e-08 6.3371e+07 350.82 367.14 5.1200 0.69462 0.88317 144.03 5.9178 2.3534 0.0017533
-185.62 5.5322e-08 1.5552e-11 -192.81 -192.81 -1.3516 731.04 0.0013679 -192.81 -192.81 -1.3516 1.3525 1.9174 2122.9 -0.0077498 9276.1 0.20737 2.3112e-08 4.3267e+07 351.52 368.02 5.0561 0.69857 0.88713 144.77 5.7383 2.3808 0.0018007
-184.62 8.1182e-08 2.2499e-11 -190.89 -190.89 -1.3298 730.00 0.0013699 -190.89 -190.89 -1.3298 1.3513 1.9182 2116.1 -0.0077448 8557.8 0.20708 3.3533e-08 2.9821e+07 352.22 368.91 4.9939 0.70253 0.89108 145.51 5.5662 2.4083 0.0018485
-183.62 1.1803e-07 3.2253e-11 -188.97 -188.97 -1.3083 728.96 0.0013718 -188.97 -188.97 -1.3083 1.3501 1.9191 2109.3 -0.0077395 7909.8 0.20678 4.8211e-08 2.0742e+07 352.92 369.81 4.9333 0.70648 0.89504 146.24 5.4011 2.4357 0.0018965
-182.62 1.7009e-07 4.5828e-11 -187.05 -187.05 -1.2869 727.92 0.0013738 -187.05 -187.05 -1.2869 1.3490 1.9201 2102.5 -0.0077340 7324.3 0.20647 6.8704e-08 1.4555e+07 353.63 370.70 4.8744 0.71043 0.89899 146.97 5.2426 2.4632 0.0019448
-181.62 2.4299e-07 6.4565e-11 -185.13 -185.13 -1.2658 726.88 0.0013757 -185.13 -185.13 -1.2658 1.3480 1.9210 2095.7 -0.0077283 6794.5 0.20616 9.7079e-08 1.0301e+07 354.35 371.60 4.8170 0.71438 0.90294 147.69 5.0904 2.4906 0.0019934
-180.62 3.4425e-07 9.0216e-11 -183.21 -183.21 -1.2450 725.85 0.0013777 -183.21 -183.21 -1.2450 1.3470 1.9220 2088.9 -0.0077225 6314.4 0.20584 1.3605e-07 7.3504e+06 355.06 372.51 4.7612 0.71833 0.90688 148.41 4.9442 2.5181 0.0020423
-179.62 4.8378e-07 1.2506e-10 -181.29 -181.29 -1.2243 724.81 0.0013797 -181.29 -181.29 -1.2243 1.3461 1.9231 2082.0 -0.0077164 5878.8 0.20551 1.8915e-07 5.2868e+06 355.78 373.42 4.7068 0.72227 0.91082 149.13 4.8038 2.5456 0.0020915
-178.62 6.7459e-07 1.7202e-10 -179.37 -179.37 -1.2038 723.78 0.0013816 -179.37 -179.37 -1.2038 1.3453 1.9241 2075.2 -0.0077102 5482.9 0.20517 2.6096e-07 3.8320e+06 356.51 374.33 4.6538 0.72620 0.91475 149.84 4.6688 2.5731 0.0021410
-177.62 9.3358e-07 2.3487e-10 -177.44 -177.44 -1.1836 722.75 0.0013836 -177.44 -177.44 -1.1836 1.3445 1.9252 2068.4 -0.0077039 5122.6 0.20483 3.5737e-07 2.7982e+06 357.23 375.25 4.6022 0.73012 0.91867 150.54 4.5390 2.6005 0.0021907
-176.62 1.2826e-06 3.1837e-10 -175.52 -175.52 -1.1635 721.72 0.0013856 -175.52 -175.52 -1.1635 1.3437 1.9263 2061.5 -0.0076973 4794.1 0.20447 4.8588e-07 2.0581e+06 357.97 376.17 4.5519 0.73403 0.92258 151.25 4.4142 2.6280 0.0022408
-175.62 1.7496e-06 4.2855e-10 -173.59 -173.59 -1.1437 720.69 0.0013876 -173.59 -173.59 -1.1437 1.3430 1.9274 2054.7 -0.0076907 4494.3 0.20411 6.5601e-07 1.5244e+06 358.70 377.09 4.5029 0.73792 0.92648 151.95 4.2941 2.6555 0.0022912
-174.62 2.3705e-06 5.7297e-10 -171.66 -171.66 -1.1240 719.66 0.0013895 -171.66 -171.66 -1.1240 1.3423 1.9286 2047.9 -0.0076838 4220.2 0.20375 8.7976e-07 1.1367e+06 359.44 378.02 4.4551 0.74181 0.93036 152.64 4.1784 2.6830 0.0023418
-173.62 3.1903e-06 7.6106e-10 -169.73 -169.73 -1.1045 718.64 0.0013915 -169.73 -169.73 -1.1045 1.3417 1.9298 2041.0 -0.0076769 3969.3 0.20338 1.1721e-06 8.5314e+05 360.19 378.95 4.4085 0.74568 0.93423 153.33 4.0671 2.7105 0.0023928
-172.62 4.2661e-06 1.0045e-09 -167.80 -167.80 -1.0852 717.61 0.0013935 -167.80 -167.80 -1.0852 1.3411 1.9310 2034.2 -0.0076698 3739.3 0.20300 1.5518e-06 6.4441e+05 360.93 379.89 4.3631 0.74953 0.93809 154.02 3.9599 2.7379 0.0024440
-171.62 5.6692e-06 1.3176e-09 -165.87 -165.87 -1.0661 716.58 0.0013955 -165.87 -165.87 -1.0661 1.3405 1.9322 2027.3 -0.0076625 3528.0 0.20261 2.0419e-06 4.8974e+05 361.69 380.83 4.3188 0.75337 0.94193 154.71 3.8566 2.7654 0.0024955
-170.62 7.4884e-06 1.7182e-09 -163.94 -163.94 -1.0472 715.56 0.0013975 -163.94 -163.94 -1.0472 1.3400 1.9334 2020.5 -0.0076552 3333.8 0.20222 2.6708e-06 3.7442e+05 362.44 381.77 4.2755 0.75720 0.94575 155.39 3.7570 2.7929 0.0025473
-169.62 9.8334e-06 2.2275e-09 -162.00 -162.00 -1.0284 714.54 0.0013995 -162.00 -162.00 -1.0284 1.3395 1.9347 2013.6 -0.0076477 3154.9 0.20182 3.4733e-06 2.8791e+05 363.20 382.72 4.2334 0.76100 0.94956 156.07 3.6609 2.8204 0.0025994
-168.62 1.2839e-05 2.8715e-09 -160.07 -160.07 -1.0098 713.52 0.0014015 -160.07 -160.07 -1.0098 1.3390 1.9359 2006.8 -0.0076401 2989.9 0.20141 4.4917e-06 2.2263e+05 363.96 383.67 4.1922 0.76479 0.95335 156.74 3.5683 2.8479 0.0026518
-167.62 1.6672e-05 3.6818e-09 -158.13 -158.13 -0.99134 712.49 0.0014035 -158.13 -158.13 -0.99134 1.3386 1.9372 2000.0 -0.0076323 2837.5 0.20100 5.7771e-06 1.7310e+05 364.73 384.63 4.1521 0.76856 0.95712 157.41 3.4790 2.8754 0.0027045
-166.62 2.1533e-05 4.6956e-09 -156.19 -156.19 -0.97306 711.47 0.0014055 -156.19 -156.19 -0.97306 1.3382 1.9385 1993.1 -0.0076245 2696.5 0.20058 7.3914e-06 1.3529e+05 365.50 385.59 4.1129 0.77232 0.96087 158.08 3.3927 2.9029 0.0027575
-165.62 2.7666e-05 5.9580e-09 -154.25 -154.25 -0.95494 710.45 0.0014075 -154.25 -154.25 -0.95494 1.3378 1.9398 1986.3 -0.0076165 2566.0 0.20016 9.4084e-06 1.0629e+05 366.27 386.55 4.0746 0.77605 0.96460 158.75 3.3095 2.9304 0.0028108
-164.62 3.5367e-05 7.5222e-09 -152.31 -152.31 -0.93698 709.44 0.0014096 -152.31 -152.31 -0.93698 1.3375 1.9411 1979.4 -0.0076084 2444.9 0.19973 1.1916e-05 83918. 367.05 387.52 4.0372 0.77976 0.96832 159.41 3.2291 2.9579 0.0028643
-163.62 4.4989e-05 9.4510e-09 -150.37 -150.37 -0.91917 708.42 0.0014116 -150.37 -150.37 -0.91917 1.3371 1.9424 1972.6 -0.0076002 2332.3 0.19930 1.5020e-05 66577. 367.83 388.49 4.0008 0.78346 0.97201 160.07 3.1514 2.9854 0.0029182
-162.62 5.6956e-05 1.1819e-08 -148.43 -148.43 -0.90151 707.40 0.0014136 -148.43 -148.43 -0.90151 1.3368 1.9437 1965.8 -0.0075919 2227.7 0.19886 1.8844e-05 53068. 368.62 389.46 3.9651 0.78713 0.97569 160.72 3.0764 3.0129 0.0029723
-161.62 7.1773e-05 1.4712e-08 -146.48 -146.48 -0.88400 706.38 0.0014157 -146.48 -146.48 -0.88400 1.3365 1.9451 1959.0 -0.0075834 2130.2 0.19841 2.3533e-05 42494. 369.41 390.44 3.9304 0.79079 0.97935 161.38 3.0038 3.0404 0.0030268
-160.62 9.0036e-05 1.8231e-08 -144.54 -144.54 -0.86663 705.37 0.0014177 -144.54 -144.54 -0.86663 1.3363 1.9465 1952.1 -0.0075748 2039.2 0.19796 2.9258e-05 34178. 370.20 391.42 3.8964 0.79443 0.98298 162.03 2.9337 3.0679 0.0030815
-159.62 0.00011245 2.2496e-08 -142.59 -142.59 -0.84940 704.35 0.0014197 -142.59 -142.59 -0.84940 1.3360 1.9478 1945.3 -0.0075661 1954.2 0.19751 3.6221e-05 27609. 371.00 392.40 3.8632 0.79805 0.98660 162.68 2.8658 3.0955 0.0031365
-158.62 0.00013985 2.7641e-08 -140.64 -140.64 -0.83231 703.34 0.0014218 -140.64 -140.64 -0.83231 1.3358 1.9492 1938.5 -0.0075573 1874.8 0.19705 4.4652e-05 22395. 371.80 393.39 3.8307 0.80164 0.99020 163.32 2.8002 3.1230 0.0031918
-157.62 0.00017320 3.3823e-08 -138.69 -138.69 -0.81536 702.32 0.0014238 -138.69 -138.69 -0.81536 1.3356 1.9506 1931.7 -0.0075484 1800.3 0.19658 5.4822e-05 18241. 372.60 394.38 3.7990 0.80522 0.99378 163.96 2.7367 3.1505 0.0032474
-156.62 0.00021364 4.1224e-08 -136.74 -136.74 -0.79854 701.31 0.0014259 -136.74 -136.74 -0.79854 1.3354 1.9520 1924.9 -0.0075393 1730.5 0.19611 6.7040e-05 14916. 373.41 395.38 3.7680 0.80878 0.99734 164.60 2.6752 3.1780 0.0033033
-155.62 0.00026248 5.0049e-08 -134.79 -134.79 -0.78185 700.30 0.0014280 -134.79 -134.79 -0.78185 1.3352 1.9534 1918.1 -0.0075302 1664.9 0.19564 8.1666e-05 12245. 374.22 396.38 3.7377 0.81232 1.0009 165.24 2.6157 3.2055 0.0033595
-154.62 0.00032125 6.0534e-08 -132.83 -132.83 -0.76530 699.29 0.0014300 -132.83 -132.83 -0.76530 1.3350 1.9548 1911.3 -0.0075209 1603.3 0.19516 9.9109e-05 10090. 375.03 397.38 3.7081 0.81585 1.0044 165.87 2.5580 3.2330 0.0034160
-153.62 0.00039171 7.2947e-08 -130.88 -130.88 -0.74887 698.27 0.0014321 -130.88 -130.88 -0.74887 1.3349 1.9563 1904.5 -0.0075114 1545.3 0.19468 0.00011984 8344.6 375.85 398.39 3.6792 0.81935 1.0079 166.50 2.5022 3.2606 0.0034727
-152.62 0.00047590 8.7589e-08 -128.92 -128.92 -0.73256 697.26 0.0014342 -128.92 -128.92 -0.73256 1.3348 1.9577 1897.8 -0.0075019 1490.6 0.19419 0.00014439 6925.9 376.67 399.40 3.6509 0.82284 1.0114 167.13 2.4481 3.2881 0.0035298
-151.62 0.00057613 1.0480e-07 -126.96 -126.96 -0.71638 696.25 0.0014363 -126.96 -126.96 -0.71638 1.3346 1.9592 1891.0 -0.0074922 1438.9 0.19370 0.00017336 5768.4 377.49 400.41 3.6232 0.82631 1.0149 167.76 2.3957 3.3156 0.0035872
-150.62 0.00069507 1.2497e-07 -125.00 -125.00 -0.70032 695.24 0.0014384 -125.00 -125.00 -0.70032 1.3345 1.9606 1884.2 -0.0074824 1390.2 0.19320 0.00020744 4820.7 378.32 401.42 3.5962 0.82976 1.0183 168.38 2.3448 3.3431 0.0036448
-149.62 0.00083574 1.4853e-07 -123.04 -123.04 -0.68438 694.23 0.0014404 -123.04 -123.04 -0.68438 1.3345 1.9621 1877.4 -0.0074724 1344.0 0.19270 0.00024740 4042.0 379.15 402.44 3.5697 0.83319 1.0218 169.00 2.2956 3.3706 0.0037027
-148.62 0.0010016 1.7596e-07 -121.08 -121.08 -0.66855 693.22 0.0014425 -121.08 -121.08 -0.66855 1.3344 1.9636 1870.7 -0.0074623 1300.3 0.19220 0.00029412 3400.0 379.99 403.47 3.5438 0.83661 1.0252 169.62 2.2478 3.3982 0.0037610
-147.62 0.0011965 2.0780e-07 -119.11 -119.11 -0.65284 692.21 0.0014447 -119.11 -119.11 -0.65284 1.3343 1.9651 1863.9 -0.0074521 1258.9 0.19169 0.00034856 2869.0 380.83 404.49 3.5185 0.84001 1.0286 170.24 2.2014 3.4257 0.0038195
-146.62 0.0014249 2.4464e-07 -117.15 -117.15 -0.63724 691.20 0.0014468 -117.15 -117.15 -0.63724 1.3343 1.9666 1857.2 -0.0074417 1219.6 0.19117 0.00041181 2428.3 381.67 405.52 3.4938 0.84340 1.0320 170.85 2.1565 3.4532 0.0038783
-145.62 0.0016917 2.8715e-07 -115.18 -115.18 -0.62175 690.19 0.0014489 -115.18 -115.18 -0.62175 1.3343 1.9682 1850.4 -0.0074312 1182.3 0.19066 0.00048510 2061.4 382.51 406.56 3.4695 0.84677 1.0353 171.46 2.1128 3.4807 0.0039374
-144.62 0.0020026 3.3605e-07 -113.21 -113.21 -0.60637 689.18 0.0014510 -113.21 -113.21 -0.60637 1.3343 1.9697 1843.7 -0.0074206 1146.8 0.19014 0.00056976 1755.1 383.36 407.59 3.4458 0.85012 1.0387 172.07 2.0705 3.5082 0.0039967
-143.62 0.0023637 3.9216e-07 -111.24 -111.24 -0.59110 688.17 0.0014531 -111.24 -111.24 -0.59110 1.3343 1.9713 1836.9 -0.0074098 1113.0 0.18962 0.00066731 1498.6 384.21 408.63 3.4226 0.85346 1.0420 172.68 2.0294 3.5358 0.0040564
-142.62 0.0027820 4.5637e-07 -109.27 -109.27 -0.57593 687.16 0.0014553 -109.27 -109.27 -0.57593 1.3343 1.9728 1830.2 -0.0073988 1080.8 0.18909 0.00077939 1283.1 385.07 409.68 3.3999 0.85679 1.0454 173.28 1.9896 3.5633 0.0041164
-141.62 0.0032653 5.2964e-07 -107.30 -107.30 -0.56087 686.15 0.0014574 -107.30 -107.30 -0.56087 1.3343 1.9744 1823.5 -0.0073878 1050.1 0.18856 0.00090784 1101.5 385.93 410.72 3.3777 0.86011 1.0487 173.88 1.9508 3.5908 0.0041766
-140.62 0.0038222 6.1304e-07 -105.32 -105.32 -0.54591 685.14 0.0014596 -105.32 -105.32 -0.54591 1.3344 1.9760 1816.7 -0.0073765 1020.7 0.18803 0.0010547 948.16 386.79 411.77 3.3560 0.86341 1.0520 174.48 1.9133 3.6183 0.0042372
-139.62 0.0044623 7.0772e-07 -103.34 -103.34 -0.53104 684.13 0.0014617 -103.34 -103.34 -0.53105 1.3344 1.9776 1810.0 -0.0073651 992.74 0.18749 0.0012221 818.26 387.65 412.83 3.3347 0.86670 1.0553 175.08 1.8768 3.6459 0.0042980
-138.62 0.0051963 8.1496e-07 -101.37 -101.37 -0.51628 683.12 0.0014639 -101.37 -101.37 -0.51629 1.3345 1.9792 1803.3 -0.0073536 965.97 0.18695 0.0014125 707.94 388.52 413.88 3.3139 0.86998 1.0586 175.67 1.8413 3.6734 0.0043592
-137.62 0.0060358 9.3611e-07 -99.386 -99.386 -0.50162 682.11 0.0014660 -99.386 -99.386 -0.50162 1.3346 1.9808 1796.6 -0.0073419 940.35 0.18641 0.0016287 614.00 389.39 414.94 3.2935 0.87325 1.0619 176.26 1.8069 3.7009 0.0044206
-136.62 0.0069938 1.0727e-06 -97.404 -97.404 -0.48705 681.10 0.0014682 -97.404 -97.404 -0.48705 1.3347 1.9825 1789.9 -0.0073301 915.81 0.18586 0.0018733 533.80 390.26 416.00 3.2735 0.87650 1.0651 176.85 1.7734 3.7284 0.0044823
-135.62 0.0080843 1.2263e-06 -95.421 -95.420 -0.47257 680.09 0.0014704 -95.421 -95.421 -0.47258 1.3348 1.9841 1783.2 -0.0073180 892.30 0.18531 0.0021497 465.17 391.14 417.07 3.2540 0.87975 1.0684 177.44 1.7409 3.7559 0.0045443
-134.62 0.0093230 1.3986e-06 -93.436 -93.435 -0.45819 679.08 0.0014726 -93.436 -93.436 -0.45820 1.3350 1.9858 1776.5 -0.0073059 869.75 0.18476 0.0024613 406.30 392.02 418.14 3.2348 0.88299 1.0716 178.02 1.7093 3.7834 0.0046066
-133.62 0.010727 1.5915e-06 -91.449 -91.449 -0.44390 678.07 0.0014748 -91.450 -91.449 -0.44391 1.3351 1.9875 1769.8 -0.0072935 848.11 0.18421 0.0028116 355.67 392.91 419.21 3.2161 0.88622 1.0749 178.61 1.6786 3.8109 0.0046691
-132.62 0.012315 1.8070e-06 -89.460 -89.460 -0.42970 677.06 0.0014770 -89.461 -89.461 -0.42971 1.3353 1.9892 1763.1 -0.0072810 827.32 0.18365 0.0032049 312.03 393.79 420.29 3.1977 0.88944 1.0781 179.19 1.6488 3.8385 0.0047320
-131.62 0.014106 2.0473e-06 -87.470 -87.470 -0.41559 676.04 0.0014792 -87.471 -87.471 -0.41560 1.3354 1.9909 1756.4 -0.0072684 807.34 0.18309 0.0036453 274.33 394.68 421.36 3.1798 0.89266 1.0813 179.76 1.6197 3.8660 0.0047951
-130.62 0.016124 2.3146e-06 -85.478 -85.478 -0.40156 675.03 0.0014814 -85.479 -85.479 -0.40157 1.3356 1.9926 1749.7 -0.0072555 788.12 0.18253 0.0041375 241.69 395.58 422.44 3.1622 0.89586 1.0846 180.34 1.5915 3.8935 0.0048586
-129.62 0.018392 2.6114e-06 -83.485 -83.484 -0.38763 674.02 0.0014836 -83.486 -83.486 -0.38763 1.3358 1.9944 1743.0 -0.0072425 769.63 0.18196 0.0046867 213.37 396.47 423.53 3.1450 0.89906 1.0878 180.91 1.5641 3.9210 0.0049223
-128.62 0.020935 2.9402e-06 -81.489 -81.489 -0.37377 673.01 0.0014859 -81.491 -81.490 -0.37378 1.3360 1.9961 1736.3 -0.0072294 751.83 0.18140 0.0052981 188.75 397.37 424.62 3.1281 0.90226 1.0910 181.48 1.5374 3.9485 0.0049863
-127.62 0.023783 3.3039e-06 -79.492 -79.492 -0.36000 672.00 0.0014881 -79.494 -79.493 -0.36001 1.3363 1.9979 1729.6 -0.0072160 734.67 0.18083 0.0059776 167.29 398.27 425.71 3.1116 0.90545 1.0942 182.05 1.5114 3.9760 0.0050506
-126.62 0.026966 3.7054e-06 -77.493 -77.493 -0.34631 670.98 0.0014904 -77.495 -77.495 -0.34632 1.3365 1.9997 1722.9 -0.0072025 718.14 0.18025 0.0067313 148.56 399.18 426.80 3.0954 0.90863 1.0974 182.62 1.4861 4.0035 0.0051152
-125.62 0.030515 4.1478e-06 -75.492 -75.492 -0.33270 669.97 0.0014926 -75.494 -75.494 -0.33272 1.3368 2.0015 1716.2 -0.0071888 702.18 0.17968 0.0075660 132.17 400.09 427.89 3.0795 0.91181 1.1006 183.18 1.4615 4.0310 0.0051800
-124.62 0.034467 4.6343e-06 -73.490 -73.489 -0.31917 668.95 0.0014949 -73.492 -73.492 -0.31919 1.3371 2.0033 1709.5 -0.0071749 686.79 0.17910 0.0084885 117.81 401.00 428.99 3.0640 0.91499 1.1038 183.74 1.4375 4.0584 0.0052452
-123.62 0.038859 5.1685e-06 -71.485 -71.485 -0.30572 667.94 0.0014971 -71.488 -71.487 -0.30574 1.3374 2.0051 1702.8 -0.0071609 671.93 0.17852 0.0095065 105.19 401.91 430.10 3.0488 0.91816 1.1070 184.30 1.4141 4.0859 0.0053106
-122.62 0.043731 5.7540e-06 -69.479 -69.478 -0.29235 666.92 0.0014994 -69.482 -69.481 -0.29237 1.3377 2.0070 1696.2 -0.0071466 657.57 0.17794 0.010628 94.092 402.83 431.20 3.0339 0.92134 1.1102 184.86 1.3913 4.1134 0.0053764
-121.62 0.049128 6.3946e-06 -67.471 -67.470 -0.27905 665.91 0.0015017 -67.474 -67.473 -0.27907 1.3380 2.0089 1689.5 -0.0071322 643.70 0.17736 0.011861 84.309 403.75 432.31 3.0193 0.92451 1.1134 185.41 1.3691 4.1409 0.0054424
-120.62 0.055096 7.0943e-06 -65.461 -65.460 -0.26583 664.89 0.0015040 -65.464 -65.463 -0.26585 1.3384 2.0107 1682.8 -0.0071176 630.28 0.17678 0.013215 75.669 404.67 433.42 3.0050 0.92767 1.1166 185.96 1.3475 4.1683 0.0055087
-119.62 0.061684 7.8574e-06 -63.449 -63.448 -0.25268 663.87 0.0015063 -63.452 -63.452 -0.25271 1.3387 2.0126 1676.1 -0.0071028 617.30 0.17619 0.014700 68.027 405.60 434.53 2.9909 0.93084 1.1198 186.51 1.3264 4.1958 0.0055752
-118.62 0.068946 8.6883e-06 -61.435 -61.434 -0.23961 662.86 0.0015086 -61.439 -61.438 -0.23963 1.3391 2.0146 1669.4 -0.0070878 604.74 0.17560 0.016325 61.255 406.53 435.64 2.9772 0.93401 1.1231 187.06 1.3058 4.2233 0.0056421
-117.62 0.076937 9.5916e-06 -59.419 -59.418 -0.22660 661.84 0.0015109 -59.423 -59.422 -0.22663 1.3395 2.0165 1662.8 -0.0070726 592.58 0.17501 0.018101 55.245 407.46 436.76 2.9638 0.93718 1.1263 187.60 1.2857 4.2507 0.0057092
-116.62 0.085718 1.0572e-05 -57.401 -57.400 -0.21367 660.82 0.0015133 -57.406 -57.405 -0.21370 1.3400 2.0184 1656.1 -0.0070573 580.80 0.17442 0.020040 49.901 408.39 437.88 2.9506 0.94035 1.1295 188.14 1.2660 4.2782 0.0057767
-115.62 0.095353 1.1635e-05 -55.381 -55.380 -0.20080 659.80 0.0015156 -55.386 -55.385 -0.20084 1.3404 2.0204 1649.4 -0.0070417 569.38 0.17383 0.022152 45.142 409.33 439.01 2.9377 0.94352 1.1327 188.68 1.2468 4.3056 0.0058444
-114.62 0.10591 1.2785e-05 -53.359 -53.358 -0.18801 658.78 0.0015180 -53.365 -53.364 -0.18805 1.3409 2.0224 1642.7 -0.0070260 558.32 0.17323 0.024451 40.898 410.27 440.13 2.9250 0.94669 1.1360 189.22 1.2281 4.3330 0.0059123
-113.62 0.11746 1.4028e-05 -51.335 -51.333 -0.17528 657.76 0.0015203 -51.342 -51.340 -0.17533 1.3413 2.0244 1636.0 -0.0070100 547.59 0.17264 0.026949 37.107 411.21 441.26 2.9126 0.94987 1.1392 189.75 1.2097 4.3604 0.0059806
-112.62 0.13008 1.5369e-05 -49.309 -49.307 -0.16262 656.73 0.0015227 -49.316 -49.315 -0.16267 1.3418 2.0264 1629.3 -0.0069938 537.18 0.17204 0.029661 33.715 412.16 442.39 2.9005 0.95305 1.1424 190.28 1.1918 4.3879 0.0060491
-111.62 0.14384 1.6814e-05 -47.281 -47.279 -0.15003 655.71 0.0015251 -47.289 -47.287 -0.15008 1.3424 2.0285 1622.7 -0.0069774 527.08 0.17144 0.032600 30.675 413.10 443.53 2.8885 0.95623 1.1457 190.81 1.1742 4.4153 0.0061180
-110.62 0.15884 1.8370e-05 -45.251 -45.249 -0.13750 654.69 0.0015274 -45.259 -45.258 -0.13755 1.3429 2.0305 1616.0 -0.0069609 517.28 0.17084 0.035781 27.948 414.06 444.66 2.8769 0.95942 1.1490 191.34 1.1570 4.4427 0.0061871
-109.62 0.17516 2.0041e-05 -43.219 -43.216 -0.12503 653.66 0.0015298 -43.228 -43.226 -0.12509 1.3435 2.0326 1609.3 -0.0069441 507.76 0.17024 0.039220 25.497 415.01 445.80 2.8654 0.96261 1.1522 191.86 1.1402 4.4701 0.0062564
-108.62 0.19290 2.1836e-05 -41.184 -41.181 -0.11263 652.64 0.0015322 -41.194 -41.192 -0.11269 1.3441 2.0347 1602.6 -0.0069271 498.51 0.16964 0.042933 23.292 415.96 446.94 2.8542 0.96581 1.1555 192.38 1.1236 4.4974 0.0063261
-107.62 0.21215 2.3759e-05 -39.148 -39.145 -0.10029 651.61 0.0015347 -39.158 -39.156 -0.10036 1.3447 2.0369 1595.9 -0.0069098 489.52 0.16903 0.046937 21.305 416.92 448.09 2.8433 0.96901 1.1588 192.90 1.1075 4.5248 0.0063960
-106.62 0.23301 2.5818e-05 -37.109 -37.105 -0.088007 650.58 0.0015371 -37.120 -37.118 -0.088082 1.3453 2.0390 1589.2 -0.0068924 480.79 0.16843 0.051250 19.512 417.88 449.23 2.8325 0.97222 1.1621 193.41 1.0916 4.5522 0.0064662
-105.62 0.25561 2.8020e-05 -35.068 -35.064 -0.075787 649.55 0.0015395 -35.080 -35.078 -0.075868 1.3460 2.0412 1582.6 -0.0068747 472.30 0.16782 0.055891 17.892 418.85 450.38 2.8220 0.97544 1.1655 193.93 1.0760 4.5795 0.0065367
-104.62 0.28004 3.0372e-05 -33.024 -33.021 -0.063627 648.52 0.0015420 -33.038 -33.035 -0.063714 1.3467 2.0434 1575.9 -0.0068569 464.04 0.16721 0.060878 16.426 419.81 451.53 2.8116 0.97867 1.1688 194.44 1.0608 4.6069 0.0066074
-103.62 0.30643 3.2880e-05 -30.979 -30.975 -0.051525 647.49 0.0015444 -30.994 -30.991 -0.051619 1.3474 2.0456 1569.2 -0.0068387 456.00 0.16660 0.066231 15.099 420.78 452.68 2.8015 0.98191 1.1722 194.94 1.0458 4.6342 0.0066785
-102.62 0.33490 3.5553e-05 -28.931 -28.926 -0.039481 646.46 0.0015469 -28.947 -28.944 -0.039582 1.3481 2.0478 1562.5 -0.0068204 448.18 0.16600 0.071971 13.894 421.75 453.84 2.7916 0.98516 1.1755 195.44 1.0310 4.6615 0.0067498
-101.62 0.36558 3.8397e-05 -26.881 -26.876 -0.027494 645.43 0.0015494 -26.898 -26.894 -0.027602 1.3489 2.0501 1555.8 -0.0068018 440.57 0.16539 0.078120 12.801 422.73 454.99 2.7818 0.98841 1.1789 195.95 1.0166 4.6888 0.0068213
-100.62 0.39862 4.1420e-05 -24.829 -24.823 -0.015563 644.39 0.0015519 -24.847 -24.843 -0.015678 1.3497 2.0524 1549.1 -0.0067830 433.16 0.16478 0.084699 11.807 423.70 456.15 2.7723 0.99168 1.1823 196.44 1.0024 4.7161 0.0068932
-99.625 0.43414 4.4630e-05 -22.774 -22.768 -0.0036868 643.36 0.0015544 -22.794 -22.789 -0.0038103 1.3505 2.0547 1542.4 -0.0067639 425.95 0.16416 0.091731 10.901 424.68 457.31 2.7630 0.99496 1.1858 196.94 0.98838 4.7434 0.0069653
-98.625 0.47230 4.8035e-05 -20.717 -20.710 0.0081346 642.32 0.0015569 -20.738 -20.733 0.0080027 1.3514 2.0570 1535.7 -0.0067447 418.92 0.16355 0.099240 10.077 425.66 458.48 2.7538 0.99825 1.1892 197.43 0.97464 4.7707 0.0070377
-97.625 0.51325 5.1643e-05 -18.657 -18.650 0.019902 641.28 0.0015594 -18.680 -18.674 0.019762 1.3522 2.0594 1529.0 -0.0067251 412.07 0.16294 0.10725 9.3239 426.65 459.64 2.7448 1.0016 1.1927 197.92 0.96112 4.7979 0.0071103
-96.625 0.55714 5.5461e-05 -16.595 -16.587 0.031617 640.24 0.0015619 -16.620 -16.614 0.031467 1.3531 2.0618 1522.3 -0.0067053 405.39 0.16233 0.11579 8.6365 427.63 460.81 2.7360 1.0049 1.1962 198.40 0.94783 4.8251 0.0071832
-95.625 0.60416 5.9499e-05 -14.530 -14.522 0.043280 639.20 0.0015645 -14.557 -14.550 0.043120 1.3540 2.0642 1515.7 -0.0066853 398.88 0.16171 0.12488 8.0078 428.62 461.98 2.7274 1.0082 1.1997 198.88 0.93475 4.8524 0.0072564
-94.625 0.65446 6.3763e-05 -12.463 -12.454 0.054891 638.16 0.0015670 -12.491 -12.484 0.054721 1.3550 2.0667 1509.0 -0.0066650 392.53 0.16110 0.13455 7.4323 429.61 463.15 2.7189 1.0116 1.2032 199.36 0.92188 4.8796 0.0073299
-93.625 0.70822 6.8262e-05 -10.394 -10.384 0.066452 637.12 0.0015696 -10.424 -10.416 0.066271 1.3560 2.0691 1502.3 -0.0066444 386.34 0.16048 0.14482 6.9050 430.60 464.32 2.7107 1.0149 1.2068 199.83 0.90921 4.9068 0.0074036
-92.625 0.76564 7.3005e-05 -8.3214 -8.3106 0.077962 636.07 0.0015722 -8.3535 -8.3452 0.077771 1.3570 2.0716 1495.6 -0.0066236 380.31 0.15987 0.15573 6.4212 431.60 465.49 2.7025 1.0183 1.2104 200.30 0.89673 4.9340 0.0074776
-91.625 0.82689 7.8000e-05 -6.2466 -6.2350 0.089424 635.02 0.0015747 -6.2808 -6.2719 0.089220 1.3580 2.0742 1488.9 -0.0066025 374.41 0.15925 0.16731 5.9769 432.59 466.67 2.6946 1.0217 1.2140 200.77 0.88445 4.9611 0.0075518
-90.625 0.89218 8.3254e-05 -4.1692 -4.1566 0.10084 633.98 0.0015773 -4.2056 -4.1959 0.10062 1.3591 2.0767 1482.2 -0.0065811 368.66 0.15864 0.17958 5.5685 433.59 467.84 2.6868 1.0251 1.2177 201.24 0.87236 4.9883 0.0076263
-89.625 0.96172 8.8777e-05 -2.0891 -2.0756 0.11220 632.93 0.0015800 -2.1279 -2.1174 0.11197 1.3602 2.0793 1475.5 -0.0065595 363.05 0.15802 0.19258 5.1928 434.59 469.02 2.6791 1.0285 1.2213 201.70 0.86045 5.0154 0.0077011
-88.625 1.0357 9.4577e-05 -0.0063146 0.0082587 0.12352 631.88 0.0015826 -0.047516 -0.036215 0.12328 1.3613 2.0819 1468.8 -0.0065375 357.56 0.15740 0.20633 4.8466 435.59 470.20 2.6717 1.0320 1.2250 202.15 0.84873 5.0425 0.0077761
-87.625 1.1144 0.00010066 2.0792 2.0949 0.13479 630.83 0.0015852 2.0355 2.0476 0.13454 1.3625 2.0846 1462.1 -0.0065153 352.21 0.15679 0.22087 4.5276 436.60 471.39 2.6643 1.0354 1.2288 202.61 0.83718 5.0696 0.0078514
-86.625 1.1979 0.00010704 4.1675 4.1843 0.14602 629.77 0.0015879 4.1211 4.1342 0.14575 1.3637 2.0873 1455.4 -0.0064928 346.98 0.15617 0.23623 4.2331 437.61 472.57 2.6571 1.0389 1.2325 203.06 0.82580 5.0967 0.0079270
-85.625 1.2866 0.00011372 6.2585 6.2766 0.15720 628.72 0.0015905 6.2094 6.2235 0.15691 1.3649 2.0900 1448.8 -0.0064701 341.87 0.15555 0.25245 3.9612 438.61 473.75 2.6501 1.0424 1.2363 203.50 0.81460 5.1237 0.0080028
-84.625 1.3806 0.00012071 8.3524 8.3718 0.16833 627.66 0.0015932 8.3004 8.3155 0.16803 1.3661 2.0927 1442.1 -0.0064470 336.87 0.15494 0.26956 3.7097 439.63 474.94 2.6432 1.0460 1.2402 203.95 0.80356 5.1508 0.0080789
-83.625 1.4803 0.00012801 10.449 10.470 0.17943 626.60 0.0015959 10.394 10.410 0.17911 1.3674 2.0955 1435.4 -0.0064236 331.99 0.15432 0.28760 3.4771 440.64 476.13 2.6364 1.0495 1.2440 204.38 0.79269 5.1778 0.0081553
-82.625 1.5858 0.00013565 12.549 12.571 0.19048 625.54 0.0015986 12.491 12.508 0.19014 1.3687 2.0983 1428.7 -0.0063999 327.22 0.15370 0.30659 3.2616 441.65 477.31 2.6298 1.0531 1.2479 204.82 0.78199 5.2048 0.0082319
-81.625 1.6975 0.00014361 14.651 14.675 0.20148 624.48 0.0016013 14.590 14.609 0.20113 1.3700 2.1012 1422.0 -0.0063759 322.55 0.15309 0.32659 3.0619 442.67 478.50 2.6233 1.0567 1.2519 205.25 0.77144 5.2318 0.0083088
-80.625 1.8155 0.00015192 16.757 16.782 0.21245 623.42 0.0016041 16.692 16.712 0.21208 1.3714 2.1041 1415.4 -0.0063516 317.99 0.15247 0.34763 2.8766 443.69 479.70 2.6169 1.0603 1.2558 205.67 0.76106 5.2587 0.0083860
-79.625 1.9402 0.00016057 18.865 18.893 0.22337 622.36 0.0016068 18.797 18.819 0.22299 1.3728 2.1070 1408.7 -0.0063270 313.52 0.15186 0.36974 2.7046 444.71 480.89 2.6106 1.0639 1.2598 206.10 0.75083 5.2857 0.0084634
-78.625 2.0718 0.00016958 20.977 21.006 0.23425 621.29 0.0016096 20.905 20.928 0.23385 1.3742 2.1099 1402.0 -0.0063021 309.15 0.15124 0.39296 2.5448 445.73 482.08 2.6045 1.0676 1.2639 206.51 0.74076 5.3126 0.0085411
-77.625 2.2107 0.00017895 23.092 23.123 0.24510 620.22 0.0016123 23.016 23.040 0.24468 1.3757 2.1129 1395.3 -0.0062768 304.88 0.15062 0.41735 2.3961 446.75 483.27 2.5985 1.0712 1.2680 206.93 0.73084 5.3395 0.0086190
-76.625 2.3571 0.00018869 25.209 25.243 0.25590 619.15 0.0016151 25.130 25.156 0.25546 1.3772 2.1159 1388.7 -0.0062512 300.69 0.15001 0.44292 2.2577 447.78 484.47 2.5926 1.0749 1.2721 207.34 0.72107 5.3664 0.0086972
-75.625 2.5113 0.00019881 27.330 27.366 0.26666 618.08 0.0016179 27.247 27.275 0.26620 1.3787 2.1190 1382.0 -0.0062253 296.59 0.14939 0.46974 2.1288 448.81 485.67 2.5869 1.0787 1.2762 207.74 0.71146 5.3933 0.0087757
-74.625 2.6736 0.00020930 29.454 29.492 0.27739 617.01 0.0016207 29.366 29.396 0.27691 1.3802 2.1221 1375.4 -0.0061990 292.58 0.14878 0.49783 2.0087 449.83 486.86 2.5812 1.0824 1.2804 208.14 0.70200 5.4201 0.0088544
-73.625 2.8444 0.00022019 31.582 31.622 0.28808 615.93 0.0016236 31.489 31.521 0.28758 1.3818 2.1252 1368.7 -0.0061724 288.65 0.14816 0.52725 1.8966 450.86 488.06 2.5757 1.0862 1.2847 208.54 0.69268 5.4469 0.0089334
-72.625 3.0240 0.00023147 33.712 33.755 0.29873 614.85 0.0016264 33.615 33.649 0.29821 1.3834 2.1284 1362.0 -0.0061454 284.81 0.14755 0.55804 1.7920 451.90 489.26 2.5703 1.0900 1.2889 208.93 0.68351 5.4737 0.0090126
-71.625 3.2127 0.00024315 35.846 35.891 0.30935 613.78 0.0016293 35.745 35.781 0.30880 1.3851 2.1316 1355.4 -0.0061181 281.03 0.14694 0.59024 1.6942 452.93 490.46 2.5650 1.0938 1.2932 209.32 0.67448 5.5005 0.0090922
-70.625 3.4108 0.00025524 37.983 38.031 0.31992 612.69 0.0016321 37.877 37.915 0.31935 1.3867 2.1349 1348.7 -0.0060904 277.34 0.14632 0.62390 1.6028 453.96 491.66 2.5598 1.0976 1.2976 209.70 0.66560 5.5273 0.0091720
-69.625 3.6187 0.00026773 40.124 40.175 0.33047 611.61 0.0016350 40.013 40.053 0.32987 1.3884 2.1382 1342.1 -0.0060624 273.72 0.14571 0.65906 1.5173 455.00 492.86 2.5547 1.1015 1.3020 210.08 0.65687 5.5540 0.0092520
-68.625 3.8367 0.00028064 42.268 42.322 0.34098 610.53 0.0016379 42.152 42.195 0.34036 1.3902 2.1415 1335.5 -0.0060339 270.17 0.14510 0.69577 1.4372 456.04 494.06 2.5497 1.1054 1.3064 210.45 0.64827 5.5807 0.0093324
-67.625 4.0652 0.00029396 44.415 44.472 0.35145 609.44 0.0016409 44.294 44.340 0.35080 1.3919 2.1449 1328.8 -0.0060051 266.69 0.14449 0.73408 1.3622 457.08 495.26 2.5448 1.1093 1.3109 210.82 0.63981 5.6074 0.0094130
-66.625 4.3046 0.00030771 46.566 46.626 0.36189 608.35 0.0016438 46.439 46.488 0.36122 1.3937 2.1483 1322.2 -0.0059760 263.28 0.14388 0.77404 1.2919 458.12 496.46 2.5400 1.1133 1.3154 211.18 0.63150 5.6341 0.0094939
-65.625 4.5551 0.00032187 48.720 48.784 0.37230 607.26 0.0016467 48.588 48.640 0.37160 1.3955 2.1518 1315.6 -0.0059464 259.93 0.14327 0.81570 1.2259 459.16 497.67 2.5353 1.1172 1.3200 211.54 0.62332 5.6608 0.0095750
-64.625 4.8173 0.00033647 50.878 50.946 0.38267 606.16 0.0016497 50.740 50.795 0.38195 1.3974 2.1553 1308.9 -0.0059164 256.65 0.14266 0.85910 1.1640 460.21 498.87 2.5307 1.1212 1.3246 211.89 0.61527 5.6874 0.0096564
-63.625 5.0915 0.00035149 53.040 53.111 0.39301 605.07 0.0016527 52.896 52.954 0.39226 1.3993 2.1588 1302.3 -0.0058861 253.42 0.14205 0.90429 1.1058 461.25 500.07 2.5262 1.1252 1.3293 212.24 0.60736 5.7140 0.0097382
-62.625 5.3781 0.00036694 55.205 55.281 0.40332 603.97 0.0016557 55.055 55.117 0.40254 1.4012 2.1624 1295.7 -0.0058553 250.26 0.14144 0.95134 1.0511 462.30 501.28 2.5218 1.1293 1.3340 212.58 0.59958 5.7406 0.0098201
-61.625 5.6774 0.00038283 57.374 57.454 0.41360 602.87 0.0016587 57.218 57.283 0.41279 1.4031 2.1660 1289.1 -0.0058241 247.16 0.14084 1.0003 0.99972 463.35 502.48 2.5175 1.1333 1.3387 212.92 0.59194 5.7672 0.0099024
-60.625 5.9899 0.00039914 59.546 59.630 0.42384 601.77 0.0016618 59.385 59.453 0.42301 1.4051 2.1697 1282.5 -0.0057925 244.12 0.14023 1.0512 0.95131 464.40 503.68 2.5133 1.1374 1.3435 213.26 0.58442 5.7938 0.0099850
-59.625 6.3160 0.00041589 61.722 61.811 0.43406 600.66 0.0016648 61.554 61.627 0.43320 1.4071 2.1734 1275.9 -0.0057605 241.13 0.13962 1.1041 0.90573 465.45 504.89 2.5091 1.1415 1.3483 213.58 0.57704 5.8203 0.010068
-58.625 6.6561 0.00043306 63.903 63.996 0.44425 599.55 0.0016679 63.728 63.805 0.44335 1.4091 2.1772 1269.3 -0.0057280 238.19 0.13902 1.1591 0.86277 466.50 506.09 2.5051 1.1457 1.3532 213.90 0.56978 5.8468 0.010151
-57.625 7.0107 0.00045066 66.086 66.185 0.45440 598.44 0.0016710 65.905 65.986 0.45348 1.4111 2.1810 1262.7 -0.0056951 235.31 0.13842 1.2161 0.82228 467.55 507.30 2.5011 1.1498 1.3581 214.22 0.56265 5.8733 0.010234
-56.625 7.3801 0.00046869 68.274 68.378 0.46453 597.33 0.0016741 68.086 68.172 0.46358 1.4132 2.1848 1256.1 -0.0056617 232.48 0.13781 1.2754 0.78408 468.60 508.50 2.4972 1.1540 1.3631 214.53 0.55564 5.8998 0.010318
-55.625 7.7648 0.00048714 70.466 70.575 0.47463 596.22 0.0016772 70.271 70.361 0.47364 1.4153 2.1887 1249.5 -0.0056279 229.69 0.13721 1.3369 0.74802 469.66 509.71 2.4934 1.1582 1.3681 214.84 0.54875 5.9263 0.010402
-54.625 8.1652 0.00050602 72.661 72.776 0.48470 595.10 0.0016804 72.460 72.554 0.48368 1.4174 2.1927 1242.9 -0.0055937 226.96 0.13661 1.4006 0.71396 470.72 510.91 2.4897 1.1624 1.3731 215.14 0.54199 5.9527 0.010486
-53.625 8.5819 0.00052530 74.861 74.982 0.49474 593.98 0.0016836 74.652 74.752 0.49369 1.4196 2.1967 1236.3 -0.0055589 224.27 0.13601 1.4667 0.68178 471.77 512.11 2.4860 1.1667 1.3782 215.43 0.53535 5.9792 0.010571
-52.625 9.0151 0.00054500 77.065 77.191 0.50476 592.86 0.0016867 76.849 76.954 0.50368 1.4218 2.2007 1229.8 -0.0055237 221.63 0.13541 1.5353 0.65136 472.83 513.32 2.4824 1.1710 1.3834 215.72 0.52882 6.0056 0.010656
-51.625 9.4655 0.00056509 79.272 79.405 0.51474 591.73 0.0016900 79.049 79.159 0.51363 1.4240 2.2048 1223.2 -0.0054880 219.04 0.13482 1.6062 0.62258 473.89 514.52 2.4789 1.1752 1.3886 216.00 0.52241 6.0320 0.010741
-50.625 9.9335 0.00058559 81.484 81.624 0.52471 590.60 0.0016932 81.253 81.369 0.52356 1.4262 2.2089 1216.6 -0.0054519 216.48 0.13422 1.6797 0.59534 474.95 515.73 2.4755 1.1796 1.3938 216.28 0.51612 6.0584 0.010827
-49.625 10.419 0.00060647 83.700 83.846 0.53464 589.47 0.0016964 83.462 83.584 0.53347 1.4285 2.2131 1210.1 -0.0054152 213.98 0.13363 1.7558 0.56954 476.01 516.93 2.4722 1.1839 1.3991 216.55 0.50994 6.0848 0.010913
-48.625 10.924 0.00062773 85.920 86.074 0.54455 588.34 0.0016997 85.674 85.802 0.54334 1.4308 2.2173 1203.5 -0.0053780 211.51 0.13303 1.8345 0.54510 477.07 518.13 2.4689 1.1883 1.4044 216.82 0.50387 6.1112 0.010999
-47.625 11.448 0.00064937 88.144 88.305 0.55444 587.20 0.0017030 87.891 88.025 0.55319 1.4331 2.2216 1196.9 -0.0053403 209.08 0.13244 1.9159 0.52194 478.14 519.33 2.4657 1.1927 1.4098 217.08 0.49792 6.1375 0.011085
-46.625 11.991 0.00067136 90.373 90.541 0.56429 586.06 0.0017063 90.111 90.252 0.56302 1.4354 2.2259 1190.4 -0.0053020 206.69 0.13185 2.0001 0.49997 479.20 520.53 2.4625 1.1971 1.4153 217.33 0.49207 6.1639 0.011172
-45.625 12.554 0.00069370 92.605 92.782 0.57413 584.92 0.0017096 92.336 92.484 0.57282 1.4378 2.2303 1183.8 -0.0052633 204.34 0.13126 2.0872 0.47912 480.27 521.74 2.4594 1.2015 1.4207 217.58 0.48633 6.1902 0.011259
-44.625 13.137 0.00071637 94.842 95.027 0.58394 583.77 0.0017130 94.565 94.720 0.58260 1.4402 2.2347 1177.3 -0.0052240 202.03 0.13067 2.1771 0.45933 481.33 522.94 2.4564 1.2060 1.4263 217.82 0.48069 6.2165 0.011347
-43.625 13.741 0.00073937 97.084 97.277 0.59373 582.62 0.0017164 96.799 96.961 0.59235 1.4426 2.2392 1170.7 -0.0051841 199.75 0.13008 2.2700 0.44053 482.40 524.14 2.4535 1.2104 1.4319 218.05 0.47516 6.2429 0.011435
-42.625 14.367 0.00076267 99.330 99.532 0.60349 581.47 0.0017198 99.036 99.207 0.60208 1.4450 2.2437 1164.2 -0.0051437 197.51 0.12949 2.3659 0.42267 483.46 525.33 2.4506 1.2149 1.4375 218.28 0.46973 6.2692 0.011523
-41.625 15.015 0.00078626 101.58 101.79 0.61323 580.32 0.0017232 101.28 101.46 0.61179 1.4475 2.2483 1157.7 -0.0051027 195.30 0.12891 2.4649 0.40569 484.53 526.53 2.4478 1.2195 1.4432 218.50 0.46440 6.2955 0.011612
-40.625 15.686 0.00081012 103.83 104.06 0.62295 579.16 0.0017266 103.52 103.71 0.62147 1.4500 2.2529 1151.1 -0.0050611 193.13 0.12832 2.5671 0.38954 485.60 527.73 2.4450 1.2240 1.4489 218.72 0.45917 6.3218 0.011701
-39.625 16.380 0.00083423 106.09 106.32 0.63264 578.00 0.0017301 105.78 105.97 0.63113 1.4525 2.2576 1144.6 -0.0050189 190.99 0.12774 2.6725 0.37418 486.67 528.93 2.4423 1.2286 1.4547 218.93 0.45403 6.3481 0.011790
-38.625 17.097 0.00085858 108.36 108.60 0.64232 576.83 0.0017336 108.03 108.24 0.64077 1.4550 2.2623 1138.0 -0.0049761 188.88 0.12716 2.7813 0.35955 487.74 530.12 2.4397 1.2332 1.4606 219.13 0.44900 6.3744 0.011880
-37.625 17.838 0.00088314 110.63 110.88 0.65197 575.66 0.0017371 110.29 110.51 0.65039 1.4576 2.2671 1131.5 -0.0049327 186.81 0.12658 2.8934 0.34562 488.81 531.32 2.4371 1.2378 1.4665 219.33 0.44405 6.4007 0.011970
-36.625 18.604 0.00090789 112.90 113.16 0.66160 574.49 0.0017407 112.56 112.78 0.65999 1.4602 2.2719 1125.0 -0.0048887 184.76 0.12600 3.0089 0.33235 489.88 532.51 2.4346 1.2424 1.4724 219.52 0.43920 6.4270 0.012060
-35.625 19.395 0.00093280 115.18 115.45 0.67121 573.32 0.0017442 114.83 115.06 0.66956 1.4628 2.2768 1118.5 -0.0048440 182.75 0.12542 3.1280 0.31969 490.95 533.70 2.4321 1.2471 1.4784 219.70 0.43444 6.4533 0.012151
-34.625 20.212 0.00095785 117.46 117.74 0.68079 572.14 0.0017478 117.10 117.34 0.67912 1.4654 2.2818 1111.9 -0.0047987 180.76 0.12485 3.2506 0.30763 492.02 534.89 2.4297 1.2517 1.4845 219.88 0.42977 6.4797 0.012243
-33.625 21.056 0.00098301 119.75 120.04 0.69036 570.96 0.0017514 119.38 119.63 0.68865 1.4681 2.2868 1105.4 -0.0047527 178.80 0.12427 3.3770 0.29612 493.09 536.08 2.4273 1.2564 1.4906 220.05 0.42519 6.5060 0.012334
-32.625 21.926 0.0010083 122.04 122.35 0.69991 569.77 0.0017551 121.66 121.93 0.69817 1.4708 2.2918 1098.9 -0.0047061 176.87 0.12370 3.5071 0.28514 494.17 537.27 2.4250 1.2611 1.4968 220.21 0.42070 6.5323 0.012426
-31.625 22.823 0.0010336 124.33 124.65 0.70944 568.58 0.0017588 123.95 124.23 0.70767 1.4735 2.2970 1092.3 -0.0046587 174.97 0.12313 3.6410 0.27465 495.24 538.46 2.4227 1.2659 1.5031 220.36 0.41629 6.5587 0.012519
-30.625 23.749 0.0010589 126.63 126.97 0.71895 567.39 0.0017625 126.24 126.53 0.71714 1.4762 2.3021 1085.8 -0.0046107 173.09 0.12256 3.7787 0.26464 496.31 539.64 2.4205 1.2706 1.5094 220.51 0.41196 6.5850 0.012612
-29.625 24.703 0.0010842 128.94 129.29 0.72844 566.19 0.0017662 128.54 128.84 0.72660 1.4790 2.3074 1079.3 -0.0045619 171.24 0.12200 3.9205 0.25507 497.38 540.83 2.4184 1.2754 1.5157 220.65 0.40772 6.6114 0.012706
-28.625 25.687 0.0011094 131.25 131.61 0.73791 564.99 0.0017699 130.84 131.16 0.73604 1.4818 2.3126 1072.8 -0.0045124 169.42 0.12143 4.0663 0.24592 498.46 542.01 2.4162 1.2802 1.5222 220.79 0.40356 6.6378 0.012800
-27.625 26.700 0.0011346 133.57 133.94 0.74736 563.78 0.0017737 133.15 133.48 0.74547 1.4846 2.3180 1066.2 -0.0044621 167.62 0.12087 4.2163 0.23717 499.53 543.19 2.4142 1.2850 1.5286 220.91 0.39947 6.6642 0.012894
-26.625 27.743 0.0011596 135.89 136.28 0.75679 562.57 0.0017775 135.47 135.81 0.75487 1.4874 2.3234 1059.7 -0.0044111 165.84 0.12031 4.3705 0.22881 500.60 544.37 2.4122 1.2899 1.5352 221.03 0.39547 6.6906 0.012989
-25.625 28.817 0.0011845 138.21 138.62 0.76621 561.36 0.0017814 137.78 138.14 0.76426 1.4902 2.3289 1053.2 -0.0043593 164.09 0.11975 4.5290 0.22080 501.68 545.55 2.4102 1.2947 1.5418 221.14 0.39154 6.7171 0.013084
-24.625 29.923 0.0012091 140.55 140.97 0.77561 560.14 0.0017853 140.11 140.48 0.77363 1.4931 2.3344 1046.7 -0.0043067 162.36 0.11919 4.6918 0.21314 502.75 546.72 2.4083 1.2996 1.5485 221.25 0.38768 6.7436 0.013180
-23.625 31.061 0.0012335 142.88 143.32 0.78499 558.92 0.0017892 142.44 142.82 0.78298 1.4960 2.3400 1040.1 -0.0042533 160.65 0.11863 4.8592 0.20580 503.82 547.90 2.4064 1.3045 1.5552 221.35 0.38391 6.7701 0.013277
-22.625 32.232 0.0012576 145.22 145.68 0.79435 557.69 0.0017931 144.77 145.17 0.79232 1.4990 2.3457 1033.6 -0.0041990 158.97 0.11807 5.0311 0.19877 504.90 549.07 2.4045 1.3095 1.5621 221.44 0.38020 6.7967 0.013374
-21.625 33.435 0.0012813 147.57 148.04 0.80370 556.46 0.0017971 147.11 147.52 0.80164 1.5019 2.3514 1027.1 -0.0041439 157.30 0.11752 5.2076 0.19203 505.97 550.24 2.4027 1.3144 1.5690 221.52 0.37656 6.8232 0.013471
-20.625 34.673 0.0013046 149.92 150.41 0.81303 555.23 0.0018011 149.45 149.88 0.81095 1.5049 2.3572 1020.6 -0.0040879 155.66 0.11697 5.3889 0.18557 507.04 551.40 2.4010 1.3194 1.5759 221.59 0.37300 6.8499 0.013569
-19.625 35.946 0.0013275 152.28 152.78 0.82234 553.99 0.0018051 151.80 152.25 0.82024 1.5079 2.3630 1014.0 -0.0040311 154.04 0.11642 5.5750 0.17937 508.11 552.57 2.3992 1.3244 1.5829 221.66 0.36950 6.8765 0.013668
-18.625 37.253 0.0013498 154.64 155.16 0.83164 552.74 0.0018092 154.16 154.62 0.82952 1.5109 2.3689 1007.5 -0.0039733 152.44 0.11587 5.7660 0.17343 509.19 553.73 2.3976 1.3294 1.5901 221.72 0.36608 6.9032 0.013767
-17.625 38.596 0.0013715 157.01 157.55 0.84092 551.49 0.0018133 156.52 157.00 0.83878 1.5140 2.3749 1001.0 -0.0039145 150.86 0.11532 5.9621 0.16773 510.26 554.89 2.3959 1.3345 1.5972 221.77 0.36272 6.9300 0.013867
-16.625 39.976 0.0013926 159.38 159.94 0.85018 550.24 0.0018174 158.89 159.39 0.84803 1.5171 2.3810 994.44 -0.0038549 149.29 0.11478 6.1632 0.16225 511.33 556.05 2.3943 1.3395 1.6045 221.81 0.35942 6.9568 0.013968
-15.625 41.392 0.0014129 161.76 162.34 0.85943 548.98 0.0018216 161.26 161.78 0.85726 1.5202 2.3871 987.91 -0.0037942 147.75 0.11423 6.3696 0.15700 512.40 557.20 2.3927 1.3446 1.6119 221.85 0.35619 6.9836 0.014069
-14.625 42.846 0.0014325 164.14 164.74 0.86867 547.71 0.0018258 163.64 164.18 0.86649 1.5233 2.3933 981.37 -0.0037325 146.22 0.11369 6.5812 0.15195 513.47 558.36 2.3912 1.3497 1.6193 221.87 0.35302 7.0105 0.014170
-13.625 44.338 0.0014511 166.53 167.15 0.87789 546.44 0.0018300 166.02 166.58 0.87569 1.5264 2.3996 974.83 -0.0036698 144.72 0.11315 6.7983 0.14710 514.54 559.51 2.3897 1.3549 1.6268 221.89 0.34992 7.0375 0.014273
-12.625 45.870 0.0014689 168.92 169.57 0.88710 545.17 0.0018343 168.41 168.99 0.88489 1.5296 2.4059 968.29 -0.0036061 143.23 0.11261 7.0208 0.14243 515.61 560.65 2.3883 1.3600 1.6344 221.90 0.34688 7.0646 0.014376
-11.625 47.440 0.0014856 171.32 171.99 0.89629 543.89 0.0018386 170.81 171.41 0.89407 1.5328 2.4124 961.75 -0.0035413 141.76 0.11208 7.2490 0.13795 516.68 561.80 2.3868 1.3652 1.6421 221.91 0.34389 7.0917 0.014479
-10.625 49.051 0.0015012 173.72 174.41 0.90547 542.60 0.0018430 173.21 173.83 0.90324 1.5360 2.4189 955.20 -0.0034753 140.30 0.11154 7.4829 0.13364 517.75 562.94 2.3854 1.3704 1.6498 221.90 0.34097 7.1188 0.014584
-9.6250 50.703 0.0015156 176.13 176.85 0.91463 541.31 0.0018474 175.61 176.26 0.91240 1.5393 2.4255 948.65 -0.0034082 138.86 0.11101 7.7226 0.12949 518.81 564.08 2.3841 1.3757 1.6577 221.88 0.33810 7.1461 0.014689
-8.6250 52.396 0.0015288 178.55 179.29 0.92378 540.02 0.0018518 178.03 178.70 0.92154 1.5426 2.4321 942.10 -0.0033400 137.44 0.11048 7.9683 0.12550 519.88 565.21 2.3827 1.3809 1.6657 221.86 0.33529 7.1734 0.014795
-7.6250 54.131 0.0015405 180.97 181.73 0.93291 538.72 0.0018563 180.45 181.14 0.93068 1.5459 2.4389 935.55 -0.0032705 136.03 0.10995 8.2200 0.12165 520.94 566.35 2.3814 1.3862 1.6737 221.83 0.33254 7.2008 0.014902
-6.6250 55.909 0.0015508 183.40 184.19 0.94204 537.41 0.0018608 182.87 183.59 0.93980 1.5492 2.4457 928.99 -0.0031998 134.64 0.10942 8.4779 0.11795 522.01 567.48 2.3801 1.3915 1.6819 221.79 0.32984 7.2284 0.015009
-5.6250 57.730 0.0015594 185.83 186.64 0.95115 536.10 0.0018653 185.30 186.05 0.94892 1.5525 2.4526 922.43 -0.0031279 133.27 0.10889 8.7420 0.11439 523.07 568.60 2.3789 1.3969 1.6902 221.74 0.32720 7.2560 0.015117
-4.6250 59.595 0.0015664 188.27 189.11 0.96024 534.78 0.0018699 187.74 188.51 0.95802 1.5559 2.4596 915.87 -0.0030546 131.91 0.10837 9.0126 0.11096 524.13 569.72 2.3777 1.4022 1.6985 221.68 0.32461 7.2837 0.015226
-3.6250 61.505 0.0015716 190.71 191.58 0.96933 533.45 0.0018746 190.19 190.98 0.96711 1.5593 2.4667 909.30 -0.0029800 130.56 0.10785 9.2896 0.10765 525.19 570.84 2.3765 1.4076 1.7070 221.62 0.32207 7.3115 0.015336
-2.6250 63.461 0.0015748 193.16 194.06 0.97840 532.12 0.0018793 192.64 193.46 0.97620 1.5627 2.4739 902.73 -0.0029041 129.23 0.10733 9.5733 0.10446 526.25 571.96 2.3753 1.4131 1.7156 221.54 0.31958 7.3394 0.015447
-1.6250 65.462 0.0015759 195.62 196.54 0.98746 530.78 0.0018840 195.10 195.95 0.98527 1.5662 2.4811 896.16 -0.0028267 127.91 0.10681 9.8638 0.10138 527.31 573.07 2.3742 1.4185 1.7243 221.45 0.31715 7.3674 0.015559
-0.62500 67.510 0.0015749 198.08 199.03 0.99651 529.44 0.0018888 197.56 198.44 0.99434 1.5696 2.4885 889.58 -0.0027478 126.61 0.10629 10.161 0.098414 528.37 574.18 2.3731 1.4240 1.7331 221.36 0.31476 7.3956 0.015671
0.37500 69.606 0.0015715 200.55 201.53 1.0055 528.09 0.0018936 200.03 200.94 1.0034 1.5731 2.4960 883.00 -0.0026675 125.32 0.10578 10.466 0.095552 529.42 575.28 2.3720 1.4295 1.7421 221.26 0.31242 7.4239 0.015785
1.3750 71.749 0.0015657 203.02 204.03 1.0146 526.73 0.0018985 202.51 203.45 1.0124 1.5767 2.5035 876.42 -0.0025856 124.04 0.10527 10.777 0.092790 530.48 576.38 2.3709 1.4350 1.7512 221.14 0.31013 7.4523 0.015899
2.3750 73.941 0.0015572 205.50 206.54 1.0236 525.37 0.0019034 204.99 205.96 1.0215 1.5802 2.5112 869.83 -0.0025022 122.78 0.10476 11.096 0.090123 531.53 577.47 2.3699 1.4406 1.7604 221.02 0.30789 7.4808 0.016015
3.3750 76.183 0.0015460 207.98 209.06 1.0326 523.99 0.0019084 207.48 208.48 1.0305 1.5838 2.5190 863.24 -0.0024171 121.53 0.10425 11.422 0.087549 532.58 578.56 2.3688 1.4462 1.7697 220.89 0.30569 7.5095 0.016131
4.3750 78.475 0.0015318 210.47 211.58 1.0416 522.62 0.0019134 209.98 211.01 1.0395 1.5874 2.5268 856.64 -0.0023303 120.29 0.10374 11.756 0.085062 533.63 579.65 2.3678 1.4518 1.7792 220.75 0.30354 7.5384 0.016249
5.3750 80.817 0.0015145 212.97 214.11 1.0506 521.23 0.0019185 212.48 213.55 1.0486 1.5910 2.5348 850.04 -0.0022417 119.06 0.10324 12.098 0.082660 534.67 580.73 2.3669 1.4575 1.7888 220.60 0.30144 7.5674 0.016368
6.3750 83.211 0.0014939 215.47 216.65 1.0595 519.84 0.0019237 215.00 216.10 1.0576 1.5946 2.5429 843.43 -0.0021514 117.85 0.10273 12.447 0.080340 535.72 581.81 2.3659 1.4632 1.7986 220.44 0.29938 7.5966 0.016487
7.3750 85.657 0.0014698 217.98 219.19 1.0685 518.44 0.0019289 217.51 218.65 1.0666 1.5983 2.5511 836.82 -0.0020593 116.65 0.10223 12.805 0.078096 536.76 582.88 2.3650 1.4689 1.8085 220.27 0.29736 7.6259 0.016608
8.3750 88.156 0.0014420 220.50 221.74 1.0774 517.03 0.0019341 220.04 221.22 1.0756 1.6020 2.5595 830.20 -0.0019652 115.46 0.10173 13.170 0.075928 537.80 583.95 2.3640 1.4746 1.8186 220.08 0.29538 7.6555 0.016730
9.3750 90.708 0.0014103 223.02 224.30 1.0864 515.62 0.0019394 222.57 223.79 1.0846 1.6057 2.5679 823.58 -0.0018691 114.28 0.10124 13.545 0.073830 538.84 585.01 2.3631 1.4804 1.8288 219.89 0.29345 7.6852 0.016853
10.375 93.315 0.0013745 225.55 226.86 1.0953 514.19 0.0019448 225.11 226.37 1.0936 1.6095 2.5765 816.96 -0.0017710 113.11 0.10074 13.927 0.071802 539.87 586.07 2.3622 1.4863 1.8392 219.69 0.29156 7.7151 0.016978
11.375 95.977 0.0013344 228.08 229.43 1.1042 512.76 0.0019502 227.66 228.95 1.1025 1.6132 2.5852 810.32 -0.0016708 111.95 0.10025 14.319 0.069840 540.90 587.12 2.3614 1.4921 1.8498 219.48 0.28971 7.7452 0.017103
12.375 98.694 0.0012897 230.62 232.01 1.1131 511.32 0.0019557 230.22 231.55 1.1115 1.6170 2.5940 803.68 -0.0015685 110.80 0.099756 14.719 0.067941 541.93 588.17 2.3605 1.4980 1.8605 219.26 0.28790 7.7756 0.017230
13.375 101.47 0.0012402 233.17 234.59 1.1220 509.87 0.0019613 232.78 234.15 1.1205 1.6208 2.6030 797.04 -0.0014639 109.67 0.099267 15.128 0.066103 542.96 589.21 2.3597 1.5040 1.8715 219.03 0.28612 7.8061 0.017359
14.375 104.30 0.0011856 235.72 237.19 1.1309 508.42 0.0019669 235.35 236.77 1.1295 1.6247 2.6121 790.39 -0.0013569 108.54 0.098779 15.547 0.064323 543.99 590.24 2.3588 1.5099 1.8826 218.79 0.28439 7.8369 0.017488
15.375 107.19 0.0011257 238.28 239.78 1.1398 506.95 0.0019726 237.93 239.39 1.1384 1.6286 2.6214 783.73 -0.0012476 107.43 0.098294 15.974 0.062600 545.01 591.27 2.3580 1.5159 1.8940 218.53 0.28270 7.8680 0.017619
16.375 110.13 0.0010601 240.84 242.39 1.1487 505.48 0.0019783 240.52 242.02 1.1474 1.6324 2.6308 777.07 -0.0011357 106.32 0.097810 16.412 0.060931 546.03 592.29 2.3572 1.5220 1.9055 218.27 0.28104 7.8993 0.017752
17.375 113.14 0.00098852 243.41 245.00 1.1576 504.00 0.0019841 243.11 244.66 1.1564 1.6364 2.6403 770.40 -0.0010213 105.22 0.097328 16.859 0.059314 547.04 593.31 2.3564 1.5281 1.9172 217.99 0.27942 7.9308 0.017886
18.375 116.21 0.00091070 245.99 247.63 1.1664 502.50 0.0019900 245.72 247.31 1.1653 1.6403 2.6501 763.72 -0.00090422 104.14 0.096848 17.317 0.057747 548.05 594.32 2.3557 1.5342 1.9292 217.71 0.27783 7.9626 0.018021
19.375 119.33 0.00082628 248.57 250.25 1.1753 501.00 0.0019960 248.33 249.97 1.1743 1.6443 2.6599 757.04 -0.00078435 103.06 0.096371 17.785 0.056228 549.06 595.33 2.3549 1.5404 1.9414 217.41 0.27628 7.9947 0.018159
20.375 122.52 0.00073491 251.17 252.89 1.1841 499.49 0.0020020 250.95 252.64 1.1832 1.6483 2.6700 750.35 -0.00066161 101.99 0.095895 18.263 0.054756 550.07 596.32 2.3541 1.5466 1.9538 217.10 0.27477 8.0272 0.018297
21.375 125.77 0.00063622 253.76 255.53 1.1929 497.97 0.0020082 253.57 255.32 1.1922 1.6523 2.6802 743.64 -0.00053589 100.93 0.095420 18.752 0.053328 551.07 597.31 2.3534 1.5528 1.9665 216.78 0.27329 8.0599 0.018438
22.375 129.08 0.00052982 256.37 258.18 1.2018 496.43 0.0020144 256.21 258.00 1.2012 1.6563 2.6906 736.94 -0.00040708 99.877 0.094948 19.252 0.051943 552.07 598.30 2.3526 1.5591 1.9795 216.45 0.27184 8.0929 0.018580
23.375 132.46 0.00041529 258.98 260.84 1.2106 494.89 0.0020206 258.86 260.70 1.2101 1.6604 2.7012 730.22 -0.00027505 98.834 0.094478 19.763 0.050600 553.06 599.27 2.3519 1.5655 1.9927 216.11 0.27043 8.1263 0.018724
24.375 135.90 0.00029222 261.59 263.51 1.2194 493.34 0.0020270 261.51 263.41 1.2191 1.6645 2.7120 723.49 -0.00013968 97.800 0.094009 20.285 0.049297 554.05 600.24 2.3512 1.5718 2.0061 215.75 0.26906 8.1600 0.018870
25.375 139.41 0.00016014 264.22 266.18 1.2282 491.77 0.0020335 264.17 266.13 1.2280 1.6686 2.7230 716.76 -8.3775e-07 96.773 0.093543 20.820 0.048032 555.03 601.20 2.3504 1.5783 2.0199 215.39 0.26771 8.1941 0.019017
26.375 142.98 1.8569e-05 266.85 268.86 1.2370 490.20 0.0020400 266.84 268.85 1.2370 1.6728 2.7342 710.01 0.00014161 95.755 0.093078 21.366 0.046804 556.01 602.15 2.3497 1.5847 2.0340 215.01 0.26640 8.2286 0.019167
27.375 208.30 undefined 268.64 271.58 1.2430 490.00 0.0020408 268.64 271.58 1.2430 1.6764 2.7309 711.91 8.5523e-05 95.636 0.093104 490.00 0.0020408 268.64 271.58 1.2430 1.6764 2.7309 711.91 8.5523e-05 95.636 0.093104
28.375 282.57 undefined 270.32 274.30 1.2486 490.00 0.0020408 270.32 274.30 1.2486 1.6801 2.7257 715.01 2.4907e-06 95.647 0.093201 490.00 0.0020408 270.32 274.30 1.2486 1.6801 2.7257 715.01 2.4907e-06 95.647 0.093201
29.375 356.89 undefined 272.00 277.03 1.2541 490.00 0.0020408 272.00 277.03 1.2541 1.6837 2.7208 718.08 -7.8448e-05 95.658 0.093298 490.00 0.0020408 272.00 277.03 1.2541 1.6837 2.7208 718.08 -7.8448e-05 95.658 0.093298
30.375 431.23 undefined 273.69 279.76 1.2597 490.00 0.0020408 273.69 279.76 1.2597 1.6874 2.7160 721.10 -0.00015738 95.668 0.093395 490.00 0.0020408 273.69 279.76 1.2597 1.6874 2.7160 721.10 -0.00015738 95.668 0.093395
31.375 505.61 undefined 275.38 282.49 1.2652 490.00 0.0020408 275.38 282.49 1.2652 1.6910 2.7116 724.09 -0.00023437 95.679 0.093493 490.00 0.0020408 275.38 282.49 1.2652 1.6910 2.7116 724.09 -0.00023437 95.679 0.093493
32.375 580.02 undefined 277.07 285.23 1.2708 490.00 0.0020408 277.07 285.23 1.2708 1.6947 2.7073 727.04 -0.00030951 95.690 0.093592 490.00 0.0020408 277.07 285.23 1.2708 1.6947 2.7073 727.04 -0.00030951 95.690 0.093592
33.375 654.45 undefined 278.77 287.98 1.2763 490.00 0.0020408 278.77 287.98 1.2763 1.6985 2.7032 729.96 -0.00038286 95.701 0.093690 490.00 0.0020408 278.77 287.98 1.2763 1.6985 2.7032 729.96 -0.00038286 95.701 0.093690
34.375 728.92 undefined 280.47 290.73 1.2819 490.00 0.0020408 280.47 290.73 1.2819 1.7022 2.6993 732.84 -0.00045449 95.712 0.093789 490.00 0.0020408 280.47 290.73 1.2819 1.7022 2.6993 732.84 -0.00045449 95.712 0.093789
35.375 803.40 undefined 282.17 293.48 1.2874 490.00 0.0020408 282.17 293.48 1.2874 1.7060 2.6957 735.68 -0.00052445 95.723 0.093889 490.00 0.0020408 282.17 293.48 1.2874 1.7060 2.6957 735.68 -0.00052445 95.723 0.093889
36.375 877.90 undefined 283.88 296.23 1.2929 490.00 0.0020408 283.88 296.23 1.2929 1.7097 2.6922 738.49 -0.00059282 95.734 0.093988 490.00 0.0020408 283.88 296.23 1.2929 1.7097 2.6922 738.49 -0.00059282 95.734 0.093988
37.375 952.43 undefined 285.59 298.99 1.2985 490.00 0.0020408 285.59 298.99 1.2985 1.7135 2.6888 741.27 -0.00065963 95.745 0.094088 490.00 0.0020408 285.59 298.99 1.2985 1.7135 2.6888 741.27 -0.00065963 95.745 0.094088
38.375 1027.0 undefined 287.31 301.76 1.3040 490.00 0.0020408 287.31 301.76 1.3040 1.7174 2.6857 744.02 -0.00072496 95.757 0.094189 490.00 0.0020408 287.31 301.76 1.3040 1.7174 2.6857 744.02 -0.00072496 95.757 0.094189
39.375 1101.5 undefined 289.03 304.53 1.3095 490.00 0.0020408 289.03 304.53 1.3095 1.7212 2.6827 746.74 -0.00078883 95.768 0.094289 490.00 0.0020408 289.03 304.53 1.3095 1.7212 2.6827 746.74 -0.00078883 95.768 0.094289
40.375 1176.1 undefined 290.75 307.30 1.3150 490.00 0.0020408 290.75 307.30 1.3150 1.7251 2.6798 749.43 -0.00085132 95.779 0.094390 490.00 0.0020408 290.75 307.30 1.3150 1.7251 2.6798 749.43 -0.00085132 95.779 0.094390
41.375 1250.7 undefined 292.48 310.08 1.3205 490.00 0.0020408 292.48 310.08 1.3205 1.7290 2.6772 752.09 -0.00091244 95.791 0.094492 490.00 0.0020408 292.48 310.08 1.3205 1.7290 2.6772 752.09 -0.00091244 95.791 0.094492
42.375 1325.2 undefined 294.21 312.86 1.3260 490.00 0.0020408 294.21 312.86 1.3260 1.7329 2.6746 754.72 -0.00097226 95.803 0.094594 490.00 0.0020408 294.21 312.86 1.3260 1.7329 2.6746 754.72 -0.00097226 95.803 0.094594
43.375 1399.8 undefined 295.94 315.64 1.3315 490.00 0.0020408 295.94 315.64 1.3315 1.7368 2.6722 757.33 -0.0010308 95.814 0.094696 490.00 0.0020408 295.94 315.64 1.3315 1.7368 2.6722 757.33 -0.0010308 95.814 0.094696
44.375 1474.4 undefined 297.68 318.43 1.3369 490.00 0.0020408 297.68 318.43 1.3369 1.7407 2.6700 759.91 -0.0010881 95.826 0.094798 490.00 0.0020408 297.68 318.43 1.3369 1.7407 2.6700 759.91 -0.0010881 95.826 0.094798
45.375 1549.0 undefined 299.42 321.22 1.3424 490.00 0.0020408 299.42 321.22 1.3424 1.7447 2.6678 762.46 -0.0011443 95.838 0.094901 490.00 0.0020408 299.42 321.22 1.3424 1.7447 2.6678 762.46 -0.0011443 95.838 0.094901
46.375 1623.6 undefined 301.17 324.02 1.3479 490.00 0.0020408 301.17 324.02 1.3479 1.7486 2.6659 764.99 -0.0011992 95.850 0.095004 490.00 0.0020408 301.17 324.02 1.3479 1.7486 2.6659 764.99 -0.0011992 95.850 0.095004
47.375 1698.2 undefined 302.92 326.82 1.3534 490.00 0.0020408 302.92 326.82 1.3534 1.7526 2.6640 767.50 -0.0012531 95.862 0.095107 490.00 0.0020408 302.92 326.82 1.3534 1.7526 2.6640 767.50 -0.0012531 95.862 0.095107
48.375 1772.8 undefined 304.68 329.62 1.3588 490.00 0.0020408 304.68 329.62 1.3588 1.7566 2.6622 769.98 -0.0013058 95.874 0.095211 490.00 0.0020408 304.68 329.62 1.3588 1.7566 2.6622 769.98 -0.0013058 95.874 0.095211
49.375 1847.4 undefined 306.44 332.43 1.3643 490.00 0.0020408 306.44 332.43 1.3643 1.7606 2.6606 772.44 -0.0013575 95.886 0.095315 490.00 0.0020408 306.44 332.43 1.3643 1.7606 2.6606 772.44 -0.0013575 95.886 0.095315
50.375 1922.0 undefined 308.20 335.24 1.3698 490.00 0.0020408 308.20 335.24 1.3698 1.7647 2.6591 774.87 -0.0014082 95.898 0.095419 490.00 0.0020408 308.20 335.24 1.3698 1.7647 2.6591 774.87 -0.0014082 95.898 0.095419
51.375 1996.6 undefined 309.96 338.06 1.3752 490.00 0.0020408 309.96 338.06 1.3752 1.7687 2.6577 777.29 -0.0014578 95.910 0.095524 490.00 0.0020408 309.96 338.06 1.3752 1.7687 2.6577 777.29 -0.0014578 95.910 0.095524
52.375 2071.2 undefined 311.74 340.88 1.3807 490.00 0.0020408 311.74 340.88 1.3807 1.7728 2.6564 779.68 -0.0015065 95.922 0.095629 490.00 0.0020408 311.74 340.88 1.3807 1.7728 2.6564 779.68 -0.0015065 95.922 0.095629
53.375 2145.8 undefined 313.51 343.70 1.3861 490.00 0.0020408 313.51 343.70 1.3861 1.7769 2.6552 782.06 -0.0015542 95.935 0.095734 490.00 0.0020408 313.51 343.70 1.3861 1.7769 2.6552 782.06 -0.0015542 95.935 0.095734
54.375 2220.3 undefined 315.29 346.53 1.3915 490.00 0.0020408 315.29 346.53 1.3915 1.7809 2.6541 784.41 -0.0016010 95.947 0.095840 490.00 0.0020408 315.29 346.53 1.3915 1.7809 2.6541 784.41 -0.0016010 95.947 0.095840
55.375 2294.9 undefined 317.07 349.36 1.3970 490.00 0.0020408 317.07 349.36 1.3970 1.7850 2.6531 786.75 -0.0016469 95.960 0.095946 490.00 0.0020408 317.07 349.36 1.3970 1.7850 2.6531 786.75 -0.0016469 95.960 0.095946
56.375 2369.4 undefined 318.86 352.20 1.4024 490.00 0.0020408 318.86 352.20 1.4024 1.7891 2.6521 789.06 -0.0016919 95.972 0.096052 490.00 0.0020408 318.86 352.20 1.4024 1.7891 2.6521 789.06 -0.0016919 95.972 0.096052
57.375 2444.0 undefined 320.65 355.04 1.4078 490.00 0.0020408 320.65 355.04 1.4078 1.7933 2.6513 791.36 -0.0017360 95.985 0.096159 490.00 0.0020408 320.65 355.04 1.4078 1.7933 2.6513 791.36 -0.0017360 95.985 0.096159
58.375 2518.5 undefined 322.45 357.88 1.4133 490.00 0.0020408 322.45 357.88 1.4133 1.7974 2.6506 793.64 -0.0017793 95.998 0.096266 490.00 0.0020408 322.45 357.88 1.4133 1.7974 2.6506 793.64 -0.0017793 95.998 0.096266
59.375 2593.0 undefined 324.25 360.73 1.4187 490.00 0.0020408 324.25 360.73 1.4187 1.8015 2.6500 795.90 -0.0018218 96.010 0.096373 490.00 0.0020408 324.25 360.73 1.4187 1.8015 2.6500 795.90 -0.0018218 96.010 0.096373
60.375 2667.5 undefined 326.05 363.58 1.4241 490.00 0.0020408 326.05 363.58 1.4241 1.8057 2.6494 798.15 -0.0018635 96.023 0.096480 490.00 0.0020408 326.05 363.58 1.4241 1.8057 2.6494 798.15 -0.0018635 96.023 0.096480
61.375 2741.9 undefined 327.86 366.44 1.4295 490.00 0.0020408 327.86 366.44 1.4295 1.8099 2.6489 800.38 -0.0019044 96.036 0.096588 490.00 0.0020408 327.86 366.44 1.4295 1.8099 2.6489 800.38 -0.0019044 96.036 0.096588
62.375 2816.4 undefined 329.67 369.30 1.4349 490.00 0.0020408 329.67 369.30 1.4349 1.8140 2.6486 802.59 -0.0019445 96.049 0.096696 490.00 0.0020408 329.67 369.30 1.4349 1.8140 2.6486 802.59 -0.0019445 96.049 0.096696
63.375 2890.8 undefined 331.48 372.16 1.4403 490.00 0.0020408 331.48 372.16 1.4403 1.8182 2.6482 804.79 -0.0019839 96.062 0.096805 490.00 0.0020408 331.48 372.16 1.4403 1.8182 2.6482 804.79 -0.0019839 96.062 0.096805
64.375 2965.3 undefined 333.30 375.03 1.4457 490.00 0.0020408 333.30 375.03 1.4457 1.8224 2.6480 806.97 -0.0020226 96.075 0.096914 490.00 0.0020408 333.30 375.03 1.4457 1.8224 2.6480 806.97 -0.0020226 96.075 0.096914
65.375 3039.7 undefined 335.13 377.90 1.4511 490.00 0.0020408 335.13 377.90 1.4511 1.8266 2.6479 809.14 -0.0020606 96.088 0.097023 490.00 0.0020408 335.13 377.90 1.4511 1.8266 2.6479 809.14 -0.0020606 96.088 0.097023
66.375 3114.0 undefined 336.96 380.78 1.4565 490.00 0.0020408 336.96 380.78 1.4565 1.8308 2.6478 811.30 -0.0020978 96.101 0.097132 490.00 0.0020408 336.96 380.78 1.4565 1.8308 2.6478 811.30 -0.0020978 96.101 0.097132
67.375 3188.4 undefined 338.79 383.65 1.4619 490.00 0.0020408 338.79 383.65 1.4619 1.8350 2.6477 813.43 -0.0021344 96.115 0.097242 490.00 0.0020408 338.79 383.65 1.4619 1.8350 2.6477 813.43 -0.0021344 96.115 0.097242
68.375 3262.7 undefined 340.63 386.54 1.4673 490.00 0.0020408 340.63 386.54 1.4673 1.8392 2.6478 815.56 -0.0021703 96.128 0.097352 490.00 0.0020408 340.63 386.54 1.4673 1.8392 2.6478 815.56 -0.0021703 96.128 0.097352
69.375 3337.1 undefined 342.47 389.43 1.4727 490.00 0.0020408 342.47 389.43 1.4727 1.8434 2.6479 817.67 -0.0022056 96.141 0.097462 490.00 0.0020408 342.47 389.43 1.4727 1.8434 2.6479 817.67 -0.0022056 96.141 0.097462
70.375 3411.4 undefined 344.32 392.32 1.4781 490.00 0.0020408 344.32 392.32 1.4781 1.8477 2.6481 819.77 -0.0022402 96.155 0.097573 490.00 0.0020408 344.32 392.32 1.4781 1.8477 2.6481 819.77 -0.0022402 96.155 0.097573
71.375 3485.6 undefined 346.16 395.21 1.4834 490.00 0.0020408 346.16 395.21 1.4834 1.8519 2.6484 821.86 -0.0022742 96.168 0.097684 490.00 0.0020408 346.16 395.21 1.4834 1.8519 2.6484 821.86 -0.0022742 96.168 0.097684
72.375 3559.9 undefined 348.02 398.11 1.4888 490.00 0.0020408 348.02 398.11 1.4888 1.8562 2.6487 823.93 -0.0023076 96.182 0.097795 490.00 0.0020408 348.02 398.11 1.4888 1.8562 2.6487 823.93 -0.0023076 96.182 0.097795
73.375 3634.1 undefined 349.88 401.01 1.4942 490.00 0.0020408 349.88 401.01 1.4942 1.8604 2.6490 825.99 -0.0023404 96.195 0.097906 490.00 0.0020408 349.88 401.01 1.4942 1.8604 2.6490 825.99 -0.0023404 96.195 0.097906
74.375 3708.3 undefined 351.74 403.92 1.4995 490.00 0.0020408 351.74 403.92 1.4995 1.8647 2.6495 828.04 -0.0023726 96.209 0.098018 490.00 0.0020408 351.74 403.92 1.4995 1.8647 2.6495 828.04 -0.0023726 96.209 0.098018
75.375 3782.5 undefined 353.61 406.83 1.5049 490.00 0.0020408 353.61 406.83 1.5049 1.8689 2.6500 830.07 -0.0024043 96.223 0.098130 490.00 0.0020408 353.61 406.83 1.5049 1.8689 2.6500 830.07 -0.0024043 96.223 0.098130
76.375 3856.6 undefined 355.48 409.74 1.5103 490.00 0.0020408 355.48 409.74 1.5103 1.8732 2.6505 832.10 -0.0024353 96.236 0.098243 490.00 0.0020408 355.48 409.74 1.5103 1.8732 2.6505 832.10 -0.0024353 96.236 0.098243
77.375 3930.8 undefined 357.35 412.66 1.5156 490.00 0.0020408 357.35 412.66 1.5156 1.8774 2.6511 834.11 -0.0024659 96.250 0.098356 490.00 0.0020408 357.35 412.66 1.5156 1.8774 2.6511 834.11 -0.0024659 96.250 0.098356
78.375 4004.9 undefined 359.23 415.58 1.5210 490.00 0.0020408 359.23 415.58 1.5210 1.8817 2.6517 836.11 -0.0024959 96.264 0.098469 490.00 0.0020408 359.23 415.58 1.5210 1.8817 2.6517 836.11 -0.0024959 96.264 0.098469
79.375 4078.9 undefined 361.12 418.51 1.5263 490.00 0.0020408 361.12 418.51 1.5263 1.8860 2.6525 838.10 -0.0025253 96.278 0.098582 490.00 0.0020408 361.12 418.51 1.5263 1.8860 2.6525 838.10 -0.0025253 96.278 0.098582
80.375 4153.0 undefined 363.00 421.44 1.5317 490.00 0.0020408 363.00 421.44 1.5317 1.8903 2.6532 840.08 -0.0025543 96.292 0.098696 490.00 0.0020408 363.00 421.44 1.5317 1.8903 2.6532 840.08 -0.0025543 96.292 0.098696
81.375 4227.0 undefined 364.90 424.37 1.5370 490.00 0.0020408 364.90 424.37 1.5370 1.8945 2.6540 842.05 -0.0025827 96.306 0.098810 490.00 0.0020408 364.90 424.37 1.5370 1.8945 2.6540 842.05 -0.0025827 96.306 0.098810
82.375 4301.0 undefined 366.79 427.31 1.5424 490.00 0.0020408 366.79 427.31 1.5424 1.8988 2.6549 844.01 -0.0026107 96.320 0.098924 490.00 0.0020408 366.79 427.31 1.5424 1.8988 2.6549 844.01 -0.0026107 96.320 0.098924
83.375 4374.9 undefined 368.69 430.25 1.5477 490.00 0.0020408 368.69 430.25 1.5477 1.9031 2.6558 845.96 -0.0026381 96.334 0.099039 490.00 0.0020408 368.69 430.25 1.5477 1.9031 2.6558 845.96 -0.0026381 96.334 0.099039
84.375 4448.9 undefined 370.60 433.20 1.5530 490.00 0.0020408 370.60 433.20 1.5530 1.9074 2.6567 847.90 -0.0026651 96.348 0.099154 490.00 0.0020408 370.60 433.20 1.5530 1.9074 2.6567 847.90 -0.0026651 96.348 0.099154
85.375 4522.8 undefined 372.51 436.15 1.5584 490.00 0.0020408 372.51 436.15 1.5584 1.9117 2.6577 849.83 -0.0026917 96.362 0.099269 490.00 0.0020408 372.51 436.15 1.5584 1.9117 2.6577 849.83 -0.0026917 96.362 0.099269
86.375 4596.7 undefined 374.42 439.10 1.5637 490.00 0.0020408 374.42 439.10 1.5637 1.9160 2.6587 851.75 -0.0027177 96.377 0.099384 490.00 0.0020408 374.42 439.10 1.5637 1.9160 2.6587 851.75 -0.0027177 96.377 0.099384
87.375 4670.5 undefined 376.34 442.06 1.5690 490.00 0.0020408 376.34 442.06 1.5690 1.9203 2.6598 853.66 -0.0027433 96.391 0.099500 490.00 0.0020408 376.34 442.06 1.5690 1.9203 2.6598 853.66 -0.0027433 96.391 0.099500
88.375 4744.3 undefined 378.26 445.02 1.5744 490.00 0.0020408 378.26 445.02 1.5744 1.9245 2.6610 855.56 -0.0027685 96.405 0.099616 490.00 0.0020408 378.26 445.02 1.5744 1.9245 2.6610 855.56 -0.0027685 96.405 0.099616
89.375 4818.1 undefined 380.19 447.99 1.5797 490.00 0.0020408 380.19 447.99 1.5797 1.9288 2.6621 857.45 -0.0027932 96.420 0.099733 490.00 0.0020408 380.19 447.99 1.5797 1.9288 2.6621 857.45 -0.0027932 96.420 0.099733
90.375 4891.9 undefined 382.12 450.95 1.5850 490.00 0.0020408 382.12 450.95 1.5850 1.9331 2.6633 859.33 -0.0028176 96.434 0.099849 490.00 0.0020408 382.12 450.95 1.5850 1.9331 2.6633 859.33 -0.0028176 96.434 0.099849
91.375 4965.6 undefined 384.06 453.93 1.5903 490.00 0.0020408 384.06 453.93 1.5903 1.9374 2.6646 861.21 -0.0028415 96.449 0.099966 490.00 0.0020408 384.06 453.93 1.5903 1.9374 2.6646 861.21 -0.0028415 96.449 0.099966
92.375 5039.3 undefined 386.00 456.90 1.5956 490.00 0.0020408 386.00 456.90 1.5956 1.9417 2.6658 863.07 -0.0028650 96.463 0.10008 490.00 0.0020408 386.00 456.90 1.5956 1.9417 2.6658 863.07 -0.0028650 96.463 0.10008
93.375 5112.9 undefined 387.94 459.88 1.6009 490.00 0.0020408 387.94 459.88 1.6009 1.9460 2.6672 864.93 -0.0028881 96.478 0.10020 490.00 0.0020408 387.94 459.88 1.6009 1.9460 2.6672 864.93 -0.0028881 96.478 0.10020
94.375 5186.6 undefined 389.89 462.87 1.6062 490.00 0.0020408 389.89 462.87 1.6062 1.9503 2.6685 866.78 -0.0029108 96.492 0.10032 490.00 0.0020408 389.89 462.87 1.6062 1.9503 2.6685 866.78 -0.0029108 96.492 0.10032
95.375 5260.2 undefined 391.84 465.86 1.6116 490.00 0.0020408 391.84 465.86 1.6116 1.9546 2.6699 868.62 -0.0029331 96.507 0.10044 490.00 0.0020408 391.84 465.86 1.6116 1.9546 2.6699 868.62 -0.0029331 96.507 0.10044
96.375 5333.7 undefined 393.80 468.85 1.6169 490.00 0.0020408 393.80 468.85 1.6169 1.9589 2.6713 870.45 -0.0029550 96.522 0.10056 490.00 0.0020408 393.80 468.85 1.6169 1.9589 2.6713 870.45 -0.0029550 96.522 0.10056
97.375 5407.3 undefined 395.76 471.84 1.6222 490.00 0.0020408 395.76 471.84 1.6222 1.9632 2.6728 872.27 -0.0029766 96.537 0.10067 490.00 0.0020408 395.76 471.84 1.6222 1.9632 2.6728 872.27 -0.0029766 96.537 0.10067
98.375 5480.8 undefined 397.72 474.84 1.6275 490.00 0.0020408 397.72 474.84 1.6275 1.9675 2.6743 874.09 -0.0029978 96.551 0.10079 490.00 0.0020408 397.72 474.84 1.6275 1.9675 2.6743 874.09 -0.0029978 96.551 0.10079
99.375 5554.3 undefined 399.69 477.85 1.6327 490.00 0.0020408 399.69 477.85 1.6327 1.9718 2.6758 875.89 -0.0030186 96.566 0.10091 490.00 0.0020408 399.69 477.85 1.6327 1.9718 2.6758 875.89 -0.0030186 96.566 0.10091
100.38 5627.7 undefined 401.67 480.85 1.6380 490.00 0.0020408 401.67 480.85 1.6380 1.9761 2.6774 877.69 -0.0030391 96.581 0.10103 490.00 0.0020408 401.67 480.85 1.6380 1.9761 2.6774 877.69 -0.0030391 96.581 0.10103
101.38 5701.1 undefined 403.65 483.87 1.6433 490.00 0.0020408 403.65 483.87 1.6433 1.9804 2.6790 879.48 -0.0030593 96.596 0.10115 490.00 0.0020408 403.65 483.87 1.6433 1.9804 2.6790 879.48 -0.0030593 96.596 0.10115
102.38 5774.5 undefined 405.63 486.88 1.6486 490.00 0.0020408 405.63 486.88 1.6486 1.9847 2.6806 881.27 -0.0030791 96.611 0.10127 490.00 0.0020408 405.63 486.88 1.6486 1.9847 2.6806 881.27 -0.0030791 96.611 0.10127
103.38 5847.8 undefined 407.62 489.90 1.6539 490.00 0.0020408 407.62 489.90 1.6539 1.9890 2.6822 883.05 -0.0030986 96.626 0.10139 490.00 0.0020408 407.62 489.90 1.6539 1.9890 2.6822 883.05 -0.0030986 96.626 0.10139
104.38 5921.1 undefined 409.61 492.92 1.6592 490.00 0.0020408 409.61 492.92 1.6592 1.9933 2.6839 884.81 -0.0031178 96.641 0.10151 490.00 0.0020408 409.61 492.92 1.6592 1.9933 2.6839 884.81 -0.0031178 96.641 0.10151
105.38 5994.4 undefined 411.60 495.95 1.6645 490.00 0.0020408 411.60 495.95 1.6645 1.9976 2.6856 886.58 -0.0031366 96.656 0.10164 490.00 0.0020408 411.60 495.95 1.6645 1.9976 2.6856 886.58 -0.0031366 96.656 0.10164
106.38 6067.7 undefined 413.60 498.98 1.6697 490.00 0.0020408 413.60 498.98 1.6697 2.0019 2.6873 888.33 -0.0031551 96.672 0.10176 490.00 0.0020408 413.60 498.98 1.6697 2.0019 2.6873 888.33 -0.0031551 96.672 0.10176
107.38 6140.9 undefined 415.61 502.01 1.6750 490.00 0.0020408 415.61 502.01 1.6750 2.0062 2.6891 890.08 -0.0031733 96.687 0.10188 490.00 0.0020408 415.61 502.01 1.6750 2.0062 2.6891 890.08 -0.0031733 96.687 0.10188
108.38 6214.1 undefined 417.61 505.05 1.6803 490.00 0.0020408 417.61 505.05 1.6803 2.0105 2.6909 891.82 -0.0031912 96.702 0.10200 490.00 0.0020408 417.61 505.05 1.6803 2.0105 2.6909 891.82 -0.0031912 96.702 0.10200
109.38 6287.2 undefined 419.63 508.09 1.6855 490.00 0.0020408 419.63 508.09 1.6855 2.0148 2.6927 893.55 -0.0032089 96.717 0.10212 490.00 0.0020408 419.63 508.09 1.6855 2.0148 2.6927 893.55 -0.0032089 96.717 0.10212
110.38 6360.3 undefined 421.64 511.14 1.6908 490.00 0.0020408 421.64 511.14 1.6908 2.0190 2.6945 895.28 -0.0032262 96.733 0.10225 490.00 0.0020408 421.64 511.14 1.6908 2.0190 2.6945 895.28 -0.0032262 96.733 0.10225
111.38 6433.4 undefined 423.66 514.19 1.6961 490.00 0.0020408 423.66 514.19 1.6961 2.0233 2.6964 897.00 -0.0032432 96.748 0.10237 490.00 0.0020408 423.66 514.19 1.6961 2.0233 2.6964 897.00 -0.0032432 96.748 0.10237
112.38 6506.4 undefined 425.69 517.24 1.7013 490.00 0.0020408 425.69 517.24 1.7013 2.0276 2.6983 898.72 -0.0032600 96.763 0.10249 490.00 0.0020408 425.69 517.24 1.7013 2.0276 2.6983 898.72 -0.0032600 96.763 0.10249
113.38 6579.4 undefined 427.72 520.30 1.7066 490.00 0.0020408 427.72 520.30 1.7066 2.0319 2.7002 900.42 -0.0032765 96.779 0.10262 490.00 0.0020408 427.72 520.30 1.7066 2.0319 2.7002 900.42 -0.0032765 96.779 0.10262
114.38 6652.4 undefined 429.75 523.36 1.7119 490.00 0.0020408 429.75 523.36 1.7119 2.0362 2.7021 902.12 -0.0032927 96.794 0.10274 490.00 0.0020408 429.75 523.36 1.7119 2.0362 2.7021 902.12 -0.0032927 96.794 0.10274
115.38 6725.4 undefined 431.79 526.42 1.7171 490.00 0.0020408 431.79 526.42 1.7171 2.0404 2.7041 903.82 -0.0033086 96.810 0.10286 490.00 0.0020408 431.79 526.42 1.7171 2.0404 2.7041 903.82 -0.0033086 96.810 0.10286
116.38 6798.3 undefined 433.83 529.49 1.7224 490.00 0.0020408 433.83 529.49 1.7224 2.0447 2.7061 905.51 -0.0033243 96.825 0.10299 490.00 0.0020408 433.83 529.49 1.7224 2.0447 2.7061 905.51 -0.0033243 96.825 0.10299
117.38 6871.1 undefined 435.88 532.56 1.7276 490.00 0.0020408 435.88 532.56 1.7276 2.0490 2.7081 907.19 -0.0033397 96.841 0.10311 490.00 0.0020408 435.88 532.56 1.7276 2.0490 2.7081 907.19 -0.0033397 96.841 0.10311
118.38 6944.0 undefined 437.93 535.64 1.7328 490.00 0.0020408 437.93 535.64 1.7328 2.0533 2.7101 908.86 -0.0033549 96.856 0.10324 490.00 0.0020408 437.93 535.64 1.7328 2.0533 2.7101 908.86 -0.0033549 96.856 0.10324
119.38 7016.8 undefined 439.99 538.72 1.7381 490.00 0.0020408 439.99 538.72 1.7381 2.0575 2.7121 910.53 -0.0033698 96.872 0.10336 490.00 0.0020408 439.99 538.72 1.7381 2.0575 2.7121 910.53 -0.0033698 96.872 0.10336
120.38 7089.5 undefined 442.05 541.80 1.7433 490.00 0.0020408 442.05 541.80 1.7433 2.0618 2.7142 912.19 -0.0033845 96.888 0.10349 490.00 0.0020408 442.05 541.80 1.7433 2.0618 2.7142 912.19 -0.0033845 96.888 0.10349
121.38 7162.3 undefined 444.11 544.89 1.7486 490.00 0.0020408 444.11 544.89 1.7486 2.0661 2.7163 913.85 -0.0033989 96.904 0.10361 490.00 0.0020408 444.11 544.89 1.7486 2.0661 2.7163 913.85 -0.0033989 96.904 0.10361
122.38 7235.0 undefined 446.18 547.98 1.7538 490.00 0.0020408 446.18 547.98 1.7538 2.0703 2.7184 915.50 -0.0034131 96.919 0.10374 490.00 0.0020408 446.18 547.98 1.7538 2.0703 2.7184 915.50 -0.0034131 96.919 0.10374
123.38 7307.6 undefined 448.25 551.08 1.7590 490.00 0.0020408 448.25 551.08 1.7590 2.0746 2.7205 917.15 -0.0034271 96.935 0.10387 490.00 0.0020408 448.25 551.08 1.7590 2.0746 2.7205 917.15 -0.0034271 96.935 0.10387
124.38 7380.3 undefined 450.33 554.18 1.7643 490.00 0.0020408 450.33 554.18 1.7643 2.0788 2.7226 918.79 -0.0034408 96.951 0.10399 490.00 0.0020408 450.33 554.18 1.7643 2.0788 2.7226 918.79 -0.0034408 96.951 0.10399
125.38 7452.9 undefined 452.41 557.28 1.7695 490.00 0.0020408 452.41 557.28 1.7695 2.0831 2.7248 920.42 -0.0034543 96.967 0.10412 490.00 0.0020408 452.41 557.28 1.7695 2.0831 2.7248 920.42 -0.0034543 96.967 0.10412
126.38 7525.4 undefined 454.49 560.38 1.7747 490.00 0.0020408 454.49 560.38 1.7747 2.0873 2.7270 922.05 -0.0034676 96.983 0.10425 490.00 0.0020408 454.49 560.38 1.7747 2.0873 2.7270 922.05 -0.0034676 96.983 0.10425
127.38 7597.9 undefined 456.58 563.49 1.7799 490.00 0.0020408 456.58 563.49 1.7799 2.0916 2.7292 923.67 -0.0034807 96.999 0.10438 490.00 0.0020408 456.58 563.49 1.7799 2.0916 2.7292 923.67 -0.0034807 96.999 0.10438
128.38 7670.4 undefined 458.68 566.61 1.7852 490.00 0.0020408 458.68 566.61 1.7852 2.0958 2.7314 925.29 -0.0034935 97.015 0.10450 490.00 0.0020408 458.68 566.61 1.7852 2.0958 2.7314 925.29 -0.0034935 97.015 0.10450
129.38 7742.9 undefined 460.78 569.73 1.7904 490.00 0.0020408 460.78 569.73 1.7904 2.1001 2.7336 926.90 -0.0035062 97.031 0.10463 490.00 0.0020408 460.78 569.73 1.7904 2.1001 2.7336 926.90 -0.0035062 97.031 0.10463
130.38 7815.3 undefined 462.88 572.85 1.7956 490.00 0.0020408 462.88 572.85 1.7956 2.1043 2.7358 928.50 -0.0035186 97.047 0.10476 490.00 0.0020408 462.88 572.85 1.7956 2.1043 2.7358 928.50 -0.0035186 97.047 0.10476
131.38 7887.7 undefined 464.98 575.97 1.8008 490.00 0.0020408 464.98 575.97 1.8008 2.1085 2.7381 930.10 -0.0035309 97.063 0.10489 490.00 0.0020408 464.98 575.97 1.8008 2.1085 2.7381 930.10 -0.0035309 97.063 0.10489
132.38 7960.0 undefined 467.10 579.10 1.8060 490.00 0.0020408 467.10 579.10 1.8060 2.1128 2.7404 931.70 -0.0035429 97.079 0.10502 490.00 0.0020408 467.10 579.10 1.8060 2.1128 2.7404 931.70 -0.0035429 97.079 0.10502
133.38 8032.3 undefined 469.21 582.23 1.8112 490.00 0.0020408 469.21 582.23 1.8112 2.1170 2.7427 933.29 -0.0035548 97.095 0.10515 490.00 0.0020408 469.21 582.23 1.8112 2.1170 2.7427 933.29 -0.0035548 97.095 0.10515
134.38 8104.6 undefined 471.33 585.37 1.8164 490.00 0.0020408 471.33 585.37 1.8164 2.1212 2.7450 934.87 -0.0035664 97.111 0.10528 490.00 0.0020408 471.33 585.37 1.8164 2.1212 2.7450 934.87 -0.0035664 97.111 0.10528
135.38 8176.8 undefined 473.45 588.51 1.8216 490.00 0.0020408 473.45 588.51 1.8216 2.1254 2.7473 936.45 -0.0035779 97.127 0.10541 490.00 0.0020408 473.45 588.51 1.8216 2.1254 2.7473 936.45 -0.0035779 97.127 0.10541
136.38 8249.0 undefined 475.58 591.65 1.8268 490.00 0.0020408 475.58 591.65 1.8268 2.1297 2.7496 938.03 -0.0035892 97.143 0.10554 490.00 0.0020408 475.58 591.65 1.8268 2.1297 2.7496 938.03 -0.0035892 97.143 0.10554
137.38 8321.2 undefined 477.71 594.80 1.8320 490.00 0.0020408 477.71 594.80 1.8320 2.1339 2.7520 939.59 -0.0036003 97.160 0.10568 490.00 0.0020408 477.71 594.80 1.8320 2.1339 2.7520 939.59 -0.0036003 97.160 0.10568
138.38 8393.3 undefined 479.85 597.95 1.8372 490.00 0.0020408 479.85 597.95 1.8372 2.1381 2.7543 941.16 -0.0036112 97.176 0.10581 490.00 0.0020408 479.85 597.95 1.8372 2.1381 2.7543 941.16 -0.0036112 97.176 0.10581
139.38 8465.4 undefined 481.99 601.10 1.8424 490.00 0.0020408 481.99 601.10 1.8424 2.1423 2.7567 942.72 -0.0036219 97.192 0.10594 490.00 0.0020408 481.99 601.10 1.8424 2.1423 2.7567 942.72 -0.0036219 97.192 0.10594
140.38 8537.5 undefined 484.13 604.26 1.8476 490.00 0.0020408 484.13 604.26 1.8476 2.1465 2.7591 944.27 -0.0036325 97.208 0.10607 490.00 0.0020408 484.13 604.26 1.8476 2.1465 2.7591 944.27 -0.0036325 97.208 0.10607
141.38 8609.5 undefined 486.28 607.43 1.8528 490.00 0.0020408 486.28 607.43 1.8528 2.1507 2.7615 945.82 -0.0036429 97.225 0.10621 490.00 0.0020408 486.28 607.43 1.8528 2.1507 2.7615 945.82 -0.0036429 97.225 0.10621
142.38 8681.5 undefined 488.43 610.59 1.8580 490.00 0.0020408 488.43 610.59 1.8580 2.1549 2.7639 947.36 -0.0036531 97.241 0.10634 490.00 0.0020408 488.43 610.59 1.8580 2.1549 2.7639 947.36 -0.0036531 97.241 0.10634
143.38 8753.5 undefined 490.59 613.76 1.8632 490.00 0.0020408 490.59 613.76 1.8632 2.1591 2.7663 948.90 -0.0036632 97.258 0.10648 490.00 0.0020408 490.59 613.76 1.8632 2.1591 2.7663 948.90 -0.0036632 97.258 0.10648
144.38 8825.4 undefined 492.75 616.93 1.8684 490.00 0.0020408 492.75 616.93 1.8684 2.1633 2.7687 950.43 -0.0036731 97.274 0.10661 490.00 0.0020408 492.75 616.93 1.8684 2.1633 2.7687 950.43 -0.0036731 97.274 0.10661
145.38 8897.3 undefined 494.92 620.11 1.8736 490.00 0.0020408 494.92 620.11 1.8736 2.1675 2.7712 951.96 -0.0036828 97.290 0.10674 490.00 0.0020408 494.92 620.11 1.8736 2.1675 2.7712 951.96 -0.0036828 97.290 0.10674
146.38 8969.1 undefined 497.09 623.29 1.8787 490.00 0.0020408 497.09 623.29 1.8787 2.1717 2.7736 953.49 -0.0036924 97.307 0.10688 490.00 0.0020408 497.09 623.29 1.8787 2.1717 2.7736 953.49 -0.0036924 97.307 0.10688
147.38 9040.9 undefined 499.26 626.47 1.8839 490.00 0.0020408 499.26 626.47 1.8839 2.1758 2.7761 955.01 -0.0037018 97.323 0.10701 490.00 0.0020408 499.26 626.47 1.8839 2.1758 2.7761 955.01 -0.0037018 97.323 0.10701
148.38 9112.7 undefined 501.44 629.66 1.8891 490.00 0.0020408 501.44 629.66 1.8891 2.1800 2.7786 956.52 -0.0037111 97.340 0.10715 490.00 0.0020408 501.44 629.66 1.8891 2.1800 2.7786 956.52 -0.0037111 97.340 0.10715
149.38 9184.4 undefined 503.62 632.85 1.8942 490.00 0.0020408 503.62 632.85 1.8942 2.1842 2.7811 958.03 -0.0037202 97.356 0.10729 490.00 0.0020408 503.62 632.85 1.8942 2.1842 2.7811 958.03 -0.0037202 97.356 0.10729
150.38 9256.1 undefined 505.81 636.05 1.8994 490.00 0.0020408 505.81 636.05 1.8994 2.1883 2.7836 959.54 -0.0037292 97.373 0.10742 490.00 0.0020408 505.81 636.05 1.8994 2.1883 2.7836 959.54 -0.0037292 97.373 0.10742
151.38 9327.8 undefined 508.00 639.25 1.9046 490.00 0.0020408 508.00 639.25 1.9046 2.1925 2.7861 961.04 -0.0037380 97.390 0.10756 490.00 0.0020408 508.00 639.25 1.9046 2.1925 2.7861 961.04 -0.0037380 97.390 0.10756
152.38 9399.4 undefined 510.19 642.45 1.9097 490.00 0.0020408 510.19 642.45 1.9097 2.1967 2.7886 962.54 -0.0037467 97.406 0.10769 490.00 0.0020408 510.19 642.45 1.9097 2.1967 2.7886 962.54 -0.0037467 97.406 0.10769
153.38 9471.0 undefined 512.39 645.66 1.9149 490.00 0.0020408 512.39 645.66 1.9149 2.2008 2.7911 964.03 -0.0037552 97.423 0.10783 490.00 0.0020408 512.39 645.66 1.9149 2.2008 2.7911 964.03 -0.0037552 97.423 0.10783
154.38 9542.5 undefined 514.59 648.87 1.9201 490.00 0.0020408 514.59 648.87 1.9201 2.2050 2.7937 965.52 -0.0037636 97.440 0.10797 490.00 0.0020408 514.59 648.87 1.9201 2.2050 2.7937 965.52 -0.0037636 97.440 0.10797
155.38 9614.1 undefined 516.80 652.08 1.9252 490.00 0.0020408 516.80 652.08 1.9252 2.2091 2.7962 967.00 -0.0037719 97.456 0.10811 490.00 0.0020408 516.80 652.08 1.9252 2.2091 2.7962 967.00 -0.0037719 97.456 0.10811
156.38 9685.5 undefined 519.01 655.30 1.9304 490.00 0.0020408 519.01 655.30 1.9304 2.2133 2.7988 968.48 -0.0037800 97.473 0.10824 490.00 0.0020408 519.01 655.30 1.9304 2.2133 2.7988 968.48 -0.0037800 97.473 0.10824
157.38 9757.0 undefined 521.23 658.52 1.9355 490.00 0.0020408 521.23 658.52 1.9355 2.2174 2.8014 969.96 -0.0037880 97.490 0.10838 490.00 0.0020408 521.23 658.52 1.9355 2.2174 2.8014 969.96 -0.0037880 97.490 0.10838
158.38 9828.4 undefined 523.45 661.74 1.9407 490.00 0.0020408 523.45 661.74 1.9407 2.2215 2.8039 971.43 -0.0037958 97.507 0.10852 490.00 0.0020408 523.45 661.74 1.9407 2.2215 2.8039 971.43 -0.0037958 97.507 0.10852
159.38 9899.8 undefined 525.67 664.97 1.9458 490.00 0.0020408 525.67 664.97 1.9458 2.2257 2.8065 972.89 -0.0038036 97.523 0.10866 490.00 0.0020408 525.67 664.97 1.9458 2.2257 2.8065 972.89 -0.0038036 97.523 0.10866
160.38 9971.1 undefined 527.90 668.20 1.9510 490.00 0.0020408 527.90 668.20 1.9510 2.2298 2.8091 974.36 -0.0038112 97.540 0.10880 490.00 0.0020408 527.90 668.20 1.9510 2.2298 2.8091 974.36 -0.0038112 97.540 0.10880
161.38 10042. undefined 530.13 671.44 1.9561 490.00 0.0020408 530.13 671.44 1.9561 2.2339 2.8117 975.82 -0.0038187 97.557 0.10894 490.00 0.0020408 530.13 671.44 1.9561 2.2339 2.8117 975.82 -0.0038187 97.557 0.10894
162.38 10114. undefined 532.37 674.67 1.9613 490.00 0.0020408 532.37 674.67 1.9613 2.2380 2.8143 977.27 -0.0038260 97.574 0.10908 490.00 0.0020408 532.37 674.67 1.9613 2.2380 2.8143 977.27 -0.0038260 97.574 0.10908
163.38 10185. undefined 534.61 677.92 1.9664 490.00 0.0020408 534.61 677.92 1.9664 2.2422 2.8169 978.72 -0.0038333 97.591 0.10922 490.00 0.0020408 534.61 677.92 1.9664 2.2422 2.8169 978.72 -0.0038333 97.591 0.10922
164.38 10256. undefined 536.85 681.16 1.9715 490.00 0.0020408 536.85 681.16 1.9715 2.2463 2.8196 980.17 -0.0038404 97.608 0.10936 490.00 0.0020408 536.85 681.16 1.9715 2.2463 2.8196 980.17 -0.0038404 97.608 0.10936
165.38 10327. undefined 539.10 684.41 1.9767 490.00 0.0020408 539.10 684.41 1.9767 2.2504 2.8222 981.61 -0.0038474 97.625 0.10950 490.00 0.0020408 539.10 684.41 1.9767 2.2504 2.8222 981.61 -0.0038474 97.625 0.10950
166.38 10398. undefined 541.35 687.67 1.9818 490.00 0.0020408 541.35 687.67 1.9818 2.2545 2.8248 983.04 -0.0038543 97.642 0.10964 490.00 0.0020408 541.35 687.67 1.9818 2.2545 2.8248 983.04 -0.0038543 97.642 0.10964
167.38 10469. undefined 543.61 690.92 1.9869 490.00 0.0020408 543.61 690.92 1.9869 2.2586 2.8275 984.48 -0.0038611 97.659 0.10978 490.00 0.0020408 543.61 690.92 1.9869 2.2586 2.8275 984.48 -0.0038611 97.659 0.10978
168.38 10540. undefined 545.87 694.18 1.9920 490.00 0.0020408 545.87 694.18 1.9920 2.2627 2.8301 985.91 -0.0038677 97.676 0.10992 490.00 0.0020408 545.87 694.18 1.9920 2.2627 2.8301 985.91 -0.0038677 97.676 0.10992
169.38 10611. undefined 548.13 697.45 1.9972 490.00 0.0020408 548.13 697.45 1.9972 2.2667 2.8328 987.33 -0.0038743 97.693 0.11006 490.00 0.0020408 548.13 697.45 1.9972 2.2667 2.8328 987.33 -0.0038743 97.693 0.11006
170.38 10682. undefined 550.40 700.71 2.0023 490.00 0.0020408 550.40 700.71 2.0023 2.2708 2.8355 988.76 -0.0038807 97.710 0.11020 490.00 0.0020408 550.40 700.71 2.0023 2.2708 2.8355 988.76 -0.0038807 97.710 0.11020
171.38 10753. undefined 552.67 703.98 2.0074 490.00 0.0020408 552.67 703.98 2.0074 2.2749 2.8381 990.17 -0.0038871 97.727 0.11035 490.00 0.0020408 552.67 703.98 2.0074 2.2749 2.8381 990.17 -0.0038871 97.727 0.11035
172.38 10824. undefined 554.95 707.26 2.0125 490.00 0.0020408 554.95 707.26 2.0125 2.2790 2.8408 991.59 -0.0038933 97.744 0.11049 490.00 0.0020408 554.95 707.26 2.0125 2.2790 2.8408 991.59 -0.0038933 97.744 0.11049
173.38 10895. undefined 557.23 710.54 2.0176 490.00 0.0020408 557.23 710.54 2.0176 2.2831 2.8435 993.00 -0.0038994 97.761 0.11063 490.00 0.0020408 557.23 710.54 2.0176 2.2831 2.8435 993.00 -0.0038994 97.761 0.11063
174.38 10966. undefined 559.52 713.82 2.0227 490.00 0.0020408 559.52 713.82 2.0227 2.2871 2.8462 994.41 -0.0039055 97.778 0.11077 490.00 0.0020408 559.52 713.82 2.0227 2.2871 2.8462 994.41 -0.0039055 97.778 0.11077
175.38 11037. undefined 561.81 717.10 2.0279 490.00 0.0020408 561.81 717.10 2.0279 2.2912 2.8489 995.81 -0.0039114 97.795 0.11092 490.00 0.0020408 561.81 717.10 2.0279 2.2912 2.8489 995.81 -0.0039114 97.795 0.11092
176.38 11108. undefined 564.10 720.39 2.0330 490.00 0.0020408 564.10 720.39 2.0330 2.2952 2.8516 997.21 -0.0039172 97.812 0.11106 490.00 0.0020408 564.10 720.39 2.0330 2.2952 2.8516 997.21 -0.0039172 97.812 0.11106
177.38 11178. undefined 566.40 723.69 2.0381 490.00 0.0020408 566.40 723.69 2.0381 2.2993 2.8543 998.60 -0.0039230 97.829 0.11120 490.00 0.0020408 566.40 723.69 2.0381 2.2993 2.8543 998.60 -0.0039230 97.829 0.11120
178.38 11249. undefined 568.70 726.98 2.0432 490.00 0.0020408 568.70 726.98 2.0432 2.3033 2.8570 1000.0 -0.0039286 97.847 0.11135 490.00 0.0020408 568.70 726.98 2.0432 2.3033 2.8570 1000.0 -0.0039286 97.847 0.11135
179.38 11320. undefined 571.00 730.28 2.0483 490.00 0.0020408 571.00 730.28 2.0483 2.3074 2.8597 1001.4 -0.0039341 97.864 0.11149 490.00 0.0020408 571.00 730.28 2.0483 2.3074 2.8597 1001.4 -0.0039341 97.864 0.11149
180.38 11390. undefined 573.31 733.58 2.0534 490.00 0.0020408 573.31 733.58 2.0534 2.3114 2.8624 1002.8 -0.0039396 97.881 0.11164 490.00 0.0020408 573.31 733.58 2.0534 2.3114 2.8624 1002.8 -0.0039396 97.881 0.11164
181.38 11461. undefined 575.63 736.89 2.0585 490.00 0.0020408 575.63 736.89 2.0585 2.3155 2.8652 1004.2 -0.0039449 97.898 0.11178 490.00 0.0020408 575.63 736.89 2.0585 2.3155 2.8652 1004.2 -0.0039449 97.898 0.11178
182.38 11531. undefined 577.94 740.20 2.0636 490.00 0.0020408 577.94 740.20 2.0636 2.3195 2.8679 1005.5 -0.0039502 97.915 0.11193 490.00 0.0020408 577.94 740.20 2.0636 2.3195 2.8679 1005.5 -0.0039502 97.915 0.11193
183.38 11602. undefined 580.27 743.51 2.0686 490.00 0.0020408 580.27 743.51 2.0686 2.3235 2.8706 1006.9 -0.0039554 97.933 0.11207 490.00 0.0020408 580.27 743.51 2.0686 2.3235 2.8706 1006.9 -0.0039554 97.933 0.11207
184.38 11672. undefined 582.59 746.83 2.0737 490.00 0.0020408 582.59 746.83 2.0737 2.3275 2.8734 1008.3 -0.0039605 97.950 0.11222 490.00 0.0020408 582.59 746.83 2.0737 2.3275 2.8734 1008.3 -0.0039605 97.950 0.11222
185.38 11743. undefined 584.92 750.15 2.0788 490.00 0.0020408 584.92 750.15 2.0788 2.3315 2.8761 1009.6 -0.0039655 97.967 0.11237 490.00 0.0020408 584.92 750.15 2.0788 2.3315 2.8761 1009.6 -0.0039655 97.967 0.11237
186.38 11813. undefined 587.25 753.47 2.0839 490.00 0.0020408 587.25 753.47 2.0839 2.3356 2.8789 1011.0 -0.0039704 97.985 0.11251 490.00 0.0020408 587.25 753.47 2.0839 2.3356 2.8789 1011.0 -0.0039704 97.985 0.11251
187.38 11883. undefined 589.59 756.80 2.0890 490.00 0.0020408 589.59 756.80 2.0890 2.3396 2.8816 1012.4 -0.0039752 98.002 0.11266 490.00 0.0020408 589.59 756.80 2.0890 2.3396 2.8816 1012.4 -0.0039752 98.002 0.11266
188.38 11954. undefined 591.93 760.13 2.0941 490.00 0.0020408 591.93 760.13 2.0941 2.3436 2.8844 1013.7 -0.0039800 98.019 0.11281 490.00 0.0020408 591.93 760.13 2.0941 2.3436 2.8844 1013.7 -0.0039800 98.019 0.11281
189.38 12024. undefined 594.28 763.47 2.0991 490.00 0.0020408 594.28 763.47 2.0991 2.3476 2.8871 1015.1 -0.0039846 98.037 0.11296 490.00 0.0020408 594.28 763.47 2.0991 2.3476 2.8871 1015.1 -0.0039846 98.037 0.11296
190.38 12094. undefined 596.63 766.81 2.1042 490.00 0.0020408 596.63 766.81 2.1042 2.3515 2.8899 1016.4 -0.0039892 98.054 0.11310 490.00 0.0020408 596.63 766.81 2.1042 2.3515 2.8899 1016.4 -0.0039892 98.054 0.11310
191.38 12164. undefined 598.98 770.15 2.1093 490.00 0.0020408 598.98 770.15 2.1093 2.3555 2.8927 1017.8 -0.0039937 98.071 0.11325 490.00 0.0020408 598.98 770.15 2.1093 2.3555 2.8927 1017.8 -0.0039937 98.071 0.11325
192.38 12235. undefined 601.34 773.49 2.1144 490.00 0.0020408 601.34 773.49 2.1144 2.3595 2.8954 1019.1 -0.0039982 98.089 0.11340 490.00 0.0020408 601.34 773.49 2.1144 2.3595 2.8954 1019.1 -0.0039982 98.089 0.11340
193.38 12305. undefined 603.70 776.84 2.1194 490.00 0.0020408 603.70 776.84 2.1194 2.3635 2.8982 1020.5 -0.0040025 98.106 0.11355 490.00 0.0020408 603.70 776.84 2.1194 2.3635 2.8982 1020.5 -0.0040025 98.106 0.11355
194.38 12375. undefined 606.07 780.19 2.1245 490.00 0.0020408 606.07 780.19 2.1245 2.3675 2.9010 1021.8 -0.0040068 98.124 0.11370 490.00 0.0020408 606.07 780.19 2.1245 2.3675 2.9010 1021.8 -0.0040068 98.124 0.11370
195.38 12445. undefined 608.44 783.55 2.1296 490.00 0.0020408 608.44 783.55 2.1296 2.3714 2.9038 1023.1 -0.0040110 98.141 0.11385 490.00 0.0020408 608.44 783.55 2.1296 2.3714 2.9038 1023.1 -0.0040110 98.141 0.11385
196.38 12515. undefined 610.81 786.91 2.1346 490.00 0.0020408 610.81 786.91 2.1346 2.3754 2.9066 1024.5 -0.0040151 98.159 0.11400 490.00 0.0020408 610.81 786.91 2.1346 2.3754 2.9066 1024.5 -0.0040151 98.159 0.11400
197.38 12585. undefined 613.19 790.27 2.1397 490.00 0.0020408 613.19 790.27 2.1397 2.3794 2.9094 1025.8 -0.0040192 98.176 0.11415 490.00 0.0020408 613.19 790.27 2.1397 2.3794 2.9094 1025.8 -0.0040192 98.176 0.11415
198.38 12655. undefined 615.57 793.63 2.1447 490.00 0.0020408 615.57 793.63 2.1447 2.3833 2.9121 1027.1 -0.0040232 98.194 0.11430 490.00 0.0020408 615.57 793.63 2.1447 2.3833 2.9121 1027.1 -0.0040232 98.194 0.11430
199.38 12725. undefined 617.95 797.00 2.1498 490.00 0.0020408 617.95 797.00 2.1498 2.3873 2.9149 1028.4 -0.0040271 98.211 0.11445 490.00 0.0020408 617.95 797.00 2.1498 2.3873 2.9149 1028.4 -0.0040271 98.211 0.11445
200.38 12795. undefined 620.34 800.38 2.1548 490.00 0.0020408 620.34 800.38 2.1548 2.3912 2.9177 1029.7 -0.0040309 98.229 0.11460 490.00 0.0020408 620.34 800.38 2.1548 2.3912 2.9177 1029.7 -0.0040309 98.229 0.11460
201.38 12864. undefined 622.74 803.75 2.1599 490.00 0.0020408 622.74 803.75 2.1599 2.3951 2.9205 1031.1 -0.0040347 98.246 0.11475 490.00 0.0020408 622.74 803.75 2.1599 2.3951 2.9205 1031.1 -0.0040347 98.246 0.11475
202.38 12934. undefined 625.13 807.13 2.1649 490.00 0.0020408 625.13 807.13 2.1649 2.3991 2.9233 1032.4 -0.0040384 98.264 0.11490 490.00 0.0020408 625.13 807.13 2.1649 2.3991 2.9233 1032.4 -0.0040384 98.264 0.11490
203.38 13004. undefined 627.53 810.51 2.1700 490.00 0.0020408 627.53 810.51 2.1700 2.4030 2.9261 1033.7 -0.0040420 98.281 0.11505 490.00 0.0020408 627.53 810.51 2.1700 2.4030 2.9261 1033.7 -0.0040420 98.281 0.11505
204.38 13074. undefined 629.94 813.90 2.1750 490.00 0.0020408 629.94 813.90 2.1750 2.4069 2.9290 1035.0 -0.0040456 98.299 0.11520 490.00 0.0020408 629.94 813.90 2.1750 2.4069 2.9290 1035.0 -0.0040456 98.299 0.11520
205.38 13143. undefined 632.35 817.29 2.1801 490.00 0.0020408 632.35 817.29 2.1801 2.4108 2.9318 1036.3 -0.0040491 98.316 0.11535 490.00 0.0020408 632.35 817.29 2.1801 2.4108 2.9318 1036.3 -0.0040491 98.316 0.11535
206.38 13213. undefined 634.76 820.68 2.1851 490.00 0.0020408 634.76 820.68 2.1851 2.4148 2.9346 1037.6 -0.0040526 98.334 0.11551 490.00 0.0020408 634.76 820.68 2.1851 2.4148 2.9346 1037.6 -0.0040526 98.334 0.11551
207.38 13283. undefined 637.18 824.08 2.1901 490.00 0.0020408 637.18 824.08 2.1901 2.4187 2.9374 1038.9 -0.0040560 98.351 0.11566 490.00 0.0020408 637.18 824.08 2.1901 2.4187 2.9374 1038.9 -0.0040560 98.351 0.11566
208.38 13352. undefined 639.60 827.48 2.1952 490.00 0.0020408 639.60 827.48 2.1952 2.4226 2.9402 1040.2 -0.0040593 98.369 0.11581 490.00 0.0020408 639.60 827.48 2.1952 2.4226 2.9402 1040.2 -0.0040593 98.369 0.11581
209.38 13422. undefined 642.02 830.88 2.2002 490.00 0.0020408 642.02 830.88 2.2002 2.4265 2.9430 1041.5 -0.0040625 98.387 0.11597 490.00 0.0020408 642.02 830.88 2.2002 2.4265 2.9430 1041.5 -0.0040625 98.387 0.11597
210.38 13491. undefined 644.45 834.29 2.2052 490.00 0.0020408 644.45 834.29 2.2052 2.4304 2.9459 1042.7 -0.0040657 98.404 0.11612 490.00 0.0020408 644.45 834.29 2.2052 2.4304 2.9459 1042.7 -0.0040657 98.404 0.11612
211.38 13561. undefined 646.88 837.70 2.2102 490.00 0.0020408 646.88 837.70 2.2102 2.4343 2.9487 1044.0 -0.0040689 98.422 0.11627 490.00 0.0020408 646.88 837.70 2.2102 2.4343 2.9487 1044.0 -0.0040689 98.422 0.11627
212.38 13630. undefined 649.32 841.11 2.2153 490.00 0.0020408 649.32 841.11 2.2153 2.4381 2.9515 1045.3 -0.0040719 98.440 0.11643 490.00 0.0020408 649.32 841.11 2.2153 2.4381 2.9515 1045.3 -0.0040719 98.440 0.11643
213.38 13700. undefined 651.76 844.53 2.2203 490.00 0.0020408 651.76 844.53 2.2203 2.4420 2.9543 1046.6 -0.0040750 98.457 0.11658 490.00 0.0020408 651.76 844.53 2.2203 2.4420 2.9543 1046.6 -0.0040750 98.457 0.11658
214.38 13769. undefined 654.20 847.95 2.2253 490.00 0.0020408 654.20 847.95 2.2253 2.4459 2.9572 1047.9 -0.0040779 98.475 0.11674 490.00 0.0020408 654.20 847.95 2.2253 2.4459 2.9572 1047.9 -0.0040779 98.475 0.11674
215.38 13838. undefined 656.65 851.37 2.2303 490.00 0.0020408 656.65 851.37 2.2303 2.4498 2.9600 1049.1 -0.0040808 98.493 0.11689 490.00 0.0020408 656.65 851.37 2.2303 2.4498 2.9600 1049.1 -0.0040808 98.493 0.11689
216.38 13908. undefined 659.10 854.80 2.2353 490.00 0.0020408 659.10 854.80 2.2353 2.4536 2.9628 1050.4 -0.0040837 98.510 0.11705 490.00 0.0020408 659.10 854.80 2.2353 2.4536 2.9628 1050.4 -0.0040837 98.510 0.11705
217.38 13977. undefined 661.56 858.23 2.2403 490.00 0.0020408 661.56 858.23 2.2403 2.4575 2.9656 1051.7 -0.0040865 98.528 0.11720 490.00 0.0020408 661.56 858.23 2.2403 2.4575 2.9656 1051.7 -0.0040865 98.528 0.11720
218.38 14046. undefined 664.02 861.66 2.2453 490.00 0.0020408 664.02 861.66 2.2453 2.4613 2.9685 1052.9 -0.0040892 98.546 0.11736 490.00 0.0020408 664.02 861.66 2.2453 2.4613 2.9685 1052.9 -0.0040892 98.546 0.11736
219.38 14115. undefined 666.48 865.10 2.2504 490.00 0.0020408 666.48 865.10 2.2504 2.4652 2.9713 1054.2 -0.0040919 98.563 0.11751 490.00 0.0020408 666.48 865.10 2.2504 2.4652 2.9713 1054.2 -0.0040919 98.563 0.11751
220.38 14185. undefined 668.95 868.54 2.2554 490.00 0.0020408 668.95 868.54 2.2554 2.4690 2.9742 1055.5 -0.0040946 98.581 0.11767 490.00 0.0020408 668.95 868.54 2.2554 2.4690 2.9742 1055.5 -0.0040946 98.581 0.11767
221.38 14254. undefined 671.42 871.98 2.2604 490.00 0.0020408 671.42 871.98 2.2604 2.4729 2.9770 1056.7 -0.0040972 98.599 0.11783 490.00 0.0020408 671.42 871.98 2.2604 2.4729 2.9770 1056.7 -0.0040972 98.599 0.11783
222.38 14323. undefined 673.89 875.43 2.2654 490.00 0.0020408 673.89 875.43 2.2654 2.4767 2.9798 1058.0 -0.0040997 98.617 0.11799 490.00 0.0020408 673.89 875.43 2.2654 2.4767 2.9798 1058.0 -0.0040997 98.617 0.11799
223.38 14392. undefined 676.37 878.88 2.2704 490.00 0.0020408 676.37 878.88 2.2704 2.4805 2.9827 1059.2 -0.0041022 98.634 0.11814 490.00 0.0020408 676.37 878.88 2.2704 2.4805 2.9827 1059.2 -0.0041022 98.634 0.11814
224.38 14461. undefined 678.86 882.33 2.2754 490.00 0.0020408 678.86 882.33 2.2754 2.4844 2.9855 1060.5 -0.0041046 98.652 0.11830 490.00 0.0020408 678.86 882.33 2.2754 2.4844 2.9855 1060.5 -0.0041046 98.652 0.11830
225.38 14530. undefined 681.34 885.79 2.2803 490.00 0.0020408 681.34 885.79 2.2803 2.4882 2.9883 1061.7 -0.0041070 98.670 0.11846 490.00 0.0020408 681.34 885.79 2.2803 2.4882 2.9883 1061.7 -0.0041070 98.670 0.11846
226.38 14599. undefined 683.83 889.25 2.2853 490.00 0.0020408 683.83 889.25 2.2853 2.4920 2.9912 1063.0 -0.0041093 98.688 0.11862 490.00 0.0020408 683.83 889.25 2.2853 2.4920 2.9912 1063.0 -0.0041093 98.688 0.11862
227.38 14668. undefined 686.33 892.71 2.2903 490.00 0.0020408 686.33 892.71 2.2903 2.4958 2.9940 1064.2 -0.0041116 98.705 0.11878 490.00 0.0020408 686.33 892.71 2.2903 2.4958 2.9940 1064.2 -0.0041116 98.705 0.11878
228.38 14737. undefined 688.82 896.18 2.2953 490.00 0.0020408 688.82 896.18 2.2953 2.4996 2.9969 1065.4 -0.0041139 98.723 0.11893 490.00 0.0020408 688.82 896.18 2.2953 2.4996 2.9969 1065.4 -0.0041139 98.723 0.11893
229.38 14805. undefined 691.32 899.65 2.3003 490.00 0.0020408 691.32 899.65 2.3003 2.5034 2.9997 1066.7 -0.0041161 98.741 0.11909 490.00 0.0020408 691.32 899.65 2.3003 2.5034 2.9997 1066.7 -0.0041161 98.741 0.11909
230.38 14874. undefined 693.83 903.13 2.3053 490.00 0.0020408 693.83 903.13 2.3053 2.5072 3.0026 1067.9 -0.0041182 98.759 0.11925 490.00 0.0020408 693.83 903.13 2.3053 2.5072 3.0026 1067.9 -0.0041182 98.759 0.11925
231.38 14943. undefined 696.34 906.60 2.3102 490.00 0.0020408 696.34 906.60 2.3102 2.5110 3.0054 1069.1 -0.0041203 98.777 0.11941 490.00 0.0020408 696.34 906.60 2.3102 2.5110 3.0054 1069.1 -0.0041203 98.777 0.11941
232.38 15012. undefined 698.85 910.08 2.3152 490.00 0.0020408 698.85 910.08 2.3152 2.5148 3.0083 1070.4 -0.0041224 98.794 0.11957 490.00 0.0020408 698.85 910.08 2.3152 2.5148 3.0083 1070.4 -0.0041224 98.794 0.11957
233.38 15080. undefined 701.37 913.57 2.3202 490.00 0.0020408 701.37 913.57 2.3202 2.5186 3.0111 1071.6 -0.0041244 98.812 0.11973 490.00 0.0020408 701.37 913.57 2.3202 2.5186 3.0111 1071.6 -0.0041244 98.812 0.11973
234.38 15149. undefined 703.89 917.05 2.3252 490.00 0.0020408 703.89 917.05 2.3252 2.5223 3.0140 1072.8 -0.0041264 98.830 0.11989 490.00 0.0020408 703.89 917.05 2.3252 2.5223 3.0140 1072.8 -0.0041264 98.830 0.11989
235.38 15218. undefined 706.41 920.54 2.3301 490.00 0.0020408 706.41 920.54 2.3301 2.5261 3.0168 1074.0 -0.0041283 98.848 0.12005 490.00 0.0020408 706.41 920.54 2.3301 2.5261 3.0168 1074.0 -0.0041283 98.848 0.12005
236.38 15286. undefined 708.94 924.03 2.3351 490.00 0.0020408 708.94 924.03 2.3351 2.5299 3.0197 1075.2 -0.0041302 98.866 0.12022 490.00 0.0020408 708.94 924.03 2.3351 2.5299 3.0197 1075.2 -0.0041302 98.866 0.12022
237.38 15355. undefined 711.47 927.53 2.3401 490.00 0.0020408 711.47 927.53 2.3401 2.5336 3.0225 1076.4 -0.0041320 98.884 0.12038 490.00 0.0020408 711.47 927.53 2.3401 2.5336 3.0225 1076.4 -0.0041320 98.884 0.12038
238.38 15423. undefined 714.01 931.03 2.3450 490.00 0.0020408 714.01 931.03 2.3450 2.5374 3.0253 1077.7 -0.0041339 98.901 0.12054 490.00 0.0020408 714.01 931.03 2.3450 2.5374 3.0253 1077.7 -0.0041339 98.901 0.12054
239.38 15492. undefined 716.55 934.53 2.3500 490.00 0.0020408 716.55 934.53 2.3500 2.5411 3.0282 1078.9 -0.0041356 98.919 0.12070 490.00 0.0020408 716.55 934.53 2.3500 2.5411 3.0282 1078.9 -0.0041356 98.919 0.12070
240.38 15560. undefined 719.09 938.04 2.3549 490.00 0.0020408 719.09 938.04 2.3549 2.5449 3.0310 1080.1 -0.0041373 98.937 0.12086 490.00 0.0020408 719.09 938.04 2.3549 2.5449 3.0310 1080.1 -0.0041373 98.937 0.12086
241.38 15629. undefined 721.64 941.55 2.3599 490.00 0.0020408 721.64 941.55 2.3599 2.5486 3.0339 1081.3 -0.0041390 98.955 0.12103 490.00 0.0020408 721.64 941.55 2.3599 2.5486 3.0339 1081.3 -0.0041390 98.955 0.12103
242.38 15697. undefined 724.19 945.06 2.3649 490.00 0.0020408 724.19 945.06 2.3649 2.5524 3.0367 1082.5 -0.0041407 98.973 0.12119 490.00 0.0020408 724.19 945.06 2.3649 2.5524 3.0367 1082.5 -0.0041407 98.973 0.12119
243.38 15766. undefined 726.74 948.58 2.3698 490.00 0.0020408 726.74 948.58 2.3698 2.5561 3.0396 1083.7 -0.0041423 98.991 0.12135 490.00 0.0020408 726.74 948.58 2.3698 2.5561 3.0396 1083.7 -0.0041423 98.991 0.12135
244.38 15834. undefined 729.30 952.10 2.3747 490.00 0.0020408 729.30 952.10 2.3747 2.5598 3.0424 1084.9 -0.0041439 99.009 0.12152 490.00 0.0020408 729.30 952.10 2.3747 2.5598 3.0424 1084.9 -0.0041439 99.009 0.12152
245.38 15902. undefined 731.86 955.62 2.3797 490.00 0.0020408 731.86 955.62 2.3797 2.5635 3.0453 1086.1 -0.0041454 99.027 0.12168 490.00 0.0020408 731.86 955.62 2.3797 2.5635 3.0453 1086.1 -0.0041454 99.027 0.12168
246.38 15970. undefined 734.43 959.15 2.3846 490.00 0.0020408 734.43 959.15 2.3846 2.5672 3.0481 1087.3 -0.0041469 99.045 0.12184 490.00 0.0020408 734.43 959.15 2.3846 2.5672 3.0481 1087.3 -0.0041469 99.045 0.12184
247.38 16039. undefined 737.00 962.67 2.3896 490.00 0.0020408 737.00 962.67 2.3896 2.5710 3.0510 1088.4 -0.0041483 99.062 0.12201 490.00 0.0020408 737.00 962.67 2.3896 2.5710 3.0510 1088.4 -0.0041483 99.062 0.12201
248.38 16107. undefined 739.57 966.21 2.3945 490.00 0.0020408 739.57 966.21 2.3945 2.5747 3.0538 1089.6 -0.0041498 99.080 0.12217 490.00 0.0020408 739.57 966.21 2.3945 2.5747 3.0538 1089.6 -0.0041498 99.080 0.12217
249.38 16175. undefined 742.15 969.74 2.3995 490.00 0.0020408 742.15 969.74 2.3995 2.5784 3.0567 1090.8 -0.0041511 99.098 0.12234 490.00 0.0020408 742.15 969.74 2.3995 2.5784 3.0567 1090.8 -0.0041511 99.098 0.12234
250.38 16243. undefined 744.73 973.28 2.4044 490.00 0.0020408 744.73 973.28 2.4044 2.5821 3.0595 1092.0 -0.0041525 99.116 0.12250 490.00 0.0020408 744.73 973.28 2.4044 2.5821 3.0595 1092.0 -0.0041525 99.116 0.12250
251.38 16311. undefined 747.31 976.82 2.4093 490.00 0.0020408 747.31 976.82 2.4093 2.5857 3.0624 1093.2 -0.0041538 99.134 0.12267 490.00 0.0020408 747.31 976.82 2.4093 2.5857 3.0624 1093.2 -0.0041538 99.134 0.12267
252.38 16379. undefined 749.90 980.37 2.4142 490.00 0.0020408 749.90 980.37 2.4142 2.5894 3.0652 1094.4 -0.0041551 99.152 0.12283 490.00 0.0020408 749.90 980.37 2.4142 2.5894 3.0652 1094.4 -0.0041551 99.152 0.12283
253.38 16447. undefined 752.49 983.91 2.4192 490.00 0.0020408 752.49 983.91 2.4192 2.5931 3.0681 1095.5 -0.0041564 99.170 0.12300 490.00 0.0020408 752.49 983.91 2.4192 2.5931 3.0681 1095.5 -0.0041564 99.170 0.12300
254.38 16515. undefined 755.08 987.47 2.4241 490.00 0.0020408 755.08 987.47 2.4241 2.5968 3.0709 1096.7 -0.0041576 99.188 0.12317 490.00 0.0020408 755.08 987.47 2.4241 2.5968 3.0709 1096.7 -0.0041576 99.188 0.12317
255.38 16583. undefined 757.68 991.02 2.4290 490.00 0.0020408 757.68 991.02 2.4290 2.6005 3.0738 1097.9 -0.0041588 99.206 0.12333 490.00 0.0020408 757.68 991.02 2.4290 2.6005 3.0738 1097.9 -0.0041588 99.206 0.12333
256.38 16651. undefined 760.28 994.58 2.4339 490.00 0.0020408 760.28 994.58 2.4339 2.6041 3.0766 1099.0 -0.0041599 99.224 0.12350 490.00 0.0020408 760.28 994.58 2.4339 2.6041 3.0766 1099.0 -0.0041599 99.224 0.12350
257.38 16719. undefined 762.89 998.14 2.4389 490.00 0.0020408 762.89 998.14 2.4389 2.6078 3.0795 1100.2 -0.0041610 99.242 0.12367 490.00 0.0020408 762.89 998.14 2.4389 2.6078 3.0795 1100.2 -0.0041610 99.242 0.12367
258.38 16787. undefined 765.50 1001.7 2.4438 490.00 0.0020408 765.50 1001.7 2.4438 2.6114 3.0823 1101.4 -0.0041621 99.260 0.12384 490.00 0.0020408 765.50 1001.7 2.4438 2.6114 3.0823 1101.4 -0.0041621 99.260 0.12384
259.38 16854. undefined 768.11 1005.3 2.4487 490.00 0.0020408 768.11 1005.3 2.4487 2.6151 3.0851 1102.5 -0.0041632 99.278 0.12400 490.00 0.0020408 768.11 1005.3 2.4487 2.6151 3.0851 1102.5 -0.0041632 99.278 0.12400
260.38 16922. undefined 770.73 1008.8 2.4536 490.00 0.0020408 770.73 1008.8 2.4536 2.6187 3.0880 1103.7 -0.0041642 99.296 0.12417 490.00 0.0020408 770.73 1008.8 2.4536 2.6187 3.0880 1103.7 -0.0041642 99.296 0.12417
261.38 16990. undefined 773.35 1012.4 2.4585 490.00 0.0020408 773.35 1012.4 2.4585 2.6224 3.0908 1104.8 -0.0041652 99.313 0.12434 490.00 0.0020408 773.35 1012.4 2.4585 2.6224 3.0908 1104.8 -0.0041652 99.313 0.12434
262.38 17058. undefined 775.97 1016.0 2.4634 490.00 0.0020408 775.97 1016.0 2.4634 2.6260 3.0937 1106.0 -0.0041662 99.331 0.12451 490.00 0.0020408 775.97 1016.0 2.4634 2.6260 3.0937 1106.0 -0.0041662 99.331 0.12451
263.38 17125. undefined 778.60 1019.6 2.4683 490.00 0.0020408 778.60 1019.6 2.4683 2.6296 3.0965 1107.2 -0.0041671 99.349 0.12468 490.00 0.0020408 778.60 1019.6 2.4683 2.6296 3.0965 1107.2 -0.0041671 99.349 0.12468
264.38 17193. undefined 781.23 1023.2 2.4732 490.00 0.0020408 781.23 1023.2 2.4732 2.6332 3.0993 1108.3 -0.0041680 99.367 0.12485 490.00 0.0020408 781.23 1023.2 2.4732 2.6332 3.0993 1108.3 -0.0041680 99.367 0.12485
265.38 17260. undefined 783.87 1026.7 2.4781 490.00 0.0020408 783.87 1026.7 2.4781 2.6369 3.1022 1109.5 -0.0041689 99.385 0.12502 490.00 0.0020408 783.87 1026.7 2.4781 2.6369 3.1022 1109.5 -0.0041689 99.385 0.12502
266.38 17328. undefined 786.51 1030.3 2.4830 490.00 0.0020408 786.51 1030.3 2.4830 2.6405 3.1050 1110.6 -0.0041697 99.403 0.12519 490.00 0.0020408 786.51 1030.3 2.4830 2.6405 3.1050 1110.6 -0.0041697 99.403 0.12519
267.38 17396. undefined 789.15 1033.9 2.4879 490.00 0.0020408 789.15 1033.9 2.4879 2.6441 3.1079 1111.7 -0.0041706 99.421 0.12536 490.00 0.0020408 789.15 1033.9 2.4879 2.6441 3.1079 1111.7 -0.0041706 99.421 0.12536
268.38 17463. undefined 791.80 1037.5 2.4928 490.00 0.0020408 791.80 1037.5 2.4928 2.6477 3.1107 1112.9 -0.0041713 99.439 0.12553 490.00 0.0020408 791.80 1037.5 2.4928 2.6477 3.1107 1112.9 -0.0041713 99.439 0.12553
269.38 17530. undefined 794.45 1041.1 2.4977 490.00 0.0020408 794.45 1041.1 2.4977 2.6513 3.1135 1114.0 -0.0041721 99.457 0.12570 490.00 0.0020408 794.45 1041.1 2.4977 2.6513 3.1135 1114.0 -0.0041721 99.457 0.12570
270.38 17598. undefined 797.10 1044.7 2.5026 490.00 0.0020408 797.10 1044.7 2.5026 2.6549 3.1164 1115.2 -0.0041729 99.475 0.12587 490.00 0.0020408 797.10 1044.7 2.5026 2.6549 3.1164 1115.2 -0.0041729 99.475 0.12587
271.38 17665. undefined 799.76 1048.3 2.5074 490.00 0.0020408 799.76 1048.3 2.5074 2.6585 3.1192 1116.3 -0.0041736 99.493 0.12604 490.00 0.0020408 799.76 1048.3 2.5074 2.6585 3.1192 1116.3 -0.0041736 99.493 0.12604
272.38 17733. undefined 802.42 1051.9 2.5123 490.00 0.0020408 802.42 1051.9 2.5123 2.6621 3.1220 1117.4 -0.0041743 99.511 0.12621 490.00 0.0020408 802.42 1051.9 2.5123 2.6621 3.1220 1117.4 -0.0041743 99.511 0.12621
273.38 17800. undefined 805.08 1055.5 2.5172 490.00 0.0020408 805.08 1055.5 2.5172 2.6656 3.1249 1118.6 -0.0041749 99.529 0.12639 490.00 0.0020408 805.08 1055.5 2.5172 2.6656 3.1249 1118.6 -0.0041749 99.529 0.12639
274.38 17867. undefined 807.75 1059.2 2.5221 490.00 0.0020408 807.75 1059.2 2.5221 2.6692 3.1277 1119.7 -0.0041755 99.547 0.12656 490.00 0.0020408 807.75 1059.2 2.5221 2.6692 3.1277 1119.7 -0.0041755 99.547 0.12656
275.38 17934. undefined 810.42 1062.8 2.5269 490.00 0.0020408 810.42 1062.8 2.5269 2.6728 3.1305 1120.8 -0.0041762 99.565 0.12673 490.00 0.0020408 810.42 1062.8 2.5269 2.6728 3.1305 1120.8 -0.0041762 99.565 0.12673
276.38 18002. undefined 813.09 1066.4 2.5318 490.00 0.0020408 813.09 1066.4 2.5318 2.6764 3.1333 1121.9 -0.0041767 99.583 0.12690 490.00 0.0020408 813.09 1066.4 2.5318 2.6764 3.1333 1121.9 -0.0041767 99.583 0.12690
277.38 18069. undefined 815.77 1070.0 2.5367 490.00 0.0020408 815.77 1070.0 2.5367 2.6799 3.1362 1123.1 -0.0041773 99.601 0.12708 490.00 0.0020408 815.77 1070.0 2.5367 2.6799 3.1362 1123.1 -0.0041773 99.601 0.12708
278.38 18136. undefined 818.45 1073.6 2.5416 490.00 0.0020408 818.45 1073.6 2.5416 2.6835 3.1390 1124.2 -0.0041778 99.619 0.12725 490.00 0.0020408 818.45 1073.6 2.5416 2.6835 3.1390 1124.2 -0.0041778 99.619 0.12725
279.38 18203. undefined 821.14 1077.3 2.5464 490.00 0.0020408 821.14 1077.3 2.5464 2.6870 3.1418 1125.3 -0.0041784 99.637 0.12742 490.00 0.0020408 821.14 1077.3 2.5464 2.6870 3.1418 1125.3 -0.0041784 99.637 0.12742
280.38 18270. undefined 823.83 1080.9 2.5513 490.00 0.0020408 823.83 1080.9 2.5513 2.6906 3.1446 1126.4 -0.0041788 99.655 0.12760 490.00 0.0020408 823.83 1080.9 2.5513 2.6906 3.1446 1126.4 -0.0041788 99.655 0.12760
281.38 18337. undefined 826.52 1084.5 2.5561 490.00 0.0020408 826.52 1084.5 2.5561 2.6941 3.1475 1127.5 -0.0041793 99.673 0.12777 490.00 0.0020408 826.52 1084.5 2.5561 2.6941 3.1475 1127.5 -0.0041793 99.673 0.12777
282.38 18404. undefined 829.21 1088.2 2.5610 490.00 0.0020408 829.21 1088.2 2.5610 2.6976 3.1503 1128.6 -0.0041797 99.691 0.12762 490.00 0.0020408 829.21 1088.2 2.5610 2.6976 3.1503 1128.6 -0.0041797 99.691 0.12762
283.38 18471. undefined 831.91 1091.8 2.5658 490.00 0.0020408 831.91 1091.8 2.5658 2.7012 3.1531 1129.8 -0.0041802 99.709 0.12779 490.00 0.0020408 831.91 1091.8 2.5658 2.7012 3.1531 1129.8 -0.0041802 99.709 0.12779
284.38 18538. undefined 834.62 1095.5 2.5707 490.00 0.0020408 834.62 1095.5 2.5707 2.7047 3.1559 1130.9 -0.0041806 99.727 0.12797 490.00 0.0020408 834.62 1095.5 2.5707 2.7047 3.1559 1130.9 -0.0041806 99.727 0.12797
285.38 18605. undefined 837.32 1099.1 2.5756 490.00 0.0020408 837.32 1099.1 2.5756 2.7082 3.1587 1132.0 -0.0041809 99.745 0.12814 490.00 0.0020408 837.32 1099.1 2.5756 2.7082 3.1587 1132.0 -0.0041809 99.745 0.12814
286.38 18672. undefined 840.03 1102.8 2.5804 490.00 0.0020408 840.03 1102.8 2.5804 2.7117 3.1615 1133.1 -0.0041813 99.763 0.12832 490.00 0.0020408 840.03 1102.8 2.5804 2.7117 3.1615 1133.1 -0.0041813 99.763 0.12832
287.38 18739. undefined 842.75 1106.4 2.5852 490.00 0.0020408 842.75 1106.4 2.5852 2.7152 3.1643 1134.2 -0.0041816 99.781 0.12849 490.00 0.0020408 842.75 1106.4 2.5852 2.7152 3.1643 1134.2 -0.0041816 99.781 0.12849
288.38 18806. undefined 845.46 1110.1 2.5901 490.00 0.0020408 845.46 1110.1 2.5901 2.7187 3.1672 1135.3 -0.0041819 99.799 0.12867 490.00 0.0020408 845.46 1110.1 2.5901 2.7187 3.1672 1135.3 -0.0041819 99.799 0.12867
289.38 18872. undefined 848.18 1113.7 2.5949 490.00 0.0020408 848.18 1113.7 2.5949 2.7222 3.1700 1136.4 -0.0041822 99.817 0.12884 490.00 0.0020408 848.18 1113.7 2.5949 2.7222 3.1700 1136.4 -0.0041822 99.817 0.12884
290.38 18939. undefined 850.91 1117.4 2.5998 490.00 0.0020408 850.91 1117.4 2.5998 2.7257 3.1728 1137.5 -0.0041825 99.835 0.12902 490.00 0.0020408 850.91 1117.4 2.5998 2.7257 3.1728 1137.5 -0.0041825 99.835 0.12902
291.38 19006. undefined 853.64 1121.1 2.6046 490.00 0.0020408 853.64 1121.1 2.6046 2.7292 3.1756 1138.6 -0.0041827 99.853 0.12920 490.00 0.0020408 853.64 1121.1 2.6046 2.7292 3.1756 1138.6 -0.0041827 99.853 0.12920
292.38 19073. undefined 856.37 1124.7 2.6094 490.00 0.0020408 856.37 1124.7 2.6094 2.7327 3.1784 1139.7 -0.0041830 99.871 0.12937 490.00 0.0020408 856.37 1124.7 2.6094 2.7327 3.1784 1139.7 -0.0041830 99.871 0.12937
293.38 19139. undefined 859.10 1128.4 2.6143 490.00 0.0020408 859.10 1128.4 2.6143 2.7362 3.1812 1140.8 -0.0041832 99.889 0.12955 490.00 0.0020408 859.10 1128.4 2.6143 2.7362 3.1812 1140.8 -0.0041832 99.889 0.12955
294.38 19206. undefined 861.84 1132.1 2.6191 490.00 0.0020408 861.84 1132.1 2.6191 2.7397 3.1840 1141.8 -0.0041834 99.906 0.12973 490.00 0.0020408 861.84 1132.1 2.6191 2.7397 3.1840 1141.8 -0.0041834 99.906 0.12973
295.38 19272. undefined 864.58 1135.8 2.6239 490.00 0.0020408 864.58 1135.8 2.6239 2.7431 3.1868 1142.9 -0.0041835 99.924 0.12991 490.00 0.0020408 864.58 1135.8 2.6239 2.7431 3.1868 1142.9 -0.0041835 99.924 0.12991
296.38 19339. undefined 867.33 1139.4 2.6287 490.00 0.0020408 867.33 1139.4 2.6287 2.7466 3.1896 1144.0 -0.0041837 99.942 0.13008 490.00 0.0020408 867.33 1139.4 2.6287 2.7466 3.1896 1144.0 -0.0041837 99.942 0.13008
297.38 19406. undefined 870.07 1143.1 2.6336 490.00 0.0020408 870.07 1143.1 2.6336 2.7501 3.1924 1145.1 -0.0041838 99.960 0.13026 490.00 0.0020408 870.07 1143.1 2.6336 2.7501 3.1924 1145.1 -0.0041838 99.960 0.13026
298.38 19472. undefined 872.83 1146.8 2.6384 490.00 0.0020408 872.83 1146.8 2.6384 2.7535 3.1952 1146.2 -0.0041839 99.978 0.13044 490.00 0.0020408 872.83 1146.8 2.6384 2.7535 3.1952 1146.2 -0.0041839 99.978 0.13044
299.38 19539. undefined 875.58 1150.5 2.6432 490.00 0.0020408 875.58 1150.5 2.6432 2.7570 3.1980 1147.3 -0.0041840 99.996 0.13062 490.00 0.0020408 875.58 1150.5 2.6432 2.7570 3.1980 1147.3 -0.0041840 99.996 0.13062
300.38 19605. undefined 878.34 1154.2 2.6480 490.00 0.0020408 878.34 1154.2 2.6480 2.7604 3.2008 1148.3 -0.0041841 100.01 0.13080 490.00 0.0020408 878.34 1154.2 2.6480 2.7604 3.2008 1148.3 -0.0041841 100.01 0.13080