Temperature (C) Pressure (psia) Quality (l+v) Internal Energy (l+v, kJ/kg) Enthalpy (l+v, kJ/kg) Entropy (l+v, J/g*K) Density (l, kg/m3) Volume (l, m3/kg) Internal Energy (l, kJ/kg) Enthalpy (l, kJ/kg) Entropy (l, J/g*K) Cv (l, J/g*K) Cp (l, J/g*K) Sound Spd. (l, m/s) Joule-Thomson (l, F/psia) Viscosity (l, uPa*s) Therm. Cond. (l, W/m*K) Density (v, kg/m3) Volume (v, m3/kg) Internal Energy (v, kJ/kg) Enthalpy (v, kJ/kg) Entropy (v, J/g*K) Cv (v, J/g*K) Cp (v, J/g*K) Sound Spd. (v, m/s) Joule-Thomson (v, F/psia) Viscosity (v, uPa*s) Therm. Cond. (v, W/m*K)
-187.62 2.4953e-08 7.0006e-12 -196.64 -196.64 -1.3959 733.13 0.0013640 -196.64 -196.64 -1.3959 1.3553 1.9158 2136.4 -0.0077592 10960. 0.20792 1.0669e-08 9.3732e+07 350.13 366.26 5.1858 0.69067 0.87923 143.28 6.1051 2.3259 0.0017061
-186.62 3.7339e-08 1.0324e-11 -194.73 -194.73 -1.3736 732.08 0.0013660 -194.73 -194.73 -1.3736 1.3539 1.9166 2129.6 -0.0077546 10073. 0.20765 1.5780e-08 6.3371e+07 350.82 367.14 5.1200 0.69462 0.88317 144.03 5.9178 2.3534 0.0017533
-185.62 5.5322e-08 1.5076e-11 -192.81 -192.81 -1.3516 731.04 0.0013679 -192.81 -192.81 -1.3516 1.3525 1.9174 2122.9 -0.0077498 9276.1 0.20737 2.3112e-08 4.3267e+07 351.52 368.02 5.0561 0.69857 0.88713 144.77 5.7383 2.3808 0.0018007
-184.62 8.1182e-08 2.1808e-11 -190.89 -190.89 -1.3298 730.00 0.0013699 -190.89 -190.89 -1.3298 1.3513 1.9182 2116.1 -0.0077448 8557.8 0.20708 3.3533e-08 2.9821e+07 352.22 368.91 4.9939 0.70253 0.89108 145.51 5.5662 2.4083 0.0018485
-183.62 1.1803e-07 3.1259e-11 -188.97 -188.97 -1.3083 728.96 0.0013718 -188.97 -188.97 -1.3083 1.3501 1.9191 2109.3 -0.0077395 7909.8 0.20678 4.8211e-08 2.0742e+07 352.92 369.81 4.9333 0.70648 0.89504 146.24 5.4011 2.4357 0.0018965
-182.62 1.7009e-07 4.4412e-11 -187.05 -187.05 -1.2869 727.92 0.0013738 -187.05 -187.05 -1.2869 1.3490 1.9201 2102.5 -0.0077340 7324.3 0.20647 6.8704e-08 1.4555e+07 353.63 370.70 4.8744 0.71043 0.89899 146.97 5.2426 2.4632 0.0019448
-181.62 2.4299e-07 6.2564e-11 -185.13 -185.13 -1.2658 726.88 0.0013757 -185.13 -185.13 -1.2658 1.3480 1.9210 2095.7 -0.0077283 6794.5 0.20616 9.7079e-08 1.0301e+07 354.35 371.60 4.8170 0.71438 0.90294 147.69 5.0904 2.4906 0.0019934
-180.62 3.4425e-07 8.7411e-11 -183.21 -183.21 -1.2450 725.85 0.0013777 -183.21 -183.21 -1.2450 1.3470 1.9220 2088.9 -0.0077225 6314.4 0.20584 1.3605e-07 7.3504e+06 355.06 372.51 4.7612 0.71833 0.90688 148.41 4.9442 2.5181 0.0020423
-179.62 4.8378e-07 1.2116e-10 -181.29 -181.29 -1.2243 724.81 0.0013797 -181.29 -181.29 -1.2243 1.3461 1.9231 2082.0 -0.0077164 5878.8 0.20551 1.8915e-07 5.2868e+06 355.78 373.42 4.7068 0.72227 0.91082 149.13 4.8038 2.5456 0.0020915
-178.62 6.7459e-07 1.6664e-10 -179.37 -179.37 -1.2038 723.78 0.0013816 -179.37 -179.37 -1.2038 1.3453 1.9241 2075.2 -0.0077102 5482.9 0.20517 2.6096e-07 3.8320e+06 356.51 374.33 4.6538 0.72620 0.91475 149.84 4.6688 2.5731 0.0021410
-177.62 9.3358e-07 2.2750e-10 -177.44 -177.44 -1.1836 722.75 0.0013836 -177.44 -177.44 -1.1836 1.3445 1.9252 2068.4 -0.0077039 5122.6 0.20483 3.5737e-07 2.7982e+06 357.23 375.25 4.6022 0.73012 0.91867 150.54 4.5390 2.6005 0.0021907
-176.62 1.2826e-06 3.0835e-10 -175.52 -175.52 -1.1635 721.72 0.0013856 -175.52 -175.52 -1.1635 1.3437 1.9263 2061.5 -0.0076973 4794.1 0.20447 4.8588e-07 2.0581e+06 357.97 376.17 4.5519 0.73403 0.92258 151.25 4.4142 2.6280 0.0022408
-175.62 1.7496e-06 4.1502e-10 -173.59 -173.59 -1.1437 720.69 0.0013876 -173.59 -173.59 -1.1437 1.3430 1.9274 2054.7 -0.0076907 4494.3 0.20411 6.5601e-07 1.5244e+06 358.70 377.09 4.5029 0.73792 0.92648 151.95 4.2941 2.6555 0.0022912
-174.62 2.3705e-06 5.5483e-10 -171.66 -171.66 -1.1240 719.66 0.0013895 -171.66 -171.66 -1.1240 1.3423 1.9286 2047.9 -0.0076838 4220.2 0.20375 8.7976e-07 1.1367e+06 359.44 378.02 4.4551 0.74181 0.93036 152.64 4.1784 2.6830 0.0023418
-173.62 3.1903e-06 7.3689e-10 -169.73 -169.73 -1.1045 718.64 0.0013915 -169.73 -169.73 -1.1045 1.3417 1.9298 2041.0 -0.0076769 3969.3 0.20338 1.1721e-06 8.5314e+05 360.19 378.95 4.4085 0.74568 0.93423 153.33 4.0671 2.7105 0.0023928
-172.62 4.2661e-06 9.7250e-10 -167.80 -167.80 -1.0852 717.61 0.0013935 -167.80 -167.80 -1.0852 1.3411 1.9310 2034.2 -0.0076698 3739.3 0.20300 1.5518e-06 6.4441e+05 360.93 379.89 4.3631 0.74953 0.93809 154.02 3.9599 2.7379 0.0024440
-171.62 5.6692e-06 1.2756e-09 -165.87 -165.87 -1.0661 716.58 0.0013955 -165.87 -165.87 -1.0661 1.3405 1.9322 2027.3 -0.0076625 3528.0 0.20261 2.0419e-06 4.8974e+05 361.69 380.83 4.3188 0.75337 0.94193 154.71 3.8566 2.7654 0.0024955
-170.62 7.4884e-06 1.6631e-09 -163.94 -163.94 -1.0472 715.56 0.0013975 -163.94 -163.94 -1.0472 1.3400 1.9334 2020.5 -0.0076552 3333.8 0.20222 2.6708e-06 3.7442e+05 362.44 381.77 4.2755 0.75720 0.94575 155.39 3.7570 2.7929 0.0025473
-169.62 9.8334e-06 2.1559e-09 -162.00 -162.00 -1.0284 714.54 0.0013995 -162.00 -162.00 -1.0284 1.3395 1.9347 2013.6 -0.0076477 3154.9 0.20182 3.4733e-06 2.8791e+05 363.20 382.72 4.2334 0.76100 0.94956 156.07 3.6609 2.8204 0.0025994
-168.62 1.2839e-05 2.7790e-09 -160.07 -160.07 -1.0098 713.52 0.0014015 -160.07 -160.07 -1.0098 1.3390 1.9359 2006.8 -0.0076401 2989.9 0.20141 4.4917e-06 2.2263e+05 363.96 383.67 4.1922 0.76479 0.95335 156.74 3.5683 2.8479 0.0026518
-167.62 1.6672e-05 3.5627e-09 -158.13 -158.13 -0.99134 712.49 0.0014035 -158.13 -158.13 -0.99134 1.3386 1.9372 2000.0 -0.0076323 2837.5 0.20100 5.7771e-06 1.7310e+05 364.73 384.63 4.1521 0.76856 0.95712 157.41 3.4790 2.8754 0.0027045
-166.62 2.1533e-05 4.5433e-09 -156.19 -156.19 -0.97306 711.47 0.0014055 -156.19 -156.19 -0.97306 1.3382 1.9385 1993.1 -0.0076245 2696.5 0.20058 7.3914e-06 1.3529e+05 365.50 385.59 4.1129 0.77232 0.96087 158.08 3.3927 2.9029 0.0027575
-165.62 2.7666e-05 5.7641e-09 -154.25 -154.25 -0.95494 710.45 0.0014075 -154.25 -154.25 -0.95494 1.3378 1.9398 1986.3 -0.0076165 2566.0 0.20016 9.4084e-06 1.0629e+05 366.27 386.55 4.0746 0.77605 0.96460 158.75 3.3095 2.9304 0.0028108
-164.62 3.5367e-05 7.2765e-09 -152.31 -152.31 -0.93698 709.44 0.0014096 -152.31 -152.31 -0.93698 1.3375 1.9411 1979.4 -0.0076084 2444.9 0.19973 1.1916e-05 83918. 367.05 387.52 4.0372 0.77976 0.96832 159.41 3.2291 2.9579 0.0028643
-163.62 4.4989e-05 9.1413e-09 -150.37 -150.37 -0.91917 708.42 0.0014116 -150.37 -150.37 -0.91917 1.3371 1.9424 1972.6 -0.0076002 2332.3 0.19930 1.5020e-05 66577. 367.83 388.49 4.0008 0.78346 0.97201 160.07 3.1514 2.9854 0.0029182
-162.62 5.6956e-05 1.1430e-08 -148.43 -148.43 -0.90151 707.40 0.0014136 -148.43 -148.43 -0.90151 1.3368 1.9437 1965.8 -0.0075919 2227.7 0.19886 1.8844e-05 53068. 368.62 389.46 3.9651 0.78713 0.97569 160.72 3.0764 3.0129 0.0029723
-161.62 7.1773e-05 1.4226e-08 -146.48 -146.48 -0.88400 706.38 0.0014157 -146.48 -146.48 -0.88400 1.3365 1.9451 1959.0 -0.0075834 2130.2 0.19841 2.3533e-05 42494. 369.41 390.44 3.9304 0.79079 0.97935 161.38 3.0038 3.0404 0.0030268
-160.62 9.0036e-05 1.7628e-08 -144.54 -144.54 -0.86663 705.37 0.0014177 -144.54 -144.54 -0.86663 1.3363 1.9465 1952.1 -0.0075748 2039.2 0.19796 2.9258e-05 34178. 370.20 391.42 3.8964 0.79443 0.98298 162.03 2.9337 3.0679 0.0030815
-159.62 0.00011245 2.1749e-08 -142.59 -142.59 -0.84940 704.35 0.0014197 -142.59 -142.59 -0.84940 1.3360 1.9478 1945.3 -0.0075661 1954.2 0.19751 3.6221e-05 27609. 371.00 392.40 3.8632 0.79805 0.98660 162.68 2.8658 3.0955 0.0031365
-158.62 0.00013985 2.6720e-08 -140.64 -140.64 -0.83231 703.34 0.0014218 -140.64 -140.64 -0.83231 1.3358 1.9492 1938.5 -0.0075573 1874.8 0.19705 4.4652e-05 22395. 371.80 393.39 3.8307 0.80164 0.99020 163.32 2.8002 3.1230 0.0031918
-157.62 0.00017320 3.2693e-08 -138.69 -138.69 -0.81536 702.32 0.0014238 -138.69 -138.69 -0.81536 1.3356 1.9506 1931.7 -0.0075484 1800.3 0.19658 5.4822e-05 18241. 372.60 394.38 3.7990 0.80522 0.99378 163.96 2.7367 3.1505 0.0032474
-156.62 0.00021364 3.9842e-08 -136.74 -136.74 -0.79854 701.31 0.0014259 -136.74 -136.74 -0.79854 1.3354 1.9520 1924.9 -0.0075393 1730.5 0.19611 6.7040e-05 14916. 373.41 395.38 3.7680 0.80878 0.99734 164.60 2.6752 3.1780 0.0033033
-155.62 0.00026248 4.8366e-08 -134.79 -134.79 -0.78185 700.30 0.0014280 -134.79 -134.79 -0.78185 1.3352 1.9534 1918.1 -0.0075302 1664.9 0.19564 8.1666e-05 12245. 374.22 396.38 3.7377 0.81232 1.0009 165.24 2.6157 3.2055 0.0033595
-154.62 0.00032125 5.8491e-08 -132.83 -132.83 -0.76530 699.29 0.0014300 -132.83 -132.83 -0.76530 1.3350 1.9548 1911.3 -0.0075209 1603.3 0.19516 9.9109e-05 10090. 375.03 397.38 3.7081 0.81585 1.0044 165.87 2.5580 3.2330 0.0034160
-153.62 0.00039171 7.0476e-08 -130.88 -130.88 -0.74887 698.27 0.0014321 -130.88 -130.88 -0.74887 1.3349 1.9563 1904.5 -0.0075114 1545.3 0.19468 0.00011984 8344.6 375.85 398.39 3.6792 0.81935 1.0079 166.50 2.5022 3.2606 0.0034727
-152.62 0.00047590 8.4613e-08 -128.92 -128.92 -0.73256 697.26 0.0014342 -128.92 -128.92 -0.73256 1.3348 1.9577 1897.8 -0.0075019 1490.6 0.19419 0.00014439 6925.9 376.67 399.40 3.6509 0.82284 1.0114 167.13 2.4481 3.2881 0.0035298
-151.62 0.00057613 1.0123e-07 -126.96 -126.96 -0.71638 696.25 0.0014363 -126.96 -126.96 -0.71638 1.3346 1.9592 1891.0 -0.0074922 1438.9 0.19370 0.00017336 5768.4 377.49 400.41 3.6232 0.82631 1.0149 167.76 2.3957 3.3156 0.0035872
-150.62 0.00069507 1.2070e-07 -125.00 -125.00 -0.70032 695.24 0.0014384 -125.00 -125.00 -0.70032 1.3345 1.9606 1884.2 -0.0074824 1390.2 0.19320 0.00020744 4820.7 378.32 401.42 3.5962 0.82976 1.0183 168.38 2.3448 3.3431 0.0036448
-149.62 0.00083574 1.4343e-07 -123.04 -123.04 -0.68438 694.23 0.0014404 -123.04 -123.04 -0.68438 1.3345 1.9621 1877.4 -0.0074724 1344.0 0.19270 0.00024740 4042.0 379.15 402.44 3.5697 0.83319 1.0218 169.00 2.2956 3.3706 0.0037027
-148.62 0.0010016 1.6990e-07 -121.08 -121.08 -0.66855 693.22 0.0014425 -121.08 -121.08 -0.66855 1.3344 1.9636 1870.7 -0.0074623 1300.3 0.19220 0.00029412 3400.0 379.99 403.47 3.5438 0.83661 1.0252 169.62 2.2478 3.3982 0.0037610
-147.62 0.0011965 2.0061e-07 -119.11 -119.11 -0.65284 692.21 0.0014447 -119.11 -119.11 -0.65284 1.3343 1.9651 1863.9 -0.0074521 1258.9 0.19169 0.00034856 2869.0 380.83 404.49 3.5185 0.84001 1.0286 170.24 2.2014 3.4257 0.0038195
-146.62 0.0014249 2.3615e-07 -117.15 -117.15 -0.63724 691.20 0.0014468 -117.15 -117.15 -0.63724 1.3343 1.9666 1857.2 -0.0074417 1219.6 0.19117 0.00041181 2428.3 381.67 405.52 3.4938 0.84340 1.0320 170.85 2.1565 3.4532 0.0038783
-145.62 0.0016917 2.7715e-07 -115.18 -115.18 -0.62175 690.19 0.0014489 -115.18 -115.18 -0.62175 1.3343 1.9682 1850.4 -0.0074312 1182.3 0.19066 0.00048510 2061.4 382.51 406.56 3.4695 0.84677 1.0353 171.46 2.1128 3.4807 0.0039374
-144.62 0.0020026 3.2431e-07 -113.21 -113.21 -0.60637 689.18 0.0014510 -113.21 -113.21 -0.60637 1.3343 1.9697 1843.7 -0.0074206 1146.8 0.19014 0.00056976 1755.1 383.36 407.59 3.4458 0.85012 1.0387 172.07 2.0705 3.5082 0.0039967
-143.62 0.0023637 3.7841e-07 -111.24 -111.24 -0.59110 688.17 0.0014531 -111.24 -111.24 -0.59110 1.3343 1.9713 1836.9 -0.0074098 1113.0 0.18962 0.00066731 1498.6 384.21 408.63 3.4226 0.85346 1.0420 172.68 2.0294 3.5358 0.0040564
-142.62 0.0027820 4.4030e-07 -109.27 -109.27 -0.57593 687.16 0.0014553 -109.27 -109.27 -0.57593 1.3343 1.9728 1830.2 -0.0073988 1080.8 0.18909 0.00077939 1283.1 385.07 409.68 3.3999 0.85679 1.0454 173.28 1.9896 3.5633 0.0041164
-141.62 0.0032653 5.1092e-07 -107.30 -107.30 -0.56087 686.15 0.0014574 -107.30 -107.30 -0.56087 1.3343 1.9744 1823.5 -0.0073878 1050.1 0.18856 0.00090784 1101.5 385.93 410.72 3.3777 0.86011 1.0487 173.88 1.9508 3.5908 0.0041766
-140.62 0.0038222 5.9129e-07 -105.32 -105.32 -0.54591 685.14 0.0014596 -105.32 -105.32 -0.54591 1.3344 1.9760 1816.7 -0.0073765 1020.7 0.18803 0.0010547 948.16 386.79 411.77 3.3560 0.86341 1.0520 174.48 1.9133 3.6183 0.0042372
-139.62 0.0044623 6.8253e-07 -103.34 -103.34 -0.53104 684.13 0.0014617 -103.34 -103.34 -0.53105 1.3344 1.9776 1810.0 -0.0073651 992.74 0.18749 0.0012221 818.26 387.65 412.83 3.3347 0.86670 1.0553 175.08 1.8768 3.6459 0.0042980
-138.62 0.0051963 7.8584e-07 -101.37 -101.37 -0.51628 683.12 0.0014639 -101.37 -101.37 -0.51629 1.3345 1.9792 1803.3 -0.0073536 965.97 0.18695 0.0014125 707.94 388.52 413.88 3.3139 0.86998 1.0586 175.67 1.8413 3.6734 0.0043592
-137.62 0.0060358 9.0254e-07 -99.386 -99.386 -0.50162 682.11 0.0014660 -99.386 -99.386 -0.50162 1.3346 1.9808 1796.6 -0.0073419 940.35 0.18641 0.0016287 614.00 389.39 414.94 3.2935 0.87325 1.0619 176.26 1.8069 3.7009 0.0044206
-136.62 0.0069938 1.0341e-06 -97.404 -97.404 -0.48705 681.10 0.0014682 -97.404 -97.404 -0.48705 1.3347 1.9825 1789.9 -0.0073301 915.81 0.18586 0.0018733 533.80 390.26 416.00 3.2735 0.87650 1.0651 176.85 1.7734 3.7284 0.0044823
-135.62 0.0080843 1.1819e-06 -95.421 -95.420 -0.47257 680.09 0.0014704 -95.421 -95.421 -0.47258 1.3348 1.9841 1783.2 -0.0073180 892.30 0.18531 0.0021497 465.17 391.14 417.07 3.2540 0.87975 1.0684 177.44 1.7409 3.7559 0.0045443
-134.62 0.0093230 1.3478e-06 -93.436 -93.435 -0.45819 679.08 0.0014726 -93.436 -93.436 -0.45820 1.3350 1.9858 1776.5 -0.0073059 869.75 0.18476 0.0024613 406.30 392.02 418.14 3.2348 0.88299 1.0716 178.02 1.7093 3.7834 0.0046066
-133.62 0.010727 1.5335e-06 -91.449 -91.449 -0.44390 678.07 0.0014748 -91.450 -91.449 -0.44391 1.3351 1.9875 1769.8 -0.0072935 848.11 0.18421 0.0028116 355.67 392.91 419.21 3.2161 0.88622 1.0749 178.61 1.6786 3.8109 0.0046691
-132.62 0.012315 1.7409e-06 -89.460 -89.460 -0.42970 677.06 0.0014770 -89.461 -89.461 -0.42971 1.3353 1.9892 1763.1 -0.0072810 827.32 0.18365 0.0032049 312.03 393.79 420.29 3.1977 0.88944 1.0781 179.19 1.6488 3.8385 0.0047320
-131.62 0.014106 1.9721e-06 -87.470 -87.470 -0.41559 676.04 0.0014792 -87.471 -87.471 -0.41560 1.3354 1.9909 1756.4 -0.0072684 807.34 0.18309 0.0036453 274.33 394.68 421.36 3.1798 0.89266 1.0813 179.76 1.6197 3.8660 0.0047951
-130.62 0.016124 2.2293e-06 -85.478 -85.478 -0.40156 675.03 0.0014814 -85.479 -85.479 -0.40157 1.3356 1.9926 1749.7 -0.0072555 788.12 0.18253 0.0041375 241.69 395.58 422.44 3.1622 0.89586 1.0846 180.34 1.5915 3.8935 0.0048586
-129.62 0.018392 2.5147e-06 -83.485 -83.484 -0.38763 674.02 0.0014836 -83.486 -83.486 -0.38763 1.3358 1.9944 1743.0 -0.0072425 769.63 0.18196 0.0046867 213.37 396.47 423.53 3.1450 0.89906 1.0878 180.91 1.5641 3.9210 0.0049223
-128.62 0.020935 2.8310e-06 -81.489 -81.489 -0.37377 673.01 0.0014859 -81.491 -81.490 -0.37378 1.3360 1.9961 1736.3 -0.0072294 751.83 0.18140 0.0052981 188.75 397.37 424.62 3.1281 0.90226 1.0910 181.48 1.5374 3.9485 0.0049863
-127.62 0.023783 3.1807e-06 -79.492 -79.492 -0.36000 672.00 0.0014881 -79.494 -79.493 -0.36001 1.3363 1.9979 1729.6 -0.0072160 734.67 0.18083 0.0059776 167.29 398.27 425.71 3.1116 0.90545 1.0942 182.05 1.5114 3.9760 0.0050506
-126.62 0.026966 3.5666e-06 -77.493 -77.493 -0.34631 670.98 0.0014904 -77.495 -77.495 -0.34632 1.3365 1.9997 1722.9 -0.0072025 718.14 0.18025 0.0067313 148.56 399.18 426.80 3.0954 0.90863 1.0974 182.62 1.4861 4.0035 0.0051152
-125.62 0.030515 3.9918e-06 -75.492 -75.492 -0.33270 669.97 0.0014926 -75.494 -75.494 -0.33272 1.3368 2.0015 1716.2 -0.0071888 702.18 0.17968 0.0075660 132.17 400.09 427.89 3.0795 0.91181 1.1006 183.18 1.4615 4.0310 0.0051800
-124.62 0.034467 4.4593e-06 -73.490 -73.489 -0.31917 668.95 0.0014949 -73.492 -73.492 -0.31919 1.3371 2.0033 1709.5 -0.0071749 686.79 0.17910 0.0084885 117.81 401.00 428.99 3.0640 0.91499 1.1038 183.74 1.4375 4.0584 0.0052452
-123.62 0.038859 4.9725e-06 -71.485 -71.485 -0.30572 667.94 0.0014971 -71.488 -71.487 -0.30574 1.3374 2.0051 1702.8 -0.0071609 671.93 0.17852 0.0095065 105.19 401.91 430.10 3.0488 0.91816 1.1070 184.30 1.4141 4.0859 0.0053106
-122.62 0.043731 5.5349e-06 -69.479 -69.478 -0.29235 666.92 0.0014994 -69.482 -69.481 -0.29237 1.3377 2.0070 1696.2 -0.0071466 657.57 0.17794 0.010628 94.092 402.83 431.20 3.0339 0.92134 1.1102 184.86 1.3913 4.1134 0.0053764
-121.62 0.049128 6.1501e-06 -67.471 -67.470 -0.27905 665.91 0.0015017 -67.474 -67.473 -0.27907 1.3380 2.0089 1689.5 -0.0071322 643.70 0.17736 0.011861 84.309 403.75 432.31 3.0193 0.92451 1.1134 185.41 1.3691 4.1409 0.0054424
-120.62 0.055096 6.8219e-06 -65.461 -65.460 -0.26583 664.89 0.0015040 -65.464 -65.463 -0.26585 1.3384 2.0107 1682.8 -0.0071176 630.28 0.17678 0.013215 75.669 404.67 433.42 3.0050 0.92767 1.1166 185.96 1.3475 4.1683 0.0055087
-119.62 0.061684 7.5544e-06 -63.449 -63.448 -0.25268 663.87 0.0015063 -63.452 -63.452 -0.25271 1.3387 2.0126 1676.1 -0.0071028 617.30 0.17619 0.014700 68.027 405.60 434.53 2.9909 0.93084 1.1198 186.51 1.3264 4.1958 0.0055752
-118.62 0.068946 8.3518e-06 -61.435 -61.434 -0.23961 662.86 0.0015086 -61.439 -61.438 -0.23963 1.3391 2.0146 1669.4 -0.0070878 604.74 0.17560 0.016325 61.255 406.53 435.64 2.9772 0.93401 1.1231 187.06 1.3058 4.2233 0.0056421
-117.62 0.076937 9.2185e-06 -59.419 -59.418 -0.22660 661.84 0.0015109 -59.423 -59.422 -0.22663 1.3395 2.0165 1662.8 -0.0070726 592.58 0.17501 0.018101 55.245 407.46 436.76 2.9638 0.93718 1.1263 187.60 1.2857 4.2507 0.0057092
-116.62 0.085718 1.0159e-05 -57.401 -57.400 -0.21367 660.82 0.0015133 -57.406 -57.405 -0.21370 1.3400 2.0184 1656.1 -0.0070573 580.80 0.17442 0.020040 49.901 408.39 437.88 2.9506 0.94035 1.1295 188.14 1.2660 4.2782 0.0057767
-115.62 0.095353 1.1178e-05 -55.381 -55.380 -0.20081 659.80 0.0015156 -55.386 -55.385 -0.20084 1.3404 2.0204 1649.4 -0.0070417 569.38 0.17383 0.022152 45.142 409.33 439.01 2.9377 0.94352 1.1327 188.68 1.2468 4.3056 0.0058444
-114.62 0.10591 1.2281e-05 -53.359 -53.358 -0.18801 658.78 0.0015180 -53.365 -53.364 -0.18805 1.3409 2.0224 1642.7 -0.0070260 558.32 0.17323 0.024451 40.898 410.27 440.13 2.9250 0.94669 1.1360 189.22 1.2281 4.3330 0.0059123
-113.62 0.11746 1.3472e-05 -51.335 -51.334 -0.17528 657.76 0.0015203 -51.342 -51.340 -0.17533 1.3413 2.0244 1636.0 -0.0070100 547.59 0.17264 0.026949 37.107 411.21 441.26 2.9126 0.94987 1.1392 189.75 1.2097 4.3604 0.0059806
-112.62 0.13008 1.4757e-05 -49.309 -49.308 -0.16262 656.73 0.0015227 -49.316 -49.315 -0.16267 1.3418 2.0264 1629.3 -0.0069938 537.18 0.17204 0.029661 33.715 412.16 442.39 2.9005 0.95305 1.1424 190.28 1.1918 4.3879 0.0060491
-111.62 0.14384 1.6142e-05 -47.281 -47.279 -0.15003 655.71 0.0015251 -47.289 -47.287 -0.15008 1.3424 2.0285 1622.7 -0.0069774 527.08 0.17144 0.032600 30.675 413.10 443.53 2.8885 0.95623 1.1457 190.81 1.1742 4.4153 0.0061180
-110.62 0.15884 1.7632e-05 -45.251 -45.249 -0.13750 654.69 0.0015274 -45.259 -45.258 -0.13755 1.3429 2.0305 1616.0 -0.0069609 517.28 0.17084 0.035781 27.948 414.06 444.66 2.8769 0.95942 1.1490 191.34 1.1570 4.4427 0.0061871
-109.62 0.17516 1.9233e-05 -43.219 -43.216 -0.12503 653.66 0.0015298 -43.228 -43.226 -0.12509 1.3435 2.0326 1609.3 -0.0069441 507.76 0.17024 0.039220 25.497 415.01 445.80 2.8654 0.96261 1.1522 191.86 1.1402 4.4701 0.0062564
-108.62 0.19290 2.0951e-05 -41.185 -41.182 -0.11263 652.64 0.0015322 -41.194 -41.192 -0.11269 1.3441 2.0347 1602.6 -0.0069271 498.51 0.16964 0.042933 23.292 415.96 446.94 2.8542 0.96581 1.1555 192.38 1.1236 4.4974 0.0063261
-107.62 0.21215 2.2791e-05 -39.148 -39.145 -0.10029 651.61 0.0015347 -39.158 -39.156 -0.10036 1.3447 2.0369 1595.9 -0.0069098 489.52 0.16903 0.046937 21.305 416.92 448.09 2.8433 0.96901 1.1588 192.90 1.1075 4.5248 0.0063960
-106.62 0.23301 2.4762e-05 -37.109 -37.106 -0.088010 650.58 0.0015371 -37.120 -37.118 -0.088082 1.3453 2.0390 1589.2 -0.0068924 480.79 0.16843 0.051250 19.512 417.88 449.23 2.8325 0.97222 1.1621 193.41 1.0916 4.5522 0.0064662
-105.62 0.25561 2.6868e-05 -35.068 -35.065 -0.075791 649.55 0.0015395 -35.080 -35.078 -0.075868 1.3460 2.0412 1582.6 -0.0068747 472.30 0.16782 0.055891 17.892 418.85 450.38 2.8220 0.97544 1.1655 193.93 1.0760 4.5795 0.0065367
-104.62 0.28004 2.9117e-05 -33.025 -33.021 -0.063631 648.52 0.0015420 -33.038 -33.035 -0.063714 1.3467 2.0434 1575.9 -0.0068569 464.04 0.16721 0.060878 16.426 419.81 451.53 2.8116 0.97867 1.1688 194.44 1.0608 4.6069 0.0066074
-103.62 0.30643 3.1515e-05 -30.980 -30.975 -0.051529 647.49 0.0015444 -30.994 -30.991 -0.051619 1.3474 2.0456 1569.2 -0.0068387 456.00 0.16660 0.066231 15.099 420.78 452.68 2.8015 0.98191 1.1722 194.94 1.0458 4.6342 0.0066785
-102.62 0.33490 3.4069e-05 -28.932 -28.927 -0.039485 646.46 0.0015469 -28.947 -28.944 -0.039582 1.3481 2.0478 1562.5 -0.0068204 448.18 0.16600 0.071971 13.894 421.75 453.84 2.7916 0.98516 1.1755 195.44 1.0310 4.6615 0.0067498
-101.62 0.36558 3.6786e-05 -26.882 -26.877 -0.027498 645.43 0.0015494 -26.898 -26.894 -0.027602 1.3489 2.0501 1555.8 -0.0068018 440.57 0.16539 0.078120 12.801 422.73 454.99 2.7818 0.98841 1.1789 195.95 1.0166 4.6888 0.0068213
-100.62 0.39862 3.9674e-05 -24.829 -24.824 -0.015568 644.39 0.0015519 -24.847 -24.843 -0.015678 1.3497 2.0524 1549.1 -0.0067830 433.16 0.16478 0.084699 11.807 423.70 456.15 2.7723 0.99168 1.1823 196.44 1.0024 4.7161 0.0068932
-99.625 0.43414 4.2739e-05 -22.775 -22.769 -0.0036920 643.36 0.0015544 -22.794 -22.789 -0.0038103 1.3505 2.0547 1542.4 -0.0067639 425.95 0.16416 0.091731 10.901 424.68 457.31 2.7630 0.99496 1.1858 196.94 0.98838 4.7434 0.0069653
-98.625 0.47230 4.5989e-05 -20.718 -20.711 0.0081290 642.32 0.0015569 -20.738 -20.733 0.0080027 1.3514 2.0570 1535.7 -0.0067447 418.92 0.16355 0.099240 10.077 425.66 458.48 2.7538 0.99825 1.1892 197.43 0.97464 4.7707 0.0070377
-97.625 0.51325 4.9432e-05 -18.658 -18.651 0.019896 641.28 0.0015594 -18.680 -18.674 0.019762 1.3522 2.0594 1529.0 -0.0067251 412.07 0.16294 0.10725 9.3239 426.65 459.64 2.7448 1.0016 1.1927 197.92 0.96112 4.7979 0.0071103
-96.625 0.55714 5.3074e-05 -16.596 -16.588 0.031611 640.24 0.0015619 -16.620 -16.614 0.031467 1.3531 2.0618 1522.3 -0.0067053 405.39 0.16233 0.11579 8.6365 427.63 460.81 2.7360 1.0049 1.1962 198.40 0.94783 4.8251 0.0071832
-95.625 0.60416 5.6924e-05 -14.531 -14.523 0.043273 639.20 0.0015645 -14.557 -14.550 0.043120 1.3540 2.0642 1515.7 -0.0066853 398.88 0.16171 0.12488 8.0078 428.62 461.98 2.7274 1.0082 1.1997 198.88 0.93475 4.8524 0.0072564
-94.625 0.65446 6.0989e-05 -12.464 -12.455 0.054884 638.16 0.0015670 -12.491 -12.484 0.054721 1.3550 2.0667 1509.0 -0.0066650 392.53 0.16110 0.13455 7.4323 429.61 463.15 2.7189 1.0116 1.2032 199.36 0.92188 4.8796 0.0073299
-93.625 0.70822 6.5276e-05 -10.395 -10.385 0.066444 637.12 0.0015696 -10.424 -10.416 0.066271 1.3560 2.0691 1502.3 -0.0066444 386.34 0.16048 0.14482 6.9050 430.60 464.32 2.7107 1.0149 1.2068 199.83 0.90921 4.9068 0.0074036
-92.625 0.76564 6.9794e-05 -8.3228 -8.3122 0.077954 636.07 0.0015722 -8.3535 -8.3452 0.077771 1.3570 2.0716 1495.6 -0.0066236 380.31 0.15987 0.15573 6.4212 431.60 465.49 2.7025 1.0183 1.2104 200.30 0.89673 4.9340 0.0074776
-91.625 0.82689 7.4550e-05 -6.2481 -6.2366 0.089415 635.02 0.0015747 -6.2808 -6.2719 0.089220 1.3580 2.0742 1488.9 -0.0066025 374.41 0.15925 0.16731 5.9769 432.59 466.67 2.6946 1.0217 1.2140 200.77 0.88445 4.9611 0.0075518
-90.625 0.89218 7.9551e-05 -4.1708 -4.1584 0.10083 633.98 0.0015773 -4.2056 -4.1959 0.10062 1.3591 2.0767 1482.2 -0.0065811 368.66 0.15864 0.17958 5.5685 433.59 467.84 2.6868 1.0251 1.2177 201.24 0.87236 4.9883 0.0076263
-89.625 0.96172 8.4806e-05 -2.0908 -2.0774 0.11219 632.93 0.0015800 -2.1279 -2.1174 0.11197 1.3602 2.0793 1475.5 -0.0065595 363.05 0.15802 0.19258 5.1928 434.59 469.02 2.6791 1.0285 1.2213 201.70 0.86045 5.0154 0.0077011
-88.625 1.0357 9.0322e-05 -0.0081681 0.0062580 0.12351 631.88 0.0015826 -0.047516 -0.036215 0.12328 1.3613 2.0819 1468.8 -0.0065375 357.56 0.15740 0.20633 4.8466 435.59 470.20 2.6717 1.0320 1.2250 202.15 0.84873 5.0425 0.0077761
-87.625 1.1144 9.6107e-05 2.0772 2.0927 0.13478 630.83 0.0015852 2.0355 2.0476 0.13454 1.3625 2.0846 1462.1 -0.0065153 352.21 0.15679 0.22087 4.5276 436.60 471.39 2.6643 1.0354 1.2288 202.61 0.83718 5.0696 0.0078514
-86.625 1.1979 0.00010217 4.1654 4.1820 0.14600 629.77 0.0015879 4.1211 4.1342 0.14575 1.3637 2.0873 1455.4 -0.0064928 346.98 0.15617 0.23623 4.2331 437.61 472.57 2.6571 1.0389 1.2325 203.06 0.82580 5.0967 0.0079270
-85.625 1.2866 0.00010851 6.2563 6.2742 0.15718 628.72 0.0015905 6.2094 6.2235 0.15691 1.3649 2.0900 1448.8 -0.0064701 341.87 0.15555 0.25245 3.9612 438.61 473.75 2.6501 1.0424 1.2363 203.50 0.81460 5.1237 0.0080028
-84.625 1.3806 0.00011515 8.3500 8.3693 0.16832 627.66 0.0015932 8.3004 8.3155 0.16803 1.3661 2.0927 1442.1 -0.0064470 336.87 0.15494 0.26956 3.7097 439.63 474.94 2.6432 1.0460 1.2402 203.95 0.80356 5.1508 0.0080789
-83.625 1.4803 0.00012208 10.447 10.467 0.17941 626.60 0.0015959 10.394 10.410 0.17911 1.3674 2.0955 1435.4 -0.0064236 331.99 0.15432 0.28760 3.4771 440.64 476.13 2.6364 1.0495 1.2440 204.38 0.79269 5.1778 0.0081553
-82.625 1.5858 0.00012932 12.546 12.568 0.19046 625.54 0.0015986 12.491 12.508 0.19014 1.3687 2.0983 1428.7 -0.0063999 327.22 0.15370 0.30659 3.2616 441.65 477.31 2.6298 1.0531 1.2479 204.82 0.78199 5.2048 0.0082319
-81.625 1.6975 0.00013687 14.649 14.672 0.20147 624.48 0.0016013 14.590 14.609 0.20113 1.3700 2.1012 1422.0 -0.0063759 322.55 0.15309 0.32659 3.0619 442.67 478.50 2.6233 1.0567 1.2519 205.25 0.77144 5.2318 0.0083088
-80.625 1.8155 0.00014475 16.754 16.779 0.21243 623.42 0.0016041 16.692 16.712 0.21208 1.3714 2.1041 1415.4 -0.0063516 317.99 0.15247 0.34763 2.8766 443.69 479.70 2.6169 1.0603 1.2558 205.67 0.76106 5.2587 0.0083860
-79.625 1.9402 0.00015294 18.862 18.889 0.22335 622.36 0.0016068 18.797 18.819 0.22299 1.3728 2.1070 1408.7 -0.0063270 313.52 0.15186 0.36974 2.7046 444.71 480.89 2.6106 1.0639 1.2598 206.10 0.75083 5.2857 0.0084634
-78.625 2.0718 0.00016147 20.974 21.002 0.23423 621.29 0.0016096 20.905 20.928 0.23385 1.3742 2.1099 1402.0 -0.0063021 309.15 0.15124 0.39296 2.5448 445.73 482.08 2.6045 1.0676 1.2639 206.51 0.74076 5.3126 0.0085411
-77.625 2.2107 0.00017034 23.088 23.119 0.24508 620.22 0.0016123 23.016 23.040 0.24468 1.3757 2.1129 1395.3 -0.0062768 304.88 0.15062 0.41735 2.3961 446.75 483.27 2.5985 1.0712 1.2680 206.93 0.73084 5.3395 0.0086190
-76.625 2.3571 0.00017955 25.206 25.238 0.25588 619.15 0.0016151 25.130 25.156 0.25546 1.3772 2.1159 1388.7 -0.0062512 300.69 0.15001 0.44292 2.2577 447.78 484.47 2.5926 1.0749 1.2721 207.34 0.72107 5.3664 0.0086972
-75.625 2.5113 0.00018912 27.326 27.361 0.26664 618.08 0.0016179 27.247 27.275 0.26620 1.3787 2.1190 1382.0 -0.0062253 296.59 0.14939 0.46974 2.1288 448.81 485.67 2.5869 1.0787 1.2762 207.74 0.71146 5.3933 0.0087757
-74.625 2.6736 0.00019903 29.450 29.487 0.27737 617.01 0.0016207 29.366 29.396 0.27691 1.3802 2.1221 1375.4 -0.0061990 292.58 0.14878 0.49783 2.0087 449.83 486.86 2.5812 1.0824 1.2804 208.14 0.70200 5.4201 0.0088544
-73.625 2.8444 0.00020931 31.577 31.617 0.28805 615.93 0.0016236 31.489 31.521 0.28758 1.3818 2.1252 1368.7 -0.0061724 288.65 0.14816 0.52725 1.8966 450.86 488.06 2.5757 1.0862 1.2847 208.54 0.69268 5.4469 0.0089334
-72.625 3.0240 0.00021996 33.707 33.750 0.29871 614.85 0.0016264 33.615 33.649 0.29821 1.3834 2.1284 1362.0 -0.0061454 284.81 0.14755 0.55804 1.7920 451.90 489.26 2.5703 1.0900 1.2889 208.93 0.68351 5.4737 0.0090126
-71.625 3.2127 0.00023097 35.841 35.886 0.30932 613.78 0.0016293 35.745 35.781 0.30880 1.3851 2.1316 1355.4 -0.0061181 281.03 0.14694 0.59024 1.6942 452.93 490.46 2.5650 1.0938 1.2932 209.32 0.67448 5.5005 0.0090922
-70.625 3.4108 0.00024236 37.978 38.025 0.31990 612.69 0.0016321 37.877 37.915 0.31935 1.3867 2.1349 1348.7 -0.0060904 277.34 0.14632 0.62390 1.6028 453.96 491.66 2.5598 1.0976 1.2976 209.70 0.66560 5.5273 0.0091720
-69.625 3.6187 0.00025413 40.118 40.169 0.33044 611.61 0.0016350 40.013 40.053 0.32987 1.3884 2.1382 1342.1 -0.0060624 273.72 0.14571 0.65906 1.5173 455.00 492.86 2.5547 1.1015 1.3020 210.08 0.65687 5.5540 0.0092520
-68.625 3.8367 0.00026628 42.262 42.315 0.34094 610.53 0.0016379 42.152 42.195 0.34036 1.3902 2.1415 1335.5 -0.0060339 270.17 0.14510 0.69577 1.4372 456.04 494.06 2.5497 1.1054 1.3064 210.45 0.64827 5.5807 0.0093324
-67.625 4.0652 0.00027881 44.409 44.465 0.35142 609.44 0.0016409 44.294 44.340 0.35080 1.3919 2.1449 1328.8 -0.0060051 266.69 0.14449 0.73408 1.3622 457.08 495.26 2.5448 1.1093 1.3109 210.82 0.63981 5.6074 0.0094130
-66.625 4.3046 0.00029173 46.559 46.619 0.36185 608.35 0.0016438 46.439 46.488 0.36122 1.3937 2.1483 1322.2 -0.0059760 263.28 0.14388 0.77404 1.2919 458.12 496.46 2.5400 1.1133 1.3154 211.18 0.63150 5.6341 0.0094939
-65.625 4.5551 0.00030504 48.713 48.777 0.37226 607.26 0.0016467 48.588 48.640 0.37160 1.3955 2.1518 1315.6 -0.0059464 259.93 0.14327 0.81570 1.2259 459.16 497.67 2.5353 1.1172 1.3200 211.54 0.62332 5.6608 0.0095750
-64.625 4.8173 0.00031873 50.871 50.938 0.38263 606.16 0.0016497 50.740 50.795 0.38195 1.3974 2.1553 1308.9 -0.0059164 256.65 0.14266 0.85910 1.1640 460.21 498.87 2.5307 1.1212 1.3246 211.89 0.61527 5.6874 0.0096564
-63.625 5.0915 0.00033282 53.032 53.103 0.39297 605.07 0.0016527 52.896 52.954 0.39226 1.3993 2.1588 1302.3 -0.0058861 253.42 0.14205 0.90429 1.1058 461.25 500.07 2.5262 1.1252 1.3293 212.24 0.60736 5.7140 0.0097382
-62.625 5.3781 0.00034730 55.197 55.272 0.40328 603.97 0.0016557 55.055 55.117 0.40254 1.4012 2.1624 1295.7 -0.0058553 250.26 0.14144 0.95134 1.0511 462.30 501.28 2.5218 1.1293 1.3340 212.58 0.59958 5.7406 0.0098201
-61.625 5.6774 0.00036217 57.365 57.444 0.41355 602.87 0.0016587 57.218 57.283 0.41279 1.4031 2.1660 1289.1 -0.0058241 247.16 0.14084 1.0003 0.99972 463.35 502.48 2.5175 1.1333 1.3387 212.92 0.59194 5.7672 0.0099024
-60.625 5.9899 0.00037743 59.537 59.621 0.42380 601.77 0.0016618 59.385 59.453 0.42301 1.4051 2.1697 1282.5 -0.0057925 244.12 0.14023 1.0512 0.95131 464.40 503.68 2.5133 1.1374 1.3435 213.26 0.58442 5.7938 0.0099850
-59.625 6.3160 0.00039308 61.713 61.801 0.43401 600.66 0.0016648 61.554 61.627 0.43320 1.4071 2.1734 1275.9 -0.0057605 241.13 0.13962 1.1041 0.90573 465.45 504.89 2.5091 1.1415 1.3483 213.58 0.57704 5.8203 0.010068
-58.625 6.6561 0.00040912 63.893 63.986 0.44420 599.55 0.0016679 63.728 63.805 0.44335 1.4091 2.1772 1269.3 -0.0057280 238.19 0.13902 1.1591 0.86277 466.50 506.09 2.5051 1.1457 1.3532 213.90 0.56978 5.8468 0.010151
-57.625 7.0107 0.00042554 66.076 66.174 0.45435 598.44 0.0016710 65.905 65.986 0.45348 1.4111 2.1810 1262.7 -0.0056951 235.31 0.13842 1.2161 0.82228 467.55 507.30 2.5011 1.1498 1.3581 214.22 0.56265 5.8733 0.010234
-56.625 7.3801 0.00044235 68.264 68.366 0.46448 597.33 0.0016741 68.086 68.172 0.46358 1.4132 2.1848 1256.1 -0.0056617 232.48 0.13781 1.2754 0.78408 468.60 508.50 2.4972 1.1540 1.3631 214.53 0.55564 5.8998 0.010318
-55.625 7.7648 0.00045952 70.455 70.563 0.47457 596.22 0.0016772 70.271 70.361 0.47364 1.4153 2.1887 1249.5 -0.0056279 229.69 0.13721 1.3369 0.74802 469.66 509.71 2.4934 1.1582 1.3681 214.84 0.54875 5.9263 0.010402
-54.625 8.1652 0.00047707 72.650 72.764 0.48464 595.10 0.0016804 72.460 72.554 0.48368 1.4174 2.1927 1242.9 -0.0055937 226.96 0.13661 1.4006 0.71396 470.72 510.91 2.4897 1.1624 1.3731 215.14 0.54199 5.9527 0.010486
-53.625 8.5819 0.00049499 74.849 74.968 0.49468 593.98 0.0016836 74.652 74.752 0.49369 1.4196 2.1967 1236.3 -0.0055589 224.27 0.13601 1.4667 0.68178 471.77 512.11 2.4860 1.1667 1.3782 215.43 0.53535 5.9792 0.010571
-52.625 9.0151 0.00051327 77.052 77.178 0.50469 592.86 0.0016867 76.849 76.954 0.50368 1.4218 2.2007 1229.8 -0.0055237 221.63 0.13541 1.5353 0.65136 472.83 513.32 2.4824 1.1710 1.3834 215.72 0.52882 6.0056 0.010656
-51.625 9.4655 0.00053189 79.259 79.391 0.51468 591.73 0.0016900 79.049 79.159 0.51363 1.4240 2.2048 1223.2 -0.0054880 219.04 0.13482 1.6062 0.62258 473.89 514.52 2.4789 1.1752 1.3886 216.00 0.52241 6.0320 0.010741
-50.625 9.9335 0.00055086 81.470 81.609 0.52464 590.60 0.0016932 81.253 81.369 0.52356 1.4262 2.2089 1216.6 -0.0054519 216.48 0.13422 1.6797 0.59534 474.95 515.73 2.4755 1.1796 1.3938 216.28 0.51612 6.0584 0.010827
-49.625 10.419 0.00057017 83.686 83.831 0.53457 589.47 0.0016964 83.462 83.584 0.53347 1.4285 2.2131 1210.1 -0.0054152 213.98 0.13363 1.7558 0.56954 476.01 516.93 2.4722 1.1839 1.3991 216.55 0.50994 6.0848 0.010913
-48.625 10.924 0.00058980 85.905 86.057 0.54448 588.34 0.0016997 85.674 85.802 0.54334 1.4308 2.2173 1203.5 -0.0053780 211.51 0.13303 1.8345 0.54510 477.07 518.13 2.4689 1.1883 1.4044 216.82 0.50387 6.1112 0.010999
-47.625 11.448 0.00060974 88.129 88.288 0.55436 587.20 0.0017030 87.891 88.025 0.55319 1.4331 2.2216 1196.9 -0.0053403 209.08 0.13244 1.9159 0.52194 478.14 519.33 2.4657 1.1927 1.4098 217.08 0.49792 6.1375 0.011085
-46.625 11.991 0.00062999 90.356 90.523 0.56422 586.06 0.0017063 90.111 90.252 0.56302 1.4354 2.2259 1190.4 -0.0053020 206.69 0.13185 2.0001 0.49997 479.20 520.53 2.4625 1.1971 1.4153 217.33 0.49207 6.1639 0.011172
-45.625 12.554 0.00065052 92.589 92.763 0.57405 584.92 0.0017096 92.336 92.484 0.57282 1.4378 2.2303 1183.8 -0.0052633 204.34 0.13126 2.0872 0.47912 480.27 521.74 2.4594 1.2015 1.4207 217.58 0.48633 6.1902 0.011259
-44.625 13.137 0.00067133 94.825 95.008 0.58386 583.77 0.0017130 94.565 94.720 0.58260 1.4402 2.2347 1177.3 -0.0052240 202.03 0.13067 2.1771 0.45933 481.33 522.94 2.4564 1.2060 1.4263 217.82 0.48069 6.2165 0.011347
-43.625 13.741 0.00069239 97.066 97.257 0.59364 582.62 0.0017164 96.799 96.961 0.59235 1.4426 2.2392 1170.7 -0.0051841 199.75 0.13008 2.2700 0.44053 482.40 524.14 2.4535 1.2104 1.4319 218.05 0.47516 6.2429 0.011435
-42.625 14.367 0.00071370 99.311 99.511 0.60340 581.47 0.0017198 99.036 99.207 0.60208 1.4450 2.2437 1164.2 -0.0051437 197.51 0.12949 2.3659 0.42267 483.46 525.33 2.4506 1.2149 1.4375 218.28 0.46973 6.2692 0.011523
-41.625 15.015 0.00073523 101.56 101.77 0.61314 580.32 0.0017232 101.28 101.46 0.61179 1.4475 2.2483 1157.7 -0.0051027 195.30 0.12891 2.4649 0.40569 484.53 526.53 2.4478 1.2195 1.4432 218.50 0.46440 6.2955 0.011612
-40.625 15.686 0.00075696 103.81 104.03 0.62285 579.16 0.0017266 103.52 103.71 0.62147 1.4500 2.2529 1151.1 -0.0050611 193.13 0.12832 2.5671 0.38954 485.60 527.73 2.4450 1.2240 1.4489 218.72 0.45917 6.3218 0.011701
-39.625 16.380 0.00077888 106.07 106.30 0.63254 578.00 0.0017301 105.78 105.97 0.63113 1.4525 2.2576 1144.6 -0.0050189 190.99 0.12774 2.6725 0.37418 486.67 528.93 2.4423 1.2286 1.4547 218.93 0.45403 6.3481 0.011790
-38.625 17.097 0.00080097 108.34 108.57 0.64221 576.83 0.0017336 108.03 108.24 0.64077 1.4550 2.2623 1138.0 -0.0049761 188.88 0.12716 2.7813 0.35955 487.74 530.12 2.4397 1.2332 1.4606 219.13 0.44900 6.3744 0.011880
-37.625 17.838 0.00082319 110.60 110.85 0.65186 575.66 0.0017371 110.29 110.51 0.65039 1.4576 2.2671 1131.5 -0.0049327 186.81 0.12658 2.8934 0.34562 488.81 531.32 2.4371 1.2378 1.4665 219.33 0.44405 6.4007 0.011970
-36.625 18.604 0.00084553 112.88 113.13 0.66149 574.49 0.0017407 112.56 112.78 0.65999 1.4602 2.2719 1125.0 -0.0048887 184.76 0.12600 3.0089 0.33235 489.88 532.51 2.4346 1.2424 1.4724 219.52 0.43920 6.4270 0.012060
-35.625 19.395 0.00086796 115.15 115.42 0.67109 573.32 0.0017442 114.83 115.06 0.66956 1.4628 2.2768 1118.5 -0.0048440 182.75 0.12542 3.1280 0.31969 490.95 533.70 2.4321 1.2471 1.4784 219.70 0.43444 6.4533 0.012151
-34.625 20.212 0.00089046 117.43 117.71 0.68068 572.14 0.0017478 117.10 117.34 0.67912 1.4654 2.2818 1111.9 -0.0047987 180.76 0.12485 3.2506 0.30763 492.02 534.89 2.4297 1.2517 1.4845 219.88 0.42977 6.4797 0.012243
-33.625 21.056 0.00091298 119.72 120.01 0.69024 570.96 0.0017514 119.38 119.63 0.68865 1.4681 2.2868 1105.4 -0.0047527 178.80 0.12427 3.3770 0.29612 493.09 536.08 2.4273 1.2564 1.4906 220.05 0.42519 6.5060 0.012334
-32.625 21.926 0.00093551 122.01 122.32 0.69978 569.77 0.0017551 121.66 121.93 0.69817 1.4708 2.2918 1098.9 -0.0047061 176.87 0.12370 3.5071 0.28514 494.17 537.27 2.4250 1.2611 1.4968 220.21 0.42070 6.5323 0.012426
-31.625 22.823 0.00095801 124.31 124.62 0.70931 568.58 0.0017588 123.95 124.23 0.70767 1.4735 2.2970 1092.3 -0.0046587 174.97 0.12313 3.6410 0.27465 495.24 538.46 2.4227 1.2659 1.5031 220.36 0.41629 6.5587 0.012519
-30.625 23.749 0.00098045 126.61 126.94 0.71881 567.39 0.0017625 126.24 126.53 0.71714 1.4762 2.3021 1085.8 -0.0046107 173.09 0.12256 3.7787 0.26464 496.31 539.64 2.4205 1.2706 1.5094 220.51 0.41196 6.5850 0.012612
-29.625 24.703 0.0010028 128.91 129.26 0.72830 566.19 0.0017662 128.54 128.84 0.72660 1.4790 2.3074 1079.3 -0.0045619 171.24 0.12200 3.9205 0.25507 497.38 540.83 2.4184 1.2754 1.5157 220.65 0.40772 6.6114 0.012706
-28.625 25.687 0.0010250 131.22 131.58 0.73776 564.99 0.0017699 130.84 131.16 0.73604 1.4818 2.3126 1072.8 -0.0045124 169.42 0.12143 4.0663 0.24592 498.46 542.01 2.4162 1.2802 1.5222 220.79 0.40356 6.6378 0.012800
-27.625 26.700 0.0010470 133.54 133.91 0.74721 563.78 0.0017737 133.15 133.48 0.74547 1.4846 2.3180 1066.2 -0.0044621 167.62 0.12087 4.2163 0.23717 499.53 543.19 2.4142 1.2850 1.5286 220.91 0.39947 6.6642 0.012894
-26.625 27.743 0.0010688 135.86 136.24 0.75664 562.57 0.0017775 135.47 135.81 0.75487 1.4874 2.3234 1059.7 -0.0044111 165.84 0.12031 4.3705 0.22881 500.60 544.37 2.4122 1.2899 1.5352 221.03 0.39547 6.6906 0.012989
-25.625 28.817 0.0010904 138.18 138.58 0.76605 561.36 0.0017814 137.78 138.14 0.76426 1.4902 2.3289 1053.2 -0.0043593 164.09 0.11975 4.5290 0.22080 501.68 545.55 2.4102 1.2947 1.5418 221.14 0.39154 6.7171 0.013084
-24.625 29.923 0.0011116 140.51 140.93 0.77545 560.14 0.0017853 140.11 140.48 0.77363 1.4931 2.3344 1046.7 -0.0043067 162.36 0.11919 4.6918 0.21314 502.75 546.72 2.4083 1.2996 1.5485 221.25 0.38768 6.7436 0.013180
-23.625 31.061 0.0011325 142.85 143.28 0.78482 558.92 0.0017892 142.44 142.82 0.78298 1.4960 2.3400 1040.1 -0.0042533 160.65 0.11863 4.8592 0.20580 503.82 547.90 2.4064 1.3045 1.5552 221.35 0.38391 6.7701 0.013277
-22.625 32.232 0.0011529 145.19 145.63 0.79418 557.69 0.0017931 144.77 145.17 0.79232 1.4990 2.3457 1033.6 -0.0041990 158.97 0.11807 5.0311 0.19877 504.90 549.07 2.4045 1.3095 1.5621 221.44 0.38020 6.7967 0.013374
-21.625 33.435 0.0011730 147.53 148.00 0.80352 556.46 0.0017971 147.11 147.52 0.80164 1.5019 2.3514 1027.1 -0.0041439 157.30 0.11752 5.2076 0.19203 505.97 550.24 2.4027 1.3144 1.5690 221.52 0.37656 6.8232 0.013471
-20.625 34.673 0.0011924 149.88 150.36 0.81285 555.23 0.0018011 149.45 149.88 0.81095 1.5049 2.3572 1020.6 -0.0040879 155.66 0.11697 5.3889 0.18557 507.04 551.40 2.4010 1.3194 1.5759 221.59 0.37300 6.8499 0.013569
-19.625 35.946 0.0012114 152.24 152.74 0.82216 553.99 0.0018051 151.80 152.25 0.82024 1.5079 2.3630 1014.0 -0.0040311 154.04 0.11642 5.5750 0.17937 508.11 552.57 2.3992 1.3244 1.5829 221.66 0.36950 6.8765 0.013668
-18.625 37.253 0.0012297 154.60 155.11 0.83145 552.74 0.0018092 154.16 154.62 0.82952 1.5109 2.3689 1007.5 -0.0039733 152.44 0.11587 5.7660 0.17343 509.19 553.73 2.3976 1.3294 1.5901 221.72 0.36608 6.9032 0.013767
-17.625 38.596 0.0012472 156.96 157.50 0.84072 551.49 0.0018133 156.52 157.00 0.83878 1.5140 2.3749 1001.0 -0.0039145 150.86 0.11532 5.9621 0.16773 510.26 554.89 2.3959 1.3345 1.5972 221.77 0.36272 6.9300 0.013867
-16.625 39.976 0.0012641 159.33 159.89 0.84999 550.24 0.0018174 158.89 159.39 0.84803 1.5171 2.3810 994.44 -0.0038549 149.29 0.11478 6.1632 0.16225 511.33 556.05 2.3943 1.3395 1.6045 221.81 0.35942 6.9568 0.013968
-15.625 41.392 0.0012801 161.71 162.29 0.85923 548.98 0.0018216 161.26 161.78 0.85726 1.5202 2.3871 987.91 -0.0037942 147.75 0.11423 6.3696 0.15700 512.40 557.20 2.3927 1.3446 1.6119 221.85 0.35619 6.9836 0.014069
-14.625 42.846 0.0012951 164.09 164.69 0.86846 547.71 0.0018258 163.64 164.18 0.86649 1.5233 2.3933 981.37 -0.0037325 146.22 0.11369 6.5812 0.15195 513.47 558.36 2.3912 1.3497 1.6193 221.87 0.35302 7.0105 0.014170
-13.625 44.338 0.0013092 166.48 167.09 0.87768 546.44 0.0018300 166.02 166.58 0.87569 1.5264 2.3996 974.83 -0.0036698 144.72 0.11315 6.7983 0.14710 514.54 559.51 2.3897 1.3549 1.6268 221.89 0.34992 7.0375 0.014273
-12.625 45.870 0.0013223 168.87 169.51 0.88688 545.17 0.0018343 168.41 168.99 0.88489 1.5296 2.4059 968.29 -0.0036061 143.23 0.11261 7.0208 0.14243 515.61 560.65 2.3883 1.3600 1.6344 221.90 0.34688 7.0646 0.014376
-11.625 47.440 0.0013342 171.27 171.93 0.89606 543.89 0.0018386 170.81 171.41 0.89407 1.5328 2.4124 961.75 -0.0035413 141.76 0.11208 7.2490 0.13795 516.68 561.80 2.3868 1.3652 1.6421 221.91 0.34389 7.0917 0.014479
-10.625 49.051 0.0013448 173.67 174.35 0.90523 542.60 0.0018430 173.21 173.83 0.90324 1.5360 2.4189 955.20 -0.0034753 140.30 0.11154 7.4829 0.13364 517.75 562.94 2.3854 1.3704 1.6498 221.90 0.34097 7.1188 0.014584
-9.6250 50.703 0.0013541 176.08 176.79 0.91439 541.31 0.0018474 175.61 176.26 0.91240 1.5393 2.4255 948.65 -0.0034082 138.86 0.11101 7.7226 0.12949 518.81 564.08 2.3841 1.3757 1.6577 221.88 0.33810 7.1461 0.014689
-8.6250 52.396 0.0013620 178.49 179.22 0.92353 540.02 0.0018518 178.03 178.70 0.92154 1.5426 2.4321 942.10 -0.0033400 137.44 0.11048 7.9683 0.12550 519.88 565.21 2.3827 1.3809 1.6657 221.86 0.33529 7.1734 0.014795
-7.6250 54.131 0.0013684 180.91 181.67 0.93267 538.72 0.0018563 180.45 181.14 0.93068 1.5459 2.4389 935.55 -0.0032705 136.03 0.10995 8.2200 0.12165 520.94 566.35 2.3814 1.3862 1.6737 221.83 0.33254 7.2008 0.014902
-6.6250 55.909 0.0013732 183.34 184.12 0.94178 537.41 0.0018608 182.87 183.59 0.93980 1.5492 2.4457 928.99 -0.0031998 134.64 0.10942 8.4779 0.11795 522.01 567.48 2.3801 1.3915 1.6819 221.79 0.32984 7.2284 0.015009
-5.6250 57.730 0.0013762 185.77 186.57 0.95089 536.10 0.0018653 185.30 186.05 0.94892 1.5525 2.4526 922.43 -0.0031279 133.27 0.10889 8.7420 0.11439 523.07 568.60 2.3789 1.3969 1.6902 221.74 0.32720 7.2560 0.015117
-4.6250 59.595 0.0013774 188.21 189.04 0.95998 534.78 0.0018699 187.74 188.51 0.95802 1.5559 2.4596 915.87 -0.0030546 131.91 0.10837 9.0126 0.11096 524.13 569.72 2.3777 1.4022 1.6985 221.68 0.32461 7.2837 0.015226
-3.6250 61.505 0.0013767 190.65 191.51 0.96905 533.45 0.0018746 190.19 190.98 0.96711 1.5593 2.4667 909.30 -0.0029800 130.56 0.10785 9.2896 0.10765 525.19 570.84 2.3765 1.4076 1.7070 221.62 0.32207 7.3115 0.015336
-2.6250 63.461 0.0013738 193.10 193.98 0.97812 532.12 0.0018793 192.64 193.46 0.97620 1.5627 2.4739 902.73 -0.0029041 129.23 0.10733 9.5733 0.10446 526.25 571.96 2.3753 1.4131 1.7156 221.54 0.31958 7.3394 0.015447
-1.6250 65.462 0.0013688 195.55 196.46 0.98717 530.78 0.0018840 195.10 195.95 0.98527 1.5662 2.4811 896.16 -0.0028267 127.91 0.10681 9.8638 0.10138 527.31 573.07 2.3742 1.4185 1.7243 221.45 0.31715 7.3674 0.015559
-0.62500 67.510 0.0013613 198.01 198.95 0.99622 529.44 0.0018888 197.56 198.44 0.99434 1.5696 2.4885 889.58 -0.0027478 126.61 0.10629 10.161 0.098414 528.37 574.18 2.3731 1.4240 1.7331 221.36 0.31476 7.3956 0.015671
0.37500 69.606 0.0013514 200.47 201.44 1.0052 528.09 0.0018936 200.03 200.94 1.0034 1.5731 2.4960 883.00 -0.0026675 125.32 0.10578 10.466 0.095552 529.42 575.28 2.3720 1.4295 1.7421 221.26 0.31242 7.4239 0.015785
1.3750 71.749 0.0013389 202.95 203.95 1.0143 526.73 0.0018985 202.51 203.45 1.0124 1.5767 2.5035 876.42 -0.0025856 124.04 0.10527 10.777 0.092790 530.48 576.38 2.3709 1.4350 1.7512 221.14 0.31013 7.4523 0.015899
2.3750 73.941 0.0013236 205.42 206.45 1.0233 525.37 0.0019034 204.99 205.96 1.0215 1.5802 2.5112 869.83 -0.0025022 122.78 0.10476 11.096 0.090123 531.53 577.47 2.3699 1.4406 1.7604 221.02 0.30789 7.4808 0.016015
3.3750 76.183 0.0013053 207.91 208.97 1.0323 523.99 0.0019084 207.48 208.48 1.0305 1.5838 2.5190 863.24 -0.0024171 121.53 0.10425 11.422 0.087549 532.58 578.56 2.3688 1.4462 1.7697 220.89 0.30569 7.5095 0.016131
4.3750 78.475 0.0012839 210.39 211.49 1.0412 522.62 0.0019134 209.98 211.01 1.0395 1.5874 2.5268 856.64 -0.0023303 120.29 0.10374 11.756 0.085062 533.63 579.65 2.3678 1.4518 1.7792 220.75 0.30354 7.5384 0.016249
5.3750 80.817 0.0012592 212.89 214.02 1.0502 521.23 0.0019185 212.48 213.55 1.0486 1.5910 2.5348 850.04 -0.0022417 119.06 0.10324 12.098 0.082660 534.67 580.73 2.3669 1.4575 1.7888 220.60 0.30144 7.5674 0.016368
6.3750 83.211 0.0012310 215.39 216.55 1.0592 519.84 0.0019237 215.00 216.10 1.0576 1.5946 2.5429 843.43 -0.0021514 117.85 0.10273 12.447 0.080340 535.72 581.81 2.3659 1.4632 1.7986 220.44 0.29938 7.5966 0.016487
7.3750 85.657 0.0011991 217.90 219.09 1.0681 518.44 0.0019289 217.51 218.65 1.0666 1.5983 2.5511 836.82 -0.0020593 116.65 0.10223 12.805 0.078096 536.76 582.88 2.3650 1.4689 1.8085 220.27 0.29736 7.6259 0.016608
8.3750 88.156 0.0011634 220.41 221.64 1.0771 517.03 0.0019341 220.04 221.22 1.0756 1.6020 2.5595 830.20 -0.0019652 115.46 0.10173 13.170 0.075928 537.80 583.95 2.3640 1.4746 1.8186 220.08 0.29538 7.6555 0.016730
9.3750 90.708 0.0011236 222.93 224.19 1.0860 515.62 0.0019394 222.57 223.79 1.0846 1.6057 2.5679 823.58 -0.0018691 114.28 0.10124 13.545 0.073830 538.84 585.01 2.3631 1.4804 1.8288 219.89 0.29345 7.6852 0.016853
10.375 93.315 0.0010794 225.45 226.75 1.0949 514.19 0.0019448 225.11 226.37 1.0936 1.6095 2.5765 816.96 -0.0017710 113.11 0.10074 13.927 0.071802 539.87 586.07 2.3622 1.4863 1.8392 219.69 0.29156 7.7151 0.016978
11.375 95.977 0.0010308 227.99 229.32 1.1038 512.76 0.0019502 227.66 228.95 1.1025 1.6132 2.5852 810.32 -0.0016708 111.95 0.10025 14.319 0.069840 540.90 587.12 2.3614 1.4921 1.8498 219.48 0.28971 7.7452 0.017103
12.375 98.694 0.00097731 230.52 231.90 1.1127 511.32 0.0019557 230.22 231.55 1.1115 1.6170 2.5940 803.68 -0.0015685 110.80 0.099756 14.719 0.067941 541.93 588.17 2.3605 1.4980 1.8605 219.26 0.28790 7.7756 0.017230
13.375 101.47 0.00091882 233.07 234.48 1.1216 509.87 0.0019613 232.78 234.15 1.1205 1.6208 2.6030 797.04 -0.0014639 109.67 0.099267 15.128 0.066103 542.96 589.21 2.3597 1.5040 1.8715 219.03 0.28612 7.8061 0.017359
14.375 104.30 0.00085503 235.62 237.07 1.1305 508.42 0.0019669 235.35 236.77 1.1295 1.6247 2.6121 790.39 -0.0013569 108.54 0.098779 15.547 0.064323 543.99 590.24 2.3588 1.5099 1.8826 218.79 0.28439 7.8369 0.017488
15.375 107.19 0.00078565 238.17 239.67 1.1394 506.95 0.0019726 237.93 239.39 1.1384 1.6286 2.6214 783.73 -0.0012476 107.43 0.098294 15.974 0.062600 545.01 591.27 2.3580 1.5159 1.8940 218.53 0.28270 7.8680 0.017619
16.375 110.13 0.00071039 240.73 242.27 1.1483 505.48 0.0019783 240.52 242.02 1.1474 1.6324 2.6308 777.07 -0.0011357 106.32 0.097810 16.412 0.060931 546.03 592.29 2.3572 1.5220 1.9055 218.27 0.28104 7.8993 0.017752
17.375 113.14 0.00062894 243.30 244.88 1.1571 504.00 0.0019841 243.11 244.66 1.1564 1.6364 2.6403 770.40 -0.0010213 105.22 0.097328 16.859 0.059314 547.04 593.31 2.3564 1.5281 1.9172 217.99 0.27942 7.9308 0.017886
18.375 116.21 0.00054098 245.88 247.50 1.1660 502.50 0.0019900 245.72 247.31 1.1653 1.6403 2.6501 763.72 -0.00090422 104.14 0.096848 17.317 0.057747 548.05 594.32 2.3557 1.5342 1.9292 217.71 0.27783 7.9626 0.018021
19.375 119.33 0.00044617 248.46 250.12 1.1748 501.00 0.0019960 248.33 249.97 1.1743 1.6443 2.6599 757.04 -0.00078435 103.06 0.096371 17.785 0.056228 549.06 595.33 2.3549 1.5404 1.9414 217.41 0.27628 7.9947 0.018159
20.375 122.52 0.00034415 251.05 252.76 1.1836 499.49 0.0020020 250.95 252.64 1.1832 1.6483 2.6700 750.35 -0.00066161 101.99 0.095895 18.263 0.054756 550.07 596.32 2.3541 1.5466 1.9538 217.10 0.27477 8.0272 0.018297
21.375 125.77 0.00023454 253.64 255.40 1.1925 497.97 0.0020082 253.57 255.32 1.1922 1.6523 2.6802 743.64 -0.00053589 100.93 0.095420 18.752 0.053328 551.07 597.31 2.3534 1.5528 1.9665 216.78 0.27329 8.0599 0.018438
22.375 129.08 0.00011695 256.24 258.04 1.2013 496.43 0.0020144 256.21 258.00 1.2012 1.6563 2.6906 736.94 -0.00040708 99.877 0.094948 19.252 0.051943 552.07 598.30 2.3526 1.5591 1.9795 216.45 0.27184 8.0929 0.018580
23.375 137.59 undefined 258.79 260.70 1.2099 495.00 0.0020202 258.79 260.70 1.2099 1.6604 2.7001 730.90 -0.00028986 98.907 0.094517 495.00 0.0020202 258.79 260.70 1.2099 1.6604 2.7001 730.90 -0.00028986 98.907 0.094517
24.375 214.66 undefined 260.45 263.44 1.2155 495.00 0.0020202 260.45 263.44 1.2155 1.6640 2.6953 734.01 -0.00036818 98.916 0.094615 495.00 0.0020202 260.45 263.44 1.2155 1.6640 2.6953 734.01 -0.00036818 98.916 0.094615
25.375 291.76 undefined 262.11 266.18 1.2211 495.00 0.0020202 262.11 266.18 1.2211 1.6677 2.6906 737.07 -0.00044453 98.925 0.094712 495.00 0.0020202 262.11 266.18 1.2211 1.6677 2.6906 737.07 -0.00044453 98.925 0.094712
26.375 368.89 undefined 263.78 268.92 1.2266 495.00 0.0020202 263.78 268.92 1.2266 1.6713 2.6862 740.10 -0.00051899 98.934 0.094810 495.00 0.0020202 263.78 268.92 1.2266 1.6713 2.6862 740.10 -0.00051899 98.934 0.094810
27.375 446.05 undefined 265.46 271.67 1.2322 495.00 0.0020202 265.46 271.67 1.2322 1.6750 2.6820 743.09 -0.00059162 98.943 0.094908 495.00 0.0020202 265.46 271.67 1.2322 1.6750 2.6820 743.09 -0.00059162 98.943 0.094908
28.375 523.24 undefined 267.13 274.42 1.2378 495.00 0.0020202 267.13 274.42 1.2378 1.6788 2.6780 746.05 -0.00066251 98.952 0.095007 495.00 0.0020202 267.13 274.42 1.2378 1.6788 2.6780 746.05 -0.00066251 98.952 0.095007
29.375 600.45 undefined 268.81 277.18 1.2434 495.00 0.0020202 268.81 277.18 1.2434 1.6825 2.6741 748.97 -0.00073170 98.961 0.095106 495.00 0.0020202 268.81 277.18 1.2434 1.6825 2.6741 748.97 -0.00073170 98.961 0.095106
30.375 677.68 undefined 270.50 279.94 1.2489 495.00 0.0020202 270.50 279.94 1.2489 1.6863 2.6705 751.85 -0.00079927 98.971 0.095206 495.00 0.0020202 270.50 279.94 1.2489 1.6863 2.6705 751.85 -0.00079927 98.971 0.095206
31.375 754.93 undefined 272.19 282.70 1.2545 495.00 0.0020202 272.19 282.70 1.2545 1.6900 2.6671 754.70 -0.00086528 98.980 0.095305 495.00 0.0020202 272.19 282.70 1.2545 1.6900 2.6671 754.70 -0.00086528 98.980 0.095305
32.375 832.19 undefined 273.88 285.47 1.2600 495.00 0.0020202 273.88 285.47 1.2600 1.6938 2.6638 757.52 -0.00092976 98.990 0.095405 495.00 0.0020202 273.88 285.47 1.2600 1.6938 2.6638 757.52 -0.00092976 98.990 0.095405
33.375 909.47 undefined 275.57 288.24 1.2656 495.00 0.0020202 275.57 288.24 1.2656 1.6976 2.6607 760.31 -0.00099279 98.999 0.095506 495.00 0.0020202 275.57 288.24 1.2656 1.6976 2.6607 760.31 -0.00099279 98.999 0.095506
34.375 986.76 undefined 277.27 291.02 1.2711 495.00 0.0020202 277.27 291.02 1.2711 1.7015 2.6578 763.06 -0.0010544 99.009 0.095606 495.00 0.0020202 277.27 291.02 1.2711 1.7015 2.6578 763.06 -0.0010544 99.009 0.095606
35.375 1064.1 undefined 278.98 293.80 1.2766 495.00 0.0020202 278.98 293.80 1.2766 1.7053 2.6550 765.79 -0.0011146 99.019 0.095707 495.00 0.0020202 278.98 293.80 1.2766 1.7053 2.6550 765.79 -0.0011146 99.019 0.095707
36.375 1141.4 undefined 280.68 296.58 1.2821 495.00 0.0020202 280.68 296.58 1.2821 1.7092 2.6524 768.48 -0.0011736 99.029 0.095809 495.00 0.0020202 280.68 296.58 1.2821 1.7092 2.6524 768.48 -0.0011736 99.029 0.095809
37.375 1218.7 undefined 282.40 299.37 1.2877 495.00 0.0020202 282.40 299.37 1.2877 1.7131 2.6499 771.15 -0.0012312 99.039 0.095911 495.00 0.0020202 282.40 299.37 1.2877 1.7131 2.6499 771.15 -0.0012312 99.039 0.095911
38.375 1296.0 undefined 284.11 302.16 1.2932 495.00 0.0020202 284.11 302.16 1.2932 1.7170 2.6475 773.79 -0.0012876 99.049 0.096013 495.00 0.0020202 284.11 302.16 1.2932 1.7170 2.6475 773.79 -0.0012876 99.049 0.096013
39.375 1373.3 undefined 285.83 304.96 1.2987 495.00 0.0020202 285.83 304.96 1.2987 1.7209 2.6453 776.41 -0.0013428 99.059 0.096115 495.00 0.0020202 285.83 304.96 1.2987 1.7209 2.6453 776.41 -0.0013428 99.059 0.096115
40.375 1450.7 undefined 287.55 307.76 1.3042 495.00 0.0020202 287.55 307.76 1.3042 1.7249 2.6433 778.99 -0.0013969 99.069 0.096218 495.00 0.0020202 287.55 307.76 1.3042 1.7249 2.6433 778.99 -0.0013969 99.069 0.096218
41.375 1528.0 undefined 289.28 310.56 1.3097 495.00 0.0020202 289.28 310.56 1.3097 1.7288 2.6413 781.56 -0.0014498 99.079 0.096321 495.00 0.0020202 289.28 310.56 1.3097 1.7288 2.6413 781.56 -0.0014498 99.079 0.096321
42.375 1605.3 undefined 291.01 313.37 1.3152 495.00 0.0020202 291.01 313.37 1.3152 1.7328 2.6395 784.09 -0.0015016 99.090 0.096424 495.00 0.0020202 291.01 313.37 1.3152 1.7328 2.6395 784.09 -0.0015016 99.090 0.096424
43.375 1682.6 undefined 292.75 316.18 1.3207 495.00 0.0020202 292.75 316.18 1.3207 1.7368 2.6378 786.61 -0.0015523 99.100 0.096528 495.00 0.0020202 292.75 316.18 1.3207 1.7368 2.6378 786.61 -0.0015523 99.100 0.096528
44.375 1759.9 undefined 294.48 319.00 1.3262 495.00 0.0020202 294.48 319.00 1.3262 1.7408 2.6362 789.10 -0.0016020 99.111 0.096632 495.00 0.0020202 294.48 319.00 1.3262 1.7408 2.6362 789.10 -0.0016020 99.111 0.096632
45.375 1837.2 undefined 296.23 321.82 1.3316 495.00 0.0020202 296.23 321.82 1.3316 1.7448 2.6347 791.57 -0.0016507 99.121 0.096736 495.00 0.0020202 296.23 321.82 1.3316 1.7448 2.6347 791.57 -0.0016507 99.121 0.096736
46.375 1914.5 undefined 297.97 324.64 1.3371 495.00 0.0020202 297.97 324.64 1.3371 1.7488 2.6334 794.01 -0.0016984 99.132 0.096841 495.00 0.0020202 297.97 324.64 1.3371 1.7488 2.6334 794.01 -0.0016984 99.132 0.096841
47.375 1991.8 undefined 299.72 327.47 1.3426 495.00 0.0020202 299.72 327.47 1.3426 1.7529 2.6321 796.43 -0.0017452 99.143 0.096946 495.00 0.0020202 299.72 327.47 1.3426 1.7529 2.6321 796.43 -0.0017452 99.143 0.096946
48.375 2069.1 undefined 301.48 330.30 1.3480 495.00 0.0020202 301.48 330.30 1.3480 1.7570 2.6310 798.84 -0.0017910 99.154 0.097051 495.00 0.0020202 301.48 330.30 1.3480 1.7570 2.6310 798.84 -0.0017910 99.154 0.097051
49.375 2146.4 undefined 303.24 333.13 1.3535 495.00 0.0020202 303.24 333.13 1.3535 1.7610 2.6299 801.22 -0.0018360 99.165 0.097157 495.00 0.0020202 303.24 333.13 1.3535 1.7610 2.6299 801.22 -0.0018360 99.165 0.097157
50.375 2223.6 undefined 305.00 335.97 1.3590 495.00 0.0020202 305.00 335.97 1.3590 1.7651 2.6290 803.58 -0.0018800 99.176 0.097263 495.00 0.0020202 305.00 335.97 1.3590 1.7651 2.6290 803.58 -0.0018800 99.176 0.097263
51.375 2300.8 undefined 306.77 338.82 1.3644 495.00 0.0020202 306.77 338.82 1.3644 1.7692 2.6281 805.93 -0.0019232 99.187 0.097369 495.00 0.0020202 306.77 338.82 1.3644 1.7692 2.6281 805.93 -0.0019232 99.187 0.097369
52.375 2378.1 undefined 308.54 341.66 1.3699 495.00 0.0020202 308.54 341.66 1.3699 1.7733 2.6273 808.25 -0.0019656 99.198 0.097475 495.00 0.0020202 308.54 341.66 1.3699 1.7733 2.6273 808.25 -0.0019656 99.198 0.097475
53.375 2455.3 undefined 310.32 344.51 1.3753 495.00 0.0020202 310.32 344.51 1.3753 1.7775 2.6266 810.56 -0.0020071 99.209 0.097582 495.00 0.0020202 310.32 344.51 1.3753 1.7775 2.6266 810.56 -0.0020071 99.209 0.097582
54.375 2532.5 undefined 312.10 347.37 1.3808 495.00 0.0020202 312.10 347.37 1.3808 1.7816 2.6260 812.85 -0.0020479 99.220 0.097690 495.00 0.0020202 312.10 347.37 1.3808 1.7816 2.6260 812.85 -0.0020479 99.220 0.097690
55.375 2609.6 undefined 313.88 350.23 1.3862 495.00 0.0020202 313.88 350.23 1.3862 1.7857 2.6255 815.12 -0.0020878 99.232 0.097797 495.00 0.0020202 313.88 350.23 1.3862 1.7857 2.6255 815.12 -0.0020878 99.232 0.097797
56.375 2686.8 undefined 315.67 353.09 1.3916 495.00 0.0020202 315.67 353.09 1.3916 1.7899 2.6251 817.37 -0.0021270 99.243 0.097905 495.00 0.0020202 315.67 353.09 1.3916 1.7899 2.6251 817.37 -0.0021270 99.243 0.097905
57.375 2763.9 undefined 317.46 355.96 1.3971 495.00 0.0020202 317.46 355.96 1.3971 1.7941 2.6248 819.61 -0.0021655 99.255 0.098013 495.00 0.0020202 317.46 355.96 1.3971 1.7941 2.6248 819.61 -0.0021655 99.255 0.098013
58.375 2841.0 undefined 319.25 358.83 1.4025 495.00 0.0020202 319.25 358.83 1.4025 1.7982 2.6245 821.83 -0.0022033 99.266 0.098121 495.00 0.0020202 319.25 358.83 1.4025 1.7982 2.6245 821.83 -0.0022033 99.266 0.098121
59.375 2918.1 undefined 321.05 361.70 1.4079 495.00 0.0020202 321.05 361.70 1.4079 1.8024 2.6243 824.03 -0.0022403 99.278 0.098230 495.00 0.0020202 321.05 361.70 1.4079 1.8024 2.6243 824.03 -0.0022403 99.278 0.098230
60.375 2995.2 undefined 322.86 364.58 1.4133 495.00 0.0020202 322.86 364.58 1.4133 1.8066 2.6242 826.23 -0.0022766 99.290 0.098339 495.00 0.0020202 322.86 364.58 1.4133 1.8066 2.6242 826.23 -0.0022766 99.290 0.098339
61.375 3072.2 undefined 324.67 367.46 1.4187 495.00 0.0020202 324.67 367.46 1.4187 1.8108 2.6241 828.40 -0.0023123 99.302 0.098449 495.00 0.0020202 324.67 367.46 1.4187 1.8108 2.6241 828.40 -0.0023123 99.302 0.098449
62.375 3149.3 undefined 326.48 370.35 1.4242 495.00 0.0020202 326.48 370.35 1.4242 1.8150 2.6242 830.56 -0.0023473 99.314 0.098558 495.00 0.0020202 326.48 370.35 1.4242 1.8150 2.6242 830.56 -0.0023473 99.314 0.098558
63.375 3226.3 undefined 328.30 373.24 1.4296 495.00 0.0020202 328.30 373.24 1.4296 1.8192 2.6242 832.71 -0.0023817 99.326 0.098668 495.00 0.0020202 328.30 373.24 1.4296 1.8192 2.6242 832.71 -0.0023817 99.326 0.098668
64.375 3303.2 undefined 330.12 376.13 1.4350 495.00 0.0020202 330.12 376.13 1.4350 1.8235 2.6244 834.84 -0.0024154 99.338 0.098779 495.00 0.0020202 330.12 376.13 1.4350 1.8235 2.6244 834.84 -0.0024154 99.338 0.098779
65.375 3380.2 undefined 331.95 379.03 1.4404 495.00 0.0020202 331.95 379.03 1.4404 1.8277 2.6246 836.96 -0.0024485 99.350 0.098889 495.00 0.0020202 331.95 379.03 1.4404 1.8277 2.6246 836.96 -0.0024485 99.350 0.098889
66.375 3457.1 undefined 333.77 381.93 1.4458 495.00 0.0020202 333.77 381.93 1.4458 1.8319 2.6249 839.06 -0.0024810 99.362 0.099000 495.00 0.0020202 333.77 381.93 1.4458 1.8319 2.6249 839.06 -0.0024810 99.362 0.099000
67.375 3534.0 undefined 335.61 384.83 1.4512 495.00 0.0020202 335.61 384.83 1.4512 1.8362 2.6253 841.16 -0.0025129 99.374 0.099111 495.00 0.0020202 335.61 384.83 1.4512 1.8362 2.6253 841.16 -0.0025129 99.374 0.099111
68.375 3610.9 undefined 337.45 387.74 1.4565 495.00 0.0020202 337.45 387.74 1.4565 1.8404 2.6257 843.24 -0.0025443 99.386 0.099223 495.00 0.0020202 337.45 387.74 1.4565 1.8404 2.6257 843.24 -0.0025443 99.386 0.099223
69.375 3687.7 undefined 339.29 390.66 1.4619 495.00 0.0020202 339.29 390.66 1.4619 1.8447 2.6261 845.30 -0.0025750 99.399 0.099335 495.00 0.0020202 339.29 390.66 1.4619 1.8447 2.6261 845.30 -0.0025750 99.399 0.099335
70.375 3764.5 undefined 341.14 393.57 1.4673 495.00 0.0020202 341.14 393.57 1.4673 1.8489 2.6267 847.36 -0.0026053 99.411 0.099447 495.00 0.0020202 341.14 393.57 1.4673 1.8489 2.6267 847.36 -0.0026053 99.411 0.099447
71.375 3841.3 undefined 342.99 396.49 1.4727 495.00 0.0020202 342.99 396.49 1.4727 1.8532 2.6273 849.40 -0.0026349 99.424 0.099559 495.00 0.0020202 342.99 396.49 1.4727 1.8532 2.6273 849.40 -0.0026349 99.424 0.099559
72.375 3918.1 undefined 344.84 399.42 1.4781 495.00 0.0020202 344.84 399.42 1.4781 1.8575 2.6279 851.43 -0.0026641 99.436 0.099672 495.00 0.0020202 344.84 399.42 1.4781 1.8575 2.6279 851.43 -0.0026641 99.436 0.099672
73.375 3994.8 undefined 346.70 402.35 1.4835 495.00 0.0020202 346.70 402.35 1.4835 1.8617 2.6286 853.45 -0.0026927 99.449 0.099785 495.00 0.0020202 346.70 402.35 1.4835 1.8617 2.6286 853.45 -0.0026927 99.449 0.099785
74.375 4071.5 undefined 348.57 405.28 1.4888 495.00 0.0020202 348.57 405.28 1.4888 1.8660 2.6293 855.46 -0.0027208 99.461 0.099898 495.00 0.0020202 348.57 405.28 1.4888 1.8660 2.6293 855.46 -0.0027208 99.461 0.099898
75.375 4148.1 undefined 350.43 408.21 1.4942 495.00 0.0020202 350.43 408.21 1.4942 1.8703 2.6301 857.46 -0.0027484 99.474 0.10001 495.00 0.0020202 350.43 408.21 1.4942 1.8703 2.6301 857.46 -0.0027484 99.474 0.10001
76.375 4224.8 undefined 352.31 411.15 1.4996 495.00 0.0020202 352.31 411.15 1.4996 1.8746 2.6310 859.44 -0.0027755 99.487 0.10013 495.00 0.0020202 352.31 411.15 1.4996 1.8746 2.6310 859.44 -0.0027755 99.487 0.10013
77.375 4301.4 undefined 354.18 414.10 1.5049 495.00 0.0020202 354.18 414.10 1.5049 1.8789 2.6318 861.42 -0.0028021 99.500 0.10024 495.00 0.0020202 354.18 414.10 1.5049 1.8789 2.6318 861.42 -0.0028021 99.500 0.10024
78.375 4377.9 undefined 356.06 417.04 1.5103 495.00 0.0020202 356.06 417.04 1.5103 1.8832 2.6328 863.38 -0.0028283 99.513 0.10035 495.00 0.0020202 356.06 417.04 1.5103 1.8832 2.6328 863.38 -0.0028283 99.513 0.10035
79.375 4454.5 undefined 357.95 420.00 1.5156 495.00 0.0020202 357.95 420.00 1.5156 1.8875 2.6338 865.34 -0.0028540 99.526 0.10047 495.00 0.0020202 357.95 420.00 1.5156 1.8875 2.6338 865.34 -0.0028540 99.526 0.10047
80.375 4531.0 undefined 359.84 422.95 1.5210 495.00 0.0020202 359.84 422.95 1.5210 1.8918 2.6348 867.28 -0.0028792 99.539 0.10058 495.00 0.0020202 359.84 422.95 1.5210 1.8918 2.6348 867.28 -0.0028792 99.539 0.10058
81.375 4607.5 undefined 361.73 425.91 1.5263 495.00 0.0020202 361.73 425.91 1.5263 1.8961 2.6359 869.22 -0.0029040 99.552 0.10070 495.00 0.0020202 361.73 425.91 1.5263 1.8961 2.6359 869.22 -0.0029040 99.552 0.10070
82.375 4683.9 undefined 363.63 428.87 1.5317 495.00 0.0020202 363.63 428.87 1.5317 1.9004 2.6370 871.15 -0.0029284 99.565 0.10082 495.00 0.0020202 363.63 428.87 1.5317 1.9004 2.6370 871.15 -0.0029284 99.565 0.10082
83.375 4760.3 undefined 365.53 431.84 1.5370 495.00 0.0020202 365.53 431.84 1.5370 1.9047 2.6382 873.06 -0.0029523 99.578 0.10093 495.00 0.0020202 365.53 431.84 1.5370 1.9047 2.6382 873.06 -0.0029523 99.578 0.10093
84.375 4836.7 undefined 367.44 434.81 1.5424 495.00 0.0020202 367.44 434.81 1.5424 1.9090 2.6394 874.97 -0.0029758 99.591 0.10105 495.00 0.0020202 367.44 434.81 1.5424 1.9090 2.6394 874.97 -0.0029758 99.591 0.10105
85.375 4913.0 undefined 369.35 437.79 1.5477 495.00 0.0020202 369.35 437.79 1.5477 1.9133 2.6406 876.87 -0.0029989 99.605 0.10116 495.00 0.0020202 369.35 437.79 1.5477 1.9133 2.6406 876.87 -0.0029989 99.605 0.10116
86.375 4989.3 undefined 371.27 440.76 1.5530 495.00 0.0020202 371.27 440.76 1.5530 1.9176 2.6419 878.75 -0.0030216 99.618 0.10128 495.00 0.0020202 371.27 440.76 1.5530 1.9176 2.6419 878.75 -0.0030216 99.618 0.10128
87.375 5065.6 undefined 373.19 443.75 1.5584 495.00 0.0020202 373.19 443.75 1.5584 1.9219 2.6432 880.63 -0.0030439 99.631 0.10140 495.00 0.0020202 373.19 443.75 1.5584 1.9219 2.6432 880.63 -0.0030439 99.631 0.10140
88.375 5141.8 undefined 375.11 446.73 1.5637 495.00 0.0020202 375.11 446.73 1.5637 1.9262 2.6445 882.50 -0.0030658 99.645 0.10152 495.00 0.0020202 375.11 446.73 1.5637 1.9262 2.6445 882.50 -0.0030658 99.645 0.10152
89.375 5218.0 undefined 377.04 449.72 1.5690 495.00 0.0020202 377.04 449.72 1.5690 1.9305 2.6459 884.37 -0.0030874 99.658 0.10163 495.00 0.0020202 377.04 449.72 1.5690 1.9305 2.6459 884.37 -0.0030874 99.658 0.10163
90.375 5294.2 undefined 378.97 452.71 1.5743 495.00 0.0020202 378.97 452.71 1.5743 1.9348 2.6474 886.22 -0.0031085 99.672 0.10175 495.00 0.0020202 378.97 452.71 1.5743 1.9348 2.6474 886.22 -0.0031085 99.672 0.10175
91.375 5370.4 undefined 380.91 455.71 1.5797 495.00 0.0020202 380.91 455.71 1.5797 1.9391 2.6488 888.06 -0.0031293 99.686 0.10187 495.00 0.0020202 380.91 455.71 1.5797 1.9391 2.6488 888.06 -0.0031293 99.686 0.10187
92.375 5446.5 undefined 382.85 458.71 1.5850 495.00 0.0020202 382.85 458.71 1.5850 1.9435 2.6503 889.90 -0.0031498 99.699 0.10199 495.00 0.0020202 382.85 458.71 1.5850 1.9435 2.6503 889.90 -0.0031498 99.699 0.10199
93.375 5522.5 undefined 384.80 461.72 1.5903 495.00 0.0020202 384.80 461.72 1.5903 1.9478 2.6519 891.73 -0.0031699 99.713 0.10211 495.00 0.0020202 384.80 461.72 1.5903 1.9478 2.6519 891.73 -0.0031699 99.713 0.10211
94.375 5598.5 undefined 386.75 464.73 1.5956 495.00 0.0020202 386.75 464.73 1.5956 1.9521 2.6534 893.55 -0.0031896 99.727 0.10223 495.00 0.0020202 386.75 464.73 1.5956 1.9521 2.6534 893.55 -0.0031896 99.727 0.10223
95.375 5674.5 undefined 388.70 467.74 1.6009 495.00 0.0020202 388.70 467.74 1.6009 1.9564 2.6550 895.36 -0.0032090 99.741 0.10235 495.00 0.0020202 388.70 467.74 1.6009 1.9564 2.6550 895.36 -0.0032090 99.741 0.10235
96.375 5750.5 undefined 390.66 470.76 1.6062 495.00 0.0020202 390.66 470.76 1.6062 1.9607 2.6566 897.17 -0.0032281 99.755 0.10247 495.00 0.0020202 390.66 470.76 1.6062 1.9607 2.6566 897.17 -0.0032281 99.755 0.10247
97.375 5826.4 undefined 392.62 473.78 1.6115 495.00 0.0020202 392.62 473.78 1.6115 1.9650 2.6583 898.97 -0.0032468 99.768 0.10259 495.00 0.0020202 392.62 473.78 1.6115 1.9650 2.6583 898.97 -0.0032468 99.768 0.10259
98.375 5902.3 undefined 394.59 476.80 1.6168 495.00 0.0020202 394.59 476.80 1.6168 1.9693 2.6600 900.76 -0.0032652 99.782 0.10271 495.00 0.0020202 394.59 476.80 1.6168 1.9693 2.6600 900.76 -0.0032652 99.782 0.10271
99.375 5978.1 undefined 396.56 479.83 1.6221 495.00 0.0020202 396.56 479.83 1.6221 1.9736 2.6617 902.54 -0.0032833 99.797 0.10283 495.00 0.0020202 396.56 479.83 1.6221 1.9736 2.6617 902.54 -0.0032833 99.797 0.10283
100.38 6054.0 undefined 398.54 482.86 1.6274 495.00 0.0020202 398.54 482.86 1.6274 1.9779 2.6634 904.31 -0.0033011 99.811 0.10295 495.00 0.0020202 398.54 482.86 1.6274 1.9779 2.6634 904.31 -0.0033011 99.811 0.10295
101.38 6129.7 undefined 400.52 485.90 1.6327 495.00 0.0020202 400.52 485.90 1.6327 1.9823 2.6652 906.08 -0.0033186 99.825 0.10307 495.00 0.0020202 400.52 485.90 1.6327 1.9823 2.6652 906.08 -0.0033186 99.825 0.10307
102.38 6205.5 undefined 402.50 488.94 1.6380 495.00 0.0020202 402.50 488.94 1.6380 1.9866 2.6670 907.84 -0.0033358 99.839 0.10319 495.00 0.0020202 402.50 488.94 1.6380 1.9866 2.6670 907.84 -0.0033358 99.839 0.10319
103.38 6281.2 undefined 404.49 491.98 1.6433 495.00 0.0020202 404.49 491.98 1.6433 1.9909 2.6688 909.59 -0.0033527 99.853 0.10332 495.00 0.0020202 404.49 491.98 1.6433 1.9909 2.6688 909.59 -0.0033527 99.853 0.10332
104.38 6356.8 undefined 406.48 495.03 1.6486 495.00 0.0020202 406.48 495.03 1.6486 1.9952 2.6707 911.34 -0.0033693 99.867 0.10344 495.00 0.0020202 406.48 495.03 1.6486 1.9952 2.6707 911.34 -0.0033693 99.867 0.10344
105.38 6432.5 undefined 408.48 498.08 1.6539 495.00 0.0020202 408.48 498.08 1.6539 1.9995 2.6726 913.08 -0.0033856 99.882 0.10356 495.00 0.0020202 408.48 498.08 1.6539 1.9995 2.6726 913.08 -0.0033856 99.882 0.10356
106.38 6508.1 undefined 410.48 501.13 1.6592 495.00 0.0020202 410.48 501.13 1.6592 2.0038 2.6745 914.81 -0.0034016 99.896 0.10368 495.00 0.0020202 410.48 501.13 1.6592 2.0038 2.6745 914.81 -0.0034016 99.896 0.10368
107.38 6583.6 undefined 412.49 504.19 1.6644 495.00 0.0020202 412.49 504.19 1.6644 2.0081 2.6764 916.54 -0.0034174 99.911 0.10381 495.00 0.0020202 412.49 504.19 1.6644 2.0081 2.6764 916.54 -0.0034174 99.911 0.10381
108.38 6659.1 undefined 414.50 507.25 1.6697 495.00 0.0020202 414.50 507.25 1.6697 2.0124 2.6783 918.26 -0.0034329 99.925 0.10393 495.00 0.0020202 414.50 507.25 1.6697 2.0124 2.6783 918.26 -0.0034329 99.925 0.10393
109.38 6734.6 undefined 416.51 510.32 1.6750 495.00 0.0020202 416.51 510.32 1.6750 2.0167 2.6803 919.97 -0.0034481 99.939 0.10405 495.00 0.0020202 416.51 510.32 1.6750 2.0167 2.6803 919.97 -0.0034481 99.939 0.10405
110.38 6810.0 undefined 418.53 513.39 1.6803 495.00 0.0020202 418.53 513.39 1.6803 2.0210 2.6823 921.68 -0.0034631 99.954 0.10418 495.00 0.0020202 418.53 513.39 1.6803 2.0210 2.6823 921.68 -0.0034631 99.954 0.10418
111.38 6885.5 undefined 420.55 516.46 1.6855 495.00 0.0020202 420.55 516.46 1.6855 2.0253 2.6843 923.38 -0.0034778 99.969 0.10430 495.00 0.0020202 420.55 516.46 1.6855 2.0253 2.6843 923.38 -0.0034778 99.969 0.10430
112.38 6960.8 undefined 422.58 519.54 1.6908 495.00 0.0020202 422.58 519.54 1.6908 2.0296 2.6864 925.07 -0.0034923 99.983 0.10443 495.00 0.0020202 422.58 519.54 1.6908 2.0296 2.6864 925.07 -0.0034923 99.983 0.10443
113.38 7036.1 undefined 424.61 522.62 1.6961 495.00 0.0020202 424.61 522.62 1.6961 2.0339 2.6884 926.76 -0.0035065 99.998 0.10455 495.00 0.0020202 424.61 522.62 1.6961 2.0339 2.6884 926.76 -0.0035065 99.998 0.10455
114.38 7111.4 undefined 426.65 525.70 1.7013 495.00 0.0020202 426.65 525.70 1.7013 2.0382 2.6905 928.44 -0.0035205 100.01 0.10468 495.00 0.0020202 426.65 525.70 1.7013 2.0382 2.6905 928.44 -0.0035205 100.01 0.10468
115.38 7186.7 undefined 428.69 528.79 1.7066 495.00 0.0020202 428.69 528.79 1.7066 2.0424 2.6926 930.11 -0.0035343 100.03 0.10480 495.00 0.0020202 428.69 528.79 1.7066 2.0424 2.6926 930.11 -0.0035343 100.03 0.10480
116.38 7261.9 undefined 430.73 531.88 1.7118 495.00 0.0020202 430.73 531.88 1.7118 2.0467 2.6947 931.78 -0.0035478 100.04 0.10493 495.00 0.0020202 430.73 531.88 1.7118 2.0467 2.6947 931.78 -0.0035478 100.04 0.10493
117.38 7337.1 undefined 432.78 534.98 1.7171 495.00 0.0020202 432.78 534.98 1.7171 2.0510 2.6969 933.44 -0.0035611 100.06 0.10505 495.00 0.0020202 432.78 534.98 1.7171 2.0510 2.6969 933.44 -0.0035611 100.06 0.10505
118.38 7412.2 undefined 434.84 538.08 1.7223 495.00 0.0020202 434.84 538.08 1.7223 2.0553 2.6990 935.10 -0.0035742 100.07 0.10518 495.00 0.0020202 434.84 538.08 1.7223 2.0553 2.6990 935.10 -0.0035742 100.07 0.10518
119.38 7487.3 undefined 436.89 541.18 1.7276 495.00 0.0020202 436.89 541.18 1.7276 2.0596 2.7012 936.75 -0.0035870 100.09 0.10531 495.00 0.0020202 436.89 541.18 1.7276 2.0596 2.7012 936.75 -0.0035870 100.09 0.10531
120.38 7562.4 undefined 438.96 544.29 1.7328 495.00 0.0020202 438.96 544.29 1.7328 2.0638 2.7034 938.39 -0.0035996 100.10 0.10544 495.00 0.0020202 438.96 544.29 1.7328 2.0638 2.7034 938.39 -0.0035996 100.10 0.10544
121.38 7637.4 undefined 441.02 547.40 1.7381 495.00 0.0020202 441.02 547.40 1.7381 2.0681 2.7056 940.03 -0.0036120 100.12 0.10556 495.00 0.0020202 441.02 547.40 1.7381 2.0681 2.7056 940.03 -0.0036120 100.12 0.10556
122.38 7712.4 undefined 443.09 550.52 1.7433 495.00 0.0020202 443.09 550.52 1.7433 2.0724 2.7078 941.67 -0.0036242 100.13 0.10569 495.00 0.0020202 443.09 550.52 1.7433 2.0724 2.7078 941.67 -0.0036242 100.13 0.10569
123.38 7787.3 undefined 445.17 553.63 1.7486 495.00 0.0020202 445.17 553.63 1.7486 2.0766 2.7101 943.29 -0.0036362 100.15 0.10582 495.00 0.0020202 445.17 553.63 1.7486 2.0766 2.7101 943.29 -0.0036362 100.15 0.10582
124.38 7862.2 undefined 447.25 556.76 1.7538 495.00 0.0020202 447.25 556.76 1.7538 2.0809 2.7124 944.92 -0.0036480 100.16 0.10595 495.00 0.0020202 447.25 556.76 1.7538 2.0809 2.7124 944.92 -0.0036480 100.16 0.10595
125.38 7937.1 undefined 449.33 559.88 1.7590 495.00 0.0020202 449.33 559.88 1.7590 2.0852 2.7146 946.53 -0.0036596 100.18 0.10607 495.00 0.0020202 449.33 559.88 1.7590 2.0852 2.7146 946.53 -0.0036596 100.18 0.10607
126.38 8011.9 undefined 451.42 563.01 1.7643 495.00 0.0020202 451.42 563.01 1.7643 2.0894 2.7169 948.14 -0.0036710 100.19 0.10621 495.00 0.0020202 451.42 563.01 1.7643 2.0894 2.7169 948.14 -0.0036710 100.19 0.10621
127.38 8086.7 undefined 453.51 566.15 1.7695 495.00 0.0020202 453.51 566.15 1.7695 2.0937 2.7192 949.75 -0.0036822 100.21 0.10634 495.00 0.0020202 453.51 566.15 1.7695 2.0937 2.7192 949.75 -0.0036822 100.21 0.10634
128.38 8161.5 undefined 455.60 569.28 1.7747 495.00 0.0020202 455.60 569.28 1.7747 2.0979 2.7216 951.35 -0.0036933 100.22 0.10647 495.00 0.0020202 455.60 569.28 1.7747 2.0979 2.7216 951.35 -0.0036933 100.22 0.10647
129.38 8236.2 undefined 457.70 572.42 1.7799 495.00 0.0020202 457.70 572.42 1.7799 2.1022 2.7239 952.94 -0.0037041 100.24 0.10660 495.00 0.0020202 457.70 572.42 1.7799 2.1022 2.7239 952.94 -0.0037041 100.24 0.10660
130.38 8310.9 undefined 459.81 575.57 1.7852 495.00 0.0020202 459.81 575.57 1.7852 2.1064 2.7263 954.53 -0.0037147 100.25 0.10673 495.00 0.0020202 459.81 575.57 1.7852 2.1064 2.7263 954.53 -0.0037147 100.25 0.10673
131.38 8385.5 undefined 461.92 578.72 1.7904 495.00 0.0020202 461.92 578.72 1.7904 2.1107 2.7286 956.12 -0.0037252 100.27 0.10686 495.00 0.0020202 461.92 578.72 1.7904 2.1107 2.7286 956.12 -0.0037252 100.27 0.10686
132.38 8460.1 undefined 464.03 581.87 1.7956 495.00 0.0020202 464.03 581.87 1.7956 2.1149 2.7310 957.70 -0.0037355 100.28 0.10699 495.00 0.0020202 464.03 581.87 1.7956 2.1149 2.7310 957.70 -0.0037355 100.28 0.10699
133.38 8534.7 undefined 466.15 585.02 1.8008 495.00 0.0020202 466.15 585.02 1.8008 2.1191 2.7334 959.27 -0.0037456 100.30 0.10713 495.00 0.0020202 466.15 585.02 1.8008 2.1191 2.7334 959.27 -0.0037456 100.30 0.10713
134.38 8609.2 undefined 468.27 588.18 1.8060 495.00 0.0020202 468.27 588.18 1.8060 2.1234 2.7358 960.84 -0.0037556 100.32 0.10726 495.00 0.0020202 468.27 588.18 1.8060 2.1234 2.7358 960.84 -0.0037556 100.32 0.10726
135.38 8683.7 undefined 470.39 591.35 1.8112 495.00 0.0020202 470.39 591.35 1.8112 2.1276 2.7383 962.40 -0.0037653 100.33 0.10739 495.00 0.0020202 470.39 591.35 1.8112 2.1276 2.7383 962.40 -0.0037653 100.33 0.10739
136.38 8758.1 undefined 472.52 594.51 1.8164 495.00 0.0020202 472.52 594.51 1.8164 2.1318 2.7407 963.96 -0.0037749 100.35 0.10752 495.00 0.0020202 472.52 594.51 1.8164 2.1318 2.7407 963.96 -0.0037749 100.35 0.10752
137.38 8832.5 undefined 474.66 597.68 1.8216 495.00 0.0020202 474.66 597.68 1.8216 2.1361 2.7431 965.52 -0.0037844 100.36 0.10766 495.00 0.0020202 474.66 597.68 1.8216 2.1361 2.7431 965.52 -0.0037844 100.36 0.10766
138.38 8906.9 undefined 476.79 600.86 1.8268 495.00 0.0020202 476.79 600.86 1.8268 2.1403 2.7456 967.07 -0.0037937 100.38 0.10779 495.00 0.0020202 476.79 600.86 1.8268 2.1403 2.7456 967.07 -0.0037937 100.38 0.10779
139.38 8981.2 undefined 478.94 604.03 1.8320 495.00 0.0020202 478.94 604.03 1.8320 2.1445 2.7481 968.61 -0.0038028 100.39 0.10793 495.00 0.0020202 478.94 604.03 1.8320 2.1445 2.7481 968.61 -0.0038028 100.39 0.10793
140.38 9055.5 undefined 481.08 607.22 1.8372 495.00 0.0020202 481.08 607.22 1.8372 2.1487 2.7506 970.15 -0.0038118 100.41 0.10806 495.00 0.0020202 481.08 607.22 1.8372 2.1487 2.7506 970.15 -0.0038118 100.41 0.10806
141.38 9129.8 undefined 483.23 610.40 1.8424 495.00 0.0020202 483.23 610.40 1.8424 2.1529 2.7531 971.68 -0.0038206 100.42 0.10820 495.00 0.0020202 483.23 610.40 1.8424 2.1529 2.7531 971.68 -0.0038206 100.42 0.10820
142.38 9204.0 undefined 485.39 613.59 1.8476 495.00 0.0020202 485.39 613.59 1.8476 2.1571 2.7556 973.21 -0.0038293 100.44 0.10833 495.00 0.0020202 485.39 613.59 1.8476 2.1571 2.7556 973.21 -0.0038293 100.44 0.10833
143.38 9278.1 undefined 487.55 616.78 1.8528 495.00 0.0020202 487.55 616.78 1.8528 2.1613 2.7581 974.74 -0.0038378 100.46 0.10847 495.00 0.0020202 487.55 616.78 1.8528 2.1613 2.7581 974.74 -0.0038378 100.46 0.10847
144.38 9352.3 undefined 489.71 619.98 1.8580 495.00 0.0020202 489.71 619.98 1.8580 2.1655 2.7606 976.26 -0.0038462 100.47 0.10860 495.00 0.0020202 489.71 619.98 1.8580 2.1655 2.7606 976.26 -0.0038462 100.47 0.10860
145.38 9426.4 undefined 491.88 623.18 1.8632 495.00 0.0020202 491.88 623.18 1.8632 2.1697 2.7632 977.77 -0.0038544 100.49 0.10874 495.00 0.0020202 491.88 623.18 1.8632 2.1697 2.7632 977.77 -0.0038544 100.49 0.10874
146.38 9500.4 undefined 494.05 626.38 1.8684 495.00 0.0020202 494.05 626.38 1.8684 2.1739 2.7657 979.29 -0.0038625 100.50 0.10887 495.00 0.0020202 494.05 626.38 1.8684 2.1739 2.7657 979.29 -0.0038625 100.50 0.10887
147.38 9574.4 undefined 496.23 629.59 1.8735 495.00 0.0020202 496.23 629.59 1.8735 2.1781 2.7683 980.79 -0.0038705 100.52 0.10901 495.00 0.0020202 496.23 629.59 1.8735 2.1781 2.7683 980.79 -0.0038705 100.52 0.10901
148.38 9648.4 undefined 498.41 632.80 1.8787 495.00 0.0020202 498.41 632.80 1.8787 2.1823 2.7708 982.30 -0.0038783 100.54 0.10915 495.00 0.0020202 498.41 632.80 1.8787 2.1823 2.7708 982.30 -0.0038783 100.54 0.10915
149.38 9722.3 undefined 500.59 636.01 1.8839 495.00 0.0020202 500.59 636.01 1.8839 2.1864 2.7734 983.79 -0.0038860 100.55 0.10928 495.00 0.0020202 500.59 636.01 1.8839 2.1864 2.7734 983.79 -0.0038860 100.55 0.10928
150.38 9796.2 undefined 502.78 639.23 1.8891 495.00 0.0020202 502.78 639.23 1.8891 2.1906 2.7760 985.29 -0.0038936 100.57 0.10942 495.00 0.0020202 502.78 639.23 1.8891 2.1906 2.7760 985.29 -0.0038936 100.57 0.10942
151.38 9870.1 undefined 504.97 642.45 1.8942 495.00 0.0020202 504.97 642.45 1.8942 2.1948 2.7786 986.78 -0.0039010 100.58 0.10956 495.00 0.0020202 504.97 642.45 1.8942 2.1948 2.7786 986.78 -0.0039010 100.58 0.10956
152.38 9943.9 undefined 507.17 645.68 1.8994 495.00 0.0020202 507.17 645.68 1.8994 2.1989 2.7812 988.26 -0.0039083 100.60 0.10970 495.00 0.0020202 507.17 645.68 1.8994 2.1989 2.7812 988.26 -0.0039083 100.60 0.10970
153.38 10018. undefined 509.37 648.90 1.9046 495.00 0.0020202 509.37 648.90 1.9046 2.2031 2.7838 989.74 -0.0039155 100.62 0.10983 495.00 0.0020202 509.37 648.90 1.9046 2.2031 2.7838 989.74 -0.0039155 100.62 0.10983
154.38 10091. undefined 511.58 652.14 1.9097 495.00 0.0020202 511.58 652.14 1.9097 2.2073 2.7865 991.22 -0.0039225 100.63 0.10997 495.00 0.0020202 511.58 652.14 1.9097 2.2073 2.7865 991.22 -0.0039225 100.63 0.10997
155.38 10165. undefined 513.79 655.37 1.9149 495.00 0.0020202 513.79 655.37 1.9149 2.2114 2.7891 992.69 -0.0039294 100.65 0.11011 495.00 0.0020202 513.79 655.37 1.9149 2.2114 2.7891 992.69 -0.0039294 100.65 0.11011
156.38 10239. undefined 516.00 658.61 1.9201 495.00 0.0020202 516.00 658.61 1.9201 2.2156 2.7917 994.16 -0.0039363 100.66 0.11025 495.00 0.0020202 516.00 658.61 1.9201 2.2156 2.7917 994.16 -0.0039363 100.66 0.11025
157.38 10312. undefined 518.22 661.86 1.9252 495.00 0.0020202 518.22 661.86 1.9252 2.2197 2.7944 995.62 -0.0039430 100.68 0.11039 495.00 0.0020202 518.22 661.86 1.9252 2.2197 2.7944 995.62 -0.0039430 100.68 0.11039
158.38 10386. undefined 520.44 665.10 1.9304 495.00 0.0020202 520.44 665.10 1.9304 2.2239 2.7970 997.08 -0.0039495 100.70 0.11053 495.00 0.0020202 520.44 665.10 1.9304 2.2239 2.7970 997.08 -0.0039495 100.70 0.11053
159.38 10460. undefined 522.66 668.35 1.9355 495.00 0.0020202 522.66 668.35 1.9355 2.2280 2.7997 998.53 -0.0039560 100.71 0.11067 495.00 0.0020202 522.66 668.35 1.9355 2.2280 2.7997 998.53 -0.0039560 100.71 0.11067
160.38 10533. undefined 524.89 671.61 1.9407 495.00 0.0020202 524.89 671.61 1.9407 2.2321 2.8024 999.99 -0.0039623 100.73 0.11081 495.00 0.0020202 524.89 671.61 1.9407 2.2321 2.8024 999.99 -0.0039623 100.73 0.11081
161.38 10607. undefined 527.13 674.86 1.9458 495.00 0.0020202 527.13 674.86 1.9458 2.2363 2.8050 1001.4 -0.0039686 100.74 0.11095 495.00 0.0020202 527.13 674.86 1.9458 2.2363 2.8050 1001.4 -0.0039686 100.74 0.11095
162.38 10680. undefined 529.37 678.13 1.9510 495.00 0.0020202 529.37 678.13 1.9510 2.2404 2.8077 1002.9 -0.0039747 100.76 0.11109 495.00 0.0020202 529.37 678.13 1.9510 2.2404 2.8077 1002.9 -0.0039747 100.76 0.11109
163.38 10753. undefined 531.61 681.39 1.9561 495.00 0.0020202 531.61 681.39 1.9561 2.2445 2.8104 1004.3 -0.0039807 100.78 0.11123 495.00 0.0020202 531.61 681.39 1.9561 2.2445 2.8104 1004.3 -0.0039807 100.78 0.11123
164.38 10827. undefined 533.86 684.66 1.9613 495.00 0.0020202 533.86 684.66 1.9613 2.2486 2.8131 1005.8 -0.0039866 100.79 0.11137 495.00 0.0020202 533.86 684.66 1.9613 2.2486 2.8131 1005.8 -0.0039866 100.79 0.11137
165.38 10900. undefined 536.11 687.93 1.9664 495.00 0.0020202 536.11 687.93 1.9664 2.2527 2.8158 1007.2 -0.0039925 100.81 0.11152 495.00 0.0020202 536.11 687.93 1.9664 2.2527 2.8158 1007.2 -0.0039925 100.81 0.11152
166.38 10973. undefined 538.36 691.21 1.9715 495.00 0.0020202 538.36 691.21 1.9715 2.2568 2.8185 1008.6 -0.0039982 100.83 0.11166 495.00 0.0020202 538.36 691.21 1.9715 2.2568 2.8185 1008.6 -0.0039982 100.83 0.11166
167.38 11046. undefined 540.62 694.48 1.9767 495.00 0.0020202 540.62 694.48 1.9767 2.2609 2.8212 1010.0 -0.0040038 100.84 0.11180 495.00 0.0020202 540.62 694.48 1.9767 2.2609 2.8212 1010.0 -0.0040038 100.84 0.11180
168.38 11120. undefined 542.88 697.77 1.9818 495.00 0.0020202 542.88 697.77 1.9818 2.2650 2.8240 1011.5 -0.0040093 100.86 0.11194 495.00 0.0020202 542.88 697.77 1.9818 2.2650 2.8240 1011.5 -0.0040093 100.86 0.11194
169.38 11193. undefined 545.15 701.05 1.9869 495.00 0.0020202 545.15 701.05 1.9869 2.2691 2.8267 1012.9 -0.0040147 100.88 0.11209 495.00 0.0020202 545.15 701.05 1.9869 2.2691 2.8267 1012.9 -0.0040147 100.88 0.11209
170.38 11266. undefined 547.42 704.34 1.9921 495.00 0.0020202 547.42 704.34 1.9921 2.2732 2.8294 1014.3 -0.0040200 100.89 0.11223 495.00 0.0020202 547.42 704.34 1.9921 2.2732 2.8294 1014.3 -0.0040200 100.89 0.11223
171.38 11339. undefined 549.70 707.64 1.9972 495.00 0.0020202 549.70 707.64 1.9972 2.2773 2.8322 1015.7 -0.0040252 100.91 0.11237 495.00 0.0020202 549.70 707.64 1.9972 2.2773 2.8322 1015.7 -0.0040252 100.91 0.11237
172.38 11412. undefined 551.98 710.93 2.0023 495.00 0.0020202 551.98 710.93 2.0023 2.2814 2.8349 1017.1 -0.0040304 100.93 0.11252 495.00 0.0020202 551.98 710.93 2.0023 2.2814 2.8349 1017.1 -0.0040304 100.93 0.11252
173.38 11485. undefined 554.26 714.23 2.0074 495.00 0.0020202 554.26 714.23 2.0074 2.2854 2.8377 1018.5 -0.0040354 100.94 0.11266 495.00 0.0020202 554.26 714.23 2.0074 2.2854 2.8377 1018.5 -0.0040354 100.94 0.11266
174.38 11558. undefined 556.55 717.54 2.0125 495.00 0.0020202 556.55 717.54 2.0125 2.2895 2.8404 1019.9 -0.0040403 100.96 0.11280 495.00 0.0020202 556.55 717.54 2.0125 2.2895 2.8404 1019.9 -0.0040403 100.96 0.11280
175.38 11631. undefined 558.84 720.84 2.0176 495.00 0.0020202 558.84 720.84 2.0176 2.2936 2.8432 1021.3 -0.0040452 100.97 0.11295 495.00 0.0020202 558.84 720.84 2.0176 2.2936 2.8432 1021.3 -0.0040452 100.97 0.11295
176.38 11704. undefined 561.13 724.15 2.0228 495.00 0.0020202 561.13 724.15 2.0228 2.2976 2.8459 1022.7 -0.0040500 100.99 0.11309 495.00 0.0020202 561.13 724.15 2.0228 2.2976 2.8459 1022.7 -0.0040500 100.99 0.11309
177.38 11777. undefined 563.43 727.47 2.0279 495.00 0.0020202 563.43 727.47 2.0279 2.3017 2.8487 1024.1 -0.0040547 101.01 0.11324 495.00 0.0020202 563.43 727.47 2.0279 2.3017 2.8487 1024.1 -0.0040547 101.01 0.11324
178.38 11849. undefined 565.74 730.79 2.0330 495.00 0.0020202 565.74 730.79 2.0330 2.3058 2.8515 1025.4 -0.0040593 101.02 0.11339 495.00 0.0020202 565.74 730.79 2.0330 2.3058 2.8515 1025.4 -0.0040593 101.02 0.11339
179.38 11922. undefined 568.04 734.11 2.0381 495.00 0.0020202 568.04 734.11 2.0381 2.3098 2.8543 1026.8 -0.0040638 101.04 0.11353 495.00 0.0020202 568.04 734.11 2.0381 2.3098 2.8543 1026.8 -0.0040638 101.04 0.11353
180.38 11995. undefined 570.36 737.43 2.0432 495.00 0.0020202 570.36 737.43 2.0432 2.3138 2.8571 1028.2 -0.0040682 101.06 0.11368 495.00 0.0020202 570.36 737.43 2.0432 2.3138 2.8571 1028.2 -0.0040682 101.06 0.11368
181.38 12068. undefined 572.67 740.76 2.0483 495.00 0.0020202 572.67 740.76 2.0483 2.3179 2.8598 1029.6 -0.0040725 101.07 0.11382 495.00 0.0020202 572.67 740.76 2.0483 2.3179 2.8598 1029.6 -0.0040725 101.07 0.11382
182.38 12140. undefined 574.99 744.09 2.0534 495.00 0.0020202 574.99 744.09 2.0534 2.3219 2.8626 1030.9 -0.0040768 101.09 0.11397 495.00 0.0020202 574.99 744.09 2.0534 2.3219 2.8626 1030.9 -0.0040768 101.09 0.11397
183.38 12213. undefined 577.32 747.43 2.0585 495.00 0.0020202 577.32 747.43 2.0585 2.3259 2.8654 1032.3 -0.0040810 101.11 0.11412 495.00 0.0020202 577.32 747.43 2.0585 2.3259 2.8654 1032.3 -0.0040810 101.11 0.11412
184.38 12285. undefined 579.64 750.77 2.0636 495.00 0.0020202 579.64 750.77 2.0636 2.3300 2.8682 1033.7 -0.0040851 101.12 0.11426 495.00 0.0020202 579.64 750.77 2.0636 2.3300 2.8682 1033.7 -0.0040851 101.12 0.11426
185.38 12358. undefined 581.98 754.11 2.0687 495.00 0.0020202 581.98 754.11 2.0687 2.3340 2.8710 1035.0 -0.0040891 101.14 0.11441 495.00 0.0020202 581.98 754.11 2.0687 2.3340 2.8710 1035.0 -0.0040891 101.14 0.11441
186.38 12430. undefined 584.31 757.45 2.0738 495.00 0.0020202 584.31 757.45 2.0738 2.3380 2.8738 1036.4 -0.0040931 101.16 0.11456 495.00 0.0020202 584.31 757.45 2.0738 2.3380 2.8738 1036.4 -0.0040931 101.16 0.11456
187.38 12503. undefined 586.65 760.80 2.0788 495.00 0.0020202 586.65 760.80 2.0788 2.3420 2.8766 1037.7 -0.0040970 101.18 0.11471 495.00 0.0020202 586.65 760.80 2.0788 2.3420 2.8766 1037.7 -0.0040970 101.18 0.11471
188.38 12575. undefined 589.00 764.16 2.0839 495.00 0.0020202 589.00 764.16 2.0839 2.3460 2.8795 1039.1 -0.0041008 101.19 0.11486 495.00 0.0020202 589.00 764.16 2.0839 2.3460 2.8795 1039.1 -0.0041008 101.19 0.11486
189.38 12648. undefined 591.34 767.51 2.0890 495.00 0.0020202 591.34 767.51 2.0890 2.3500 2.8823 1040.4 -0.0041045 101.21 0.11501 495.00 0.0020202 591.34 767.51 2.0890 2.3500 2.8823 1040.4 -0.0041045 101.21 0.11501
190.38 12720. undefined 593.70 770.87 2.0941 495.00 0.0020202 593.70 770.87 2.0941 2.3540 2.8851 1041.8 -0.0041082 101.23 0.11515 495.00 0.0020202 593.70 770.87 2.0941 2.3540 2.8851 1041.8 -0.0041082 101.23 0.11515
191.38 12792. undefined 596.05 774.23 2.0992 495.00 0.0020202 596.05 774.23 2.0992 2.3580 2.8879 1043.1 -0.0041118 101.24 0.11530 495.00 0.0020202 596.05 774.23 2.0992 2.3580 2.8879 1043.1 -0.0041118 101.24 0.11530
192.38 12865. undefined 598.41 777.60 2.1042 495.00 0.0020202 598.41 777.60 2.1042 2.3620 2.8907 1044.4 -0.0041153 101.26 0.11545 495.00 0.0020202 598.41 777.60 2.1042 2.3620 2.8907 1044.4 -0.0041153 101.26 0.11545
193.38 12937. undefined 600.78 780.97 2.1093 495.00 0.0020202 600.78 780.97 2.1093 2.3660 2.8936 1045.8 -0.0041188 101.28 0.11560 495.00 0.0020202 600.78 780.97 2.1093 2.3660 2.8936 1045.8 -0.0041188 101.28 0.11560
194.38 13009. undefined 603.14 784.34 2.1144 495.00 0.0020202 603.14 784.34 2.1144 2.3700 2.8964 1047.1 -0.0041222 101.29 0.11575 495.00 0.0020202 603.14 784.34 2.1144 2.3700 2.8964 1047.1 -0.0041222 101.29 0.11575
195.38 13081. undefined 605.52 787.72 2.1195 495.00 0.0020202 605.52 787.72 2.1195 2.3739 2.8992 1048.4 -0.0041255 101.31 0.11590 495.00 0.0020202 605.52 787.72 2.1195 2.3739 2.8992 1048.4 -0.0041255 101.31 0.11590
196.38 13153. undefined 607.89 791.10 2.1245 495.00 0.0020202 607.89 791.10 2.1245 2.3779 2.9021 1049.8 -0.0041288 101.33 0.11606 495.00 0.0020202 607.89 791.10 2.1245 2.3779 2.9021 1049.8 -0.0041288 101.33 0.11606
197.38 13225. undefined 610.27 794.48 2.1296 495.00 0.0020202 610.27 794.48 2.1296 2.3819 2.9049 1051.1 -0.0041320 101.34 0.11621 495.00 0.0020202 610.27 794.48 2.1296 2.3819 2.9049 1051.1 -0.0041320 101.34 0.11621
198.38 13297. undefined 612.66 797.87 2.1346 495.00 0.0020202 612.66 797.87 2.1346 2.3858 2.9078 1052.4 -0.0041351 101.36 0.11636 495.00 0.0020202 612.66 797.87 2.1346 2.3858 2.9078 1052.4 -0.0041351 101.36 0.11636
199.38 13369. undefined 615.04 801.26 2.1397 495.00 0.0020202 615.04 801.26 2.1397 2.3898 2.9106 1053.7 -0.0041382 101.38 0.11651 495.00 0.0020202 615.04 801.26 2.1397 2.3898 2.9106 1053.7 -0.0041382 101.38 0.11651
200.38 13441. undefined 617.44 804.66 2.1448 495.00 0.0020202 617.44 804.66 2.1448 2.3937 2.9135 1055.0 -0.0041412 101.40 0.11666 495.00 0.0020202 617.44 804.66 2.1448 2.3937 2.9135 1055.0 -0.0041412 101.40 0.11666
201.38 13513. undefined 619.83 808.05 2.1498 495.00 0.0020202 619.83 808.05 2.1498 2.3977 2.9163 1056.3 -0.0041441 101.41 0.11681 495.00 0.0020202 619.83 808.05 2.1498 2.3977 2.9163 1056.3 -0.0041441 101.41 0.11681
202.38 13585. undefined 622.23 811.45 2.1549 495.00 0.0020202 622.23 811.45 2.1549 2.4016 2.9192 1057.6 -0.0041470 101.43 0.11697 495.00 0.0020202 622.23 811.45 2.1549 2.4016 2.9192 1057.6 -0.0041470 101.43 0.11697
203.38 13657. undefined 624.63 814.86 2.1599 495.00 0.0020202 624.63 814.86 2.1599 2.4055 2.9220 1058.9 -0.0041498 101.45 0.11712 495.00 0.0020202 624.63 814.86 2.1599 2.4055 2.9220 1058.9 -0.0041498 101.45 0.11712
204.38 13729. undefined 627.04 818.27 2.1650 495.00 0.0020202 627.04 818.27 2.1650 2.4095 2.9249 1060.2 -0.0041526 101.46 0.11727 495.00 0.0020202 627.04 818.27 2.1650 2.4095 2.9249 1060.2 -0.0041526 101.46 0.11727
205.38 13800. undefined 629.45 821.68 2.1700 495.00 0.0020202 629.45 821.68 2.1700 2.4134 2.9277 1061.5 -0.0041553 101.48 0.11743 495.00 0.0020202 629.45 821.68 2.1700 2.4134 2.9277 1061.5 -0.0041553 101.48 0.11743
206.38 13872. undefined 631.87 825.09 2.1750 495.00 0.0020202 631.87 825.09 2.1750 2.4173 2.9306 1062.8 -0.0041580 101.50 0.11758 495.00 0.0020202 631.87 825.09 2.1750 2.4173 2.9306 1062.8 -0.0041580 101.50 0.11758
207.38 13944. undefined 634.29 828.51 2.1801 495.00 0.0020202 634.29 828.51 2.1801 2.4212 2.9334 1064.1 -0.0041606 101.52 0.11773 495.00 0.0020202 634.29 828.51 2.1801 2.4212 2.9334 1064.1 -0.0041606 101.52 0.11773
208.38 14015. undefined 636.71 831.93 2.1851 495.00 0.0020202 636.71 831.93 2.1851 2.4251 2.9363 1065.4 -0.0041631 101.53 0.11789 495.00 0.0020202 636.71 831.93 2.1851 2.4251 2.9363 1065.4 -0.0041631 101.53 0.11789
209.38 14087. undefined 639.14 835.35 2.1902 495.00 0.0020202 639.14 835.35 2.1902 2.4290 2.9392 1066.7 -0.0041656 101.55 0.11804 495.00 0.0020202 639.14 835.35 2.1902 2.4290 2.9392 1066.7 -0.0041656 101.55 0.11804
210.38 14159. undefined 641.57 838.78 2.1952 495.00 0.0020202 641.57 838.78 2.1952 2.4329 2.9420 1067.9 -0.0041681 101.57 0.11820 495.00 0.0020202 641.57 838.78 2.1952 2.4329 2.9420 1067.9 -0.0041681 101.57 0.11820
211.38 14230. undefined 644.00 842.21 2.2002 495.00 0.0020202 644.00 842.21 2.2002 2.4368 2.9449 1069.2 -0.0041705 101.58 0.11835 495.00 0.0020202 644.00 842.21 2.2002 2.4368 2.9449 1069.2 -0.0041705 101.58 0.11835
212.38 14302. undefined 646.44 845.65 2.2052 495.00 0.0020202 646.44 845.65 2.2052 2.4407 2.9478 1070.5 -0.0041728 101.60 0.11851 495.00 0.0020202 646.44 845.65 2.2052 2.4407 2.9478 1070.5 -0.0041728 101.60 0.11851
213.38 14373. undefined 648.89 849.08 2.2103 495.00 0.0020202 648.89 849.08 2.2103 2.4446 2.9506 1071.8 -0.0041751 101.62 0.11866 495.00 0.0020202 648.89 849.08 2.2103 2.4446 2.9506 1071.8 -0.0041751 101.62 0.11866
214.38 14444. undefined 651.33 852.53 2.2153 495.00 0.0020202 651.33 852.53 2.2153 2.4485 2.9535 1073.0 -0.0041773 101.64 0.11882 495.00 0.0020202 651.33 852.53 2.2153 2.4485 2.9535 1073.0 -0.0041773 101.64 0.11882
215.38 14516. undefined 653.78 855.97 2.2203 495.00 0.0020202 653.78 855.97 2.2203 2.4523 2.9564 1074.3 -0.0041795 101.65 0.11898 495.00 0.0020202 653.78 855.97 2.2203 2.4523 2.9564 1074.3 -0.0041795 101.65 0.11898
216.38 14587. undefined 656.24 859.42 2.2253 495.00 0.0020202 656.24 859.42 2.2253 2.4562 2.9593 1075.6 -0.0041816 101.67 0.11913 495.00 0.0020202 656.24 859.42 2.2253 2.4562 2.9593 1075.6 -0.0041816 101.67 0.11913
217.38 14658. undefined 658.69 862.87 2.2304 495.00 0.0020202 658.69 862.87 2.2304 2.4601 2.9621 1076.8 -0.0041837 101.69 0.11929 495.00 0.0020202 658.69 862.87 2.2304 2.4601 2.9621 1076.8 -0.0041837 101.69 0.11929
218.38 14730. undefined 661.16 866.32 2.2354 495.00 0.0020202 661.16 866.32 2.2354 2.4639 2.9650 1078.1 -0.0041858 101.70 0.11945 495.00 0.0020202 661.16 866.32 2.2354 2.4639 2.9650 1078.1 -0.0041858 101.70 0.11945
219.38 14801. undefined 663.62 869.78 2.2404 495.00 0.0020202 663.62 869.78 2.2404 2.4678 2.9679 1079.3 -0.0041877 101.72 0.11960 495.00 0.0020202 663.62 869.78 2.2404 2.4678 2.9679 1079.3 -0.0041877 101.72 0.11960
220.38 14872. undefined 666.09 873.24 2.2454 495.00 0.0020202 666.09 873.24 2.2454 2.4716 2.9708 1080.6 -0.0041897 101.74 0.11976 495.00 0.0020202 666.09 873.24 2.2454 2.4716 2.9708 1080.6 -0.0041897 101.74 0.11976
221.38 14943. undefined 668.57 876.71 2.2504 495.00 0.0020202 668.57 876.71 2.2504 2.4755 2.9736 1081.8 -0.0041916 101.76 0.11992 495.00 0.0020202 668.57 876.71 2.2504 2.4755 2.9736 1081.8 -0.0041916 101.76 0.11992
222.38 15014. undefined 671.04 880.18 2.2554 495.00 0.0020202 671.04 880.18 2.2554 2.4793 2.9765 1083.1 -0.0041934 101.77 0.12008 495.00 0.0020202 671.04 880.18 2.2554 2.4793 2.9765 1083.1 -0.0041934 101.77 0.12008
223.38 15085. undefined 673.52 883.65 2.2604 495.00 0.0020202 673.52 883.65 2.2604 2.4831 2.9794 1084.3 -0.0041953 101.79 0.12024 495.00 0.0020202 673.52 883.65 2.2604 2.4831 2.9794 1084.3 -0.0041953 101.79 0.12024
224.38 15156. undefined 676.01 887.12 2.2654 495.00 0.0020202 676.01 887.12 2.2654 2.4870 2.9823 1085.6 -0.0041970 101.81 0.12040 495.00 0.0020202 676.01 887.12 2.2654 2.4870 2.9823 1085.6 -0.0041970 101.81 0.12040
225.38 15227. undefined 678.50 890.60 2.2704 495.00 0.0020202 678.50 890.60 2.2704 2.4908 2.9852 1086.8 -0.0041987 101.83 0.12056 495.00 0.0020202 678.50 890.60 2.2704 2.4908 2.9852 1086.8 -0.0041987 101.83 0.12056
226.38 15298. undefined 680.99 894.08 2.2754 495.00 0.0020202 680.99 894.08 2.2754 2.4946 2.9880 1088.1 -0.0042004 101.84 0.12072 495.00 0.0020202 680.99 894.08 2.2754 2.4946 2.9880 1088.1 -0.0042004 101.84 0.12072
227.38 15369. undefined 683.49 897.56 2.2804 495.00 0.0020202 683.49 897.56 2.2804 2.4984 2.9909 1089.3 -0.0042021 101.86 0.12088 495.00 0.0020202 683.49 897.56 2.2804 2.4984 2.9909 1089.3 -0.0042021 101.86 0.12088
228.38 15440. undefined 685.99 901.05 2.2854 495.00 0.0020202 685.99 901.05 2.2854 2.5022 2.9938 1090.5 -0.0042037 101.88 0.12104 495.00 0.0020202 685.99 901.05 2.2854 2.5022 2.9938 1090.5 -0.0042037 101.88 0.12104
229.38 15511. undefined 688.49 904.54 2.2904 495.00 0.0020202 688.49 904.54 2.2904 2.5060 2.9967 1091.7 -0.0042052 101.90 0.12120 495.00 0.0020202 688.49 904.54 2.2904 2.5060 2.9967 1091.7 -0.0042052 101.90 0.12120
230.38 15582. undefined 691.00 908.04 2.2954 495.00 0.0020202 691.00 908.04 2.2954 2.5098 2.9996 1093.0 -0.0042067 101.91 0.12136 495.00 0.0020202 691.00 908.04 2.2954 2.5098 2.9996 1093.0 -0.0042067 101.91 0.12136
231.38 15653. undefined 693.51 911.53 2.3003 495.00 0.0020202 693.51 911.53 2.3003 2.5136 3.0025 1094.2 -0.0042082 101.93 0.12152 495.00 0.0020202 693.51 911.53 2.3003 2.5136 3.0025 1094.2 -0.0042082 101.93 0.12152
232.38 15723. undefined 696.03 915.03 2.3053 495.00 0.0020202 696.03 915.03 2.3053 2.5174 3.0053 1095.4 -0.0042097 101.95 0.12168 495.00 0.0020202 696.03 915.03 2.3053 2.5174 3.0053 1095.4 -0.0042097 101.95 0.12168
233.38 15794. undefined 698.55 918.54 2.3103 495.00 0.0020202 698.55 918.54 2.3103 2.5212 3.0082 1096.6 -0.0042111 101.97 0.12184 495.00 0.0020202 698.55 918.54 2.3103 2.5212 3.0082 1096.6 -0.0042111 101.97 0.12184
234.38 15865. undefined 701.07 922.05 2.3153 495.00 0.0020202 701.07 922.05 2.3153 2.5250 3.0111 1097.9 -0.0042124 101.98 0.12200 495.00 0.0020202 701.07 922.05 2.3153 2.5250 3.0111 1097.9 -0.0042124 101.98 0.12200
235.38 15935. undefined 703.60 925.56 2.3202 495.00 0.0020202 703.60 925.56 2.3202 2.5287 3.0140 1099.1 -0.0042137 102.00 0.12217 495.00 0.0020202 703.60 925.56 2.3202 2.5287 3.0140 1099.1 -0.0042137 102.00 0.12217
236.38 16006. undefined 706.13 929.07 2.3252 495.00 0.0020202 706.13 929.07 2.3252 2.5325 3.0169 1100.3 -0.0042150 102.02 0.12233 495.00 0.0020202 706.13 929.07 2.3252 2.5325 3.0169 1100.3 -0.0042150 102.02 0.12233
237.38 16077. undefined 708.66 932.59 2.3302 495.00 0.0020202 708.66 932.59 2.3302 2.5363 3.0198 1101.5 -0.0042163 102.03 0.12249 495.00 0.0020202 708.66 932.59 2.3302 2.5363 3.0198 1101.5 -0.0042163 102.03 0.12249
238.38 16147. undefined 711.20 936.11 2.3352 495.00 0.0020202 711.20 936.11 2.3352 2.5400 3.0226 1102.7 -0.0042175 102.05 0.12265 495.00 0.0020202 711.20 936.11 2.3352 2.5400 3.0226 1102.7 -0.0042175 102.05 0.12265
239.38 16217. undefined 713.74 939.63 2.3401 495.00 0.0020202 713.74 939.63 2.3401 2.5438 3.0255 1103.9 -0.0042187 102.07 0.12282 495.00 0.0020202 713.74 939.63 2.3401 2.5438 3.0255 1103.9 -0.0042187 102.07 0.12282
240.38 16288. undefined 716.29 943.16 2.3451 495.00 0.0020202 716.29 943.16 2.3451 2.5475 3.0284 1105.1 -0.0042198 102.09 0.12298 495.00 0.0020202 716.29 943.16 2.3451 2.5475 3.0284 1105.1 -0.0042198 102.09 0.12298
241.38 16358. undefined 718.84 946.69 2.3500 495.00 0.0020202 718.84 946.69 2.3500 2.5513 3.0313 1106.3 -0.0042209 102.10 0.12314 495.00 0.0020202 718.84 946.69 2.3500 2.5513 3.0313 1106.3 -0.0042209 102.10 0.12314
242.38 16429. undefined 721.39 950.22 2.3550 495.00 0.0020202 721.39 950.22 2.3550 2.5550 3.0342 1107.5 -0.0042220 102.12 0.12331 495.00 0.0020202 721.39 950.22 2.3550 2.5550 3.0342 1107.5 -0.0042220 102.12 0.12331
243.38 16499. undefined 723.95 953.76 2.3600 495.00 0.0020202 723.95 953.76 2.3600 2.5587 3.0371 1108.7 -0.0042230 102.14 0.12347 495.00 0.0020202 723.95 953.76 2.3600 2.5587 3.0371 1108.7 -0.0042230 102.14 0.12347
244.38 16569. undefined 726.51 957.30 2.3649 495.00 0.0020202 726.51 957.30 2.3649 2.5624 3.0399 1109.9 -0.0042241 102.16 0.12364 495.00 0.0020202 726.51 957.30 2.3649 2.5624 3.0399 1109.9 -0.0042241 102.16 0.12364
245.38 16640. undefined 729.07 960.84 2.3699 495.00 0.0020202 729.07 960.84 2.3699 2.5662 3.0428 1111.1 -0.0042250 102.17 0.12380 495.00 0.0020202 729.07 960.84 2.3699 2.5662 3.0428 1111.1 -0.0042250 102.17 0.12380
246.38 16710. undefined 731.64 964.39 2.3748 495.00 0.0020202 731.64 964.39 2.3748 2.5699 3.0457 1112.2 -0.0042260 102.19 0.12397 495.00 0.0020202 731.64 964.39 2.3748 2.5699 3.0457 1112.2 -0.0042260 102.19 0.12397
247.38 16780. undefined 734.21 967.94 2.3797 495.00 0.0020202 734.21 967.94 2.3797 2.5736 3.0486 1113.4 -0.0042269 102.21 0.12413 495.00 0.0020202 734.21 967.94 2.3797 2.5736 3.0486 1113.4 -0.0042269 102.21 0.12413
248.38 16850. undefined 736.79 971.49 2.3847 495.00 0.0020202 736.79 971.49 2.3847 2.5773 3.0515 1114.6 -0.0042278 102.23 0.12430 495.00 0.0020202 736.79 971.49 2.3847 2.5773 3.0515 1114.6 -0.0042278 102.23 0.12430
249.38 16920. undefined 739.37 975.04 2.3896 495.00 0.0020202 739.37 975.04 2.3896 2.5810 3.0543 1115.8 -0.0042286 102.24 0.12447 495.00 0.0020202 739.37 975.04 2.3896 2.5810 3.0543 1115.8 -0.0042286 102.24 0.12447
250.38 16990. undefined 741.95 978.60 2.3946 495.00 0.0020202 741.95 978.60 2.3946 2.5847 3.0572 1117.0 -0.0042294 102.26 0.12463 495.00 0.0020202 741.95 978.60 2.3946 2.5847 3.0572 1117.0 -0.0042294 102.26 0.12463
251.38 17060. undefined 744.53 982.16 2.3995 495.00 0.0020202 744.53 982.16 2.3995 2.5884 3.0601 1118.1 -0.0042302 102.28 0.12480 495.00 0.0020202 744.53 982.16 2.3995 2.5884 3.0601 1118.1 -0.0042302 102.28 0.12480
252.38 17130. undefined 747.13 985.73 2.4044 495.00 0.0020202 747.13 985.73 2.4044 2.5921 3.0630 1119.3 -0.0042310 102.30 0.12497 495.00 0.0020202 747.13 985.73 2.4044 2.5921 3.0630 1119.3 -0.0042310 102.30 0.12497
253.38 17200. undefined 749.72 989.30 2.4094 495.00 0.0020202 749.72 989.30 2.4094 2.5958 3.0658 1120.5 -0.0042317 102.32 0.12514 495.00 0.0020202 749.72 989.30 2.4094 2.5958 3.0658 1120.5 -0.0042317 102.32 0.12514
254.38 17270. undefined 752.32 992.87 2.4143 495.00 0.0020202 752.32 992.87 2.4143 2.5994 3.0687 1121.7 -0.0042324 102.33 0.12530 495.00 0.0020202 752.32 992.87 2.4143 2.5994 3.0687 1121.7 -0.0042324 102.33 0.12530
255.38 17340. undefined 754.92 996.44 2.4192 495.00 0.0020202 754.92 996.44 2.4192 2.6031 3.0716 1122.8 -0.0042331 102.35 0.12547 495.00 0.0020202 754.92 996.44 2.4192 2.6031 3.0716 1122.8 -0.0042331 102.35 0.12547
256.38 17410. undefined 757.52 1000.0 2.4241 495.00 0.0020202 757.52 1000.0 2.4241 2.6068 3.0745 1124.0 -0.0042337 102.37 0.12564 495.00 0.0020202 757.52 1000.0 2.4241 2.6068 3.0745 1124.0 -0.0042337 102.37 0.12564
257.38 17480. undefined 760.13 1003.6 2.4291 495.00 0.0020202 760.13 1003.6 2.4291 2.6104 3.0773 1125.1 -0.0042343 102.39 0.12581 495.00 0.0020202 760.13 1003.6 2.4291 2.6104 3.0773 1125.1 -0.0042343 102.39 0.12581
258.38 17549. undefined 762.74 1007.2 2.4340 495.00 0.0020202 762.74 1007.2 2.4340 2.6141 3.0802 1126.3 -0.0042349 102.40 0.12598 495.00 0.0020202 762.74 1007.2 2.4340 2.6141 3.0802 1126.3 -0.0042349 102.40 0.12598
259.38 17619. undefined 765.36 1010.8 2.4389 495.00 0.0020202 765.36 1010.8 2.4389 2.6177 3.0831 1127.5 -0.0042355 102.42 0.12615 495.00 0.0020202 765.36 1010.8 2.4389 2.6177 3.0831 1127.5 -0.0042355 102.42 0.12615
260.38 17689. undefined 767.98 1014.4 2.4438 495.00 0.0020202 767.98 1014.4 2.4438 2.6214 3.0860 1128.6 -0.0042360 102.44 0.12632 495.00 0.0020202 767.98 1014.4 2.4438 2.6214 3.0860 1128.6 -0.0042360 102.44 0.12632
261.38 17759. undefined 770.60 1018.0 2.4487 495.00 0.0020202 770.60 1018.0 2.4487 2.6250 3.0888 1129.8 -0.0042365 102.46 0.12649 495.00 0.0020202 770.60 1018.0 2.4487 2.6250 3.0888 1129.8 -0.0042365 102.46 0.12649
262.38 17828. undefined 773.23 1021.6 2.4536 495.00 0.0020202 773.23 1021.6 2.4536 2.6287 3.0917 1130.9 -0.0042370 102.47 0.12666 495.00 0.0020202 773.23 1021.6 2.4536 2.6287 3.0917 1130.9 -0.0042370 102.47 0.12666
263.38 17898. undefined 775.86 1025.2 2.4586 495.00 0.0020202 775.86 1025.2 2.4586 2.6323 3.0946 1132.1 -0.0042375 102.49 0.12683 495.00 0.0020202 775.86 1025.2 2.4586 2.6323 3.0946 1132.1 -0.0042375 102.49 0.12683
264.38 17967. undefined 778.49 1028.8 2.4635 495.00 0.0020202 778.49 1028.8 2.4635 2.6359 3.0974 1133.2 -0.0042379 102.51 0.12700 495.00 0.0020202 778.49 1028.8 2.4635 2.6359 3.0974 1133.2 -0.0042379 102.51 0.12700
265.38 18037. undefined 781.13 1032.4 2.4684 495.00 0.0020202 781.13 1032.4 2.4684 2.6395 3.1003 1134.4 -0.0042383 102.53 0.12717 495.00 0.0020202 781.13 1032.4 2.4684 2.6395 3.1003 1134.4 -0.0042383 102.53 0.12717
266.38 18106. undefined 783.77 1036.0 2.4733 495.00 0.0020202 783.77 1036.0 2.4733 2.6432 3.1032 1135.5 -0.0042387 102.54 0.12734 495.00 0.0020202 783.77 1036.0 2.4733 2.6432 3.1032 1135.5 -0.0042387 102.54 0.12734
267.38 18176. undefined 786.42 1039.6 2.4782 495.00 0.0020202 786.42 1039.6 2.4782 2.6468 3.1060 1136.6 -0.0042390 102.56 0.12751 495.00 0.0020202 786.42 1039.6 2.4782 2.6468 3.1060 1136.6 -0.0042390 102.56 0.12751
268.38 18245. undefined 789.07 1043.2 2.4831 495.00 0.0020202 789.07 1043.2 2.4831 2.6504 3.1089 1137.8 -0.0042394 102.58 0.12768 495.00 0.0020202 789.07 1043.2 2.4831 2.6504 3.1089 1137.8 -0.0042394 102.58 0.12768
269.38 18315. undefined 791.72 1046.8 2.4879 495.00 0.0020202 791.72 1046.8 2.4879 2.6540 3.1117 1138.9 -0.0042397 102.60 0.12785 495.00 0.0020202 791.72 1046.8 2.4879 2.6540 3.1117 1138.9 -0.0042397 102.60 0.12785
270.38 18384. undefined 794.37 1050.4 2.4928 495.00 0.0020202 794.37 1050.4 2.4928 2.6576 3.1146 1140.0 -0.0042400 102.61 0.12803 495.00 0.0020202 794.37 1050.4 2.4928 2.6576 3.1146 1140.0 -0.0042400 102.61 0.12803
271.38 18453. undefined 797.03 1054.1 2.4977 495.00 0.0020202 797.03 1054.1 2.4977 2.6612 3.1175 1141.2 -0.0042402 102.63 0.12820 495.00 0.0020202 797.03 1054.1 2.4977 2.6612 3.1175 1141.2 -0.0042402 102.63 0.12820
272.38 18523. undefined 799.70 1057.7 2.5026 495.00 0.0020202 799.70 1057.7 2.5026 2.6647 3.1203 1142.3 -0.0042405 102.65 0.12837 495.00 0.0020202 799.70 1057.7 2.5026 2.6647 3.1203 1142.3 -0.0042405 102.65 0.12837
273.38 18592. undefined 802.36 1061.3 2.5075 495.00 0.0020202 802.36 1061.3 2.5075 2.6683 3.1232 1143.4 -0.0042407 102.67 0.12855 495.00 0.0020202 802.36 1061.3 2.5075 2.6683 3.1232 1143.4 -0.0042407 102.67 0.12855
274.38 18661. undefined 805.03 1065.0 2.5124 495.00 0.0020202 805.03 1065.0 2.5124 2.6719 3.1260 1144.6 -0.0042409 102.68 0.12872 495.00 0.0020202 805.03 1065.0 2.5124 2.6719 3.1260 1144.6 -0.0042409 102.68 0.12872
275.38 18730. undefined 807.71 1068.6 2.5173 495.00 0.0020202 807.71 1068.6 2.5173 2.6755 3.1289 1145.7 -0.0042410 102.70 0.12889 495.00 0.0020202 807.71 1068.6 2.5173 2.6755 3.1289 1145.7 -0.0042410 102.70 0.12889
276.38 18799. undefined 810.38 1072.2 2.5221 495.00 0.0020202 810.38 1072.2 2.5221 2.6790 3.1317 1146.8 -0.0042412 102.72 0.12907 495.00 0.0020202 810.38 1072.2 2.5221 2.6790 3.1317 1146.8 -0.0042412 102.72 0.12907
277.38 18868. undefined 813.07 1075.9 2.5270 495.00 0.0020202 813.07 1075.9 2.5270 2.6826 3.1346 1147.9 -0.0042413 102.74 0.12924 495.00 0.0020202 813.07 1075.9 2.5270 2.6826 3.1346 1147.9 -0.0042413 102.74 0.12924
278.38 18938. undefined 815.75 1079.5 2.5319 495.00 0.0020202 815.75 1079.5 2.5319 2.6862 3.1374 1149.0 -0.0042414 102.76 0.12942 495.00 0.0020202 815.75 1079.5 2.5319 2.6862 3.1374 1149.0 -0.0042414 102.76 0.12942
279.38 19007. undefined 818.44 1083.2 2.5367 495.00 0.0020202 818.44 1083.2 2.5367 2.6897 3.1403 1150.2 -0.0042415 102.77 0.12959 495.00 0.0020202 818.44 1083.2 2.5367 2.6897 3.1403 1150.2 -0.0042415 102.77 0.12959
280.38 19076. undefined 821.13 1086.8 2.5416 495.00 0.0020202 821.13 1086.8 2.5416 2.6932 3.1431 1151.3 -0.0042416 102.79 0.12977 495.00 0.0020202 821.13 1086.8 2.5416 2.6932 3.1431 1151.3 -0.0042416 102.79 0.12977
281.38 19144. undefined 823.82 1090.5 2.5465 495.00 0.0020202 823.82 1090.5 2.5465 2.6968 3.1460 1152.4 -0.0042416 102.81 0.12994 495.00 0.0020202 823.82 1090.5 2.5465 2.6968 3.1460 1152.4 -0.0042416 102.81 0.12994
282.38 19213. undefined 826.52 1094.1 2.5513 495.00 0.0020202 826.52 1094.1 2.5513 2.7003 3.1488 1153.5 -0.0042417 102.83 0.12980 495.00 0.0020202 826.52 1094.1 2.5513 2.7003 3.1488 1153.5 -0.0042417 102.83 0.12980
283.38 19282. undefined 829.22 1097.8 2.5562 495.00 0.0020202 829.22 1097.8 2.5562 2.7039 3.1517 1154.6 -0.0042417 102.84 0.12997 495.00 0.0020202 829.22 1097.8 2.5562 2.7039 3.1517 1154.6 -0.0042417 102.84 0.12997
284.38 19351. undefined 831.93 1101.5 2.5611 495.00 0.0020202 831.93 1101.5 2.5611 2.7074 3.1545 1155.7 -0.0042417 102.86 0.13015 495.00 0.0020202 831.93 1101.5 2.5611 2.7074 3.1545 1155.7 -0.0042417 102.86 0.13015
285.38 19420. undefined 834.64 1105.1 2.5659 495.00 0.0020202 834.64 1105.1 2.5659 2.7109 3.1573 1156.8 -0.0042416 102.88 0.13033 495.00 0.0020202 834.64 1105.1 2.5659 2.7109 3.1573 1156.8 -0.0042416 102.88 0.13033
286.38 19489. undefined 837.35 1108.8 2.5708 495.00 0.0020202 837.35 1108.8 2.5708 2.7144 3.1602 1157.9 -0.0042416 102.90 0.13050 495.00 0.0020202 837.35 1108.8 2.5708 2.7144 3.1602 1157.9 -0.0042416 102.90 0.13050
287.38 19558. undefined 840.07 1112.5 2.5756 495.00 0.0020202 840.07 1112.5 2.5756 2.7179 3.1630 1159.0 -0.0042415 102.91 0.13068 495.00 0.0020202 840.07 1112.5 2.5756 2.7179 3.1630 1159.0 -0.0042415 102.91 0.13068
288.38 19626. undefined 842.79 1116.2 2.5805 495.00 0.0020202 842.79 1116.2 2.5805 2.7214 3.1658 1160.1 -0.0042414 102.93 0.13086 495.00 0.0020202 842.79 1116.2 2.5805 2.7214 3.1658 1160.1 -0.0042414 102.93 0.13086
289.38 19695. undefined 845.51 1119.8 2.5853 495.00 0.0020202 845.51 1119.8 2.5853 2.7249 3.1687 1161.2 -0.0042413 102.95 0.13103 495.00 0.0020202 845.51 1119.8 2.5853 2.7249 3.1687 1161.2 -0.0042413 102.95 0.13103
290.38 19764. undefined 848.24 1123.5 2.5901 495.00 0.0020202 848.24 1123.5 2.5901 2.7284 3.1715 1162.3 -0.0042412 102.97 0.13121 495.00 0.0020202 848.24 1123.5 2.5901 2.7284 3.1715 1162.3 -0.0042412 102.97 0.13121
291.38 19832. undefined 850.97 1127.2 2.5950 495.00 0.0020202 850.97 1127.2 2.5950 2.7319 3.1743 1163.4 -0.0042411 102.98 0.13139 495.00 0.0020202 850.97 1127.2 2.5950 2.7319 3.1743 1163.4 -0.0042411 102.98 0.13139
292.38 19901. undefined 853.70 1130.9 2.5998 495.00 0.0020202 853.70 1130.9 2.5998 2.7354 3.1772 1164.5 -0.0042409 103.00 0.13157 495.00 0.0020202 853.70 1130.9 2.5998 2.7354 3.1772 1164.5 -0.0042409 103.00 0.13157
293.38 19969. undefined 856.44 1134.6 2.6047 495.00 0.0020202 856.44 1134.6 2.6047 2.7389 3.1800 1165.6 -0.0042407 103.02 0.13174 495.00 0.0020202 856.44 1134.6 2.6047 2.7389 3.1800 1165.6 -0.0042407 103.02 0.13174
294.38 20038. undefined 859.18 1138.3 2.6095 495.00 0.0020202 859.18 1138.3 2.6095 2.7424 3.1828 1166.6 -0.0042406 103.04 0.13192 495.00 0.0020202 859.18 1138.3 2.6095 2.7424 3.1828 1166.6 -0.0042406 103.04 0.13192
295.38 20106. undefined 861.92 1142.0 2.6143 495.00 0.0020202 861.92 1142.0 2.6143 2.7458 3.1856 1167.7 -0.0042403 103.06 0.13210 495.00 0.0020202 861.92 1142.0 2.6143 2.7458 3.1856 1167.7 -0.0042403 103.06 0.13210
296.38 20175. undefined 864.67 1145.7 2.6192 495.00 0.0020202 864.67 1145.7 2.6192 2.7493 3.1884 1168.8 -0.0042401 103.07 0.13228 495.00 0.0020202 864.67 1145.7 2.6192 2.7493 3.1884 1168.8 -0.0042401 103.07 0.13228
297.38 20243. undefined 867.42 1149.4 2.6240 495.00 0.0020202 867.42 1149.4 2.6240 2.7528 3.1913 1169.9 -0.0042399 103.09 0.13246 495.00 0.0020202 867.42 1149.4 2.6240 2.7528 3.1913 1169.9 -0.0042399 103.09 0.13246
298.38 20311. undefined 870.18 1153.1 2.6288 495.00 0.0020202 870.18 1153.1 2.6288 2.7562 3.1941 1171.0 -0.0042396 103.11 0.13264 495.00 0.0020202 870.18 1153.1 2.6288 2.7562 3.1941 1171.0 -0.0042396 103.11 0.13264
299.38 20380. undefined 872.93 1156.8 2.6336 495.00 0.0020202 872.93 1156.8 2.6336 2.7597 3.1969 1172.0 -0.0042394 103.13 0.13282 495.00 0.0020202 872.93 1156.8 2.6336 2.7597 3.1969 1172.0 -0.0042394 103.13 0.13282
300.38 20448. undefined 875.70 1160.5 2.6384 495.00 0.0020202 875.70 1160.5 2.6384 2.7631 3.1997 1173.1 -0.0042391 103.14 0.13300 495.00 0.0020202 875.70 1160.5 2.6384 2.7631 3.1997 1173.1 -0.0042391 103.14 0.13300