Temperature (C) Pressure (psia) Quality (l+v) Internal Energy (l+v, kJ/kg) Enthalpy (l+v, kJ/kg) Entropy (l+v, J/g*K) Density (l, kg/m3) Volume (l, m3/kg) Internal Energy (l, kJ/kg) Enthalpy (l, kJ/kg) Entropy (l, J/g*K) Cv (l, J/g*K) Cp (l, J/g*K) Sound Spd. (l, m/s) Joule-Thomson (l, F/psia) Viscosity (l, uPa*s) Therm. Cond. (l, W/m*K) Density (v, kg/m3) Volume (v, m3/kg) Internal Energy (v, kJ/kg) Enthalpy (v, kJ/kg) Entropy (v, J/g*K) Cv (v, J/g*K) Cp (v, J/g*K) Sound Spd. (v, m/s) Joule-Thomson (v, F/psia) Viscosity (v, uPa*s) Therm. Cond. (v, W/m*K)
-187.62 2.4953e-08 6.7851e-12 -196.64 -196.64 -1.3959 733.13 0.0013640 -196.64 -196.64 -1.3959 1.3553 1.9158 2136.4 -0.0077592 10960. 0.20792 1.0669e-08 9.3732e+07 350.13 366.26 5.1858 0.69067 0.87923 143.28 6.1051 2.3259 0.0017061
-186.62 3.7339e-08 1.0005e-11 -194.73 -194.73 -1.3736 732.08 0.0013660 -194.73 -194.73 -1.3736 1.3539 1.9166 2129.6 -0.0077546 10073. 0.20765 1.5780e-08 6.3371e+07 350.82 367.14 5.1200 0.69462 0.88317 144.03 5.9178 2.3534 0.0017533
-185.62 5.5322e-08 1.4609e-11 -192.81 -192.81 -1.3516 731.04 0.0013679 -192.81 -192.81 -1.3516 1.3525 1.9174 2122.9 -0.0077498 9276.1 0.20737 2.3112e-08 4.3267e+07 351.52 368.02 5.0561 0.69857 0.88713 144.77 5.7383 2.3808 0.0018007
-184.62 8.1182e-08 2.1130e-11 -190.89 -190.89 -1.3298 730.00 0.0013699 -190.89 -190.89 -1.3298 1.3513 1.9182 2116.1 -0.0077448 8557.8 0.20708 3.3533e-08 2.9821e+07 352.22 368.91 4.9939 0.70253 0.89108 145.51 5.5662 2.4083 0.0018485
-183.62 1.1803e-07 3.0285e-11 -188.97 -188.97 -1.3083 728.96 0.0013718 -188.97 -188.97 -1.3083 1.3501 1.9191 2109.3 -0.0077395 7909.8 0.20678 4.8211e-08 2.0742e+07 352.92 369.81 4.9333 0.70648 0.89504 146.24 5.4011 2.4357 0.0018965
-182.62 1.7009e-07 4.3024e-11 -187.05 -187.05 -1.2869 727.92 0.0013738 -187.05 -187.05 -1.2869 1.3490 1.9201 2102.5 -0.0077340 7324.3 0.20647 6.8704e-08 1.4555e+07 353.63 370.70 4.8744 0.71043 0.89899 146.97 5.2426 2.4632 0.0019448
-181.62 2.4299e-07 6.0603e-11 -185.13 -185.13 -1.2658 726.88 0.0013757 -185.13 -185.13 -1.2658 1.3480 1.9210 2095.7 -0.0077283 6794.5 0.20616 9.7079e-08 1.0301e+07 354.35 371.60 4.8170 0.71438 0.90294 147.69 5.0904 2.4906 0.0019934
-180.62 3.4425e-07 8.4663e-11 -183.21 -183.21 -1.2450 725.85 0.0013777 -183.21 -183.21 -1.2450 1.3470 1.9220 2088.9 -0.0077225 6314.4 0.20584 1.3605e-07 7.3504e+06 355.06 372.51 4.7612 0.71833 0.90688 148.41 4.9442 2.5181 0.0020423
-179.62 4.8378e-07 1.1734e-10 -181.29 -181.29 -1.2243 724.81 0.0013797 -181.29 -181.29 -1.2243 1.3461 1.9231 2082.0 -0.0077164 5878.8 0.20551 1.8915e-07 5.2868e+06 355.78 373.42 4.7068 0.72227 0.91082 149.13 4.8038 2.5456 0.0020915
-178.62 6.7459e-07 1.6137e-10 -179.37 -179.37 -1.2038 723.78 0.0013816 -179.37 -179.37 -1.2038 1.3453 1.9241 2075.2 -0.0077102 5482.9 0.20517 2.6096e-07 3.8320e+06 356.51 374.33 4.6538 0.72620 0.91475 149.84 4.6688 2.5731 0.0021410
-177.62 9.3358e-07 2.2028e-10 -177.44 -177.44 -1.1836 722.75 0.0013836 -177.44 -177.44 -1.1836 1.3445 1.9252 2068.4 -0.0077039 5122.6 0.20483 3.5737e-07 2.7982e+06 357.23 375.25 4.6022 0.73012 0.91867 150.54 4.5390 2.6005 0.0021907
-176.62 1.2826e-06 2.9853e-10 -175.52 -175.52 -1.1635 721.72 0.0013856 -175.52 -175.52 -1.1635 1.3437 1.9263 2061.5 -0.0076973 4794.1 0.20447 4.8588e-07 2.0581e+06 357.97 376.17 4.5519 0.73403 0.92258 151.25 4.4142 2.6280 0.0022408
-175.62 1.7496e-06 4.0177e-10 -173.59 -173.59 -1.1437 720.69 0.0013876 -173.59 -173.59 -1.1437 1.3430 1.9274 2054.7 -0.0076907 4494.3 0.20411 6.5601e-07 1.5244e+06 358.70 377.09 4.5029 0.73792 0.92648 151.95 4.2941 2.6555 0.0022912
-174.62 2.3705e-06 5.3706e-10 -171.66 -171.66 -1.1240 719.66 0.0013895 -171.66 -171.66 -1.1240 1.3423 1.9286 2047.9 -0.0076838 4220.2 0.20375 8.7976e-07 1.1367e+06 359.44 378.02 4.4551 0.74181 0.93036 152.64 4.1784 2.6830 0.0023418
-173.62 3.1903e-06 7.1321e-10 -169.73 -169.73 -1.1045 718.64 0.0013915 -169.73 -169.73 -1.1045 1.3417 1.9298 2041.0 -0.0076769 3969.3 0.20338 1.1721e-06 8.5314e+05 360.19 378.95 4.4085 0.74568 0.93423 153.33 4.0671 2.7105 0.0023928
-172.62 4.2661e-06 9.4115e-10 -167.80 -167.80 -1.0852 717.61 0.0013935 -167.80 -167.80 -1.0852 1.3411 1.9310 2034.2 -0.0076698 3739.3 0.20300 1.5518e-06 6.4441e+05 360.93 379.89 4.3631 0.74953 0.93809 154.02 3.9599 2.7379 0.0024440
-171.62 5.6692e-06 1.2343e-09 -165.87 -165.87 -1.0661 716.58 0.0013955 -165.87 -165.87 -1.0661 1.3405 1.9322 2027.3 -0.0076625 3528.0 0.20261 2.0419e-06 4.8974e+05 361.69 380.83 4.3188 0.75337 0.94193 154.71 3.8566 2.7654 0.0024955
-170.62 7.4884e-06 1.6091e-09 -163.94 -163.94 -1.0472 715.56 0.0013975 -163.94 -163.94 -1.0472 1.3400 1.9334 2020.5 -0.0076552 3333.8 0.20222 2.6708e-06 3.7442e+05 362.44 381.77 4.2755 0.75720 0.94575 155.39 3.7570 2.7929 0.0025473
-169.62 9.8334e-06 2.0857e-09 -162.00 -162.00 -1.0284 714.54 0.0013995 -162.00 -162.00 -1.0284 1.3395 1.9347 2013.6 -0.0076477 3154.9 0.20182 3.4733e-06 2.8791e+05 363.20 382.72 4.2334 0.76100 0.94956 156.07 3.6609 2.8204 0.0025994
-168.62 1.2839e-05 2.6882e-09 -160.07 -160.07 -1.0098 713.52 0.0014015 -160.07 -160.07 -1.0098 1.3390 1.9359 2006.8 -0.0076401 2989.9 0.20141 4.4917e-06 2.2263e+05 363.96 383.67 4.1922 0.76479 0.95335 156.74 3.5683 2.8479 0.0026518
-167.62 1.6672e-05 3.4459e-09 -158.13 -158.13 -0.99134 712.49 0.0014035 -158.13 -158.13 -0.99134 1.3386 1.9372 2000.0 -0.0076323 2837.5 0.20100 5.7771e-06 1.7310e+05 364.73 384.63 4.1521 0.76856 0.95712 157.41 3.4790 2.8754 0.0027045
-166.62 2.1533e-05 4.3939e-09 -156.19 -156.19 -0.97306 711.47 0.0014055 -156.19 -156.19 -0.97306 1.3382 1.9385 1993.1 -0.0076245 2696.5 0.20058 7.3914e-06 1.3529e+05 365.50 385.59 4.1129 0.77232 0.96087 158.08 3.3927 2.9029 0.0027575
-165.62 2.7666e-05 5.5740e-09 -154.25 -154.25 -0.95494 710.45 0.0014075 -154.25 -154.25 -0.95494 1.3378 1.9398 1986.3 -0.0076165 2566.0 0.20016 9.4084e-06 1.0629e+05 366.27 386.55 4.0746 0.77605 0.96460 158.75 3.3095 2.9304 0.0028108
-164.62 3.5367e-05 7.0358e-09 -152.31 -152.31 -0.93698 709.44 0.0014096 -152.31 -152.31 -0.93698 1.3375 1.9411 1979.4 -0.0076084 2444.9 0.19973 1.1916e-05 83918. 367.05 387.52 4.0372 0.77976 0.96832 159.41 3.2291 2.9579 0.0028643
-163.62 4.4989e-05 8.8379e-09 -150.37 -150.37 -0.91917 708.42 0.0014116 -150.37 -150.37 -0.91917 1.3371 1.9424 1972.6 -0.0076002 2332.3 0.19930 1.5020e-05 66577. 367.83 388.49 4.0008 0.78346 0.97201 160.07 3.1514 2.9854 0.0029182
-162.62 5.6956e-05 1.1049e-08 -148.43 -148.43 -0.90151 707.40 0.0014136 -148.43 -148.43 -0.90151 1.3368 1.9437 1965.8 -0.0075919 2227.7 0.19886 1.8844e-05 53068. 368.62 389.46 3.9651 0.78713 0.97569 160.72 3.0764 3.0129 0.0029723
-161.62 7.1773e-05 1.3751e-08 -146.48 -146.48 -0.88400 706.38 0.0014157 -146.48 -146.48 -0.88400 1.3365 1.9451 1959.0 -0.0075834 2130.2 0.19841 2.3533e-05 42494. 369.41 390.44 3.9304 0.79079 0.97935 161.38 3.0038 3.0404 0.0030268
-160.62 9.0036e-05 1.7037e-08 -144.54 -144.54 -0.86663 705.37 0.0014177 -144.54 -144.54 -0.86663 1.3363 1.9465 1952.1 -0.0075748 2039.2 0.19796 2.9258e-05 34178. 370.20 391.42 3.8964 0.79443 0.98298 162.03 2.9337 3.0679 0.0030815
-159.62 0.00011245 2.1017e-08 -142.59 -142.59 -0.84940 704.35 0.0014197 -142.59 -142.59 -0.84940 1.3360 1.9478 1945.3 -0.0075661 1954.2 0.19751 3.6221e-05 27609. 371.00 392.40 3.8632 0.79805 0.98660 162.68 2.8658 3.0955 0.0031365
-158.62 0.00013985 2.5818e-08 -140.64 -140.64 -0.83231 703.34 0.0014218 -140.64 -140.64 -0.83231 1.3358 1.9492 1938.5 -0.0075573 1874.8 0.19705 4.4652e-05 22395. 371.80 393.39 3.8307 0.80164 0.99020 163.32 2.8002 3.1230 0.0031918
-157.62 0.00017320 3.1586e-08 -138.69 -138.69 -0.81536 702.32 0.0014238 -138.69 -138.69 -0.81536 1.3356 1.9506 1931.7 -0.0075484 1800.3 0.19658 5.4822e-05 18241. 372.60 394.38 3.7990 0.80522 0.99378 163.96 2.7367 3.1505 0.0032474
-156.62 0.00021364 3.8488e-08 -136.74 -136.74 -0.79854 701.31 0.0014259 -136.74 -136.74 -0.79854 1.3354 1.9520 1924.9 -0.0075393 1730.5 0.19611 6.7040e-05 14916. 373.41 395.38 3.7680 0.80878 0.99734 164.60 2.6752 3.1780 0.0033033
-155.62 0.00026248 4.6716e-08 -134.79 -134.79 -0.78185 700.30 0.0014280 -134.79 -134.79 -0.78185 1.3352 1.9534 1918.1 -0.0075302 1664.9 0.19564 8.1666e-05 12245. 374.22 396.38 3.7377 0.81232 1.0009 165.24 2.6157 3.2055 0.0033595
-154.62 0.00032125 5.6489e-08 -132.83 -132.83 -0.76530 699.29 0.0014300 -132.83 -132.83 -0.76530 1.3350 1.9548 1911.3 -0.0075209 1603.3 0.19516 9.9109e-05 10090. 375.03 397.38 3.7081 0.81585 1.0044 165.87 2.5580 3.2330 0.0034160
-153.62 0.00039171 6.8055e-08 -130.88 -130.88 -0.74887 698.27 0.0014321 -130.88 -130.88 -0.74887 1.3349 1.9563 1904.5 -0.0075114 1545.3 0.19468 0.00011984 8344.6 375.85 398.39 3.6792 0.81935 1.0079 166.50 2.5022 3.2606 0.0034727
-152.62 0.00047590 8.1696e-08 -128.92 -128.92 -0.73256 697.26 0.0014342 -128.92 -128.92 -0.73256 1.3348 1.9577 1897.8 -0.0075019 1490.6 0.19419 0.00014439 6925.9 376.67 399.40 3.6509 0.82284 1.0114 167.13 2.4481 3.2881 0.0035298
-151.62 0.00057613 9.7727e-08 -126.96 -126.96 -0.71638 696.25 0.0014363 -126.96 -126.96 -0.71638 1.3346 1.9592 1891.0 -0.0074922 1438.9 0.19370 0.00017336 5768.4 377.49 400.41 3.6232 0.82631 1.0149 167.76 2.3957 3.3156 0.0035872
-150.62 0.00069507 1.1651e-07 -125.00 -125.00 -0.70032 695.24 0.0014384 -125.00 -125.00 -0.70032 1.3345 1.9606 1884.2 -0.0074824 1390.2 0.19320 0.00020744 4820.7 378.32 401.42 3.5962 0.82976 1.0183 168.38 2.3448 3.3431 0.0036448
-149.62 0.00083574 1.3843e-07 -123.04 -123.04 -0.68438 694.23 0.0014404 -123.04 -123.04 -0.68438 1.3345 1.9621 1877.4 -0.0074724 1344.0 0.19270 0.00024740 4042.0 379.15 402.44 3.5697 0.83319 1.0218 169.00 2.2956 3.3706 0.0037027
-148.62 0.0010016 1.6396e-07 -121.08 -121.08 -0.66855 693.22 0.0014425 -121.08 -121.08 -0.66855 1.3344 1.9636 1870.7 -0.0074623 1300.3 0.19220 0.00029412 3400.0 379.99 403.47 3.5438 0.83661 1.0252 169.62 2.2478 3.3982 0.0037610
-147.62 0.0011965 1.9357e-07 -119.11 -119.11 -0.65284 692.21 0.0014447 -119.11 -119.11 -0.65284 1.3343 1.9651 1863.9 -0.0074521 1258.9 0.19169 0.00034856 2869.0 380.83 404.49 3.5185 0.84001 1.0286 170.24 2.2014 3.4257 0.0038195
-146.62 0.0014249 2.2783e-07 -117.15 -117.15 -0.63724 691.20 0.0014468 -117.15 -117.15 -0.63724 1.3343 1.9666 1857.2 -0.0074417 1219.6 0.19117 0.00041181 2428.3 381.67 405.52 3.4938 0.84340 1.0320 170.85 2.1565 3.4532 0.0038783
-145.62 0.0016917 2.6735e-07 -115.18 -115.18 -0.62175 690.19 0.0014489 -115.18 -115.18 -0.62175 1.3343 1.9682 1850.4 -0.0074312 1182.3 0.19066 0.00048510 2061.4 382.51 406.56 3.4695 0.84677 1.0353 171.46 2.1128 3.4807 0.0039374
-144.62 0.0020026 3.1280e-07 -113.21 -113.21 -0.60637 689.18 0.0014510 -113.21 -113.21 -0.60637 1.3343 1.9697 1843.7 -0.0074206 1146.8 0.19014 0.00056976 1755.1 383.36 407.59 3.4458 0.85012 1.0387 172.07 2.0705 3.5082 0.0039967
-143.62 0.0023637 3.6493e-07 -111.24 -111.24 -0.59110 688.17 0.0014531 -111.24 -111.24 -0.59110 1.3343 1.9713 1836.9 -0.0074098 1113.0 0.18962 0.00066731 1498.6 384.21 408.63 3.4226 0.85346 1.0420 172.68 2.0294 3.5358 0.0040564
-142.62 0.0027820 4.2456e-07 -109.27 -109.27 -0.57593 687.16 0.0014553 -109.27 -109.27 -0.57593 1.3343 1.9728 1830.2 -0.0073988 1080.8 0.18909 0.00077939 1283.1 385.07 409.68 3.3999 0.85679 1.0454 173.28 1.9896 3.5633 0.0041164
-141.62 0.0032653 4.9258e-07 -107.30 -107.30 -0.56087 686.15 0.0014574 -107.30 -107.30 -0.56087 1.3343 1.9744 1823.5 -0.0073878 1050.1 0.18856 0.00090784 1101.5 385.93 410.72 3.3777 0.86011 1.0487 173.88 1.9508 3.5908 0.0041766
-140.62 0.0038222 5.6999e-07 -105.32 -105.32 -0.54591 685.14 0.0014596 -105.32 -105.32 -0.54591 1.3344 1.9760 1816.7 -0.0073765 1020.7 0.18803 0.0010547 948.16 386.79 411.77 3.3560 0.86341 1.0520 174.48 1.9133 3.6183 0.0042372
-139.62 0.0044623 6.5784e-07 -103.34 -103.34 -0.53104 684.13 0.0014617 -103.34 -103.34 -0.53105 1.3344 1.9776 1810.0 -0.0073651 992.74 0.18749 0.0012221 818.26 387.65 412.83 3.3347 0.86670 1.0553 175.08 1.8768 3.6459 0.0042980
-138.62 0.0051963 7.5730e-07 -101.37 -101.37 -0.51628 683.12 0.0014639 -101.37 -101.37 -0.51629 1.3345 1.9792 1803.3 -0.0073536 965.97 0.18695 0.0014125 707.94 388.52 413.88 3.3139 0.86998 1.0586 175.67 1.8413 3.6734 0.0043592
-137.62 0.0060358 8.6964e-07 -99.386 -99.386 -0.50162 682.11 0.0014660 -99.386 -99.386 -0.50162 1.3346 1.9808 1796.6 -0.0073419 940.35 0.18641 0.0016287 614.00 389.39 414.94 3.2935 0.87325 1.0619 176.26 1.8069 3.7009 0.0044206
-136.62 0.0069938 9.9622e-07 -97.404 -97.404 -0.48705 681.10 0.0014682 -97.404 -97.404 -0.48705 1.3347 1.9825 1789.9 -0.0073301 915.81 0.18586 0.0018733 533.80 390.26 416.00 3.2735 0.87650 1.0651 176.85 1.7734 3.7284 0.0044823
-135.62 0.0080843 1.1385e-06 -95.421 -95.420 -0.47258 680.09 0.0014704 -95.421 -95.421 -0.47258 1.3348 1.9841 1783.2 -0.0073180 892.30 0.18531 0.0021497 465.17 391.14 417.07 3.2540 0.87975 1.0684 177.44 1.7409 3.7559 0.0045443
-134.62 0.0093230 1.2981e-06 -93.436 -93.435 -0.45819 679.08 0.0014726 -93.436 -93.436 -0.45820 1.3350 1.9858 1776.5 -0.0073059 869.75 0.18476 0.0024613 406.30 392.02 418.14 3.2348 0.88299 1.0716 178.02 1.7093 3.7834 0.0046066
-133.62 0.010727 1.4767e-06 -91.449 -91.449 -0.44390 678.07 0.0014748 -91.450 -91.449 -0.44391 1.3351 1.9875 1769.8 -0.0072935 848.11 0.18421 0.0028116 355.67 392.91 419.21 3.2161 0.88622 1.0749 178.61 1.6786 3.8109 0.0046691
-132.62 0.012315 1.6762e-06 -89.460 -89.460 -0.42970 677.06 0.0014770 -89.461 -89.461 -0.42971 1.3353 1.9892 1763.1 -0.0072810 827.32 0.18365 0.0032049 312.03 393.79 420.29 3.1977 0.88944 1.0781 179.19 1.6488 3.8385 0.0047320
-131.62 0.014106 1.8985e-06 -87.470 -87.470 -0.41559 676.04 0.0014792 -87.471 -87.471 -0.41560 1.3354 1.9909 1756.4 -0.0072684 807.34 0.18309 0.0036453 274.33 394.68 421.36 3.1798 0.89266 1.0813 179.76 1.6197 3.8660 0.0047951
-130.62 0.016124 2.1457e-06 -85.478 -85.478 -0.40157 675.03 0.0014814 -85.479 -85.479 -0.40157 1.3356 1.9926 1749.7 -0.0072555 788.12 0.18253 0.0041375 241.69 395.58 422.44 3.1622 0.89586 1.0846 180.34 1.5915 3.8935 0.0048586
-129.62 0.018392 2.4201e-06 -83.485 -83.484 -0.38763 674.02 0.0014836 -83.486 -83.486 -0.38763 1.3358 1.9944 1743.0 -0.0072425 769.63 0.18196 0.0046867 213.37 396.47 423.53 3.1450 0.89906 1.0878 180.91 1.5641 3.9210 0.0049223
-128.62 0.020935 2.7240e-06 -81.489 -81.489 -0.37377 673.01 0.0014859 -81.491 -81.490 -0.37378 1.3360 1.9961 1736.3 -0.0072294 751.83 0.18140 0.0052981 188.75 397.37 424.62 3.1281 0.90226 1.0910 181.48 1.5374 3.9485 0.0049863
-127.62 0.023783 3.0599e-06 -79.492 -79.492 -0.36000 672.00 0.0014881 -79.494 -79.493 -0.36001 1.3363 1.9979 1729.6 -0.0072160 734.67 0.18083 0.0059776 167.29 398.27 425.71 3.1116 0.90545 1.0942 182.05 1.5114 3.9760 0.0050506
-126.62 0.026966 3.4306e-06 -77.493 -77.493 -0.34631 670.98 0.0014904 -77.495 -77.495 -0.34632 1.3365 1.9997 1722.9 -0.0072025 718.14 0.18025 0.0067313 148.56 399.18 426.80 3.0954 0.90863 1.0974 182.62 1.4861 4.0035 0.0051152
-125.62 0.030515 3.8390e-06 -75.492 -75.492 -0.33270 669.97 0.0014926 -75.494 -75.494 -0.33272 1.3368 2.0015 1716.2 -0.0071888 702.18 0.17968 0.0075660 132.17 400.09 427.89 3.0795 0.91181 1.1006 183.18 1.4615 4.0310 0.0051800
-124.62 0.034467 4.2878e-06 -73.490 -73.489 -0.31917 668.95 0.0014949 -73.492 -73.492 -0.31919 1.3371 2.0033 1709.5 -0.0071749 686.79 0.17910 0.0084885 117.81 401.00 428.99 3.0640 0.91499 1.1038 183.74 1.4375 4.0584 0.0052452
-123.62 0.038859 4.7805e-06 -71.485 -71.485 -0.30572 667.94 0.0014971 -71.488 -71.487 -0.30574 1.3374 2.0051 1702.8 -0.0071609 671.93 0.17852 0.0095065 105.19 401.91 430.10 3.0488 0.91816 1.1070 184.30 1.4141 4.0859 0.0053106
-122.62 0.043731 5.3202e-06 -69.479 -69.478 -0.29235 666.92 0.0014994 -69.482 -69.481 -0.29237 1.3377 2.0070 1696.2 -0.0071466 657.57 0.17794 0.010628 94.092 402.83 431.20 3.0339 0.92134 1.1102 184.86 1.3913 4.1134 0.0053764
-121.62 0.049128 5.9104e-06 -67.471 -67.470 -0.27905 665.91 0.0015017 -67.474 -67.473 -0.27907 1.3380 2.0089 1689.5 -0.0071322 643.70 0.17736 0.011861 84.309 403.75 432.31 3.0193 0.92451 1.1134 185.41 1.3691 4.1409 0.0054424
-120.62 0.055096 6.5549e-06 -65.461 -65.460 -0.26583 664.89 0.0015040 -65.464 -65.463 -0.26585 1.3384 2.0107 1682.8 -0.0071176 630.28 0.17678 0.013215 75.669 404.67 433.42 3.0050 0.92767 1.1166 185.96 1.3475 4.1683 0.0055087
-119.62 0.061684 7.2574e-06 -63.449 -63.448 -0.25268 663.87 0.0015063 -63.452 -63.452 -0.25271 1.3387 2.0126 1676.1 -0.0071028 617.30 0.17619 0.014700 68.027 405.60 434.53 2.9909 0.93084 1.1198 186.51 1.3264 4.1958 0.0055752
-118.62 0.068946 8.0220e-06 -61.435 -61.434 -0.23961 662.86 0.0015086 -61.439 -61.438 -0.23963 1.3391 2.0146 1669.4 -0.0070878 604.74 0.17560 0.016325 61.255 406.53 435.64 2.9772 0.93401 1.1231 187.06 1.3058 4.2233 0.0056421
-117.62 0.076937 8.8528e-06 -59.419 -59.418 -0.22660 661.84 0.0015109 -59.423 -59.422 -0.22663 1.3395 2.0165 1662.8 -0.0070726 592.58 0.17501 0.018101 55.245 407.46 436.76 2.9638 0.93718 1.1263 187.60 1.2857 4.2507 0.0057092
-116.62 0.085718 9.7541e-06 -57.401 -57.400 -0.21367 660.82 0.0015133 -57.406 -57.405 -0.21370 1.3400 2.0184 1656.1 -0.0070573 580.80 0.17442 0.020040 49.901 408.39 437.88 2.9506 0.94035 1.1295 188.14 1.2660 4.2782 0.0057767
-115.62 0.095353 1.0731e-05 -55.381 -55.380 -0.20081 659.80 0.0015156 -55.386 -55.385 -0.20084 1.3404 2.0204 1649.4 -0.0070417 569.38 0.17383 0.022152 45.142 409.33 439.01 2.9377 0.94352 1.1327 188.68 1.2468 4.3056 0.0058444
-114.62 0.10591 1.1787e-05 -53.359 -53.358 -0.18801 658.78 0.0015180 -53.365 -53.364 -0.18805 1.3409 2.0224 1642.7 -0.0070260 558.32 0.17323 0.024451 40.898 410.27 440.13 2.9250 0.94669 1.1360 189.22 1.2281 4.3330 0.0059123
-113.62 0.11746 1.2928e-05 -51.336 -51.334 -0.17529 657.76 0.0015203 -51.342 -51.340 -0.17533 1.3413 2.0244 1636.0 -0.0070100 547.59 0.17264 0.026949 37.107 411.21 441.26 2.9126 0.94987 1.1392 189.75 1.2097 4.3604 0.0059806
-112.62 0.13008 1.4158e-05 -49.310 -49.308 -0.16263 656.73 0.0015227 -49.316 -49.315 -0.16267 1.3418 2.0264 1629.3 -0.0069938 537.18 0.17204 0.029661 33.715 412.16 442.39 2.9005 0.95305 1.1424 190.28 1.1918 4.3879 0.0060491
-111.62 0.14384 1.5484e-05 -47.282 -47.280 -0.15003 655.71 0.0015251 -47.289 -47.287 -0.15008 1.3424 2.0285 1622.7 -0.0069774 527.08 0.17144 0.032600 30.675 413.10 443.53 2.8885 0.95623 1.1457 190.81 1.1742 4.4153 0.0061180
-110.62 0.15884 1.6909e-05 -45.252 -45.249 -0.13750 654.69 0.0015274 -45.259 -45.258 -0.13755 1.3429 2.0305 1616.0 -0.0069609 517.28 0.17084 0.035781 27.948 414.06 444.66 2.8769 0.95942 1.1490 191.34 1.1570 4.4427 0.0061871
-109.62 0.17516 1.8440e-05 -43.219 -43.217 -0.12504 653.66 0.0015298 -43.228 -43.226 -0.12509 1.3435 2.0326 1609.3 -0.0069441 507.76 0.17024 0.039220 25.497 415.01 445.80 2.8654 0.96261 1.1522 191.86 1.1402 4.4701 0.0062564
-108.62 0.19290 2.0083e-05 -41.185 -41.182 -0.11263 652.64 0.0015322 -41.194 -41.192 -0.11269 1.3441 2.0347 1602.6 -0.0069271 498.51 0.16964 0.042933 23.292 415.96 446.94 2.8542 0.96581 1.1555 192.38 1.1236 4.4974 0.0063261
-107.62 0.21215 2.1843e-05 -39.148 -39.145 -0.10029 651.61 0.0015347 -39.158 -39.156 -0.10036 1.3447 2.0369 1595.9 -0.0069098 489.52 0.16903 0.046937 21.305 416.92 448.09 2.8433 0.96901 1.1588 192.90 1.1075 4.5248 0.0063960
-106.62 0.23301 2.3726e-05 -37.110 -37.106 -0.088013 650.58 0.0015371 -37.120 -37.118 -0.088082 1.3453 2.0390 1589.2 -0.0068924 480.79 0.16843 0.051250 19.512 417.88 449.23 2.8325 0.97222 1.1621 193.41 1.0916 4.5522 0.0064662
-105.62 0.25561 2.5739e-05 -35.069 -35.065 -0.075794 649.55 0.0015395 -35.080 -35.078 -0.075868 1.3460 2.0412 1582.6 -0.0068747 472.30 0.16782 0.055891 17.892 418.85 450.38 2.8220 0.97544 1.1655 193.93 1.0760 4.5795 0.0065367
-104.62 0.28004 2.7887e-05 -33.026 -33.022 -0.063634 648.52 0.0015420 -33.038 -33.035 -0.063714 1.3467 2.0434 1575.9 -0.0068569 464.04 0.16721 0.060878 16.426 419.81 451.53 2.8116 0.97867 1.1688 194.44 1.0608 4.6069 0.0066074
-103.62 0.30643 3.0176e-05 -30.980 -30.976 -0.051533 647.49 0.0015444 -30.994 -30.991 -0.051619 1.3474 2.0456 1569.2 -0.0068387 456.00 0.16660 0.066231 15.099 420.78 452.68 2.8015 0.98191 1.1722 194.94 1.0458 4.6342 0.0066785
-102.62 0.33490 3.2615e-05 -28.933 -28.928 -0.039489 646.46 0.0015469 -28.947 -28.944 -0.039582 1.3481 2.0478 1562.5 -0.0068204 448.18 0.16600 0.071971 13.894 421.75 453.84 2.7916 0.98516 1.1755 195.44 1.0310 4.6615 0.0067498
-101.62 0.36558 3.5208e-05 -26.883 -26.877 -0.027503 645.43 0.0015494 -26.898 -26.894 -0.027602 1.3489 2.0501 1555.8 -0.0068018 440.57 0.16539 0.078120 12.801 422.73 454.99 2.7818 0.98841 1.1789 195.95 1.0166 4.6888 0.0068213
-100.62 0.39862 3.7962e-05 -24.830 -24.825 -0.015572 644.39 0.0015519 -24.847 -24.843 -0.015678 1.3497 2.0524 1549.1 -0.0067830 433.16 0.16478 0.084699 11.807 423.70 456.15 2.7723 0.99168 1.1823 196.44 1.0024 4.7161 0.0068932
-99.625 0.43414 4.0886e-05 -22.775 -22.770 -0.0036971 643.36 0.0015544 -22.794 -22.789 -0.0038103 1.3505 2.0547 1542.4 -0.0067639 425.95 0.16416 0.091731 10.901 424.68 457.31 2.7630 0.99496 1.1858 196.94 0.98838 4.7434 0.0069653
-98.625 0.47230 4.3984e-05 -20.718 -20.712 0.0081235 642.32 0.0015569 -20.738 -20.733 0.0080027 1.3514 2.0570 1535.7 -0.0067447 418.92 0.16355 0.099240 10.077 425.66 458.48 2.7538 0.99825 1.1892 197.43 0.97464 4.7707 0.0070377
-97.625 0.51325 4.7265e-05 -18.659 -18.652 0.019890 641.28 0.0015594 -18.680 -18.674 0.019762 1.3522 2.0594 1529.0 -0.0067251 412.07 0.16294 0.10725 9.3239 426.65 459.64 2.7448 1.0016 1.1927 197.92 0.96112 4.7979 0.0071103
-96.625 0.55714 5.0735e-05 -16.597 -16.589 0.031604 640.24 0.0015619 -16.620 -16.614 0.031467 1.3531 2.0618 1522.3 -0.0067053 405.39 0.16233 0.11579 8.6365 427.63 460.81 2.7360 1.0049 1.1962 198.40 0.94783 4.8251 0.0071832
-95.625 0.60416 5.4401e-05 -14.533 -14.524 0.043266 639.20 0.0015645 -14.557 -14.550 0.043120 1.3540 2.0642 1515.7 -0.0066853 398.88 0.16171 0.12488 8.0078 428.62 461.98 2.7274 1.0082 1.1997 198.88 0.93475 4.8524 0.0072564
-94.625 0.65446 5.8270e-05 -12.466 -12.457 0.054876 638.16 0.0015670 -12.491 -12.484 0.054721 1.3550 2.0667 1509.0 -0.0066650 392.53 0.16110 0.13455 7.4323 429.61 463.15 2.7189 1.0116 1.2032 199.36 0.92188 4.8796 0.0073299
-93.625 0.70822 6.2350e-05 -10.396 -10.386 0.066436 637.12 0.0015696 -10.424 -10.416 0.066271 1.3560 2.0691 1502.3 -0.0066444 386.34 0.16048 0.14482 6.9050 430.60 464.32 2.7107 1.0149 1.2068 199.83 0.90921 4.9068 0.0074036
-92.625 0.76564 6.6647e-05 -8.3242 -8.3136 0.077945 636.07 0.0015722 -8.3535 -8.3452 0.077771 1.3570 2.0716 1495.6 -0.0066236 380.31 0.15987 0.15573 6.4212 431.60 465.49 2.7025 1.0183 1.2104 200.30 0.89673 4.9340 0.0074776
-91.625 0.82689 7.1169e-05 -6.2496 -6.2382 0.089406 635.02 0.0015747 -6.2808 -6.2719 0.089220 1.3580 2.0742 1488.9 -0.0066025 374.41 0.15925 0.16731 5.9769 432.59 466.67 2.6946 1.0217 1.2140 200.77 0.88445 4.9611 0.0075518
-90.625 0.89218 7.5922e-05 -4.1724 -4.1601 0.10082 633.98 0.0015773 -4.2056 -4.1959 0.10062 1.3591 2.0767 1482.2 -0.0065811 368.66 0.15864 0.17958 5.5685 433.59 467.84 2.6868 1.0251 1.2177 201.24 0.87236 4.9883 0.0076263
-89.625 0.96172 8.0915e-05 -2.0925 -2.0793 0.11218 632.93 0.0015800 -2.1279 -2.1174 0.11197 1.3602 2.0793 1475.5 -0.0065595 363.05 0.15802 0.19258 5.1928 434.59 469.02 2.6791 1.0285 1.2213 201.70 0.86045 5.0154 0.0077011
-88.625 1.0357 8.6153e-05 -0.0099846 0.0042973 0.12350 631.88 0.0015826 -0.047516 -0.036215 0.12328 1.3613 2.0819 1468.8 -0.0065375 357.56 0.15740 0.20633 4.8466 435.59 470.20 2.6717 1.0320 1.2250 202.15 0.84873 5.0425 0.0077761
-87.625 1.1144 9.1644e-05 2.0753 2.0906 0.13477 630.83 0.0015852 2.0355 2.0476 0.13454 1.3625 2.0846 1462.1 -0.0065153 352.21 0.15679 0.22087 4.5276 436.60 471.39 2.6643 1.0354 1.2288 202.61 0.83718 5.0696 0.0078514
-86.625 1.1979 9.7394e-05 4.1633 4.1798 0.14599 629.77 0.0015879 4.1211 4.1342 0.14575 1.3637 2.0873 1455.4 -0.0064928 346.98 0.15617 0.23623 4.2331 437.61 472.57 2.6571 1.0389 1.2325 203.06 0.82580 5.0967 0.0079270
-85.625 1.2866 0.00010341 6.2541 6.2718 0.15717 628.72 0.0015905 6.2094 6.2235 0.15691 1.3649 2.0900 1448.8 -0.0064701 341.87 0.15555 0.25245 3.9612 438.61 473.75 2.6501 1.0424 1.2363 203.50 0.81460 5.1237 0.0080028
-84.625 1.3806 0.00010970 8.3477 8.3667 0.16831 627.66 0.0015932 8.3004 8.3155 0.16803 1.3661 2.0927 1442.1 -0.0064470 336.87 0.15494 0.26956 3.7097 439.63 474.94 2.6432 1.0460 1.2402 203.95 0.80356 5.1508 0.0080789
-83.625 1.4803 0.00011627 10.444 10.465 0.17940 626.60 0.0015959 10.394 10.410 0.17911 1.3674 2.0955 1435.4 -0.0064236 331.99 0.15432 0.28760 3.4771 440.64 476.13 2.6364 1.0495 1.2440 204.38 0.79269 5.1778 0.0081553
-82.625 1.5858 0.00012313 12.543 12.565 0.19044 625.54 0.0015986 12.491 12.508 0.19014 1.3687 2.0983 1428.7 -0.0063999 327.22 0.15370 0.30659 3.2616 441.65 477.31 2.6298 1.0531 1.2479 204.82 0.78199 5.2048 0.0082319
-81.625 1.6975 0.00013027 14.646 14.669 0.20145 624.48 0.0016013 14.590 14.609 0.20113 1.3700 2.1012 1422.0 -0.0063759 322.55 0.15309 0.32659 3.0619 442.67 478.50 2.6233 1.0567 1.2519 205.25 0.77144 5.2318 0.0083088
-80.625 1.8155 0.00013772 16.751 16.776 0.21241 623.42 0.0016041 16.692 16.712 0.21208 1.3714 2.1041 1415.4 -0.0063516 317.99 0.15247 0.34763 2.8766 443.69 479.70 2.6169 1.0603 1.2558 205.67 0.76106 5.2587 0.0083860
-79.625 1.9402 0.00014547 18.859 18.886 0.22333 622.36 0.0016068 18.797 18.819 0.22299 1.3728 2.1070 1408.7 -0.0063270 313.52 0.15186 0.36974 2.7046 444.71 480.89 2.6106 1.0639 1.2598 206.10 0.75083 5.2857 0.0084634
-78.625 2.0718 0.00015353 20.970 20.999 0.23422 621.29 0.0016096 20.905 20.928 0.23385 1.3742 2.1099 1402.0 -0.0063021 309.15 0.15124 0.39296 2.5448 445.73 482.08 2.6045 1.0676 1.2639 206.51 0.74076 5.3126 0.0085411
-77.625 2.2107 0.00016190 23.084 23.115 0.24506 620.22 0.0016123 23.016 23.040 0.24468 1.3757 2.1129 1395.3 -0.0062768 304.88 0.15062 0.41735 2.3961 446.75 483.27 2.5985 1.0712 1.2680 206.93 0.73084 5.3395 0.0086190
-76.625 2.3571 0.00017060 25.202 25.234 0.25586 619.15 0.0016151 25.130 25.156 0.25546 1.3772 2.1159 1388.7 -0.0062512 300.69 0.15001 0.44292 2.2577 447.78 484.47 2.5926 1.0749 1.2721 207.34 0.72107 5.3664 0.0086972
-75.625 2.5113 0.00017962 27.322 27.357 0.26662 618.08 0.0016179 27.247 27.275 0.26620 1.3787 2.1190 1382.0 -0.0062253 296.59 0.14939 0.46974 2.1288 448.81 485.67 2.5869 1.0787 1.2762 207.74 0.71146 5.3933 0.0087757
-74.625 2.6736 0.00018897 29.446 29.483 0.27734 617.01 0.0016207 29.366 29.396 0.27691 1.3802 2.1221 1375.4 -0.0061990 292.58 0.14878 0.49783 2.0087 449.83 486.86 2.5812 1.0824 1.2804 208.14 0.70200 5.4201 0.0088544
-73.625 2.8444 0.00019865 31.573 31.612 0.28803 615.93 0.0016236 31.489 31.521 0.28758 1.3818 2.1252 1368.7 -0.0061724 288.65 0.14816 0.52725 1.8966 450.86 488.06 2.5757 1.0862 1.2847 208.54 0.69268 5.4469 0.0089334
-72.625 3.0240 0.00020867 33.703 33.744 0.29868 614.85 0.0016264 33.615 33.649 0.29821 1.3834 2.1284 1362.0 -0.0061454 284.81 0.14755 0.55804 1.7920 451.90 489.26 2.5703 1.0900 1.2889 208.93 0.68351 5.4737 0.0090126
-71.625 3.2127 0.00021904 35.836 35.880 0.30929 613.78 0.0016293 35.745 35.781 0.30880 1.3851 2.1316 1355.4 -0.0061181 281.03 0.14694 0.59024 1.6942 452.93 490.46 2.5650 1.0938 1.2932 209.32 0.67448 5.5005 0.0090922
-70.625 3.4108 0.00022974 37.973 38.020 0.31987 612.69 0.0016321 37.877 37.915 0.31935 1.3867 2.1349 1348.7 -0.0060904 277.34 0.14632 0.62390 1.6028 453.96 491.66 2.5598 1.0976 1.2976 209.70 0.66560 5.5273 0.0091720
-69.625 3.6187 0.00024080 40.113 40.162 0.33041 611.61 0.0016350 40.013 40.053 0.32987 1.3884 2.1382 1342.1 -0.0060624 273.72 0.14571 0.65906 1.5173 455.00 492.86 2.5547 1.1015 1.3020 210.08 0.65687 5.5540 0.0092520
-68.625 3.8367 0.00025221 42.256 42.309 0.34091 610.53 0.0016379 42.152 42.195 0.34036 1.3902 2.1415 1335.5 -0.0060339 270.17 0.14510 0.69577 1.4372 456.04 494.06 2.5497 1.1054 1.3064 210.45 0.64827 5.5807 0.0093324
-67.625 4.0652 0.00026396 44.403 44.459 0.35138 609.44 0.0016409 44.294 44.340 0.35080 1.3919 2.1449 1328.8 -0.0060051 266.69 0.14449 0.73408 1.3622 457.08 495.26 2.5448 1.1093 1.3109 210.82 0.63981 5.6074 0.0094130
-66.625 4.3046 0.00027607 46.553 46.612 0.36182 608.35 0.0016438 46.439 46.488 0.36122 1.3937 2.1483 1322.2 -0.0059760 263.28 0.14388 0.77404 1.2919 458.12 496.46 2.5400 1.1133 1.3154 211.18 0.63150 5.6341 0.0094939
-65.625 4.5551 0.00028854 48.707 48.769 0.37222 607.26 0.0016467 48.588 48.640 0.37160 1.3955 2.1518 1315.6 -0.0059464 259.93 0.14327 0.81570 1.2259 459.16 497.67 2.5353 1.1172 1.3200 211.54 0.62332 5.6608 0.0095750
-64.625 4.8173 0.00030135 50.864 50.930 0.38259 606.16 0.0016497 50.740 50.795 0.38195 1.3974 2.1553 1308.9 -0.0059164 256.65 0.14266 0.85910 1.1640 460.21 498.87 2.5307 1.1212 1.3246 211.89 0.61527 5.6874 0.0096564
-63.625 5.0915 0.00031453 53.025 53.095 0.39293 605.07 0.0016527 52.896 52.954 0.39226 1.3993 2.1588 1302.3 -0.0058861 253.42 0.14205 0.90429 1.1058 461.25 500.07 2.5262 1.1252 1.3293 212.24 0.60736 5.7140 0.0097382
-62.625 5.3781 0.00032805 55.189 55.263 0.40324 603.97 0.0016557 55.055 55.117 0.40254 1.4012 2.1624 1295.7 -0.0058553 250.26 0.14144 0.95134 1.0511 462.30 501.28 2.5218 1.1293 1.3340 212.58 0.59958 5.7406 0.0098201
-61.625 5.6774 0.00034193 57.357 57.435 0.41351 602.87 0.0016587 57.218 57.283 0.41279 1.4031 2.1660 1289.1 -0.0058241 247.16 0.14084 1.0003 0.99972 463.35 502.48 2.5175 1.1333 1.3387 212.92 0.59194 5.7672 0.0099024
-60.625 5.9899 0.00035616 59.529 59.611 0.42375 601.77 0.0016618 59.385 59.453 0.42301 1.4051 2.1697 1282.5 -0.0057925 244.12 0.14023 1.0512 0.95131 464.40 503.68 2.5133 1.1374 1.3435 213.26 0.58442 5.7938 0.0099850
-59.625 6.3160 0.00037074 61.704 61.791 0.43397 600.66 0.0016648 61.554 61.627 0.43320 1.4071 2.1734 1275.9 -0.0057605 241.13 0.13962 1.1041 0.90573 465.45 504.89 2.5091 1.1415 1.3483 213.58 0.57704 5.8203 0.010068
-58.625 6.6561 0.00038566 63.883 63.975 0.44415 599.55 0.0016679 63.728 63.805 0.44335 1.4091 2.1772 1269.3 -0.0057280 238.19 0.13902 1.1591 0.86277 466.50 506.09 2.5051 1.1457 1.3532 213.90 0.56978 5.8468 0.010151
-57.625 7.0107 0.00040092 66.066 66.163 0.45430 598.44 0.0016710 65.905 65.986 0.45348 1.4111 2.1810 1262.7 -0.0056951 235.31 0.13842 1.2161 0.82228 467.55 507.30 2.5011 1.1498 1.3581 214.22 0.56265 5.8733 0.010234
-56.625 7.3801 0.00041652 68.253 68.355 0.46442 597.33 0.0016741 68.086 68.172 0.46358 1.4132 2.1848 1256.1 -0.0056617 232.48 0.13781 1.2754 0.78408 468.60 508.50 2.4972 1.1540 1.3631 214.53 0.55564 5.8998 0.010318
-55.625 7.7648 0.00043246 70.444 70.551 0.47452 596.22 0.0016772 70.271 70.361 0.47364 1.4153 2.1887 1249.5 -0.0056279 229.69 0.13721 1.3369 0.74802 469.66 509.71 2.4934 1.1582 1.3681 214.84 0.54875 5.9263 0.010402
-54.625 8.1652 0.00044871 72.639 72.751 0.48458 595.10 0.0016804 72.460 72.554 0.48368 1.4174 2.1927 1242.9 -0.0055937 226.96 0.13661 1.4006 0.71396 470.72 510.91 2.4897 1.1624 1.3731 215.14 0.54199 5.9527 0.010486
-53.625 8.5819 0.00046529 74.837 74.955 0.49462 593.98 0.0016836 74.652 74.752 0.49369 1.4196 2.1967 1236.3 -0.0055589 224.27 0.13601 1.4667 0.68178 471.77 512.11 2.4860 1.1667 1.3782 215.43 0.53535 5.9792 0.010571
-52.625 9.0151 0.00048217 77.040 77.164 0.50463 592.86 0.0016867 76.849 76.954 0.50368 1.4218 2.2007 1229.8 -0.0055237 221.63 0.13541 1.5353 0.65136 472.83 513.32 2.4824 1.1710 1.3834 215.72 0.52882 6.0056 0.010656
-51.625 9.4655 0.00049936 79.246 79.377 0.51461 591.73 0.0016900 79.049 79.159 0.51363 1.4240 2.2048 1223.2 -0.0054880 219.04 0.13482 1.6062 0.62258 473.89 514.52 2.4789 1.1752 1.3886 216.00 0.52241 6.0320 0.010741
-50.625 9.9335 0.00051683 81.457 81.594 0.52457 590.60 0.0016932 81.253 81.369 0.52356 1.4262 2.2089 1216.6 -0.0054519 216.48 0.13422 1.6797 0.59534 474.95 515.73 2.4755 1.1796 1.3938 216.28 0.51612 6.0584 0.010827
-49.625 10.419 0.00053459 83.672 83.815 0.53450 589.47 0.0016964 83.462 83.584 0.53347 1.4285 2.2131 1210.1 -0.0054152 213.98 0.13363 1.7558 0.56954 476.01 516.93 2.4722 1.1839 1.3991 216.55 0.50994 6.0848 0.010913
-48.625 10.924 0.00055262 85.890 86.041 0.54441 588.34 0.0016997 85.674 85.802 0.54334 1.4308 2.2173 1203.5 -0.0053780 211.51 0.13303 1.8345 0.54510 477.07 518.13 2.4689 1.1883 1.4044 216.82 0.50387 6.1112 0.010999
-47.625 11.448 0.00057091 88.113 88.271 0.55429 587.20 0.0017030 87.891 88.025 0.55319 1.4331 2.2216 1196.9 -0.0053403 209.08 0.13244 1.9159 0.52194 478.14 519.33 2.4657 1.1927 1.4098 217.08 0.49792 6.1375 0.011085
-46.625 11.991 0.00058944 90.341 90.506 0.56414 586.06 0.0017063 90.111 90.252 0.56302 1.4354 2.2259 1190.4 -0.0053020 206.69 0.13185 2.0001 0.49997 479.20 520.53 2.4625 1.1971 1.4153 217.33 0.49207 6.1639 0.011172
-45.625 12.554 0.00060820 92.572 92.745 0.57397 584.92 0.0017096 92.336 92.484 0.57282 1.4378 2.2303 1183.8 -0.0052633 204.34 0.13126 2.0872 0.47912 480.27 521.74 2.4594 1.2015 1.4207 217.58 0.48633 6.1902 0.011259
-44.625 13.137 0.00062718 94.808 94.989 0.58377 583.77 0.0017130 94.565 94.720 0.58260 1.4402 2.2347 1177.3 -0.0052240 202.03 0.13067 2.1771 0.45933 481.33 522.94 2.4564 1.2060 1.4263 217.82 0.48069 6.2165 0.011347
-43.625 13.741 0.00064635 97.048 97.237 0.59355 582.62 0.0017164 96.799 96.961 0.59235 1.4426 2.2392 1170.7 -0.0051841 199.75 0.13008 2.2700 0.44053 482.40 524.14 2.4535 1.2104 1.4319 218.05 0.47516 6.2429 0.011435
-42.625 14.367 0.00066571 99.292 99.490 0.60331 581.47 0.0017198 99.036 99.207 0.60208 1.4450 2.2437 1164.2 -0.0051437 197.51 0.12949 2.3659 0.42267 483.46 525.33 2.4506 1.2149 1.4375 218.28 0.46973 6.2692 0.011523
-41.625 15.015 0.00068522 101.54 101.75 0.61305 580.32 0.0017232 101.28 101.46 0.61179 1.4475 2.2483 1157.7 -0.0051027 195.30 0.12891 2.4649 0.40569 484.53 526.53 2.4478 1.2195 1.4432 218.50 0.46440 6.2955 0.011612
-40.625 15.686 0.00070487 103.79 104.01 0.62276 579.16 0.0017266 103.52 103.71 0.62147 1.4500 2.2529 1151.1 -0.0050611 193.13 0.12832 2.5671 0.38954 485.60 527.73 2.4450 1.2240 1.4489 218.72 0.45917 6.3218 0.011701
-39.625 16.380 0.00072464 106.05 106.28 0.63244 578.00 0.0017301 105.78 105.97 0.63113 1.4525 2.2576 1144.6 -0.0050189 190.99 0.12774 2.6725 0.37418 486.67 528.93 2.4423 1.2286 1.4547 218.93 0.45403 6.3481 0.011790
-38.625 17.097 0.00074451 108.31 108.55 0.64211 576.83 0.0017336 108.03 108.24 0.64077 1.4550 2.2623 1138.0 -0.0049761 188.88 0.12716 2.7813 0.35955 487.74 530.12 2.4397 1.2332 1.4606 219.13 0.44900 6.3744 0.011880
-37.625 17.838 0.00076445 110.58 110.83 0.65176 575.66 0.0017371 110.29 110.51 0.65039 1.4576 2.2671 1131.5 -0.0049327 186.81 0.12658 2.8934 0.34562 488.81 531.32 2.4371 1.2378 1.4665 219.33 0.44405 6.4007 0.011970
-36.625 18.604 0.00078443 112.85 113.11 0.66138 574.49 0.0017407 112.56 112.78 0.65999 1.4602 2.2719 1125.0 -0.0048887 184.76 0.12600 3.0089 0.33235 489.88 532.51 2.4346 1.2424 1.4724 219.52 0.43920 6.4270 0.012060
-35.625 19.395 0.00080443 115.13 115.40 0.67098 573.32 0.0017442 114.83 115.06 0.66956 1.4628 2.2768 1118.5 -0.0048440 182.75 0.12542 3.1280 0.31969 490.95 533.70 2.4321 1.2471 1.4784 219.70 0.43444 6.4533 0.012151
-34.625 20.212 0.00082441 117.41 117.69 0.68056 572.14 0.0017478 117.10 117.34 0.67912 1.4654 2.2818 1111.9 -0.0047987 180.76 0.12485 3.2506 0.30763 492.02 534.89 2.4297 1.2517 1.4845 219.88 0.42977 6.4797 0.012243
-33.625 21.056 0.00084436 119.69 119.98 0.69012 570.96 0.0017514 119.38 119.63 0.68865 1.4681 2.2868 1105.4 -0.0047527 178.80 0.12427 3.3770 0.29612 493.09 536.08 2.4273 1.2564 1.4906 220.05 0.42519 6.5060 0.012334
-32.625 21.926 0.00086422 121.98 122.29 0.69966 569.77 0.0017551 121.66 121.93 0.69817 1.4708 2.2918 1098.9 -0.0047061 176.87 0.12370 3.5071 0.28514 494.17 537.27 2.4250 1.2611 1.4968 220.21 0.42070 6.5323 0.012426
-31.625 22.823 0.00088398 124.28 124.59 0.70918 568.58 0.0017588 123.95 124.23 0.70767 1.4735 2.2970 1092.3 -0.0046587 174.97 0.12313 3.6410 0.27465 495.24 538.46 2.4227 1.2659 1.5031 220.36 0.41629 6.5587 0.012519
-30.625 23.749 0.00090360 126.58 126.90 0.71868 567.39 0.0017625 126.24 126.53 0.71714 1.4762 2.3021 1085.8 -0.0046107 173.09 0.12256 3.7787 0.26464 496.31 539.64 2.4205 1.2706 1.5094 220.51 0.41196 6.5850 0.012612
-29.625 24.703 0.00092303 128.88 129.22 0.72816 566.19 0.0017662 128.54 128.84 0.72660 1.4790 2.3074 1079.3 -0.0045619 171.24 0.12200 3.9205 0.25507 497.38 540.83 2.4184 1.2754 1.5157 220.65 0.40772 6.6114 0.012706
-28.625 25.687 0.00094224 131.19 131.54 0.73763 564.99 0.0017699 130.84 131.16 0.73604 1.4818 2.3126 1072.8 -0.0045124 169.42 0.12143 4.0663 0.24592 498.46 542.01 2.4162 1.2802 1.5222 220.79 0.40356 6.6378 0.012800
-27.625 26.700 0.00096119 133.50 133.87 0.74707 563.78 0.0017737 133.15 133.48 0.74547 1.4846 2.3180 1066.2 -0.0044621 167.62 0.12087 4.2163 0.23717 499.53 543.19 2.4142 1.2850 1.5286 220.91 0.39947 6.6642 0.012894
-26.625 27.743 0.00097983 135.82 136.21 0.75649 562.57 0.0017775 135.47 135.81 0.75487 1.4874 2.3234 1059.7 -0.0044111 165.84 0.12031 4.3705 0.22881 500.60 544.37 2.4122 1.2899 1.5352 221.03 0.39547 6.6906 0.012989
-25.625 28.817 0.00099812 138.15 138.54 0.76590 561.36 0.0017814 137.78 138.14 0.76426 1.4902 2.3289 1053.2 -0.0043593 164.09 0.11975 4.5290 0.22080 501.68 545.55 2.4102 1.2947 1.5418 221.14 0.39154 6.7171 0.013084
-24.625 29.923 0.0010160 140.48 140.89 0.77529 560.14 0.0017853 140.11 140.48 0.77363 1.4931 2.3344 1046.7 -0.0043067 162.36 0.11919 4.6918 0.21314 502.75 546.72 2.4083 1.2996 1.5485 221.25 0.38768 6.7436 0.013180
-23.625 31.061 0.0010334 142.81 143.24 0.78466 558.92 0.0017892 142.44 142.82 0.78298 1.4960 2.3400 1040.1 -0.0042533 160.65 0.11863 4.8592 0.20580 503.82 547.90 2.4064 1.3045 1.5552 221.35 0.38391 6.7701 0.013277
-22.625 32.232 0.0010504 145.15 145.59 0.79402 557.69 0.0017931 144.77 145.17 0.79232 1.4990 2.3457 1033.6 -0.0041990 158.97 0.11807 5.0311 0.19877 504.90 549.07 2.4045 1.3095 1.5621 221.44 0.38020 6.7967 0.013374
-21.625 33.435 0.0010668 147.49 147.95 0.80335 556.46 0.0017971 147.11 147.52 0.80164 1.5019 2.3514 1027.1 -0.0041439 157.30 0.11752 5.2076 0.19203 505.97 550.24 2.4027 1.3144 1.5690 221.52 0.37656 6.8232 0.013471
-20.625 34.673 0.0010825 149.84 150.32 0.81267 555.23 0.0018011 149.45 149.88 0.81095 1.5049 2.3572 1020.6 -0.0040879 155.66 0.11697 5.3889 0.18557 507.04 551.40 2.4010 1.3194 1.5759 221.59 0.37300 6.8499 0.013569
-19.625 35.946 0.0010976 152.19 152.69 0.82198 553.99 0.0018051 151.80 152.25 0.82024 1.5079 2.3630 1014.0 -0.0040311 154.04 0.11642 5.5750 0.17937 508.11 552.57 2.3992 1.3244 1.5829 221.66 0.36950 6.8765 0.013668
-18.625 37.253 0.0011119 154.55 155.07 0.83126 552.74 0.0018092 154.16 154.62 0.82952 1.5109 2.3689 1007.5 -0.0039733 152.44 0.11587 5.7660 0.17343 509.19 553.73 2.3976 1.3294 1.5901 221.72 0.36608 6.9032 0.013767
-17.625 38.596 0.0011255 156.92 157.45 0.84053 551.49 0.0018133 156.52 157.00 0.83878 1.5140 2.3749 1001.0 -0.0039145 150.86 0.11532 5.9621 0.16773 510.26 554.89 2.3959 1.3345 1.5972 221.77 0.36272 6.9300 0.013867
-16.625 39.976 0.0011381 159.29 159.84 0.84979 550.24 0.0018174 158.89 159.39 0.84803 1.5171 2.3810 994.44 -0.0038549 149.29 0.11478 6.1632 0.16225 511.33 556.05 2.3943 1.3395 1.6045 221.81 0.35942 6.9568 0.013968
-15.625 41.392 0.0011499 161.66 162.23 0.85903 548.98 0.0018216 161.26 161.78 0.85726 1.5202 2.3871 987.91 -0.0037942 147.75 0.11423 6.3696 0.15700 512.40 557.20 2.3927 1.3446 1.6119 221.85 0.35619 6.9836 0.014069
-14.625 42.846 0.0011606 164.04 164.63 0.86826 547.71 0.0018258 163.64 164.18 0.86649 1.5233 2.3933 981.37 -0.0037325 146.22 0.11369 6.5812 0.15195 513.47 558.36 2.3912 1.3497 1.6193 221.87 0.35302 7.0105 0.014170
-13.625 44.338 0.0011702 166.43 167.04 0.87746 546.44 0.0018300 166.02 166.58 0.87569 1.5264 2.3996 974.83 -0.0036698 144.72 0.11315 6.7983 0.14710 514.54 559.51 2.3897 1.3549 1.6268 221.89 0.34992 7.0375 0.014273
-12.625 45.870 0.0011786 168.82 169.45 0.88666 545.17 0.0018343 168.41 168.99 0.88489 1.5296 2.4059 968.29 -0.0036061 143.23 0.11261 7.0208 0.14243 515.61 560.65 2.3883 1.3600 1.6344 221.90 0.34688 7.0646 0.014376
-11.625 47.440 0.0011857 171.22 171.87 0.89584 543.89 0.0018386 170.81 171.41 0.89407 1.5328 2.4124 961.75 -0.0035413 141.76 0.11208 7.2490 0.13795 516.68 561.80 2.3868 1.3652 1.6421 221.91 0.34389 7.0917 0.014479
-10.625 49.051 0.0011915 173.62 174.29 0.90501 542.60 0.0018430 173.21 173.83 0.90324 1.5360 2.4189 955.20 -0.0034753 140.30 0.11154 7.4829 0.13364 517.75 562.94 2.3854 1.3704 1.6498 221.90 0.34097 7.1188 0.014584
-9.6250 50.703 0.0011959 176.02 176.72 0.91416 541.31 0.0018474 175.61 176.26 0.91240 1.5393 2.4255 948.65 -0.0034082 138.86 0.11101 7.7226 0.12949 518.81 564.08 2.3841 1.3757 1.6577 221.88 0.33810 7.1461 0.014689
-8.6250 52.396 0.0011987 178.44 179.16 0.92330 540.02 0.0018518 178.03 178.70 0.92154 1.5426 2.4321 942.10 -0.0033400 137.44 0.11048 7.9683 0.12550 519.88 565.21 2.3827 1.3809 1.6657 221.86 0.33529 7.1734 0.014795
-7.6250 54.131 0.0011998 180.86 181.60 0.93242 538.72 0.0018563 180.45 181.14 0.93068 1.5459 2.4389 935.55 -0.0032705 136.03 0.10995 8.2200 0.12165 520.94 566.35 2.3814 1.3862 1.6737 221.83 0.33254 7.2008 0.014902
-6.6250 55.909 0.0011992 183.28 184.05 0.94153 537.41 0.0018608 182.87 183.59 0.93980 1.5492 2.4457 928.99 -0.0031998 134.64 0.10942 8.4779 0.11795 522.01 567.48 2.3801 1.3915 1.6819 221.79 0.32984 7.2284 0.015009
-5.6250 57.730 0.0011967 185.71 186.50 0.95063 536.10 0.0018653 185.30 186.05 0.94892 1.5525 2.4526 922.43 -0.0031279 133.27 0.10889 8.7420 0.11439 523.07 568.60 2.3789 1.3969 1.6902 221.74 0.32720 7.2560 0.015117
-4.6250 59.595 0.0011922 188.14 188.97 0.95971 534.78 0.0018699 187.74 188.51 0.95802 1.5559 2.4596 915.87 -0.0030546 131.91 0.10837 9.0126 0.11096 524.13 569.72 2.3777 1.4022 1.6985 221.68 0.32461 7.2837 0.015226
-3.6250 61.505 0.0011857 190.58 191.43 0.96879 533.45 0.0018746 190.19 190.98 0.96711 1.5593 2.4667 909.30 -0.0029800 130.56 0.10785 9.2896 0.10765 525.19 570.84 2.3765 1.4076 1.7070 221.62 0.32207 7.3115 0.015336
-2.6250 63.461 0.0011769 193.03 193.91 0.97784 532.12 0.0018793 192.64 193.46 0.97620 1.5627 2.4739 902.73 -0.0029041 129.23 0.10733 9.5733 0.10446 526.25 571.96 2.3753 1.4131 1.7156 221.54 0.31958 7.3394 0.015447
-1.6250 65.462 0.0011657 195.48 196.39 0.98689 530.78 0.0018840 195.10 195.95 0.98527 1.5662 2.4811 896.16 -0.0028267 127.91 0.10681 9.8638 0.10138 527.31 573.07 2.3742 1.4185 1.7243 221.45 0.31715 7.3674 0.015559
-0.62500 67.510 0.0011520 197.94 198.87 0.99593 529.44 0.0018888 197.56 198.44 0.99434 1.5696 2.4885 889.58 -0.0027478 126.61 0.10629 10.161 0.098414 528.37 574.18 2.3731 1.4240 1.7331 221.36 0.31476 7.3956 0.015671
0.37500 69.606 0.0011357 200.40 201.36 1.0049 528.09 0.0018936 200.03 200.94 1.0034 1.5731 2.4960 883.00 -0.0026675 125.32 0.10578 10.466 0.095552 529.42 575.28 2.3720 1.4295 1.7421 221.26 0.31242 7.4239 0.015785
1.3750 71.749 0.0011166 202.87 203.86 1.0140 526.73 0.0018985 202.51 203.45 1.0124 1.5767 2.5035 876.42 -0.0025856 124.04 0.10527 10.777 0.092790 530.48 576.38 2.3709 1.4350 1.7512 221.14 0.31013 7.4523 0.015899
2.3750 73.941 0.0010946 205.35 206.37 1.0230 525.37 0.0019034 204.99 205.96 1.0215 1.5802 2.5112 869.83 -0.0025022 122.78 0.10476 11.096 0.090123 531.53 577.47 2.3699 1.4406 1.7604 221.02 0.30789 7.4808 0.016015
3.3750 76.183 0.0010694 207.83 208.88 1.0319 523.99 0.0019084 207.48 208.48 1.0305 1.5838 2.5190 863.24 -0.0024171 121.53 0.10425 11.422 0.087549 532.58 578.56 2.3688 1.4462 1.7697 220.89 0.30569 7.5095 0.016131
4.3750 78.475 0.0010409 210.32 211.40 1.0409 522.62 0.0019134 209.98 211.01 1.0395 1.5874 2.5268 856.64 -0.0023303 120.29 0.10374 11.756 0.085062 533.63 579.65 2.3678 1.4518 1.7792 220.75 0.30354 7.5384 0.016249
5.3750 80.817 0.0010090 212.81 213.92 1.0499 521.23 0.0019185 212.48 213.55 1.0486 1.5910 2.5348 850.04 -0.0022417 119.06 0.10324 12.098 0.082660 534.67 580.73 2.3669 1.4575 1.7888 220.60 0.30144 7.5674 0.016368
6.3750 83.211 0.00097335 215.31 216.45 1.0588 519.84 0.0019237 215.00 216.10 1.0576 1.5946 2.5429 843.43 -0.0021514 117.85 0.10273 12.447 0.080340 535.72 581.81 2.3659 1.4632 1.7986 220.44 0.29938 7.5966 0.016487
7.3750 85.657 0.00093389 217.81 218.99 1.0678 518.44 0.0019289 217.51 218.65 1.0666 1.5983 2.5511 836.82 -0.0020593 116.65 0.10223 12.805 0.078096 536.76 582.88 2.3650 1.4689 1.8085 220.27 0.29736 7.6259 0.016608
8.3750 88.156 0.00089036 220.32 221.54 1.0767 517.03 0.0019341 220.04 221.22 1.0756 1.6020 2.5595 830.20 -0.0019652 115.46 0.10173 13.170 0.075928 537.80 583.95 2.3640 1.4746 1.8186 220.08 0.29538 7.6555 0.016730
9.3750 90.708 0.00084256 222.84 224.09 1.0857 515.62 0.0019394 222.57 223.79 1.0846 1.6057 2.5679 823.58 -0.0018691 114.28 0.10124 13.545 0.073830 538.84 585.01 2.3631 1.4804 1.8288 219.89 0.29345 7.6852 0.016853
10.375 93.315 0.00079025 225.36 226.65 1.0946 514.19 0.0019448 225.11 226.37 1.0936 1.6095 2.5765 816.96 -0.0017710 113.11 0.10074 13.927 0.071802 539.87 586.07 2.3622 1.4863 1.8392 219.69 0.29156 7.7151 0.016978
11.375 95.977 0.00073319 227.89 229.22 1.1035 512.76 0.0019502 227.66 228.95 1.1025 1.6132 2.5852 810.32 -0.0016708 111.95 0.10025 14.319 0.069840 540.90 587.12 2.3614 1.4921 1.8498 219.48 0.28971 7.7452 0.017103
12.375 98.694 0.00067115 230.43 231.79 1.1124 511.32 0.0019557 230.22 231.55 1.1115 1.6170 2.5940 803.68 -0.0015685 110.80 0.099756 14.719 0.067941 541.93 588.17 2.3605 1.4980 1.8605 219.26 0.28790 7.7756 0.017230
13.375 101.47 0.00060386 232.97 234.37 1.1212 509.87 0.0019613 232.78 234.15 1.1205 1.6208 2.6030 797.04 -0.0014639 109.67 0.099267 15.128 0.066103 542.96 589.21 2.3597 1.5040 1.8715 219.03 0.28612 7.8061 0.017359
14.375 104.30 0.00053105 235.52 236.95 1.1301 508.42 0.0019669 235.35 236.77 1.1295 1.6247 2.6121 790.39 -0.0013569 108.54 0.098779 15.547 0.064323 543.99 590.24 2.3588 1.5099 1.8826 218.79 0.28439 7.8369 0.017488
15.375 107.19 0.00045243 238.07 239.55 1.1390 506.95 0.0019726 237.93 239.39 1.1384 1.6286 2.6214 783.73 -0.0012476 107.43 0.098294 15.974 0.062600 545.01 591.27 2.3580 1.5159 1.8940 218.53 0.28270 7.8680 0.017619
16.375 110.13 0.00036771 240.63 242.15 1.1478 505.48 0.0019783 240.52 242.02 1.1474 1.6324 2.6308 777.07 -0.0011357 106.32 0.097810 16.412 0.060931 546.03 592.29 2.3572 1.5220 1.9055 218.27 0.28104 7.8993 0.017752
17.375 113.14 0.00027656 243.20 244.76 1.1567 504.00 0.0019841 243.11 244.66 1.1564 1.6364 2.6403 770.40 -0.0010213 105.22 0.097328 16.859 0.059314 547.04 593.31 2.3564 1.5281 1.9172 217.99 0.27942 7.9308 0.017886
18.375 116.21 0.00017866 245.77 247.37 1.1655 502.50 0.0019900 245.72 247.31 1.1653 1.6403 2.6501 763.72 -0.00090422 104.14 0.096848 17.317 0.057747 548.05 594.32 2.3557 1.5342 1.9292 217.71 0.27783 7.9626 0.018021
19.375 119.33 7.3660e-05 248.35 249.99 1.1744 501.00 0.0019960 248.33 249.97 1.1743 1.6443 2.6599 757.04 -0.00078435 103.06 0.096371 17.785 0.056228 549.06 595.33 2.3549 1.5404 1.9414 217.41 0.27628 7.9947 0.018159
20.375 148.43 undefined 250.62 252.66 1.1821 500.00 0.0020000 250.62 252.66 1.1821 1.6482 2.6651 753.65 -0.00072802 102.35 0.096088 500.00 0.0020000 250.62 252.66 1.1821 1.6482 2.6651 753.65 -0.00072802 102.35 0.096088
21.375 228.44 undefined 252.27 255.42 1.1877 500.00 0.0020000 252.27 255.42 1.1877 1.6518 2.6607 756.71 -0.00079993 102.36 0.096186 500.00 0.0020000 252.27 255.42 1.1877 1.6518 2.6607 756.71 -0.00079993 102.36 0.096186
22.375 308.48 undefined 253.92 258.17 1.1933 500.00 0.0020000 253.92 258.17 1.1933 1.6555 2.6566 759.73 -0.00087005 102.36 0.096284 500.00 0.0020000 253.92 258.17 1.1933 1.6555 2.6566 759.73 -0.00087005 102.36 0.096284
23.375 388.53 undefined 255.58 260.94 1.1989 500.00 0.0020000 255.58 260.94 1.1989 1.6592 2.6526 762.72 -0.00093847 102.37 0.096383 500.00 0.0020000 255.58 260.94 1.1989 1.6592 2.6526 762.72 -0.00093847 102.37 0.096383
24.375 468.61 undefined 257.24 263.70 1.2045 500.00 0.0020000 257.24 263.70 1.2045 1.6630 2.6489 765.67 -0.0010052 102.38 0.096482 500.00 0.0020000 257.24 263.70 1.2045 1.6630 2.6489 765.67 -0.0010052 102.38 0.096482
25.375 548.70 undefined 258.90 266.47 1.2101 500.00 0.0020000 258.90 266.47 1.2101 1.6667 2.6453 768.59 -0.0010704 102.39 0.096582 500.00 0.0020000 258.90 266.47 1.2101 1.6667 2.6453 768.59 -0.0010704 102.39 0.096582
26.375 628.82 undefined 260.57 269.24 1.2157 500.00 0.0020000 260.57 269.24 1.2157 1.6705 2.6419 771.48 -0.0011341 102.39 0.096682 500.00 0.0020000 260.57 269.24 1.2157 1.6705 2.6419 771.48 -0.0011341 102.39 0.096682
27.375 708.94 undefined 262.25 272.02 1.2213 500.00 0.0020000 262.25 272.02 1.2213 1.6743 2.6387 774.33 -0.0011962 102.40 0.096782 500.00 0.0020000 262.25 272.02 1.2213 1.6743 2.6387 774.33 -0.0011962 102.40 0.096782
28.375 789.07 undefined 263.92 274.80 1.2268 500.00 0.0020000 263.92 274.80 1.2268 1.6781 2.6357 777.15 -0.0012570 102.41 0.096882 500.00 0.0020000 263.92 274.80 1.2268 1.6781 2.6357 777.15 -0.0012570 102.41 0.096882
29.375 869.22 undefined 265.60 277.59 1.2324 500.00 0.0020000 265.60 277.59 1.2324 1.6819 2.6328 779.94 -0.0013163 102.42 0.096983 500.00 0.0020000 265.60 277.59 1.2324 1.6819 2.6328 779.94 -0.0013163 102.42 0.096983
30.375 949.37 undefined 267.29 280.38 1.2380 500.00 0.0020000 267.29 280.38 1.2380 1.6858 2.6301 782.70 -0.0013743 102.42 0.097084 500.00 0.0020000 267.29 280.38 1.2380 1.6858 2.6301 782.70 -0.0013743 102.42 0.097084
31.375 1029.5 undefined 268.97 283.17 1.2435 500.00 0.0020000 268.97 283.17 1.2435 1.6896 2.6275 785.43 -0.0014311 102.43 0.097186 500.00 0.0020000 268.97 283.17 1.2435 1.6896 2.6275 785.43 -0.0014311 102.43 0.097186
32.375 1109.7 undefined 270.66 285.97 1.2490 500.00 0.0020000 270.66 285.97 1.2490 1.6935 2.6251 788.13 -0.0014866 102.44 0.097288 500.00 0.0020000 270.66 285.97 1.2490 1.6935 2.6251 788.13 -0.0014866 102.44 0.097288
33.375 1189.8 undefined 272.36 288.77 1.2546 500.00 0.0020000 272.36 288.77 1.2546 1.6974 2.6228 790.81 -0.0015408 102.45 0.097390 500.00 0.0020000 272.36 288.77 1.2546 1.6974 2.6228 790.81 -0.0015408 102.45 0.097390
34.375 1270.0 undefined 274.06 291.57 1.2601 500.00 0.0020000 274.06 291.57 1.2601 1.7013 2.6207 793.45 -0.0015939 102.46 0.097492 500.00 0.0020000 274.06 291.57 1.2601 1.7013 2.6207 793.45 -0.0015939 102.46 0.097492
35.375 1350.2 undefined 275.76 294.38 1.2657 500.00 0.0020000 275.76 294.38 1.2657 1.7052 2.6186 796.07 -0.0016459 102.47 0.097595 500.00 0.0020000 275.76 294.38 1.2657 1.7052 2.6186 796.07 -0.0016459 102.47 0.097595
36.375 1430.3 undefined 277.47 297.19 1.2712 500.00 0.0020000 277.47 297.19 1.2712 1.7092 2.6167 798.66 -0.0016968 102.47 0.097698 500.00 0.0020000 277.47 297.19 1.2712 1.7092 2.6167 798.66 -0.0016968 102.47 0.097698
37.375 1510.5 undefined 279.18 300.01 1.2767 500.00 0.0020000 279.18 300.01 1.2767 1.7131 2.6150 801.23 -0.0017465 102.48 0.097802 500.00 0.0020000 279.18 300.01 1.2767 1.7131 2.6150 801.23 -0.0017465 102.48 0.097802
38.375 1590.6 undefined 280.90 302.83 1.2822 500.00 0.0020000 280.90 302.83 1.2822 1.7171 2.6133 803.78 -0.0017953 102.49 0.097905 500.00 0.0020000 280.90 302.83 1.2822 1.7171 2.6133 803.78 -0.0017953 102.49 0.097905
39.375 1670.7 undefined 282.62 305.65 1.2877 500.00 0.0020000 282.62 305.65 1.2877 1.7211 2.6118 806.30 -0.0018430 102.50 0.098010 500.00 0.0020000 282.62 305.65 1.2877 1.7211 2.6118 806.30 -0.0018430 102.50 0.098010
40.375 1750.9 undefined 284.34 308.48 1.2932 500.00 0.0020000 284.34 308.48 1.2932 1.7251 2.6104 808.79 -0.0018898 102.51 0.098114 500.00 0.0020000 284.34 308.48 1.2932 1.7251 2.6104 808.79 -0.0018898 102.51 0.098114
41.375 1831.0 undefined 286.07 311.31 1.2987 500.00 0.0020000 286.07 311.31 1.2987 1.7291 2.6090 811.27 -0.0019356 102.52 0.098219 500.00 0.0020000 286.07 311.31 1.2987 1.7291 2.6090 811.27 -0.0019356 102.52 0.098219
42.375 1911.1 undefined 287.80 314.15 1.3042 500.00 0.0020000 287.80 314.15 1.3042 1.7332 2.6078 813.72 -0.0019805 102.53 0.098324 500.00 0.0020000 287.80 314.15 1.3042 1.7332 2.6078 813.72 -0.0019805 102.53 0.098324
43.375 1991.2 undefined 289.53 316.99 1.3097 500.00 0.0020000 289.53 316.99 1.3097 1.7372 2.6067 816.15 -0.0020245 102.54 0.098429 500.00 0.0020000 289.53 316.99 1.3097 1.7372 2.6067 816.15 -0.0020245 102.54 0.098429
44.375 2071.2 undefined 291.27 319.83 1.3152 500.00 0.0020000 291.27 319.83 1.3152 1.7413 2.6057 818.56 -0.0020676 102.55 0.098535 500.00 0.0020000 291.27 319.83 1.3152 1.7413 2.6057 818.56 -0.0020676 102.55 0.098535
45.375 2151.3 undefined 293.01 322.68 1.3207 500.00 0.0020000 293.01 322.68 1.3207 1.7454 2.6048 820.95 -0.0021098 102.55 0.098641 500.00 0.0020000 293.01 322.68 1.3207 1.7454 2.6048 820.95 -0.0021098 102.55 0.098641
46.375 2231.3 undefined 294.76 325.53 1.3262 500.00 0.0020000 294.76 325.53 1.3262 1.7495 2.6040 823.32 -0.0021512 102.56 0.098747 500.00 0.0020000 294.76 325.53 1.3262 1.7495 2.6040 823.32 -0.0021512 102.56 0.098747
47.375 2311.4 undefined 296.51 328.39 1.3316 500.00 0.0020000 296.51 328.39 1.3316 1.7536 2.6033 825.66 -0.0021918 102.57 0.098854 500.00 0.0020000 296.51 328.39 1.3316 1.7536 2.6033 825.66 -0.0021918 102.57 0.098854
48.375 2391.4 undefined 298.27 331.24 1.3371 500.00 0.0020000 298.27 331.24 1.3371 1.7577 2.6026 828.00 -0.0022316 102.58 0.098961 500.00 0.0020000 298.27 331.24 1.3371 1.7577 2.6026 828.00 -0.0022316 102.58 0.098961
49.375 2471.4 undefined 300.03 334.11 1.3426 500.00 0.0020000 300.03 334.11 1.3426 1.7618 2.6021 830.31 -0.0022706 102.59 0.099068 500.00 0.0020000 300.03 334.11 1.3426 1.7618 2.6021 830.31 -0.0022706 102.59 0.099068
50.375 2551.3 undefined 301.79 336.97 1.3480 500.00 0.0020000 301.79 336.97 1.3480 1.7659 2.6016 832.60 -0.0023089 102.60 0.099175 500.00 0.0020000 301.79 336.97 1.3480 1.7659 2.6016 832.60 -0.0023089 102.60 0.099175
51.375 2631.3 undefined 303.56 339.84 1.3535 500.00 0.0020000 303.56 339.84 1.3535 1.7701 2.6012 834.88 -0.0023464 102.61 0.099283 500.00 0.0020000 303.56 339.84 1.3535 1.7701 2.6012 834.88 -0.0023464 102.61 0.099283
52.375 2711.2 undefined 305.33 342.72 1.3589 500.00 0.0020000 305.33 342.72 1.3589 1.7742 2.6009 837.14 -0.0023832 102.62 0.099392 500.00 0.0020000 305.33 342.72 1.3589 1.7742 2.6009 837.14 -0.0023832 102.62 0.099392
53.375 2791.1 undefined 307.11 345.60 1.3644 500.00 0.0020000 307.11 345.60 1.3644 1.7784 2.6007 839.38 -0.0024193 102.63 0.099500 500.00 0.0020000 307.11 345.60 1.3644 1.7784 2.6007 839.38 -0.0024193 102.63 0.099500
54.375 2870.9 undefined 308.89 348.48 1.3698 500.00 0.0020000 308.89 348.48 1.3698 1.7826 2.6005 841.61 -0.0024547 102.64 0.099609 500.00 0.0020000 308.89 348.48 1.3698 1.7826 2.6005 841.61 -0.0024547 102.64 0.099609
55.375 2950.8 undefined 310.67 351.36 1.3753 500.00 0.0020000 310.67 351.36 1.3753 1.7868 2.6005 843.82 -0.0024895 102.65 0.099718 500.00 0.0020000 310.67 351.36 1.3753 1.7868 2.6005 843.82 -0.0024895 102.65 0.099718
56.375 3030.6 undefined 312.46 354.25 1.3807 500.00 0.0020000 312.46 354.25 1.3807 1.7910 2.6005 846.02 -0.0025236 102.66 0.099827 500.00 0.0020000 312.46 354.25 1.3807 1.7910 2.6005 846.02 -0.0025236 102.66 0.099827
57.375 3110.4 undefined 314.26 357.15 1.3861 500.00 0.0020000 314.26 357.15 1.3861 1.7952 2.6005 848.20 -0.0025570 102.67 0.099937 500.00 0.0020000 314.26 357.15 1.3861 1.7952 2.6005 848.20 -0.0025570 102.67 0.099937
58.375 3190.1 undefined 316.05 360.04 1.3916 500.00 0.0020000 316.05 360.04 1.3916 1.7994 2.6006 850.37 -0.0025899 102.68 0.10005 500.00 0.0020000 316.05 360.04 1.3916 1.7994 2.6006 850.37 -0.0025899 102.68 0.10005
59.375 3269.9 undefined 317.85 362.94 1.3970 500.00 0.0020000 317.85 362.94 1.3970 1.8036 2.6008 852.52 -0.0026221 102.69 0.10016 500.00 0.0020000 317.85 362.94 1.3970 1.8036 2.6008 852.52 -0.0026221 102.69 0.10016
60.375 3349.6 undefined 319.66 365.85 1.4024 500.00 0.0020000 319.66 365.85 1.4024 1.8078 2.6011 854.66 -0.0026537 102.70 0.10027 500.00 0.0020000 319.66 365.85 1.4024 1.8078 2.6011 854.66 -0.0026537 102.70 0.10027
61.375 3429.2 undefined 321.47 368.76 1.4078 500.00 0.0020000 321.47 368.76 1.4078 1.8121 2.6014 856.78 -0.0026847 102.72 0.10038 500.00 0.0020000 321.47 368.76 1.4078 1.8121 2.6014 856.78 -0.0026847 102.72 0.10038
62.375 3508.9 undefined 323.28 371.67 1.4132 500.00 0.0020000 323.28 371.67 1.4132 1.8163 2.6018 858.89 -0.0027152 102.73 0.10049 500.00 0.0020000 323.28 371.67 1.4132 1.8163 2.6018 858.89 -0.0027152 102.73 0.10049
63.375 3588.5 undefined 325.10 374.59 1.4187 500.00 0.0020000 325.10 374.59 1.4187 1.8206 2.6023 860.99 -0.0027451 102.74 0.10060 500.00 0.0020000 325.10 374.59 1.4187 1.8206 2.6023 860.99 -0.0027451 102.74 0.10060
64.375 3668.1 undefined 326.93 377.51 1.4241 500.00 0.0020000 326.93 377.51 1.4241 1.8248 2.6028 863.08 -0.0027744 102.75 0.10071 500.00 0.0020000 326.93 377.51 1.4241 1.8248 2.6028 863.08 -0.0027744 102.75 0.10071
65.375 3747.6 undefined 328.75 380.43 1.4295 500.00 0.0020000 328.75 380.43 1.4295 1.8291 2.6033 865.15 -0.0028032 102.76 0.10083 500.00 0.0020000 328.75 380.43 1.4295 1.8291 2.6033 865.15 -0.0028032 102.76 0.10083
66.375 3827.1 undefined 330.58 383.36 1.4349 500.00 0.0020000 330.58 383.36 1.4349 1.8333 2.6040 867.21 -0.0028315 102.77 0.10094 500.00 0.0020000 330.58 383.36 1.4349 1.8333 2.6040 867.21 -0.0028315 102.77 0.10094
67.375 3906.6 undefined 332.42 386.29 1.4403 500.00 0.0020000 332.42 386.29 1.4403 1.8376 2.6046 869.26 -0.0028592 102.78 0.10105 500.00 0.0020000 332.42 386.29 1.4403 1.8376 2.6046 869.26 -0.0028592 102.78 0.10105
68.375 3986.1 undefined 334.26 389.23 1.4457 500.00 0.0020000 334.26 389.23 1.4457 1.8419 2.6054 871.29 -0.0028865 102.79 0.10116 500.00 0.0020000 334.26 389.23 1.4457 1.8419 2.6054 871.29 -0.0028865 102.79 0.10116
69.375 4065.5 undefined 336.10 392.16 1.4511 500.00 0.0020000 336.10 392.16 1.4511 1.8462 2.6061 873.32 -0.0029132 102.80 0.10128 500.00 0.0020000 336.10 392.16 1.4511 1.8462 2.6061 873.32 -0.0029132 102.80 0.10128
70.375 4144.9 undefined 337.95 395.11 1.4564 500.00 0.0020000 337.95 395.11 1.4564 1.8505 2.6070 875.33 -0.0029395 102.81 0.10139 500.00 0.0020000 337.95 395.11 1.4564 1.8505 2.6070 875.33 -0.0029395 102.81 0.10139
71.375 4224.2 undefined 339.80 398.05 1.4618 500.00 0.0020000 339.80 398.05 1.4618 1.8547 2.6078 877.33 -0.0029653 102.83 0.10151 500.00 0.0020000 339.80 398.05 1.4618 1.8547 2.6078 877.33 -0.0029653 102.83 0.10151
72.375 4303.5 undefined 341.66 401.00 1.4672 500.00 0.0020000 341.66 401.00 1.4672 1.8590 2.6088 879.33 -0.0029906 102.84 0.10162 500.00 0.0020000 341.66 401.00 1.4672 1.8590 2.6088 879.33 -0.0029906 102.84 0.10162
73.375 4382.8 undefined 343.52 403.96 1.4726 500.00 0.0020000 343.52 403.96 1.4726 1.8633 2.6098 881.31 -0.0030154 102.85 0.10173 500.00 0.0020000 343.52 403.96 1.4726 1.8633 2.6098 881.31 -0.0030154 102.85 0.10173
74.375 4462.0 undefined 345.39 406.92 1.4780 500.00 0.0020000 345.39 406.92 1.4780 1.8676 2.6108 883.28 -0.0030399 102.86 0.10185 500.00 0.0020000 345.39 406.92 1.4780 1.8676 2.6108 883.28 -0.0030399 102.86 0.10185
75.375 4541.2 undefined 347.26 409.88 1.4833 500.00 0.0020000 347.26 409.88 1.4833 1.8719 2.6118 885.24 -0.0030638 102.87 0.10196 500.00 0.0020000 347.26 409.88 1.4833 1.8719 2.6118 885.24 -0.0030638 102.87 0.10196
76.375 4620.4 undefined 349.13 412.84 1.4887 500.00 0.0020000 349.13 412.84 1.4887 1.8762 2.6130 887.19 -0.0030874 102.88 0.10208 500.00 0.0020000 349.13 412.84 1.4887 1.8762 2.6130 887.19 -0.0030874 102.88 0.10208
77.375 4699.6 undefined 351.01 415.81 1.4941 500.00 0.0020000 351.01 415.81 1.4941 1.8805 2.6141 889.13 -0.0031105 102.90 0.10220 500.00 0.0020000 351.01 415.81 1.4941 1.8805 2.6141 889.13 -0.0031105 102.90 0.10220
78.375 4778.6 undefined 352.89 418.79 1.4994 500.00 0.0020000 352.89 418.79 1.4994 1.8849 2.6153 891.06 -0.0031332 102.91 0.10231 500.00 0.0020000 352.89 418.79 1.4994 1.8849 2.6153 891.06 -0.0031332 102.91 0.10231
79.375 4857.7 undefined 354.78 421.76 1.5048 500.00 0.0020000 354.78 421.76 1.5048 1.8892 2.6165 892.98 -0.0031555 102.92 0.10243 500.00 0.0020000 354.78 421.76 1.5048 1.8892 2.6165 892.98 -0.0031555 102.92 0.10243
80.375 4936.7 undefined 356.67 424.75 1.5102 500.00 0.0020000 356.67 424.75 1.5102 1.8935 2.6178 894.89 -0.0031774 102.93 0.10254 500.00 0.0020000 356.67 424.75 1.5102 1.8935 2.6178 894.89 -0.0031774 102.93 0.10254
81.375 5015.7 undefined 358.57 427.73 1.5155 500.00 0.0020000 358.57 427.73 1.5155 1.8978 2.6191 896.79 -0.0031989 102.94 0.10266 500.00 0.0020000 358.57 427.73 1.5155 1.8978 2.6191 896.79 -0.0031989 102.94 0.10266
82.375 5094.7 undefined 360.47 430.72 1.5209 500.00 0.0020000 360.47 430.72 1.5209 1.9021 2.6205 898.69 -0.0032201 102.96 0.10278 500.00 0.0020000 360.47 430.72 1.5209 1.9021 2.6205 898.69 -0.0032201 102.96 0.10278
83.375 5173.6 undefined 362.37 433.71 1.5262 500.00 0.0020000 362.37 433.71 1.5262 1.9064 2.6219 900.57 -0.0032408 102.97 0.10290 500.00 0.0020000 362.37 433.71 1.5262 1.9064 2.6219 900.57 -0.0032408 102.97 0.10290
84.375 5252.4 undefined 364.28 436.71 1.5316 500.00 0.0020000 364.28 436.71 1.5316 1.9108 2.6233 902.44 -0.0032612 102.98 0.10301 500.00 0.0020000 364.28 436.71 1.5316 1.9108 2.6233 902.44 -0.0032612 102.98 0.10301
85.375 5331.3 undefined 366.19 439.71 1.5369 500.00 0.0020000 366.19 439.71 1.5369 1.9151 2.6248 904.31 -0.0032812 102.99 0.10313 500.00 0.0020000 366.19 439.71 1.5369 1.9151 2.6248 904.31 -0.0032812 102.99 0.10313
86.375 5410.1 undefined 368.11 442.71 1.5422 500.00 0.0020000 368.11 442.71 1.5422 1.9194 2.6263 906.17 -0.0033009 103.00 0.10325 500.00 0.0020000 368.11 442.71 1.5422 1.9194 2.6263 906.17 -0.0033009 103.00 0.10325
87.375 5488.8 undefined 370.03 445.72 1.5476 500.00 0.0020000 370.03 445.72 1.5476 1.9237 2.6278 908.02 -0.0033202 103.02 0.10337 500.00 0.0020000 370.03 445.72 1.5476 1.9237 2.6278 908.02 -0.0033202 103.02 0.10337
88.375 5567.5 undefined 371.96 448.73 1.5529 500.00 0.0020000 371.96 448.73 1.5529 1.9281 2.6294 909.86 -0.0033392 103.03 0.10349 500.00 0.0020000 371.96 448.73 1.5529 1.9281 2.6294 909.86 -0.0033392 103.03 0.10349
89.375 5646.2 undefined 373.89 451.75 1.5582 500.00 0.0020000 373.89 451.75 1.5582 1.9324 2.6310 911.69 -0.0033578 103.04 0.10361 500.00 0.0020000 373.89 451.75 1.5582 1.9324 2.6310 911.69 -0.0033578 103.04 0.10361
90.375 5724.8 undefined 375.82 454.76 1.5636 500.00 0.0020000 375.82 454.76 1.5636 1.9367 2.6326 913.52 -0.0033761 103.05 0.10373 500.00 0.0020000 375.82 454.76 1.5636 1.9367 2.6326 913.52 -0.0033761 103.05 0.10373
91.375 5803.4 undefined 377.76 457.79 1.5689 500.00 0.0020000 377.76 457.79 1.5689 1.9410 2.6343 915.34 -0.0033941 103.07 0.10385 500.00 0.0020000 377.76 457.79 1.5689 1.9410 2.6343 915.34 -0.0033941 103.07 0.10385
92.375 5882.0 undefined 379.70 460.81 1.5742 500.00 0.0020000 379.70 460.81 1.5742 1.9454 2.6360 917.15 -0.0034118 103.08 0.10397 500.00 0.0020000 379.70 460.81 1.5742 1.9454 2.6360 917.15 -0.0034118 103.08 0.10397
93.375 5960.5 undefined 381.65 463.84 1.5795 500.00 0.0020000 381.65 463.84 1.5795 1.9497 2.6377 918.95 -0.0034291 103.09 0.10409 500.00 0.0020000 381.65 463.84 1.5795 1.9497 2.6377 918.95 -0.0034291 103.09 0.10409
94.375 6039.0 undefined 383.60 466.88 1.5849 500.00 0.0020000 383.60 466.88 1.5849 1.9540 2.6394 920.74 -0.0034462 103.11 0.10421 500.00 0.0020000 383.60 466.88 1.5849 1.9540 2.6394 920.74 -0.0034462 103.11 0.10421
95.375 6117.4 undefined 385.56 469.92 1.5902 500.00 0.0020000 385.56 469.92 1.5902 1.9583 2.6412 922.53 -0.0034629 103.12 0.10433 500.00 0.0020000 385.56 469.92 1.5902 1.9583 2.6412 922.53 -0.0034629 103.12 0.10433
96.375 6195.8 undefined 387.52 472.96 1.5955 500.00 0.0020000 387.52 472.96 1.5955 1.9627 2.6430 924.31 -0.0034794 103.13 0.10445 500.00 0.0020000 387.52 472.96 1.5955 1.9627 2.6430 924.31 -0.0034794 103.13 0.10445
97.375 6274.2 undefined 389.48 476.00 1.6008 500.00 0.0020000 389.48 476.00 1.6008 1.9670 2.6449 926.08 -0.0034956 103.14 0.10457 500.00 0.0020000 389.48 476.00 1.6008 1.9670 2.6449 926.08 -0.0034956 103.14 0.10457
98.375 6352.5 undefined 391.45 479.05 1.6061 500.00 0.0020000 391.45 479.05 1.6061 1.9713 2.6467 927.84 -0.0035114 103.16 0.10470 500.00 0.0020000 391.45 479.05 1.6061 1.9713 2.6467 927.84 -0.0035114 103.16 0.10470
99.375 6430.8 undefined 393.43 482.10 1.6114 500.00 0.0020000 393.43 482.10 1.6114 1.9756 2.6486 929.60 -0.0035270 103.17 0.10482 500.00 0.0020000 393.43 482.10 1.6114 1.9756 2.6486 929.60 -0.0035270 103.17 0.10482
100.38 6509.0 undefined 395.41 485.16 1.6167 500.00 0.0020000 395.41 485.16 1.6167 1.9800 2.6505 931.35 -0.0035424 103.18 0.10494 500.00 0.0020000 395.41 485.16 1.6167 1.9800 2.6505 931.35 -0.0035424 103.18 0.10494
101.38 6587.2 undefined 397.39 488.22 1.6220 500.00 0.0020000 397.39 488.22 1.6220 1.9843 2.6525 933.10 -0.0035574 103.20 0.10506 500.00 0.0020000 397.39 488.22 1.6220 1.9843 2.6525 933.10 -0.0035574 103.20 0.10506
102.38 6665.3 undefined 399.37 491.29 1.6273 500.00 0.0020000 399.37 491.29 1.6273 1.9886 2.6544 934.83 -0.0035722 103.21 0.10519 500.00 0.0020000 399.37 491.29 1.6273 1.9886 2.6544 934.83 -0.0035722 103.21 0.10519
103.38 6743.5 undefined 401.36 494.35 1.6326 500.00 0.0020000 401.36 494.35 1.6326 1.9929 2.6564 936.56 -0.0035868 103.22 0.10531 500.00 0.0020000 401.36 494.35 1.6326 1.9929 2.6564 936.56 -0.0035868 103.22 0.10531
104.38 6821.5 undefined 403.36 497.43 1.6379 500.00 0.0020000 403.36 497.43 1.6379 1.9972 2.6584 938.29 -0.0036010 103.24 0.10543 500.00 0.0020000 403.36 497.43 1.6379 1.9972 2.6584 938.29 -0.0036010 103.24 0.10543
105.38 6899.6 undefined 405.36 500.50 1.6432 500.00 0.0020000 405.36 500.50 1.6432 2.0015 2.6604 940.00 -0.0036151 103.25 0.10556 500.00 0.0020000 405.36 500.50 1.6432 2.0015 2.6604 940.00 -0.0036151 103.25 0.10556
106.38 6977.5 undefined 407.36 503.58 1.6485 500.00 0.0020000 407.36 503.58 1.6485 2.0059 2.6625 941.72 -0.0036289 103.26 0.10568 500.00 0.0020000 407.36 503.58 1.6485 2.0059 2.6625 941.72 -0.0036289 103.26 0.10568
107.38 7055.5 undefined 409.37 506.66 1.6538 500.00 0.0020000 409.37 506.66 1.6538 2.0102 2.6646 943.42 -0.0036424 103.28 0.10581 500.00 0.0020000 409.37 506.66 1.6538 2.0102 2.6646 943.42 -0.0036424 103.28 0.10581
108.38 7133.4 undefined 411.38 509.75 1.6590 500.00 0.0020000 411.38 509.75 1.6590 2.0145 2.6667 945.12 -0.0036557 103.29 0.10593 500.00 0.0020000 411.38 509.75 1.6590 2.0145 2.6667 945.12 -0.0036557 103.29 0.10593
109.38 7211.3 undefined 413.40 512.84 1.6643 500.00 0.0020000 413.40 512.84 1.6643 2.0188 2.6688 946.81 -0.0036688 103.31 0.10606 500.00 0.0020000 413.40 512.84 1.6643 2.0188 2.6688 946.81 -0.0036688 103.31 0.10606
110.38 7289.1 undefined 415.42 515.93 1.6696 500.00 0.0020000 415.42 515.93 1.6696 2.0231 2.6709 948.49 -0.0036816 103.32 0.10618 500.00 0.0020000 415.42 515.93 1.6696 2.0231 2.6709 948.49 -0.0036816 103.32 0.10618
111.38 7366.9 undefined 417.45 519.03 1.6749 500.00 0.0020000 417.45 519.03 1.6749 2.0274 2.6731 950.17 -0.0036942 103.33 0.10631 500.00 0.0020000 417.45 519.03 1.6749 2.0274 2.6731 950.17 -0.0036942 103.33 0.10631
112.38 7444.6 undefined 419.48 522.13 1.6801 500.00 0.0020000 419.48 522.13 1.6801 2.0317 2.6753 951.85 -0.0037066 103.35 0.10644 500.00 0.0020000 419.48 522.13 1.6801 2.0317 2.6753 951.85 -0.0037066 103.35 0.10644
113.38 7522.3 undefined 421.51 525.24 1.6854 500.00 0.0020000 421.51 525.24 1.6854 2.0360 2.6775 953.51 -0.0037188 103.36 0.10656 500.00 0.0020000 421.51 525.24 1.6854 2.0360 2.6775 953.51 -0.0037188 103.36 0.10656
114.38 7600.0 undefined 423.55 528.35 1.6907 500.00 0.0020000 423.55 528.35 1.6907 2.0403 2.6797 955.17 -0.0037308 103.37 0.10669 500.00 0.0020000 423.55 528.35 1.6907 2.0403 2.6797 955.17 -0.0037308 103.37 0.10669
115.38 7677.6 undefined 425.59 531.46 1.6959 500.00 0.0020000 425.59 531.46 1.6959 2.0446 2.6819 956.83 -0.0037425 103.39 0.10682 500.00 0.0020000 425.59 531.46 1.6959 2.0446 2.6819 956.83 -0.0037425 103.39 0.10682
116.38 7755.2 undefined 427.64 534.58 1.7012 500.00 0.0020000 427.64 534.58 1.7012 2.0489 2.6842 958.48 -0.0037541 103.40 0.10694 500.00 0.0020000 427.64 534.58 1.7012 2.0489 2.6842 958.48 -0.0037541 103.40 0.10694
117.38 7832.7 undefined 429.69 537.70 1.7065 500.00 0.0020000 429.69 537.70 1.7065 2.0532 2.6864 960.12 -0.0037654 103.42 0.10707 500.00 0.0020000 429.69 537.70 1.7065 2.0532 2.6864 960.12 -0.0037654 103.42 0.10707
118.38 7910.2 undefined 431.74 540.82 1.7117 500.00 0.0020000 431.74 540.82 1.7117 2.0575 2.6887 961.76 -0.0037766 103.43 0.10720 500.00 0.0020000 431.74 540.82 1.7117 2.0575 2.6887 961.76 -0.0037766 103.43 0.10720
119.38 7987.6 undefined 433.80 543.95 1.7170 500.00 0.0020000 433.80 543.95 1.7170 2.0618 2.6910 963.39 -0.0037875 103.44 0.10733 500.00 0.0020000 433.80 543.95 1.7170 2.0618 2.6910 963.39 -0.0037875 103.44 0.10733
120.38 8065.0 undefined 435.87 547.08 1.7222 500.00 0.0020000 435.87 547.08 1.7222 2.0660 2.6933 965.02 -0.0037983 103.46 0.10746 500.00 0.0020000 435.87 547.08 1.7222 2.0660 2.6933 965.02 -0.0037983 103.46 0.10746
121.38 8142.4 undefined 437.93 550.21 1.7275 500.00 0.0020000 437.93 550.21 1.7275 2.0703 2.6957 966.64 -0.0038088 103.47 0.10759 500.00 0.0020000 437.93 550.21 1.7275 2.0703 2.6957 966.64 -0.0038088 103.47 0.10759
122.38 8219.7 undefined 440.01 553.35 1.7327 500.00 0.0020000 440.01 553.35 1.7327 2.0746 2.6980 968.25 -0.0038192 103.49 0.10772 500.00 0.0020000 440.01 553.35 1.7327 2.0746 2.6980 968.25 -0.0038192 103.49 0.10772
123.38 8297.0 undefined 442.08 556.50 1.7380 500.00 0.0020000 442.08 556.50 1.7380 2.0789 2.7004 969.86 -0.0038294 103.50 0.10785 500.00 0.0020000 442.08 556.50 1.7380 2.0789 2.7004 969.86 -0.0038294 103.50 0.10785
124.38 8374.2 undefined 444.16 559.64 1.7432 500.00 0.0020000 444.16 559.64 1.7432 2.0831 2.7028 971.47 -0.0038394 103.52 0.10798 500.00 0.0020000 444.16 559.64 1.7432 2.0831 2.7028 971.47 -0.0038394 103.52 0.10798
125.38 8451.4 undefined 446.25 562.79 1.7484 500.00 0.0020000 446.25 562.79 1.7484 2.0874 2.7052 973.07 -0.0038493 103.53 0.10811 500.00 0.0020000 446.25 562.79 1.7484 2.0874 2.7052 973.07 -0.0038493 103.53 0.10811
126.38 8528.6 undefined 448.34 565.94 1.7537 500.00 0.0020000 448.34 565.94 1.7537 2.0917 2.7076 974.66 -0.0038589 103.54 0.10825 500.00 0.0020000 448.34 565.94 1.7537 2.0917 2.7076 974.66 -0.0038589 103.54 0.10825
127.38 8605.7 undefined 450.43 569.10 1.7589 500.00 0.0020000 450.43 569.10 1.7589 2.0959 2.7100 976.25 -0.0038684 103.56 0.10838 500.00 0.0020000 450.43 569.10 1.7589 2.0959 2.7100 976.25 -0.0038684 103.56 0.10838
128.38 8682.8 undefined 452.53 572.26 1.7641 500.00 0.0020000 452.53 572.26 1.7641 2.1002 2.7124 977.83 -0.0038778 103.57 0.10851 500.00 0.0020000 452.53 572.26 1.7641 2.1002 2.7124 977.83 -0.0038778 103.57 0.10851
129.38 8759.8 undefined 454.63 575.43 1.7694 500.00 0.0020000 454.63 575.43 1.7694 2.1044 2.7149 979.41 -0.0038869 103.59 0.10864 500.00 0.0020000 454.63 575.43 1.7694 2.1044 2.7149 979.41 -0.0038869 103.59 0.10864
130.38 8836.8 undefined 456.74 578.60 1.7746 500.00 0.0020000 456.74 578.60 1.7746 2.1087 2.7174 980.99 -0.0038959 103.60 0.10878 500.00 0.0020000 456.74 578.60 1.7746 2.1087 2.7174 980.99 -0.0038959 103.60 0.10878
131.38 8913.7 undefined 458.85 581.77 1.7798 500.00 0.0020000 458.85 581.77 1.7798 2.1130 2.7198 982.55 -0.0039048 103.62 0.10891 500.00 0.0020000 458.85 581.77 1.7798 2.1130 2.7198 982.55 -0.0039048 103.62 0.10891
132.38 8990.6 undefined 460.97 584.94 1.7850 500.00 0.0020000 460.97 584.94 1.7850 2.1172 2.7223 984.12 -0.0039134 103.63 0.10904 500.00 0.0020000 460.97 584.94 1.7850 2.1172 2.7223 984.12 -0.0039134 103.63 0.10904
133.38 9067.5 undefined 463.09 588.12 1.7903 500.00 0.0020000 463.09 588.12 1.7903 2.1214 2.7248 985.68 -0.0039220 103.65 0.10918 500.00 0.0020000 463.09 588.12 1.7903 2.1214 2.7248 985.68 -0.0039220 103.65 0.10918
134.38 9144.3 undefined 465.21 591.30 1.7955 500.00 0.0020000 465.21 591.30 1.7955 2.1257 2.7273 987.23 -0.0039304 103.66 0.10931 500.00 0.0020000 465.21 591.30 1.7955 2.1257 2.7273 987.23 -0.0039304 103.66 0.10931
135.38 9221.1 undefined 467.34 594.49 1.8007 500.00 0.0020000 467.34 594.49 1.8007 2.1299 2.7299 988.78 -0.0039386 103.68 0.10945 500.00 0.0020000 467.34 594.49 1.8007 2.1299 2.7299 988.78 -0.0039386 103.68 0.10945
136.38 9297.8 undefined 469.47 597.68 1.8059 500.00 0.0020000 469.47 597.68 1.8059 2.1341 2.7324 990.32 -0.0039467 103.69 0.10958 500.00 0.0020000 469.47 597.68 1.8059 2.1341 2.7324 990.32 -0.0039467 103.69 0.10958
137.38 9374.5 undefined 471.61 600.88 1.8111 500.00 0.0020000 471.61 600.88 1.8111 2.1384 2.7349 991.86 -0.0039546 103.71 0.10971 500.00 0.0020000 471.61 600.88 1.8111 2.1384 2.7349 991.86 -0.0039546 103.71 0.10971
138.38 9451.2 undefined 473.75 604.07 1.8163 500.00 0.0020000 473.75 604.07 1.8163 2.1426 2.7375 993.40 -0.0039624 103.72 0.10985 500.00 0.0020000 473.75 604.07 1.8163 2.1426 2.7375 993.40 -0.0039624 103.72 0.10985
139.38 9527.8 undefined 475.89 607.27 1.8215 500.00 0.0020000 475.89 607.27 1.8215 2.1468 2.7401 994.93 -0.0039701 103.74 0.10999 500.00 0.0020000 475.89 607.27 1.8215 2.1468 2.7401 994.93 -0.0039701 103.74 0.10999
140.38 9604.3 undefined 478.04 610.48 1.8267 500.00 0.0020000 478.04 610.48 1.8267 2.1510 2.7426 996.45 -0.0039776 103.75 0.11012 500.00 0.0020000 478.04 610.48 1.8267 2.1510 2.7426 996.45 -0.0039776 103.75 0.11012
141.38 9680.9 undefined 480.19 613.69 1.8319 500.00 0.0020000 480.19 613.69 1.8319 2.1553 2.7452 997.97 -0.0039850 103.77 0.11026 500.00 0.0020000 480.19 613.69 1.8319 2.1553 2.7452 997.97 -0.0039850 103.77 0.11026
142.38 9757.4 undefined 482.35 616.90 1.8371 500.00 0.0020000 482.35 616.90 1.8371 2.1595 2.7478 999.49 -0.0039922 103.78 0.11039 500.00 0.0020000 482.35 616.90 1.8371 2.1595 2.7478 999.49 -0.0039922 103.78 0.11039
143.38 9833.8 undefined 484.51 620.11 1.8423 500.00 0.0020000 484.51 620.11 1.8423 2.1637 2.7504 1001.0 -0.0039993 103.80 0.11053 500.00 0.0020000 484.51 620.11 1.8423 2.1637 2.7504 1001.0 -0.0039993 103.80 0.11053
144.38 9910.2 undefined 486.68 623.33 1.8475 500.00 0.0020000 486.68 623.33 1.8475 2.1679 2.7531 1002.5 -0.0040063 103.81 0.11067 500.00 0.0020000 486.68 623.33 1.8475 2.1679 2.7531 1002.5 -0.0040063 103.81 0.11067
145.38 9986.5 undefined 488.85 626.56 1.8527 500.00 0.0020000 488.85 626.56 1.8527 2.1721 2.7557 1004.0 -0.0040132 103.83 0.11081 500.00 0.0020000 488.85 626.56 1.8527 2.1721 2.7557 1004.0 -0.0040132 103.83 0.11081
146.38 10063. undefined 491.02 629.78 1.8579 500.00 0.0020000 491.02 629.78 1.8579 2.1763 2.7583 1005.5 -0.0040199 103.84 0.11094 500.00 0.0020000 491.02 629.78 1.8579 2.1763 2.7583 1005.5 -0.0040199 103.84 0.11094
147.38 10139. undefined 493.20 633.01 1.8631 500.00 0.0020000 493.20 633.01 1.8631 2.1805 2.7610 1007.0 -0.0040265 103.86 0.11108 500.00 0.0020000 493.20 633.01 1.8631 2.1805 2.7610 1007.0 -0.0040265 103.86 0.11108
148.38 10215. undefined 495.38 636.25 1.8683 500.00 0.0020000 495.38 636.25 1.8683 2.1846 2.7636 1008.5 -0.0040330 103.87 0.11122 500.00 0.0020000 495.38 636.25 1.8683 2.1846 2.7636 1008.5 -0.0040330 103.87 0.11122
149.38 10292. undefined 497.57 639.48 1.8735 500.00 0.0020000 497.57 639.48 1.8735 2.1888 2.7663 1010.0 -0.0040394 103.89 0.11136 500.00 0.0020000 497.57 639.48 1.8735 2.1888 2.7663 1010.0 -0.0040394 103.89 0.11136
150.38 10368. undefined 499.76 642.73 1.8786 500.00 0.0020000 499.76 642.73 1.8786 2.1930 2.7690 1011.5 -0.0040457 103.90 0.11150 500.00 0.0020000 499.76 642.73 1.8786 2.1930 2.7690 1011.5 -0.0040457 103.90 0.11150
151.38 10444. undefined 501.96 645.97 1.8838 500.00 0.0020000 501.96 645.97 1.8838 2.1972 2.7716 1012.9 -0.0040518 103.92 0.11163 500.00 0.0020000 501.96 645.97 1.8838 2.1972 2.7716 1012.9 -0.0040518 103.92 0.11163
152.38 10520. undefined 504.15 649.22 1.8890 500.00 0.0020000 504.15 649.22 1.8890 2.2014 2.7743 1014.4 -0.0040578 103.93 0.11177 500.00 0.0020000 504.15 649.22 1.8890 2.2014 2.7743 1014.4 -0.0040578 103.93 0.11177
153.38 10596. undefined 506.36 652.47 1.8942 500.00 0.0020000 506.36 652.47 1.8942 2.2055 2.7770 1015.9 -0.0040637 103.95 0.11191 500.00 0.0020000 506.36 652.47 1.8942 2.2055 2.7770 1015.9 -0.0040637 103.95 0.11191
154.38 10672. undefined 508.57 655.72 1.8993 500.00 0.0020000 508.57 655.72 1.8993 2.2097 2.7797 1017.3 -0.0040696 103.96 0.11205 500.00 0.0020000 508.57 655.72 1.8993 2.2097 2.7797 1017.3 -0.0040696 103.96 0.11205
155.38 10748. undefined 510.78 658.98 1.9045 500.00 0.0020000 510.78 658.98 1.9045 2.2138 2.7824 1018.8 -0.0040753 103.98 0.11219 500.00 0.0020000 510.78 658.98 1.9045 2.2138 2.7824 1018.8 -0.0040753 103.98 0.11219
156.38 10824. undefined 512.99 662.25 1.9097 500.00 0.0020000 512.99 662.25 1.9097 2.2180 2.7851 1020.3 -0.0040809 103.99 0.11233 500.00 0.0020000 512.99 662.25 1.9097 2.2180 2.7851 1020.3 -0.0040809 103.99 0.11233
157.38 10899. undefined 515.21 665.51 1.9148 500.00 0.0020000 515.21 665.51 1.9148 2.2222 2.7879 1021.7 -0.0040863 104.01 0.11248 500.00 0.0020000 515.21 665.51 1.9148 2.2222 2.7879 1021.7 -0.0040863 104.01 0.11248
158.38 10975. undefined 517.44 668.78 1.9200 500.00 0.0020000 517.44 668.78 1.9200 2.2263 2.7906 1023.1 -0.0040917 104.03 0.11262 500.00 0.0020000 517.44 668.78 1.9200 2.2263 2.7906 1023.1 -0.0040917 104.03 0.11262
159.38 11051. undefined 519.67 672.05 1.9251 500.00 0.0020000 519.67 672.05 1.9251 2.2304 2.7933 1024.6 -0.0040970 104.04 0.11276 500.00 0.0020000 519.67 672.05 1.9251 2.2304 2.7933 1024.6 -0.0040970 104.04 0.11276
160.38 11127. undefined 521.90 675.33 1.9303 500.00 0.0020000 521.90 675.33 1.9303 2.2346 2.7961 1026.0 -0.0041022 104.06 0.11290 500.00 0.0020000 521.90 675.33 1.9303 2.2346 2.7961 1026.0 -0.0041022 104.06 0.11290
161.38 11202. undefined 524.13 678.61 1.9354 500.00 0.0020000 524.13 678.61 1.9354 2.2387 2.7988 1027.5 -0.0041073 104.07 0.11304 500.00 0.0020000 524.13 678.61 1.9354 2.2387 2.7988 1027.5 -0.0041073 104.07 0.11304
162.38 11278. undefined 526.38 681.90 1.9406 500.00 0.0020000 526.38 681.90 1.9406 2.2428 2.8016 1028.9 -0.0041123 104.09 0.11318 500.00 0.0020000 526.38 681.90 1.9406 2.2428 2.8016 1028.9 -0.0041123 104.09 0.11318
163.38 11354. undefined 528.62 685.18 1.9457 500.00 0.0020000 528.62 685.18 1.9457 2.2470 2.8043 1030.3 -0.0041172 104.10 0.11333 500.00 0.0020000 528.62 685.18 1.9457 2.2470 2.8043 1030.3 -0.0041172 104.10 0.11333
164.38 11429. undefined 530.87 688.47 1.9509 500.00 0.0020000 530.87 688.47 1.9509 2.2511 2.8071 1031.8 -0.0041220 104.12 0.11347 500.00 0.0020000 530.87 688.47 1.9509 2.2511 2.8071 1031.8 -0.0041220 104.12 0.11347
165.38 11505. undefined 533.12 691.77 1.9560 500.00 0.0020000 533.12 691.77 1.9560 2.2552 2.8099 1033.2 -0.0041267 104.14 0.11361 500.00 0.0020000 533.12 691.77 1.9560 2.2552 2.8099 1033.2 -0.0041267 104.14 0.11361
166.38 11580. undefined 535.38 695.07 1.9612 500.00 0.0020000 535.38 695.07 1.9612 2.2593 2.8127 1034.6 -0.0041313 104.15 0.11376 500.00 0.0020000 535.38 695.07 1.9612 2.2593 2.8127 1034.6 -0.0041313 104.15 0.11376
167.38 11656. undefined 537.64 698.37 1.9663 500.00 0.0020000 537.64 698.37 1.9663 2.2634 2.8154 1036.0 -0.0041359 104.17 0.11390 500.00 0.0020000 537.64 698.37 1.9663 2.2634 2.8154 1036.0 -0.0041359 104.17 0.11390
168.38 11731. undefined 539.91 701.67 1.9715 500.00 0.0020000 539.91 701.67 1.9715 2.2675 2.8182 1037.4 -0.0041403 104.18 0.11404 500.00 0.0020000 539.91 701.67 1.9715 2.2675 2.8182 1037.4 -0.0041403 104.18 0.11404
169.38 11806. undefined 542.18 704.98 1.9766 500.00 0.0020000 542.18 704.98 1.9766 2.2716 2.8210 1038.8 -0.0041447 104.20 0.11419 500.00 0.0020000 542.18 704.98 1.9766 2.2716 2.8210 1038.8 -0.0041447 104.20 0.11419
170.38 11882. undefined 544.45 708.29 1.9817 500.00 0.0020000 544.45 708.29 1.9817 2.2757 2.8238 1040.2 -0.0041489 104.21 0.11433 500.00 0.0020000 544.45 708.29 1.9817 2.2757 2.8238 1040.2 -0.0041489 104.21 0.11433
171.38 11957. undefined 546.73 711.61 1.9868 500.00 0.0020000 546.73 711.61 1.9868 2.2798 2.8266 1041.6 -0.0041531 104.23 0.11448 500.00 0.0020000 546.73 711.61 1.9868 2.2798 2.8266 1041.6 -0.0041531 104.23 0.11448
172.38 12032. undefined 549.01 714.93 1.9920 500.00 0.0020000 549.01 714.93 1.9920 2.2839 2.8294 1043.0 -0.0041572 104.25 0.11462 500.00 0.0020000 549.01 714.93 1.9920 2.2839 2.8294 1043.0 -0.0041572 104.25 0.11462
173.38 12107. undefined 551.30 718.25 1.9971 500.00 0.0020000 551.30 718.25 1.9971 2.2880 2.8322 1044.4 -0.0041613 104.26 0.11477 500.00 0.0020000 551.30 718.25 1.9971 2.2880 2.8322 1044.4 -0.0041613 104.26 0.11477
174.38 12182. undefined 553.59 721.58 2.0022 500.00 0.0020000 553.59 721.58 2.0022 2.2920 2.8351 1045.8 -0.0041652 104.28 0.11491 500.00 0.0020000 553.59 721.58 2.0022 2.2920 2.8351 1045.8 -0.0041652 104.28 0.11491
175.38 12258. undefined 555.88 724.91 2.0073 500.00 0.0020000 555.88 724.91 2.0073 2.2961 2.8379 1047.2 -0.0041691 104.29 0.11506 500.00 0.0020000 555.88 724.91 2.0073 2.2961 2.8379 1047.2 -0.0041691 104.29 0.11506
176.38 12333. undefined 558.18 728.24 2.0125 500.00 0.0020000 558.18 728.24 2.0125 2.3002 2.8407 1048.6 -0.0041729 104.31 0.11521 500.00 0.0020000 558.18 728.24 2.0125 2.3002 2.8407 1048.6 -0.0041729 104.31 0.11521
177.38 12408. undefined 560.48 731.58 2.0176 500.00 0.0020000 560.48 731.58 2.0176 2.3042 2.8435 1049.9 -0.0041766 104.33 0.11535 500.00 0.0020000 560.48 731.58 2.0176 2.3042 2.8435 1049.9 -0.0041766 104.33 0.11535
178.38 12483. undefined 562.79 734.92 2.0227 500.00 0.0020000 562.79 734.92 2.0227 2.3083 2.8464 1051.3 -0.0041802 104.34 0.11550 500.00 0.0020000 562.79 734.92 2.0227 2.3083 2.8464 1051.3 -0.0041802 104.34 0.11550
179.38 12558. undefined 565.10 738.26 2.0278 500.00 0.0020000 565.10 738.26 2.0278 2.3123 2.8492 1052.7 -0.0041838 104.36 0.11565 500.00 0.0020000 565.10 738.26 2.0278 2.3123 2.8492 1052.7 -0.0041838 104.36 0.11565
180.38 12632. undefined 567.41 741.61 2.0329 500.00 0.0020000 567.41 741.61 2.0329 2.3164 2.8520 1054.0 -0.0041872 104.37 0.11579 500.00 0.0020000 567.41 741.61 2.0329 2.3164 2.8520 1054.0 -0.0041872 104.37 0.11579
181.38 12707. undefined 569.73 744.96 2.0380 500.00 0.0020000 569.73 744.96 2.0380 2.3204 2.8549 1055.4 -0.0041907 104.39 0.11594 500.00 0.0020000 569.73 744.96 2.0380 2.3204 2.8549 1055.4 -0.0041907 104.39 0.11594
182.38 12782. undefined 572.05 748.31 2.0431 500.00 0.0020000 572.05 748.31 2.0431 2.3245 2.8577 1056.8 -0.0041940 104.41 0.11609 500.00 0.0020000 572.05 748.31 2.0431 2.3245 2.8577 1056.8 -0.0041940 104.41 0.11609
183.38 12857. undefined 574.38 751.67 2.0482 500.00 0.0020000 574.38 751.67 2.0482 2.3285 2.8606 1058.1 -0.0041973 104.42 0.11624 500.00 0.0020000 574.38 751.67 2.0482 2.3285 2.8606 1058.1 -0.0041973 104.42 0.11624
184.38 12932. undefined 576.71 755.03 2.0533 500.00 0.0020000 576.71 755.03 2.0533 2.3325 2.8634 1059.5 -0.0042005 104.44 0.11639 500.00 0.0020000 576.71 755.03 2.0533 2.3325 2.8634 1059.5 -0.0042005 104.44 0.11639
185.38 13006. undefined 579.04 758.39 2.0584 500.00 0.0020000 579.04 758.39 2.0584 2.3366 2.8663 1060.8 -0.0042036 104.46 0.11654 500.00 0.0020000 579.04 758.39 2.0584 2.3366 2.8663 1060.8 -0.0042036 104.46 0.11654
186.38 13081. undefined 581.38 761.76 2.0635 500.00 0.0020000 581.38 761.76 2.0635 2.3406 2.8692 1062.2 -0.0042067 104.47 0.11669 500.00 0.0020000 581.38 761.76 2.0635 2.3406 2.8692 1062.2 -0.0042067 104.47 0.11669
187.38 13155. undefined 583.72 765.13 2.0686 500.00 0.0020000 583.72 765.13 2.0686 2.3446 2.8720 1063.5 -0.0042097 104.49 0.11684 500.00 0.0020000 583.72 765.13 2.0686 2.3446 2.8720 1063.5 -0.0042097 104.49 0.11684
188.38 13230. undefined 586.07 768.51 2.0737 500.00 0.0020000 586.07 768.51 2.0737 2.3486 2.8749 1064.8 -0.0042127 104.50 0.11699 500.00 0.0020000 586.07 768.51 2.0737 2.3486 2.8749 1064.8 -0.0042127 104.50 0.11699
189.38 13305. undefined 588.42 771.88 2.0788 500.00 0.0020000 588.42 771.88 2.0788 2.3526 2.8778 1066.2 -0.0042155 104.52 0.11714 500.00 0.0020000 588.42 771.88 2.0788 2.3526 2.8778 1066.2 -0.0042155 104.52 0.11714
190.38 13379. undefined 590.78 775.27 2.0839 500.00 0.0020000 590.78 775.27 2.0839 2.3566 2.8806 1067.5 -0.0042183 104.54 0.11729 500.00 0.0020000 590.78 775.27 2.0839 2.3566 2.8806 1067.5 -0.0042183 104.54 0.11729
191.38 13453. undefined 593.13 778.65 2.0890 500.00 0.0020000 593.13 778.65 2.0890 2.3606 2.8835 1068.8 -0.0042211 104.55 0.11744 500.00 0.0020000 593.13 778.65 2.0890 2.3606 2.8835 1068.8 -0.0042211 104.55 0.11744
192.38 13528. undefined 595.50 782.04 2.0940 500.00 0.0020000 595.50 782.04 2.0940 2.3646 2.8864 1070.2 -0.0042238 104.57 0.11759 500.00 0.0020000 595.50 782.04 2.0940 2.3646 2.8864 1070.2 -0.0042238 104.57 0.11759
193.38 13602. undefined 597.86 785.43 2.0991 500.00 0.0020000 597.86 785.43 2.0991 2.3686 2.8893 1071.5 -0.0042264 104.59 0.11774 500.00 0.0020000 597.86 785.43 2.0991 2.3686 2.8893 1071.5 -0.0042264 104.59 0.11774
194.38 13676. undefined 600.23 788.83 2.1042 500.00 0.0020000 600.23 788.83 2.1042 2.3725 2.8921 1072.8 -0.0042290 104.60 0.11789 500.00 0.0020000 600.23 788.83 2.1042 2.3725 2.8921 1072.8 -0.0042290 104.60 0.11789
195.38 13751. undefined 602.61 792.23 2.1093 500.00 0.0020000 602.61 792.23 2.1093 2.3765 2.8950 1074.1 -0.0042315 104.62 0.11804 500.00 0.0020000 602.61 792.23 2.1093 2.3765 2.8950 1074.1 -0.0042315 104.62 0.11804
196.38 13825. undefined 604.99 795.63 2.1143 500.00 0.0020000 604.99 795.63 2.1143 2.3805 2.8979 1075.5 -0.0042340 104.64 0.11820 500.00 0.0020000 604.99 795.63 2.1143 2.3805 2.8979 1075.5 -0.0042340 104.64 0.11820
197.38 13899. undefined 607.37 799.03 2.1194 500.00 0.0020000 607.37 799.03 2.1194 2.3845 2.9008 1076.8 -0.0042364 104.65 0.11835 500.00 0.0020000 607.37 799.03 2.1194 2.3845 2.9008 1076.8 -0.0042364 104.65 0.11835
198.38 13973. undefined 609.76 802.44 2.1245 500.00 0.0020000 609.76 802.44 2.1245 2.3884 2.9037 1078.1 -0.0042387 104.67 0.11850 500.00 0.0020000 609.76 802.44 2.1245 2.3884 2.9037 1078.1 -0.0042387 104.67 0.11850
199.38 14047. undefined 612.15 805.85 2.1295 500.00 0.0020000 612.15 805.85 2.1295 2.3924 2.9066 1079.4 -0.0042410 104.69 0.11865 500.00 0.0020000 612.15 805.85 2.1295 2.3924 2.9066 1079.4 -0.0042410 104.69 0.11865
200.38 14121. undefined 614.54 809.27 2.1346 500.00 0.0020000 614.54 809.27 2.1346 2.3963 2.9095 1080.7 -0.0042432 104.70 0.11881 500.00 0.0020000 614.54 809.27 2.1346 2.3963 2.9095 1080.7 -0.0042432 104.70 0.11881
201.38 14195. undefined 616.94 812.69 2.1397 500.00 0.0020000 616.94 812.69 2.1397 2.4003 2.9124 1082.0 -0.0042454 104.72 0.11896 500.00 0.0020000 616.94 812.69 2.1397 2.4003 2.9124 1082.0 -0.0042454 104.72 0.11896
202.38 14269. undefined 619.34 816.11 2.1447 500.00 0.0020000 619.34 816.11 2.1447 2.4042 2.9153 1083.3 -0.0042475 104.73 0.11911 500.00 0.0020000 619.34 816.11 2.1447 2.4042 2.9153 1083.3 -0.0042475 104.73 0.11911
203.38 14343. undefined 621.75 819.54 2.1498 500.00 0.0020000 621.75 819.54 2.1498 2.4081 2.9182 1084.6 -0.0042496 104.75 0.11927 500.00 0.0020000 621.75 819.54 2.1498 2.4081 2.9182 1084.6 -0.0042496 104.75 0.11927
204.38 14417. undefined 624.16 822.97 2.1548 500.00 0.0020000 624.16 822.97 2.1548 2.4121 2.9211 1085.9 -0.0042517 104.77 0.11942 500.00 0.0020000 624.16 822.97 2.1548 2.4121 2.9211 1085.9 -0.0042517 104.77 0.11942
205.38 14491. undefined 626.57 826.40 2.1599 500.00 0.0020000 626.57 826.40 2.1599 2.4160 2.9240 1087.1 -0.0042536 104.78 0.11958 500.00 0.0020000 626.57 826.40 2.1599 2.4160 2.9240 1087.1 -0.0042536 104.78 0.11958
206.38 14565. undefined 628.99 829.83 2.1649 500.00 0.0020000 628.99 829.83 2.1649 2.4199 2.9269 1088.4 -0.0042556 104.80 0.11973 500.00 0.0020000 628.99 829.83 2.1649 2.4199 2.9269 1088.4 -0.0042556 104.80 0.11973
207.38 14639. undefined 631.41 833.27 2.1700 500.00 0.0020000 631.41 833.27 2.1700 2.4238 2.9298 1089.7 -0.0042574 104.82 0.11989 500.00 0.0020000 631.41 833.27 2.1700 2.4238 2.9298 1089.7 -0.0042574 104.82 0.11989
208.38 14712. undefined 633.84 836.72 2.1750 500.00 0.0020000 633.84 836.72 2.1750 2.4278 2.9327 1091.0 -0.0042593 104.83 0.12004 500.00 0.0020000 633.84 836.72 2.1750 2.4278 2.9327 1091.0 -0.0042593 104.83 0.12004
209.38 14786. undefined 636.27 840.16 2.1800 500.00 0.0020000 636.27 840.16 2.1800 2.4317 2.9356 1092.3 -0.0042610 104.85 0.12020 500.00 0.0020000 636.27 840.16 2.1800 2.4317 2.9356 1092.3 -0.0042610 104.85 0.12020
210.38 14860. undefined 638.70 843.61 2.1851 500.00 0.0020000 638.70 843.61 2.1851 2.4356 2.9385 1093.5 -0.0042628 104.87 0.12036 500.00 0.0020000 638.70 843.61 2.1851 2.4356 2.9385 1093.5 -0.0042628 104.87 0.12036
211.38 14933. undefined 641.14 847.06 2.1901 500.00 0.0020000 641.14 847.06 2.1901 2.4395 2.9414 1094.8 -0.0042645 104.88 0.12051 500.00 0.0020000 641.14 847.06 2.1901 2.4395 2.9414 1094.8 -0.0042645 104.88 0.12051
212.38 15007. undefined 643.58 850.52 2.1952 500.00 0.0020000 643.58 850.52 2.1952 2.4433 2.9443 1096.1 -0.0042661 104.90 0.12067 500.00 0.0020000 643.58 850.52 2.1952 2.4433 2.9443 1096.1 -0.0042661 104.90 0.12067
213.38 15081. undefined 646.03 853.98 2.2002 500.00 0.0020000 646.03 853.98 2.2002 2.4472 2.9472 1097.3 -0.0042677 104.92 0.12083 500.00 0.0020000 646.03 853.98 2.2002 2.4472 2.9472 1097.3 -0.0042677 104.92 0.12083
214.38 15154. undefined 648.47 857.44 2.2052 500.00 0.0020000 648.47 857.44 2.2052 2.4511 2.9502 1098.6 -0.0042693 104.93 0.12098 500.00 0.0020000 648.47 857.44 2.2052 2.4511 2.9502 1098.6 -0.0042693 104.93 0.12098
215.38 15227. undefined 650.93 860.91 2.2102 500.00 0.0020000 650.93 860.91 2.2102 2.4550 2.9531 1099.9 -0.0042708 104.95 0.12114 500.00 0.0020000 650.93 860.91 2.2102 2.4550 2.9531 1099.9 -0.0042708 104.95 0.12114
216.38 15301. undefined 653.38 864.38 2.2153 500.00 0.0020000 653.38 864.38 2.2153 2.4589 2.9560 1101.1 -0.0042722 104.97 0.12130 500.00 0.0020000 653.38 864.38 2.2153 2.4589 2.9560 1101.1 -0.0042722 104.97 0.12130
217.38 15374. undefined 655.85 867.85 2.2203 500.00 0.0020000 655.85 867.85 2.2203 2.4627 2.9589 1102.4 -0.0042737 104.99 0.12146 500.00 0.0020000 655.85 867.85 2.2203 2.4627 2.9589 1102.4 -0.0042737 104.99 0.12146
218.38 15448. undefined 658.31 871.32 2.2253 500.00 0.0020000 658.31 871.32 2.2253 2.4666 2.9618 1103.6 -0.0042751 105.00 0.12162 500.00 0.0020000 658.31 871.32 2.2253 2.4666 2.9618 1103.6 -0.0042751 105.00 0.12162
219.38 15521. undefined 660.78 874.80 2.2303 500.00 0.0020000 660.78 874.80 2.2303 2.4704 2.9647 1104.9 -0.0042764 105.02 0.12178 500.00 0.0020000 660.78 874.80 2.2303 2.4704 2.9647 1104.9 -0.0042764 105.02 0.12178
220.38 15594. undefined 663.25 878.29 2.2353 500.00 0.0020000 663.25 878.29 2.2353 2.4743 2.9676 1106.1 -0.0042777 105.04 0.12194 500.00 0.0020000 663.25 878.29 2.2353 2.4743 2.9676 1106.1 -0.0042777 105.04 0.12194
221.38 15667. undefined 665.73 881.77 2.2403 500.00 0.0020000 665.73 881.77 2.2403 2.4781 2.9706 1107.4 -0.0042790 105.05 0.12210 500.00 0.0020000 665.73 881.77 2.2403 2.4781 2.9706 1107.4 -0.0042790 105.05 0.12210
222.38 15741. undefined 668.21 885.26 2.2454 500.00 0.0020000 668.21 885.26 2.2454 2.4820 2.9735 1108.6 -0.0042802 105.07 0.12226 500.00 0.0020000 668.21 885.26 2.2454 2.4820 2.9735 1108.6 -0.0042802 105.07 0.12226
223.38 15814. undefined 670.69 888.75 2.2504 500.00 0.0020000 670.69 888.75 2.2504 2.4858 2.9764 1109.8 -0.0042814 105.09 0.12242 500.00 0.0020000 670.69 888.75 2.2504 2.4858 2.9764 1109.8 -0.0042814 105.09 0.12242
224.38 15887. undefined 673.18 892.25 2.2554 500.00 0.0020000 673.18 892.25 2.2554 2.4896 2.9793 1111.1 -0.0042825 105.10 0.12258 500.00 0.0020000 673.18 892.25 2.2554 2.4896 2.9793 1111.1 -0.0042825 105.10 0.12258
225.38 15960. undefined 675.67 895.75 2.2604 500.00 0.0020000 675.67 895.75 2.2604 2.4935 2.9822 1112.3 -0.0042836 105.12 0.12274 500.00 0.0020000 675.67 895.75 2.2604 2.4935 2.9822 1112.3 -0.0042836 105.12 0.12274
226.38 16033. undefined 678.17 899.25 2.2654 500.00 0.0020000 678.17 899.25 2.2654 2.4973 2.9851 1113.5 -0.0042847 105.14 0.12290 500.00 0.0020000 678.17 899.25 2.2654 2.4973 2.9851 1113.5 -0.0042847 105.14 0.12290
227.38 16106. undefined 680.66 902.76 2.2704 500.00 0.0020000 680.66 902.76 2.2704 2.5011 2.9881 1114.8 -0.0042857 105.15 0.12306 500.00 0.0020000 680.66 902.76 2.2704 2.5011 2.9881 1114.8 -0.0042857 105.15 0.12306
228.38 16179. undefined 683.17 906.26 2.2754 500.00 0.0020000 683.17 906.26 2.2754 2.5049 2.9910 1116.0 -0.0042867 105.17 0.12322 500.00 0.0020000 683.17 906.26 2.2754 2.5049 2.9910 1116.0 -0.0042867 105.17 0.12322
229.38 16252. undefined 685.67 909.78 2.2804 500.00 0.0020000 685.67 909.78 2.2804 2.5087 2.9939 1117.2 -0.0042877 105.19 0.12338 500.00 0.0020000 685.67 909.78 2.2804 2.5087 2.9939 1117.2 -0.0042877 105.19 0.12338
230.38 16324. undefined 688.19 913.29 2.2854 500.00 0.0020000 688.19 913.29 2.2854 2.5125 2.9968 1118.4 -0.0042886 105.20 0.12354 500.00 0.0020000 688.19 913.29 2.2854 2.5125 2.9968 1118.4 -0.0042886 105.20 0.12354
231.38 16397. undefined 690.70 916.81 2.2903 500.00 0.0020000 690.70 916.81 2.2903 2.5163 2.9997 1119.7 -0.0042895 105.22 0.12371 500.00 0.0020000 690.70 916.81 2.2903 2.5163 2.9997 1119.7 -0.0042895 105.22 0.12371
232.38 16470. undefined 693.22 920.33 2.2953 500.00 0.0020000 693.22 920.33 2.2953 2.5201 3.0027 1120.9 -0.0042904 105.24 0.12387 500.00 0.0020000 693.22 920.33 2.2953 2.5201 3.0027 1120.9 -0.0042904 105.24 0.12387
233.38 16543. undefined 695.74 923.86 2.3003 500.00 0.0020000 695.74 923.86 2.3003 2.5239 3.0056 1122.1 -0.0042912 105.26 0.12403 500.00 0.0020000 695.74 923.86 2.3003 2.5239 3.0056 1122.1 -0.0042912 105.26 0.12403
234.38 16615. undefined 698.27 927.39 2.3053 500.00 0.0020000 698.27 927.39 2.3053 2.5277 3.0085 1123.3 -0.0042920 105.27 0.12420 500.00 0.0020000 698.27 927.39 2.3053 2.5277 3.0085 1123.3 -0.0042920 105.27 0.12420
235.38 16688. undefined 700.80 930.92 2.3103 500.00 0.0020000 700.80 930.92 2.3103 2.5314 3.0114 1124.5 -0.0042928 105.29 0.12436 500.00 0.0020000 700.80 930.92 2.3103 2.5314 3.0114 1124.5 -0.0042928 105.29 0.12436
236.38 16761. undefined 703.33 934.45 2.3152 500.00 0.0020000 703.33 934.45 2.3152 2.5352 3.0143 1125.7 -0.0042935 105.31 0.12452 500.00 0.0020000 703.33 934.45 2.3152 2.5352 3.0143 1125.7 -0.0042935 105.31 0.12452
237.38 16833. undefined 705.87 937.99 2.3202 500.00 0.0020000 705.87 937.99 2.3202 2.5390 3.0172 1126.9 -0.0042942 105.32 0.12469 500.00 0.0020000 705.87 937.99 2.3202 2.5390 3.0172 1126.9 -0.0042942 105.32 0.12469
238.38 16906. undefined 708.41 941.53 2.3252 500.00 0.0020000 708.41 941.53 2.3252 2.5427 3.0202 1128.1 -0.0042948 105.34 0.12485 500.00 0.0020000 708.41 941.53 2.3252 2.5427 3.0202 1128.1 -0.0042948 105.34 0.12485
239.38 16978. undefined 710.95 945.07 2.3302 500.00 0.0020000 710.95 945.07 2.3302 2.5465 3.0231 1129.3 -0.0042955 105.36 0.12502 500.00 0.0020000 710.95 945.07 2.3302 2.5465 3.0231 1129.3 -0.0042955 105.36 0.12502
240.38 17051. undefined 713.50 948.62 2.3351 500.00 0.0020000 713.50 948.62 2.3351 2.5502 3.0260 1130.5 -0.0042961 105.37 0.12518 500.00 0.0020000 713.50 948.62 2.3351 2.5502 3.0260 1130.5 -0.0042961 105.37 0.12518
241.38 17123. undefined 716.05 952.17 2.3401 500.00 0.0020000 716.05 952.17 2.3401 2.5540 3.0289 1131.7 -0.0042966 105.39 0.12535 500.00 0.0020000 716.05 952.17 2.3401 2.5540 3.0289 1131.7 -0.0042966 105.39 0.12535
242.38 17196. undefined 718.61 955.73 2.3451 500.00 0.0020000 718.61 955.73 2.3451 2.5577 3.0318 1132.9 -0.0042972 105.41 0.12551 500.00 0.0020000 718.61 955.73 2.3451 2.5577 3.0318 1132.9 -0.0042972 105.41 0.12551
243.38 17268. undefined 721.17 959.28 2.3500 500.00 0.0020000 721.17 959.28 2.3500 2.5614 3.0347 1134.1 -0.0042977 105.43 0.12568 500.00 0.0020000 721.17 959.28 2.3500 2.5614 3.0347 1134.1 -0.0042977 105.43 0.12568
244.38 17340. undefined 723.73 962.84 2.3550 500.00 0.0020000 723.73 962.84 2.3550 2.5652 3.0376 1135.3 -0.0042982 105.44 0.12585 500.00 0.0020000 723.73 962.84 2.3550 2.5652 3.0376 1135.3 -0.0042982 105.44 0.12585
245.38 17413. undefined 726.30 966.41 2.3599 500.00 0.0020000 726.30 966.41 2.3599 2.5689 3.0405 1136.4 -0.0042986 105.46 0.12601 500.00 0.0020000 726.30 966.41 2.3599 2.5689 3.0405 1136.4 -0.0042986 105.46 0.12601
246.38 17485. undefined 728.87 969.97 2.3649 500.00 0.0020000 728.87 969.97 2.3649 2.5726 3.0435 1137.6 -0.0042991 105.48 0.12618 500.00 0.0020000 728.87 969.97 2.3649 2.5726 3.0435 1137.6 -0.0042991 105.48 0.12618
247.38 17557. undefined 731.44 973.54 2.3698 500.00 0.0020000 731.44 973.54 2.3698 2.5763 3.0464 1138.8 -0.0042995 105.49 0.12635 500.00 0.0020000 731.44 973.54 2.3698 2.5763 3.0464 1138.8 -0.0042995 105.49 0.12635
248.38 17629. undefined 734.02 977.12 2.3748 500.00 0.0020000 734.02 977.12 2.3748 2.5800 3.0493 1140.0 -0.0042999 105.51 0.12651 500.00 0.0020000 734.02 977.12 2.3748 2.5800 3.0493 1140.0 -0.0042999 105.51 0.12651
249.38 17701. undefined 736.60 980.69 2.3797 500.00 0.0020000 736.60 980.69 2.3797 2.5837 3.0522 1141.2 -0.0043002 105.53 0.12668 500.00 0.0020000 736.60 980.69 2.3797 2.5837 3.0522 1141.2 -0.0043002 105.53 0.12668
250.38 17773. undefined 739.19 984.27 2.3847 500.00 0.0020000 739.19 984.27 2.3847 2.5874 3.0551 1142.3 -0.0043005 105.55 0.12685 500.00 0.0020000 739.19 984.27 2.3847 2.5874 3.0551 1142.3 -0.0043005 105.55 0.12685
251.38 17845. undefined 741.78 987.86 2.3896 500.00 0.0020000 741.78 987.86 2.3896 2.5911 3.0580 1143.5 -0.0043008 105.56 0.12702 500.00 0.0020000 741.78 987.86 2.3896 2.5911 3.0580 1143.5 -0.0043008 105.56 0.12702
252.38 17917. undefined 744.37 991.44 2.3946 500.00 0.0020000 744.37 991.44 2.3946 2.5948 3.0609 1144.7 -0.0043011 105.58 0.12719 500.00 0.0020000 744.37 991.44 2.3946 2.5948 3.0609 1144.7 -0.0043011 105.58 0.12719
253.38 17989. undefined 746.97 995.03 2.3995 500.00 0.0020000 746.97 995.03 2.3995 2.5985 3.0638 1145.8 -0.0043013 105.60 0.12735 500.00 0.0020000 746.97 995.03 2.3995 2.5985 3.0638 1145.8 -0.0043013 105.60 0.12735
254.38 18061. undefined 749.57 998.62 2.4044 500.00 0.0020000 749.57 998.62 2.4044 2.6022 3.0667 1147.0 -0.0043015 105.61 0.12752 500.00 0.0020000 749.57 998.62 2.4044 2.6022 3.0667 1147.0 -0.0043015 105.61 0.12752
255.38 18133. undefined 752.17 1002.2 2.4094 500.00 0.0020000 752.17 1002.2 2.4094 2.6058 3.0696 1148.2 -0.0043017 105.63 0.12769 500.00 0.0020000 752.17 1002.2 2.4094 2.6058 3.0696 1148.2 -0.0043017 105.63 0.12769
256.38 18205. undefined 754.78 1005.8 2.4143 500.00 0.0020000 754.78 1005.8 2.4143 2.6095 3.0725 1149.3 -0.0043019 105.65 0.12786 500.00 0.0020000 754.78 1005.8 2.4143 2.6095 3.0725 1149.3 -0.0043019 105.65 0.12786
257.38 18277. undefined 757.39 1009.4 2.4192 500.00 0.0020000 757.39 1009.4 2.4192 2.6132 3.0754 1150.5 -0.0043021 105.67 0.12803 500.00 0.0020000 757.39 1009.4 2.4192 2.6132 3.0754 1150.5 -0.0043021 105.67 0.12803
258.38 18349. undefined 760.01 1013.0 2.4241 500.00 0.0020000 760.01 1013.0 2.4241 2.6168 3.0783 1151.6 -0.0043022 105.68 0.12820 500.00 0.0020000 760.01 1013.0 2.4241 2.6168 3.0783 1151.6 -0.0043022 105.68 0.12820
259.38 18420. undefined 762.62 1016.6 2.4291 500.00 0.0020000 762.62 1016.6 2.4291 2.6205 3.0812 1152.8 -0.0043023 105.70 0.12837 500.00 0.0020000 762.62 1016.6 2.4291 2.6205 3.0812 1152.8 -0.0043023 105.70 0.12837
260.38 18492. undefined 765.25 1020.2 2.4340 500.00 0.0020000 765.25 1020.2 2.4340 2.6241 3.0841 1153.9 -0.0043023 105.72 0.12855 500.00 0.0020000 765.25 1020.2 2.4340 2.6241 3.0841 1153.9 -0.0043023 105.72 0.12855
261.38 18564. undefined 767.87 1023.9 2.4389 500.00 0.0020000 767.87 1023.9 2.4389 2.6278 3.0870 1155.1 -0.0043024 105.73 0.12872 500.00 0.0020000 767.87 1023.9 2.4389 2.6278 3.0870 1155.1 -0.0043024 105.73 0.12872
262.38 18635. undefined 770.50 1027.5 2.4438 500.00 0.0020000 770.50 1027.5 2.4438 2.6314 3.0899 1156.2 -0.0043024 105.75 0.12889 500.00 0.0020000 770.50 1027.5 2.4438 2.6314 3.0899 1156.2 -0.0043024 105.75 0.12889
263.38 18707. undefined 773.14 1031.1 2.4487 500.00 0.0020000 773.14 1031.1 2.4487 2.6350 3.0928 1157.4 -0.0043024 105.77 0.12906 500.00 0.0020000 773.14 1031.1 2.4487 2.6350 3.0928 1157.4 -0.0043024 105.77 0.12906
264.38 18778. undefined 775.77 1034.7 2.4536 500.00 0.0020000 775.77 1034.7 2.4536 2.6387 3.0957 1158.5 -0.0043024 105.79 0.12923 500.00 0.0020000 775.77 1034.7 2.4536 2.6387 3.0957 1158.5 -0.0043024 105.79 0.12923
265.38 18850. undefined 778.41 1038.3 2.4585 500.00 0.0020000 778.41 1038.3 2.4585 2.6423 3.0986 1159.6 -0.0043024 105.80 0.12940 500.00 0.0020000 778.41 1038.3 2.4585 2.6423 3.0986 1159.6 -0.0043024 105.80 0.12940
266.38 18921. undefined 781.06 1042.0 2.4634 500.00 0.0020000 781.06 1042.0 2.4634 2.6459 3.1015 1160.8 -0.0043023 105.82 0.12958 500.00 0.0020000 781.06 1042.0 2.4634 2.6459 3.1015 1160.8 -0.0043023 105.82 0.12958
267.38 18993. undefined 783.70 1045.6 2.4683 500.00 0.0020000 783.70 1045.6 2.4683 2.6495 3.1044 1161.9 -0.0043023 105.84 0.12975 500.00 0.0020000 783.70 1045.6 2.4683 2.6495 3.1044 1161.9 -0.0043023 105.84 0.12975
268.38 19064. undefined 786.36 1049.2 2.4732 500.00 0.0020000 786.36 1049.2 2.4732 2.6531 3.1073 1163.1 -0.0043022 105.86 0.12992 500.00 0.0020000 786.36 1049.2 2.4732 2.6531 3.1073 1163.1 -0.0043022 105.86 0.12992
269.38 19135. undefined 789.01 1052.9 2.4781 500.00 0.0020000 789.01 1052.9 2.4781 2.6567 3.1101 1164.2 -0.0043020 105.87 0.13010 500.00 0.0020000 789.01 1052.9 2.4781 2.6567 3.1101 1164.2 -0.0043020 105.87 0.13010
270.38 19207. undefined 791.67 1056.5 2.4830 500.00 0.0020000 791.67 1056.5 2.4830 2.6603 3.1130 1165.3 -0.0043019 105.89 0.13027 500.00 0.0020000 791.67 1056.5 2.4830 2.6603 3.1130 1165.3 -0.0043019 105.89 0.13027
271.38 19278. undefined 794.33 1060.2 2.4879 500.00 0.0020000 794.33 1060.2 2.4879 2.6639 3.1159 1166.4 -0.0043017 105.91 0.13044 500.00 0.0020000 794.33 1060.2 2.4879 2.6639 3.1159 1166.4 -0.0043017 105.91 0.13044
272.38 19349. undefined 797.00 1063.8 2.4928 500.00 0.0020000 797.00 1063.8 2.4928 2.6675 3.1188 1167.6 -0.0043016 105.92 0.13062 500.00 0.0020000 797.00 1063.8 2.4928 2.6675 3.1188 1167.6 -0.0043016 105.92 0.13062
273.38 19421. undefined 799.67 1067.5 2.4977 500.00 0.0020000 799.67 1067.5 2.4977 2.6711 3.1217 1168.7 -0.0043014 105.94 0.13079 500.00 0.0020000 799.67 1067.5 2.4977 2.6711 3.1217 1168.7 -0.0043014 105.94 0.13079
274.38 19492. undefined 802.34 1071.1 2.5026 500.00 0.0020000 802.34 1071.1 2.5026 2.6747 3.1245 1169.8 -0.0043012 105.96 0.13097 500.00 0.0020000 802.34 1071.1 2.5026 2.6747 3.1245 1169.8 -0.0043012 105.96 0.13097
275.38 19563. undefined 805.02 1074.8 2.5075 500.00 0.0020000 805.02 1074.8 2.5075 2.6782 3.1274 1170.9 -0.0043009 105.98 0.13114 500.00 0.0020000 805.02 1074.8 2.5075 2.6782 3.1274 1170.9 -0.0043009 105.98 0.13114
276.38 19634. undefined 807.70 1078.4 2.5124 500.00 0.0020000 807.70 1078.4 2.5124 2.6818 3.1303 1172.0 -0.0043007 105.99 0.13132 500.00 0.0020000 807.70 1078.4 2.5124 2.6818 3.1303 1172.0 -0.0043007 105.99 0.13132
277.38 19705. undefined 810.38 1082.1 2.5172 500.00 0.0020000 810.38 1082.1 2.5172 2.6854 3.1332 1173.2 -0.0043004 106.01 0.13150 500.00 0.0020000 810.38 1082.1 2.5172 2.6854 3.1332 1173.2 -0.0043004 106.01 0.13150
278.38 19776. undefined 813.07 1085.8 2.5221 500.00 0.0020000 813.07 1085.8 2.5221 2.6889 3.1360 1174.3 -0.0043001 106.03 0.13167 500.00 0.0020000 813.07 1085.8 2.5221 2.6889 3.1360 1174.3 -0.0043001 106.03 0.13167
279.38 19847. undefined 815.76 1089.4 2.5270 500.00 0.0020000 815.76 1089.4 2.5270 2.6925 3.1389 1175.4 -0.0042998 106.05 0.13185 500.00 0.0020000 815.76 1089.4 2.5270 2.6925 3.1389 1175.4 -0.0042998 106.05 0.13185
280.38 19918. undefined 818.45 1093.1 2.5319 500.00 0.0020000 818.45 1093.1 2.5319 2.6960 3.1418 1176.5 -0.0042995 106.06 0.13202 500.00 0.0020000 818.45 1093.1 2.5319 2.6960 3.1418 1176.5 -0.0042995 106.06 0.13202
281.38 19989. undefined 821.15 1096.8 2.5367 500.00 0.0020000 821.15 1096.8 2.5367 2.6996 3.1447 1177.6 -0.0042991 106.08 0.13220 500.00 0.0020000 821.15 1096.8 2.5367 2.6996 3.1447 1177.6 -0.0042991 106.08 0.13220
282.38 20060. undefined 823.85 1100.5 2.5416 500.00 0.0020000 823.85 1100.5 2.5416 2.7031 3.1475 1178.7 -0.0042988 106.10 0.13207 500.00 0.0020000 823.85 1100.5 2.5416 2.7031 3.1475 1178.7 -0.0042988 106.10 0.13207
283.38 20130. undefined 826.56 1104.1 2.5465 500.00 0.0020000 826.56 1104.1 2.5465 2.7066 3.1504 1179.8 -0.0042984 106.11 0.13224 500.00 0.0020000 826.56 1104.1 2.5465 2.7066 3.1504 1179.8 -0.0042984 106.11 0.13224
284.38 20201. undefined 829.26 1107.8 2.5513 500.00 0.0020000 829.26 1107.8 2.5513 2.7102 3.1532 1180.9 -0.0042980 106.13 0.13242 500.00 0.0020000 829.26 1107.8 2.5513 2.7102 3.1532 1180.9 -0.0042980 106.13 0.13242
285.38 20272. undefined 831.98 1111.5 2.5562 500.00 0.0020000 831.98 1111.5 2.5562 2.7137 3.1561 1182.0 -0.0042976 106.15 0.13260 500.00 0.0020000 831.98 1111.5 2.5562 2.7137 3.1561 1182.0 -0.0042976 106.15 0.13260
286.38 20343. undefined 834.69 1115.2 2.5610 500.00 0.0020000 834.69 1115.2 2.5610 2.7172 3.1590 1183.1 -0.0042972 106.17 0.13277 500.00 0.0020000 834.69 1115.2 2.5610 2.7172 3.1590 1183.1 -0.0042972 106.17 0.13277
287.38 20413. undefined 837.41 1118.9 2.5659 500.00 0.0020000 837.41 1118.9 2.5659 2.7207 3.1618 1184.2 -0.0042968 106.18 0.13295 500.00 0.0020000 837.41 1118.9 2.5659 2.7207 3.1618 1184.2 -0.0042968 106.18 0.13295
288.38 20484. undefined 840.13 1122.6 2.5708 500.00 0.0020000 840.13 1122.6 2.5708 2.7242 3.1647 1185.3 -0.0042963 106.20 0.13313 500.00 0.0020000 840.13 1122.6 2.5708 2.7242 3.1647 1185.3 -0.0042963 106.20 0.13313
289.38 20555. undefined 842.86 1126.3 2.5756 500.00 0.0020000 842.86 1126.3 2.5756 2.7277 3.1675 1186.4 -0.0042958 106.22 0.13331 500.00 0.0020000 842.86 1126.3 2.5756 2.7277 3.1675 1186.4 -0.0042958 106.22 0.13331
290.38 20625. undefined 845.59 1130.0 2.5805 500.00 0.0020000 845.59 1130.0 2.5805 2.7312 3.1704 1187.5 -0.0042953 106.24 0.13349 500.00 0.0020000 845.59 1130.0 2.5805 2.7312 3.1704 1187.5 -0.0042953 106.24 0.13349
291.38 20696. undefined 848.32 1133.7 2.5853 500.00 0.0020000 848.32 1133.7 2.5853 2.7347 3.1732 1188.6 -0.0042948 106.25 0.13367 500.00 0.0020000 848.32 1133.7 2.5853 2.7347 3.1732 1188.6 -0.0042948 106.25 0.13367
292.38 20766. undefined 851.06 1137.4 2.5901 500.00 0.0020000 851.06 1137.4 2.5901 2.7382 3.1761 1189.6 -0.0042943 106.27 0.13385 500.00 0.0020000 851.06 1137.4 2.5901 2.7382 3.1761 1189.6 -0.0042943 106.27 0.13385
293.38 20837. undefined 853.80 1141.1 2.5950 500.00 0.0020000 853.80 1141.1 2.5950 2.7417 3.1789 1190.7 -0.0042938 106.29 0.13403 500.00 0.0020000 853.80 1141.1 2.5950 2.7417 3.1789 1190.7 -0.0042938 106.29 0.13403
294.38 20907. undefined 856.54 1144.8 2.5998 500.00 0.0020000 856.54 1144.8 2.5998 2.7452 3.1818 1191.8 -0.0042933 106.31 0.13421 500.00 0.0020000 856.54 1144.8 2.5998 2.7452 3.1818 1191.8 -0.0042933 106.31 0.13421
295.38 20978. undefined 859.29 1148.6 2.6047 500.00 0.0020000 859.29 1148.6 2.6047 2.7486 3.1846 1192.9 -0.0042927 106.32 0.13439 500.00 0.0020000 859.29 1148.6 2.6047 2.7486 3.1846 1192.9 -0.0042927 106.32 0.13439
296.38 21048. undefined 862.04 1152.3 2.6095 500.00 0.0020000 862.04 1152.3 2.6095 2.7521 3.1874 1194.0 -0.0042921 106.34 0.13457 500.00 0.0020000 862.04 1152.3 2.6095 2.7521 3.1874 1194.0 -0.0042921 106.34 0.13457
297.38 21118. undefined 864.79 1156.0 2.6143 500.00 0.0020000 864.79 1156.0 2.6143 2.7556 3.1903 1195.0 -0.0042915 106.36 0.13475 500.00 0.0020000 864.79 1156.0 2.6143 2.7556 3.1903 1195.0 -0.0042915 106.36 0.13475
298.38 21189. undefined 867.55 1159.7 2.6192 500.00 0.0020000 867.55 1159.7 2.6192 2.7590 3.1931 1196.1 -0.0042909 106.37 0.13493 500.00 0.0020000 867.55 1159.7 2.6192 2.7590 3.1931 1196.1 -0.0042909 106.37 0.13493
299.38 21259. undefined 870.31 1163.5 2.6240 500.00 0.0020000 870.31 1163.5 2.6240 2.7625 3.1960 1197.2 -0.0042903 106.39 0.13511 500.00 0.0020000 870.31 1163.5 2.6240 2.7625 3.1960 1197.2 -0.0042903 106.39 0.13511
300.38 21329. undefined 873.07 1167.2 2.6288 500.00 0.0020000 873.07 1167.2 2.6288 2.7659 3.1988 1198.3 -0.0042897 106.41 0.13529 500.00 0.0020000 873.07 1167.2 2.6288 2.7659 3.1988 1198.3 -0.0042897 106.41 0.13529