Temperature (C) Pressure (psia) Quality (l+v) Internal Energy (l+v, kJ/kg) Enthalpy (l+v, kJ/kg) Entropy (l+v, J/g*K) Density (l, kg/m3) Volume (l, m3/kg) Internal Energy (l, kJ/kg) Enthalpy (l, kJ/kg) Entropy (l, J/g*K) Cv (l, J/g*K) Cp (l, J/g*K) Sound Spd. (l, m/s) Joule-Thomson (l, F/psia) Viscosity (l, uPa*s) Therm. Cond. (l, W/m*K) Density (v, kg/m3) Volume (v, m3/kg) Internal Energy (v, kJ/kg) Enthalpy (v, kJ/kg) Entropy (v, J/g*K) Cv (v, J/g*K) Cp (v, J/g*K) Sound Spd. (v, m/s) Joule-Thomson (v, F/psia) Viscosity (v, uPa*s) Therm. Cond. (v, W/m*K)
-187.62 2.4953e-08 5.9644e-12 -196.64 -196.64 -1.3959 733.13 0.0013640 -196.64 -196.64 -1.3959 1.3553 1.9158 2136.4 -0.0077592 10960. 0.20792 1.0669e-08 9.3732e+07 350.13 366.26 5.1858 0.69067 0.87923 143.28 6.1051 2.3259 0.0017061
-186.62 3.7339e-08 8.7912e-12 -194.73 -194.73 -1.3736 732.08 0.0013660 -194.73 -194.73 -1.3736 1.3539 1.9166 2129.6 -0.0077546 10073. 0.20765 1.5780e-08 6.3371e+07 350.82 367.14 5.1200 0.69462 0.88317 144.03 5.9178 2.3534 0.0017533
-185.62 5.5322e-08 1.2831e-11 -192.81 -192.81 -1.3516 731.04 0.0013679 -192.81 -192.81 -1.3516 1.3525 1.9174 2122.9 -0.0077498 9276.1 0.20737 2.3112e-08 4.3267e+07 351.52 368.02 5.0561 0.69857 0.88713 144.77 5.7383 2.3808 0.0018007
-184.62 8.1182e-08 1.8551e-11 -190.89 -190.89 -1.3298 730.00 0.0013699 -190.89 -190.89 -1.3298 1.3513 1.9182 2116.1 -0.0077448 8557.8 0.20708 3.3533e-08 2.9821e+07 352.22 368.91 4.9939 0.70253 0.89108 145.51 5.5662 2.4083 0.0018485
-183.62 1.1803e-07 2.6576e-11 -188.97 -188.97 -1.3083 728.96 0.0013718 -188.97 -188.97 -1.3083 1.3501 1.9191 2109.3 -0.0077395 7909.8 0.20678 4.8211e-08 2.0742e+07 352.92 369.81 4.9333 0.70648 0.89504 146.24 5.4011 2.4357 0.0018965
-182.62 1.7009e-07 3.7739e-11 -187.05 -187.05 -1.2869 727.92 0.0013738 -187.05 -187.05 -1.2869 1.3490 1.9201 2102.5 -0.0077340 7324.3 0.20647 6.8704e-08 1.4555e+07 353.63 370.70 4.8744 0.71043 0.89899 146.97 5.2426 2.4632 0.0019448
-181.62 2.4299e-07 5.3135e-11 -185.13 -185.13 -1.2658 726.88 0.0013757 -185.13 -185.13 -1.2658 1.3480 1.9210 2095.7 -0.0077283 6794.5 0.20616 9.7079e-08 1.0301e+07 354.35 371.60 4.8170 0.71438 0.90294 147.69 5.0904 2.4906 0.0019934
-180.62 3.4425e-07 7.4198e-11 -183.21 -183.21 -1.2450 725.85 0.0013777 -183.21 -183.21 -1.2450 1.3470 1.9220 2088.9 -0.0077225 6314.4 0.20584 1.3605e-07 7.3504e+06 355.06 372.51 4.7612 0.71833 0.90688 148.41 4.9442 2.5181 0.0020423
-179.62 4.8378e-07 1.0279e-10 -181.29 -181.29 -1.2243 724.81 0.0013797 -181.29 -181.29 -1.2243 1.3461 1.9231 2082.0 -0.0077164 5878.8 0.20551 1.8915e-07 5.2868e+06 355.78 373.42 4.7068 0.72227 0.91082 149.13 4.8038 2.5456 0.0020915
-178.62 6.7459e-07 1.4130e-10 -179.37 -179.37 -1.2038 723.78 0.0013816 -179.37 -179.37 -1.2038 1.3453 1.9241 2075.2 -0.0077102 5482.9 0.20517 2.6096e-07 3.8320e+06 356.51 374.33 4.6538 0.72620 0.91475 149.84 4.6688 2.5731 0.0021410
-177.62 9.3358e-07 1.9279e-10 -177.44 -177.44 -1.1836 722.75 0.0013836 -177.44 -177.44 -1.1836 1.3445 1.9252 2068.4 -0.0077039 5122.6 0.20483 3.5737e-07 2.7982e+06 357.23 375.25 4.6022 0.73012 0.91867 150.54 4.5390 2.6005 0.0021907
-176.62 1.2826e-06 2.6116e-10 -175.52 -175.52 -1.1635 721.72 0.0013856 -175.52 -175.52 -1.1635 1.3437 1.9263 2061.5 -0.0076973 4794.1 0.20447 4.8588e-07 2.0581e+06 357.97 376.17 4.5519 0.73403 0.92258 151.25 4.4142 2.6280 0.0022408
-175.62 1.7496e-06 3.5131e-10 -173.59 -173.59 -1.1437 720.69 0.0013876 -173.59 -173.59 -1.1437 1.3430 1.9274 2054.7 -0.0076907 4494.3 0.20411 6.5601e-07 1.5244e+06 358.70 377.09 4.5029 0.73792 0.92648 151.95 4.2941 2.6555 0.0022912
-174.62 2.3705e-06 4.6939e-10 -171.66 -171.66 -1.1240 719.66 0.0013895 -171.66 -171.66 -1.1240 1.3423 1.9286 2047.9 -0.0076838 4220.2 0.20375 8.7976e-07 1.1367e+06 359.44 378.02 4.4551 0.74181 0.93036 152.64 4.1784 2.6830 0.0023418
-173.62 3.1903e-06 6.2305e-10 -169.73 -169.73 -1.1045 718.64 0.0013915 -169.73 -169.73 -1.1045 1.3417 1.9298 2041.0 -0.0076769 3969.3 0.20338 1.1721e-06 8.5314e+05 360.19 378.95 4.4085 0.74568 0.93423 153.33 4.0671 2.7105 0.0023928
-172.62 4.2661e-06 8.2178e-10 -167.80 -167.80 -1.0852 717.61 0.0013935 -167.80 -167.80 -1.0852 1.3411 1.9310 2034.2 -0.0076698 3739.3 0.20300 1.5518e-06 6.4441e+05 360.93 379.89 4.3631 0.74953 0.93809 154.02 3.9599 2.7379 0.0024440
-171.62 5.6692e-06 1.0772e-09 -165.87 -165.87 -1.0661 716.58 0.0013955 -165.87 -165.87 -1.0661 1.3405 1.9322 2027.3 -0.0076625 3528.0 0.20261 2.0419e-06 4.8974e+05 361.69 380.83 4.3188 0.75337 0.94193 154.71 3.8566 2.7654 0.0024955
-170.62 7.4884e-06 1.4037e-09 -163.94 -163.94 -1.0472 715.56 0.0013975 -163.94 -163.94 -1.0472 1.3400 1.9334 2020.5 -0.0076552 3333.8 0.20222 2.6708e-06 3.7442e+05 362.44 381.77 4.2755 0.75720 0.94575 155.39 3.7570 2.7929 0.0025473
-169.62 9.8334e-06 1.8185e-09 -162.00 -162.00 -1.0284 714.54 0.0013995 -162.00 -162.00 -1.0284 1.3395 1.9347 2013.6 -0.0076477 3154.9 0.20182 3.4733e-06 2.8791e+05 363.20 382.72 4.2334 0.76100 0.94956 156.07 3.6609 2.8204 0.0025994
-168.62 1.2839e-05 2.3427e-09 -160.07 -160.07 -1.0098 713.52 0.0014015 -160.07 -160.07 -1.0098 1.3390 1.9359 2006.8 -0.0076401 2989.9 0.20141 4.4917e-06 2.2263e+05 363.96 383.67 4.1922 0.76479 0.95335 156.74 3.5683 2.8479 0.0026518
-167.62 1.6672e-05 3.0016e-09 -158.13 -158.13 -0.99134 712.49 0.0014035 -158.13 -158.13 -0.99134 1.3386 1.9372 2000.0 -0.0076323 2837.5 0.20100 5.7771e-06 1.7310e+05 364.73 384.63 4.1521 0.76856 0.95712 157.41 3.4790 2.8754 0.0027045
-166.62 2.1533e-05 3.8254e-09 -156.19 -156.19 -0.97306 711.47 0.0014055 -156.19 -156.19 -0.97306 1.3382 1.9385 1993.1 -0.0076245 2696.5 0.20058 7.3914e-06 1.3529e+05 365.50 385.59 4.1129 0.77232 0.96087 158.08 3.3927 2.9029 0.0027575
-165.62 2.7666e-05 4.8503e-09 -154.25 -154.25 -0.95494 710.45 0.0014075 -154.25 -154.25 -0.95494 1.3378 1.9398 1986.3 -0.0076165 2566.0 0.20016 9.4084e-06 1.0629e+05 366.27 386.55 4.0746 0.77605 0.96460 158.75 3.3095 2.9304 0.0028108
-164.62 3.5367e-05 6.1191e-09 -152.31 -152.31 -0.93698 709.44 0.0014096 -152.31 -152.31 -0.93698 1.3375 1.9411 1979.4 -0.0076084 2444.9 0.19973 1.1916e-05 83918. 367.05 387.52 4.0372 0.77976 0.96832 159.41 3.2291 2.9579 0.0028643
-163.62 4.4989e-05 7.6825e-09 -150.37 -150.37 -0.91917 708.42 0.0014116 -150.37 -150.37 -0.91917 1.3371 1.9424 1972.6 -0.0076002 2332.3 0.19930 1.5020e-05 66577. 367.83 388.49 4.0008 0.78346 0.97201 160.07 3.1514 2.9854 0.0029182
-162.62 5.6956e-05 9.5999e-09 -148.43 -148.43 -0.90151 707.40 0.0014136 -148.43 -148.43 -0.90151 1.3368 1.9437 1965.8 -0.0075919 2227.7 0.19886 1.8844e-05 53068. 368.62 389.46 3.9651 0.78713 0.97569 160.72 3.0764 3.0129 0.0029723
-161.62 7.1773e-05 1.1941e-08 -146.48 -146.48 -0.88400 706.38 0.0014157 -146.48 -146.48 -0.88400 1.3365 1.9451 1959.0 -0.0075834 2130.2 0.19841 2.3533e-05 42494. 369.41 390.44 3.9304 0.79079 0.97935 161.38 3.0038 3.0404 0.0030268
-160.62 9.0036e-05 1.4787e-08 -144.54 -144.54 -0.86663 705.37 0.0014177 -144.54 -144.54 -0.86663 1.3363 1.9465 1952.1 -0.0075748 2039.2 0.19796 2.9258e-05 34178. 370.20 391.42 3.8964 0.79443 0.98298 162.03 2.9337 3.0679 0.0030815
-159.62 0.00011245 1.8231e-08 -142.59 -142.59 -0.84940 704.35 0.0014197 -142.59 -142.59 -0.84940 1.3360 1.9478 1945.3 -0.0075661 1954.2 0.19751 3.6221e-05 27609. 371.00 392.40 3.8632 0.79805 0.98660 162.68 2.8658 3.0955 0.0031365
-158.62 0.00013985 2.2383e-08 -140.64 -140.64 -0.83231 703.34 0.0014218 -140.64 -140.64 -0.83231 1.3358 1.9492 1938.5 -0.0075573 1874.8 0.19705 4.4652e-05 22395. 371.80 393.39 3.8307 0.80164 0.99020 163.32 2.8002 3.1230 0.0031918
-157.62 0.00017320 2.7369e-08 -138.69 -138.69 -0.81536 702.32 0.0014238 -138.69 -138.69 -0.81536 1.3356 1.9506 1931.7 -0.0075484 1800.3 0.19658 5.4822e-05 18241. 372.60 394.38 3.7990 0.80522 0.99378 163.96 2.7367 3.1505 0.0032474
-156.62 0.00021364 3.3331e-08 -136.74 -136.74 -0.79854 701.31 0.0014259 -136.74 -136.74 -0.79854 1.3354 1.9520 1924.9 -0.0075393 1730.5 0.19611 6.7040e-05 14916. 373.41 395.38 3.7680 0.80878 0.99734 164.60 2.6752 3.1780 0.0033033
-155.62 0.00026248 4.0434e-08 -134.79 -134.79 -0.78185 700.30 0.0014280 -134.79 -134.79 -0.78185 1.3352 1.9534 1918.1 -0.0075302 1664.9 0.19564 8.1666e-05 12245. 374.22 396.38 3.7377 0.81232 1.0009 165.24 2.6157 3.2055 0.0033595
-154.62 0.00032125 4.8865e-08 -132.83 -132.83 -0.76530 699.29 0.0014300 -132.83 -132.83 -0.76530 1.3350 1.9548 1911.3 -0.0075209 1603.3 0.19516 9.9109e-05 10090. 375.03 397.38 3.7081 0.81585 1.0044 165.87 2.5580 3.2330 0.0034160
-153.62 0.00039171 5.8837e-08 -130.88 -130.88 -0.74887 698.27 0.0014321 -130.88 -130.88 -0.74887 1.3349 1.9563 1904.5 -0.0075114 1545.3 0.19468 0.00011984 8344.6 375.85 398.39 3.6792 0.81935 1.0079 166.50 2.5022 3.2606 0.0034727
-152.62 0.00047590 7.0589e-08 -128.92 -128.92 -0.73256 697.26 0.0014342 -128.92 -128.92 -0.73256 1.3348 1.9577 1897.8 -0.0075019 1490.6 0.19419 0.00014439 6925.9 376.67 399.40 3.6509 0.82284 1.0114 167.13 2.4481 3.2881 0.0035298
-151.62 0.00057613 8.4392e-08 -126.96 -126.96 -0.71638 696.25 0.0014363 -126.96 -126.96 -0.71638 1.3346 1.9592 1891.0 -0.0074922 1438.9 0.19370 0.00017336 5768.4 377.49 400.41 3.6232 0.82631 1.0149 167.76 2.3957 3.3156 0.0035872
-150.62 0.00069507 1.0055e-07 -125.00 -125.00 -0.70032 695.24 0.0014384 -125.00 -125.00 -0.70032 1.3345 1.9606 1884.2 -0.0074824 1390.2 0.19320 0.00020744 4820.7 378.32 401.42 3.5962 0.82976 1.0183 168.38 2.3448 3.3431 0.0036448
-149.62 0.00083574 1.1940e-07 -123.04 -123.04 -0.68438 694.23 0.0014404 -123.04 -123.04 -0.68438 1.3345 1.9621 1877.4 -0.0074724 1344.0 0.19270 0.00024740 4042.0 379.15 402.44 3.5697 0.83319 1.0218 169.00 2.2956 3.3706 0.0037027
-148.62 0.0010016 1.4133e-07 -121.08 -121.08 -0.66855 693.22 0.0014425 -121.08 -121.08 -0.66855 1.3344 1.9636 1870.7 -0.0074623 1300.3 0.19220 0.00029412 3400.0 379.99 403.47 3.5438 0.83661 1.0252 169.62 2.2478 3.3982 0.0037610
-147.62 0.0011965 1.6676e-07 -119.11 -119.11 -0.65284 692.21 0.0014447 -119.11 -119.11 -0.65284 1.3343 1.9651 1863.9 -0.0074521 1258.9 0.19169 0.00034856 2869.0 380.83 404.49 3.5185 0.84001 1.0286 170.24 2.2014 3.4257 0.0038195
-146.62 0.0014249 1.9615e-07 -117.15 -117.15 -0.63724 691.20 0.0014468 -117.15 -117.15 -0.63724 1.3343 1.9666 1857.2 -0.0074417 1219.6 0.19117 0.00041181 2428.3 381.67 405.52 3.4938 0.84340 1.0320 170.85 2.1565 3.4532 0.0038783
-145.62 0.0016917 2.3003e-07 -115.18 -115.18 -0.62175 690.19 0.0014489 -115.18 -115.18 -0.62175 1.3343 1.9682 1850.4 -0.0074312 1182.3 0.19066 0.00048510 2061.4 382.51 406.56 3.4695 0.84677 1.0353 171.46 2.1128 3.4807 0.0039374
-144.62 0.0020026 2.6897e-07 -113.21 -113.21 -0.60637 689.18 0.0014510 -113.21 -113.21 -0.60637 1.3343 1.9697 1843.7 -0.0074206 1146.8 0.19014 0.00056976 1755.1 383.36 407.59 3.4458 0.85012 1.0387 172.07 2.0705 3.5082 0.0039967
-143.62 0.0023637 3.1360e-07 -111.24 -111.24 -0.59110 688.17 0.0014531 -111.24 -111.24 -0.59110 1.3343 1.9713 1836.9 -0.0074098 1113.0 0.18962 0.00066731 1498.6 384.21 408.63 3.4226 0.85346 1.0420 172.68 2.0294 3.5358 0.0040564
-142.62 0.0027820 3.6460e-07 -109.27 -109.27 -0.57593 687.16 0.0014553 -109.27 -109.27 -0.57593 1.3343 1.9728 1830.2 -0.0073988 1080.8 0.18909 0.00077939 1283.1 385.07 409.68 3.3999 0.85679 1.0454 173.28 1.9896 3.5633 0.0041164
-141.62 0.0032653 4.2275e-07 -107.30 -107.30 -0.56087 686.15 0.0014574 -107.30 -107.30 -0.56087 1.3343 1.9744 1823.5 -0.0073878 1050.1 0.18856 0.00090784 1101.5 385.93 410.72 3.3777 0.86011 1.0487 173.88 1.9508 3.5908 0.0041766
-140.62 0.0038222 4.8886e-07 -105.32 -105.32 -0.54591 685.14 0.0014596 -105.32 -105.32 -0.54591 1.3344 1.9760 1816.7 -0.0073765 1020.7 0.18803 0.0010547 948.16 386.79 411.77 3.3560 0.86341 1.0520 174.48 1.9133 3.6183 0.0042372
-139.62 0.0044623 5.6383e-07 -103.34 -103.34 -0.53105 684.13 0.0014617 -103.34 -103.34 -0.53105 1.3344 1.9776 1810.0 -0.0073651 992.74 0.18749 0.0012221 818.26 387.65 412.83 3.3347 0.86670 1.0553 175.08 1.8768 3.6459 0.0042980
-138.62 0.0051963 6.4864e-07 -101.37 -101.37 -0.51628 683.12 0.0014639 -101.37 -101.37 -0.51629 1.3345 1.9792 1803.3 -0.0073536 965.97 0.18695 0.0014125 707.94 388.52 413.88 3.3139 0.86998 1.0586 175.67 1.8413 3.6734 0.0043592
-137.62 0.0060358 7.4436e-07 -99.386 -99.386 -0.50162 682.11 0.0014660 -99.386 -99.386 -0.50162 1.3346 1.9808 1796.6 -0.0073419 940.35 0.18641 0.0016287 614.00 389.39 414.94 3.2935 0.87325 1.0619 176.26 1.8069 3.7009 0.0044206
-136.62 0.0069938 8.5211e-07 -97.404 -97.404 -0.48705 681.10 0.0014682 -97.404 -97.404 -0.48705 1.3347 1.9825 1789.9 -0.0073301 915.81 0.18586 0.0018733 533.80 390.26 416.00 3.2735 0.87650 1.0651 176.85 1.7734 3.7284 0.0044823
-135.62 0.0080843 9.7314e-07 -95.421 -95.421 -0.47258 680.09 0.0014704 -95.421 -95.421 -0.47258 1.3348 1.9841 1783.2 -0.0073180 892.30 0.18531 0.0021497 465.17 391.14 417.07 3.2540 0.87975 1.0684 177.44 1.7409 3.7559 0.0045443
-134.62 0.0093230 1.1088e-06 -93.436 -93.436 -0.45819 679.08 0.0014726 -93.436 -93.436 -0.45820 1.3350 1.9858 1776.5 -0.0073059 869.75 0.18476 0.0024613 406.30 392.02 418.14 3.2348 0.88299 1.0716 178.02 1.7093 3.7834 0.0046066
-133.62 0.010727 1.2604e-06 -91.449 -91.449 -0.44390 678.07 0.0014748 -91.450 -91.449 -0.44391 1.3351 1.9875 1769.8 -0.0072935 848.11 0.18421 0.0028116 355.67 392.91 419.21 3.2161 0.88622 1.0749 178.61 1.6786 3.8109 0.0046691
-132.62 0.012315 1.4297e-06 -89.461 -89.460 -0.42970 677.06 0.0014770 -89.461 -89.461 -0.42971 1.3353 1.9892 1763.1 -0.0072810 827.32 0.18365 0.0032049 312.03 393.79 420.29 3.1977 0.88944 1.0781 179.19 1.6488 3.8385 0.0047320
-131.62 0.014106 1.6181e-06 -87.470 -87.470 -0.41559 676.04 0.0014792 -87.471 -87.471 -0.41560 1.3354 1.9909 1756.4 -0.0072684 807.34 0.18309 0.0036453 274.33 394.68 421.36 3.1798 0.89266 1.0813 179.76 1.6197 3.8660 0.0047951
-130.62 0.016124 1.8274e-06 -85.479 -85.478 -0.40157 675.03 0.0014814 -85.479 -85.479 -0.40157 1.3356 1.9926 1749.7 -0.0072555 788.12 0.18253 0.0041375 241.69 395.58 422.44 3.1622 0.89586 1.0846 180.34 1.5915 3.8935 0.0048586
-129.62 0.018392 2.0595e-06 -83.485 -83.485 -0.38763 674.02 0.0014836 -83.486 -83.486 -0.38763 1.3358 1.9944 1743.0 -0.0072425 769.63 0.18196 0.0046867 213.37 396.47 423.53 3.1450 0.89906 1.0878 180.91 1.5641 3.9210 0.0049223
-128.62 0.020935 2.3164e-06 -81.490 -81.489 -0.37377 673.01 0.0014859 -81.491 -81.490 -0.37378 1.3360 1.9961 1736.3 -0.0072294 751.83 0.18140 0.0052981 188.75 397.37 424.62 3.1281 0.90226 1.0910 181.48 1.5374 3.9485 0.0049863
-127.62 0.023783 2.6001e-06 -79.492 -79.492 -0.36000 672.00 0.0014881 -79.494 -79.493 -0.36001 1.3363 1.9979 1729.6 -0.0072160 734.67 0.18083 0.0059776 167.29 398.27 425.71 3.1116 0.90545 1.0942 182.05 1.5114 3.9760 0.0050506
-126.62 0.026966 2.9128e-06 -77.493 -77.493 -0.34631 670.98 0.0014904 -77.495 -77.495 -0.34632 1.3365 1.9997 1722.9 -0.0072025 718.14 0.18025 0.0067313 148.56 399.18 426.80 3.0954 0.90863 1.0974 182.62 1.4861 4.0035 0.0051152
-125.62 0.030515 3.2570e-06 -75.493 -75.492 -0.33270 669.97 0.0014926 -75.494 -75.494 -0.33272 1.3368 2.0015 1716.2 -0.0071888 702.18 0.17968 0.0075660 132.17 400.09 427.89 3.0795 0.91181 1.1006 183.18 1.4615 4.0310 0.0051800
-124.62 0.034467 3.6349e-06 -73.490 -73.490 -0.31918 668.95 0.0014949 -73.492 -73.492 -0.31919 1.3371 2.0033 1709.5 -0.0071749 686.79 0.17910 0.0084885 117.81 401.00 428.99 3.0640 0.91499 1.1038 183.74 1.4375 4.0584 0.0052452
-123.62 0.038859 4.0492e-06 -71.486 -71.485 -0.30573 667.94 0.0014971 -71.488 -71.487 -0.30574 1.3374 2.0051 1702.8 -0.0071609 671.93 0.17852 0.0095065 105.19 401.91 430.10 3.0488 0.91816 1.1070 184.30 1.4141 4.0859 0.0053106
-122.62 0.043731 4.5026e-06 -69.479 -69.479 -0.29235 666.92 0.0014994 -69.482 -69.481 -0.29237 1.3377 2.0070 1696.2 -0.0071466 657.57 0.17794 0.010628 94.092 402.83 431.20 3.0339 0.92134 1.1102 184.86 1.3913 4.1134 0.0053764
-121.62 0.049128 4.9980e-06 -67.471 -67.471 -0.27906 665.91 0.0015017 -67.474 -67.473 -0.27907 1.3380 2.0089 1689.5 -0.0071322 643.70 0.17736 0.011861 84.309 403.75 432.31 3.0193 0.92451 1.1134 185.41 1.3691 4.1409 0.0054424
-120.62 0.055096 5.5383e-06 -65.461 -65.461 -0.26583 664.89 0.0015040 -65.464 -65.463 -0.26585 1.3384 2.0107 1682.8 -0.0071176 630.28 0.17678 0.013215 75.669 404.67 433.42 3.0050 0.92767 1.1166 185.96 1.3475 4.1683 0.0055087
-119.62 0.061684 6.1266e-06 -63.449 -63.449 -0.25269 663.87 0.0015063 -63.452 -63.452 -0.25271 1.3387 2.0126 1676.1 -0.0071028 617.30 0.17619 0.014700 68.027 405.60 434.53 2.9909 0.93084 1.1198 186.51 1.3264 4.1958 0.0055752
-118.62 0.068946 6.7662e-06 -61.435 -61.435 -0.23961 662.86 0.0015086 -61.439 -61.438 -0.23963 1.3391 2.0146 1669.4 -0.0070878 604.74 0.17560 0.016325 61.255 406.53 435.64 2.9772 0.93401 1.1231 187.06 1.3058 4.2233 0.0056421
-117.62 0.076937 7.4603e-06 -59.420 -59.419 -0.22661 661.84 0.0015109 -59.423 -59.422 -0.22663 1.3395 2.0165 1662.8 -0.0070726 592.58 0.17501 0.018101 55.245 407.46 436.76 2.9638 0.93718 1.1263 187.60 1.2857 4.2507 0.0057092
-116.62 0.085718 8.2126e-06 -57.402 -57.401 -0.21368 660.82 0.0015133 -57.406 -57.405 -0.21370 1.3400 2.0184 1656.1 -0.0070573 580.80 0.17442 0.020040 49.901 408.39 437.88 2.9506 0.94035 1.1295 188.14 1.2660 4.2782 0.0057767
-115.62 0.095353 9.0265e-06 -55.382 -55.381 -0.20081 659.80 0.0015156 -55.386 -55.385 -0.20084 1.3404 2.0204 1649.4 -0.0070417 569.38 0.17383 0.022152 45.142 409.33 439.01 2.9377 0.94352 1.1327 188.68 1.2468 4.3056 0.0058444
-114.62 0.10591 9.9059e-06 -53.360 -53.359 -0.18802 658.78 0.0015180 -53.365 -53.364 -0.18805 1.3409 2.0224 1642.7 -0.0070260 558.32 0.17323 0.024451 40.898 410.27 440.13 2.9250 0.94669 1.1360 189.22 1.2281 4.3330 0.0059123
-113.62 0.11746 1.0855e-05 -51.337 -51.335 -0.17529 657.76 0.0015203 -51.342 -51.340 -0.17533 1.3413 2.0244 1636.0 -0.0070100 547.59 0.17264 0.026949 37.107 411.21 441.26 2.9126 0.94987 1.1392 189.75 1.2097 4.3604 0.0059806
-112.62 0.13008 1.1876e-05 -49.311 -49.309 -0.16263 656.73 0.0015227 -49.316 -49.315 -0.16267 1.3418 2.0264 1629.3 -0.0069938 537.18 0.17204 0.029661 33.715 412.16 442.39 2.9005 0.95305 1.1424 190.28 1.1918 4.3879 0.0060491
-111.62 0.14384 1.2976e-05 -47.283 -47.281 -0.15004 655.71 0.0015251 -47.289 -47.287 -0.15008 1.3424 2.0285 1622.7 -0.0069774 527.08 0.17144 0.032600 30.675 413.10 443.53 2.8885 0.95623 1.1457 190.81 1.1742 4.4153 0.0061180
-110.62 0.15884 1.4157e-05 -45.253 -45.251 -0.13751 654.69 0.0015274 -45.259 -45.258 -0.13755 1.3429 2.0305 1616.0 -0.0069609 517.28 0.17084 0.035781 27.948 414.06 444.66 2.8769 0.95942 1.1490 191.34 1.1570 4.4427 0.0061871
-109.62 0.17516 1.5423e-05 -43.221 -43.218 -0.12505 653.66 0.0015298 -43.228 -43.226 -0.12509 1.3435 2.0326 1609.3 -0.0069441 507.76 0.17024 0.039220 25.497 415.01 445.80 2.8654 0.96261 1.1522 191.86 1.1402 4.4701 0.0062564
-108.62 0.19290 1.6780e-05 -41.186 -41.184 -0.11264 652.64 0.0015322 -41.194 -41.192 -0.11269 1.3441 2.0347 1602.6 -0.0069271 498.51 0.16964 0.042933 23.292 415.96 446.94 2.8542 0.96581 1.1555 192.38 1.1236 4.4974 0.0063261
-107.62 0.21215 1.8232e-05 -39.150 -39.147 -0.10030 651.61 0.0015347 -39.158 -39.156 -0.10036 1.3447 2.0369 1595.9 -0.0069098 489.52 0.16903 0.046937 21.305 416.92 448.09 2.8433 0.96901 1.1588 192.90 1.1075 4.5248 0.0063960
-106.62 0.23301 1.9784e-05 -37.111 -37.108 -0.088025 650.58 0.0015371 -37.120 -37.118 -0.088082 1.3453 2.0390 1589.2 -0.0068924 480.79 0.16843 0.051250 19.512 417.88 449.23 2.8325 0.97222 1.1621 193.41 1.0916 4.5522 0.0064662
-105.62 0.25561 2.1439e-05 -35.071 -35.067 -0.075806 649.55 0.0015395 -35.080 -35.078 -0.075868 1.3460 2.0412 1582.6 -0.0068747 472.30 0.16782 0.055891 17.892 418.85 450.38 2.8220 0.97544 1.1655 193.93 1.0760 4.5795 0.0065367
-104.62 0.28004 2.3203e-05 -33.028 -33.024 -0.063648 648.52 0.0015420 -33.038 -33.035 -0.063714 1.3467 2.0434 1575.9 -0.0068569 464.04 0.16721 0.060878 16.426 419.81 451.53 2.8116 0.97867 1.1688 194.44 1.0608 4.6069 0.0066074
-103.62 0.30643 2.5081e-05 -30.983 -30.978 -0.051547 647.49 0.0015444 -30.994 -30.991 -0.051619 1.3474 2.0456 1569.2 -0.0068387 456.00 0.16660 0.066231 15.099 420.78 452.68 2.8015 0.98191 1.1722 194.94 1.0458 4.6342 0.0066785
-102.62 0.33490 2.7078e-05 -28.935 -28.931 -0.039505 646.46 0.0015469 -28.947 -28.944 -0.039582 1.3481 2.0478 1562.5 -0.0068204 448.18 0.16600 0.071971 13.894 421.75 453.84 2.7916 0.98516 1.1755 195.44 1.0310 4.6615 0.0067498
-101.62 0.36558 2.9198e-05 -26.885 -26.880 -0.027520 645.43 0.0015494 -26.898 -26.894 -0.027602 1.3489 2.0501 1555.8 -0.0068018 440.57 0.16539 0.078120 12.801 422.73 454.99 2.7818 0.98841 1.1789 195.95 1.0166 4.6888 0.0068213
-100.62 0.39862 3.1446e-05 -24.833 -24.828 -0.015590 644.39 0.0015519 -24.847 -24.843 -0.015678 1.3497 2.0524 1549.1 -0.0067830 433.16 0.16478 0.084699 11.807 423.70 456.15 2.7723 0.99168 1.1823 196.44 1.0024 4.7161 0.0068932
-99.625 0.43414 3.3828e-05 -22.779 -22.773 -0.0037167 643.36 0.0015544 -22.794 -22.789 -0.0038103 1.3505 2.0547 1542.4 -0.0067639 425.95 0.16416 0.091731 10.901 424.68 457.31 2.7630 0.99496 1.1858 196.94 0.98838 4.7434 0.0069653
-98.625 0.47230 3.6349e-05 -20.722 -20.716 0.0081025 642.32 0.0015569 -20.738 -20.733 0.0080027 1.3514 2.0570 1535.7 -0.0067447 418.92 0.16355 0.099240 10.077 425.66 458.48 2.7538 0.99825 1.1892 197.43 0.97464 4.7707 0.0070377
-97.625 0.51325 3.9013e-05 -18.663 -18.656 0.019868 641.28 0.0015594 -18.680 -18.674 0.019762 1.3522 2.0594 1529.0 -0.0067251 412.07 0.16294 0.10725 9.3239 426.65 459.64 2.7448 1.0016 1.1927 197.92 0.96112 4.7979 0.0071103
-96.625 0.55714 4.1826e-05 -16.601 -16.594 0.031580 640.24 0.0015619 -16.620 -16.614 0.031467 1.3531 2.0618 1522.3 -0.0067053 405.39 0.16233 0.11579 8.6365 427.63 460.81 2.7360 1.0049 1.1962 198.40 0.94783 4.8251 0.0071832
-95.625 0.60416 4.4793e-05 -14.537 -14.529 0.043240 639.20 0.0015645 -14.557 -14.550 0.043120 1.3540 2.0642 1515.7 -0.0066853 398.88 0.16171 0.12488 8.0078 428.62 461.98 2.7274 1.0082 1.1997 198.88 0.93475 4.8524 0.0072564
-94.625 0.65446 4.7918e-05 -12.470 -12.462 0.054849 638.16 0.0015670 -12.491 -12.484 0.054721 1.3550 2.0667 1509.0 -0.0066650 392.53 0.16110 0.13455 7.4323 429.61 463.15 2.7189 1.0116 1.2032 199.36 0.92188 4.8796 0.0073299
-93.625 0.70822 5.1207e-05 -10.401 -10.392 0.066406 637.12 0.0015696 -10.424 -10.416 0.066271 1.3560 2.0691 1502.3 -0.0066444 386.34 0.16048 0.14482 6.9050 430.60 464.32 2.7107 1.0149 1.2068 199.83 0.90921 4.9068 0.0074036
-92.625 0.76564 5.4664e-05 -8.3295 -8.3193 0.077914 636.07 0.0015722 -8.3535 -8.3452 0.077771 1.3570 2.0716 1495.6 -0.0066236 380.31 0.15987 0.15573 6.4212 431.60 465.49 2.7025 1.0183 1.2104 200.30 0.89673 4.9340 0.0074776
-91.625 0.82689 5.8295e-05 -6.2553 -6.2443 0.089372 635.02 0.0015747 -6.2808 -6.2719 0.089220 1.3580 2.0742 1488.9 -0.0066025 374.41 0.15925 0.16731 5.9769 432.59 466.67 2.6946 1.0217 1.2140 200.77 0.88445 4.9611 0.0075518
-90.625 0.89218 6.2105e-05 -4.1784 -4.1666 0.10078 633.98 0.0015773 -4.2056 -4.1959 0.10062 1.3591 2.0767 1482.2 -0.0065811 368.66 0.15864 0.17958 5.5685 433.59 467.84 2.6868 1.0251 1.2177 201.24 0.87236 4.9883 0.0076263
-89.625 0.96172 6.6097e-05 -2.0990 -2.0863 0.11214 632.93 0.0015800 -2.1279 -2.1174 0.11197 1.3602 2.0793 1475.5 -0.0065595 363.05 0.15802 0.19258 5.1928 434.59 469.02 2.6791 1.0285 1.2213 201.70 0.86045 5.0154 0.0077011
-88.625 1.0357 7.0276e-05 -0.016901 -0.0031685 0.12346 631.88 0.0015826 -0.047516 -0.036215 0.12328 1.3613 2.0819 1468.8 -0.0065375 357.56 0.15740 0.20633 4.8466 435.59 470.20 2.6717 1.0320 1.2250 202.15 0.84873 5.0425 0.0077761
-87.625 1.1144 7.4648e-05 2.0679 2.0827 0.13473 630.83 0.0015852 2.0355 2.0476 0.13454 1.3625 2.0846 1462.1 -0.0065153 352.21 0.15679 0.22087 4.5276 436.60 471.39 2.6643 1.0354 1.2288 202.61 0.83718 5.0696 0.0078514
-86.625 1.1979 7.9216e-05 4.1554 4.1713 0.14595 629.77 0.0015879 4.1211 4.1342 0.14575 1.3637 2.0873 1455.4 -0.0064928 346.98 0.15617 0.23623 4.2331 437.61 472.57 2.6571 1.0389 1.2325 203.06 0.82580 5.0967 0.0079270
-85.625 1.2866 8.3984e-05 6.2457 6.2627 0.15712 628.72 0.0015905 6.2094 6.2235 0.15691 1.3649 2.0900 1448.8 -0.0064701 341.87 0.15555 0.25245 3.9612 438.61 473.75 2.6501 1.0424 1.2363 203.50 0.81460 5.1237 0.0080028
-84.625 1.3806 8.8956e-05 8.3387 8.3570 0.16826 627.66 0.0015932 8.3004 8.3155 0.16803 1.3661 2.0927 1442.1 -0.0064470 336.87 0.15494 0.26956 3.7097 439.63 474.94 2.6432 1.0460 1.2402 203.95 0.80356 5.1508 0.0080789
-83.625 1.4803 9.4137e-05 10.435 10.454 0.17934 626.60 0.0015959 10.394 10.410 0.17911 1.3674 2.0955 1435.4 -0.0064236 331.99 0.15432 0.28760 3.4771 440.64 476.13 2.6364 1.0495 1.2440 204.38 0.79269 5.1778 0.0081553
-82.625 1.5858 9.9530e-05 12.533 12.554 0.19039 625.54 0.0015986 12.491 12.508 0.19014 1.3687 2.0983 1428.7 -0.0063999 327.22 0.15370 0.30659 3.2616 441.65 477.31 2.6298 1.0531 1.2479 204.82 0.78199 5.2048 0.0082319
-81.625 1.6975 0.00010514 14.635 14.657 0.20139 624.48 0.0016013 14.590 14.609 0.20113 1.3700 2.1012 1422.0 -0.0063759 322.55 0.15309 0.32659 3.0619 442.67 478.50 2.6233 1.0567 1.2519 205.25 0.77144 5.2318 0.0083088
-80.625 1.8155 0.00011096 16.739 16.764 0.21235 623.42 0.0016041 16.692 16.712 0.21208 1.3714 2.1041 1415.4 -0.0063516 317.99 0.15247 0.34763 2.8766 443.69 479.70 2.6169 1.0603 1.2558 205.67 0.76106 5.2587 0.0083860
-79.625 1.9402 0.00011701 18.847 18.873 0.22327 622.36 0.0016068 18.797 18.819 0.22299 1.3728 2.1070 1408.7 -0.0063270 313.52 0.15186 0.36974 2.7046 444.71 480.89 2.6106 1.0639 1.2598 206.10 0.75083 5.2857 0.0084634
-78.625 2.0718 0.00012328 20.957 20.985 0.23414 621.29 0.0016096 20.905 20.928 0.23385 1.3742 2.1099 1402.0 -0.0063021 309.15 0.15124 0.39296 2.5448 445.73 482.08 2.6045 1.0676 1.2639 206.51 0.74076 5.3126 0.0085411
-77.625 2.2107 0.00012978 23.071 23.100 0.24498 620.22 0.0016123 23.016 23.040 0.24468 1.3757 2.1129 1395.3 -0.0062768 304.88 0.15062 0.41735 2.3961 446.75 483.27 2.5985 1.0712 1.2680 206.93 0.73084 5.3395 0.0086190
-76.625 2.3571 0.00013650 25.187 25.219 0.25578 619.15 0.0016151 25.130 25.156 0.25546 1.3772 2.1159 1388.7 -0.0062512 300.69 0.15001 0.44292 2.2577 447.78 484.47 2.5926 1.0749 1.2721 207.34 0.72107 5.3664 0.0086972
-75.625 2.5113 0.00014346 27.307 27.340 0.26654 618.08 0.0016179 27.247 27.275 0.26620 1.3787 2.1190 1382.0 -0.0062253 296.59 0.14939 0.46974 2.1288 448.81 485.67 2.5869 1.0787 1.2762 207.74 0.71146 5.3933 0.0087757
-74.625 2.6736 0.00015064 29.430 29.465 0.27726 617.01 0.0016207 29.366 29.396 0.27691 1.3802 2.1221 1375.4 -0.0061990 292.58 0.14878 0.49783 2.0087 449.83 486.86 2.5812 1.0824 1.2804 208.14 0.70200 5.4201 0.0088544
-73.625 2.8444 0.00015806 31.556 31.593 0.28794 615.93 0.0016236 31.489 31.521 0.28758 1.3818 2.1252 1368.7 -0.0061724 288.65 0.14816 0.52725 1.8966 450.86 488.06 2.5757 1.0862 1.2847 208.54 0.69268 5.4469 0.0089334
-72.625 3.0240 0.00016571 33.685 33.725 0.29858 614.85 0.0016264 33.615 33.649 0.29821 1.3834 2.1284 1362.0 -0.0061454 284.81 0.14755 0.55804 1.7920 451.90 489.26 2.5703 1.0900 1.2889 208.93 0.68351 5.4737 0.0090126
-71.625 3.2127 0.00017359 35.817 35.860 0.30919 613.78 0.0016293 35.745 35.781 0.30880 1.3851 2.1316 1355.4 -0.0061181 281.03 0.14694 0.59024 1.6942 452.93 490.46 2.5650 1.0938 1.2932 209.32 0.67448 5.5005 0.0090922
-70.625 3.4108 0.00018170 37.953 37.998 0.31976 612.69 0.0016321 37.877 37.915 0.31935 1.3867 2.1349 1348.7 -0.0060904 277.34 0.14632 0.62390 1.6028 453.96 491.66 2.5598 1.0976 1.2976 209.70 0.66560 5.5273 0.0091720
-69.625 3.6187 0.00019005 40.092 40.139 0.33030 611.61 0.0016350 40.013 40.053 0.32987 1.3884 2.1382 1342.1 -0.0060624 273.72 0.14571 0.65906 1.5173 455.00 492.86 2.5547 1.1015 1.3020 210.08 0.65687 5.5540 0.0092520
-68.625 3.8367 0.00019862 42.234 42.285 0.34079 610.53 0.0016379 42.152 42.195 0.34036 1.3902 2.1415 1335.5 -0.0060339 270.17 0.14510 0.69577 1.4372 456.04 494.06 2.5497 1.1054 1.3064 210.45 0.64827 5.5807 0.0093324
-67.625 4.0652 0.00020743 44.379 44.433 0.35126 609.44 0.0016409 44.294 44.340 0.35080 1.3919 2.1449 1328.8 -0.0060051 266.69 0.14449 0.73408 1.3622 457.08 495.26 2.5448 1.1093 1.3109 210.82 0.63981 5.6074 0.0094130
-66.625 4.3046 0.00021645 46.528 46.585 0.36169 608.35 0.0016438 46.439 46.488 0.36122 1.3937 2.1483 1322.2 -0.0059760 263.28 0.14388 0.77404 1.2919 458.12 496.46 2.5400 1.1133 1.3154 211.18 0.63150 5.6341 0.0094939
-65.625 4.5551 0.00022571 48.681 48.741 0.37209 607.26 0.0016467 48.588 48.640 0.37160 1.3955 2.1518 1315.6 -0.0059464 259.93 0.14327 0.81570 1.2259 459.16 497.67 2.5353 1.1172 1.3200 211.54 0.62332 5.6608 0.0095750
-64.625 4.8173 0.00023518 50.837 50.901 0.38245 606.16 0.0016497 50.740 50.795 0.38195 1.3974 2.1553 1308.9 -0.0059164 256.65 0.14266 0.85910 1.1640 460.21 498.87 2.5307 1.1212 1.3246 211.89 0.61527 5.6874 0.0096564
-63.625 5.0915 0.00024486 52.996 53.064 0.39278 605.07 0.0016527 52.896 52.954 0.39226 1.3993 2.1588 1302.3 -0.0058861 253.42 0.14205 0.90429 1.1058 461.25 500.07 2.5262 1.1252 1.3293 212.24 0.60736 5.7140 0.0097382
-62.625 5.3781 0.00025476 55.159 55.230 0.40308 603.97 0.0016557 55.055 55.117 0.40254 1.4012 2.1624 1295.7 -0.0058553 250.26 0.14144 0.95134 1.0511 462.30 501.28 2.5218 1.1293 1.3340 212.58 0.59958 5.7406 0.0098201
-61.625 5.6774 0.00026486 57.326 57.401 0.41335 602.87 0.0016587 57.218 57.283 0.41279 1.4031 2.1660 1289.1 -0.0058241 247.16 0.14084 1.0003 0.99972 463.35 502.48 2.5175 1.1333 1.3387 212.92 0.59194 5.7672 0.0099024
-60.625 5.9899 0.00027516 59.496 59.575 0.42358 601.77 0.0016618 59.385 59.453 0.42301 1.4051 2.1697 1282.5 -0.0057925 244.12 0.14023 1.0512 0.95131 464.40 503.68 2.5133 1.1374 1.3435 213.26 0.58442 5.7938 0.0099850
-59.625 6.3160 0.00028565 61.670 61.754 0.43379 600.66 0.0016648 61.554 61.627 0.43320 1.4071 2.1734 1275.9 -0.0057605 241.13 0.13962 1.1041 0.90573 465.45 504.89 2.5091 1.1415 1.3483 213.58 0.57704 5.8203 0.010068
-58.625 6.6561 0.00029633 63.847 63.936 0.44396 599.55 0.0016679 63.728 63.805 0.44335 1.4091 2.1772 1269.3 -0.0057280 238.19 0.13902 1.1591 0.86277 466.50 506.09 2.5051 1.1457 1.3532 213.90 0.56978 5.8468 0.010151
-57.625 7.0107 0.00030719 66.029 66.122 0.45411 598.44 0.0016710 65.905 65.986 0.45348 1.4111 2.1810 1262.7 -0.0056951 235.31 0.13842 1.2161 0.82228 467.55 507.30 2.5011 1.1498 1.3581 214.22 0.56265 5.8733 0.010234
-56.625 7.3801 0.00031821 68.214 68.312 0.46422 597.33 0.0016741 68.086 68.172 0.46358 1.4132 2.1848 1256.1 -0.0056617 232.48 0.13781 1.2754 0.78408 468.60 508.50 2.4972 1.1540 1.3631 214.53 0.55564 5.8998 0.010318
-55.625 7.7648 0.00032939 70.403 70.506 0.47431 596.22 0.0016772 70.271 70.361 0.47364 1.4153 2.1887 1249.5 -0.0056279 229.69 0.13721 1.3369 0.74802 469.66 509.71 2.4934 1.1582 1.3681 214.84 0.54875 5.9263 0.010402
-54.625 8.1652 0.00034072 72.596 72.704 0.48437 595.10 0.0016804 72.460 72.554 0.48368 1.4174 2.1927 1242.9 -0.0055937 226.96 0.13661 1.4006 0.71396 470.72 510.91 2.4897 1.1624 1.3731 215.14 0.54199 5.9527 0.010486
-53.625 8.5819 0.00035218 74.792 74.906 0.49440 593.98 0.0016836 74.652 74.752 0.49369 1.4196 2.1967 1236.3 -0.0055589 224.27 0.13601 1.4667 0.68178 471.77 512.11 2.4860 1.1667 1.3782 215.43 0.53535 5.9792 0.010571
-52.625 9.0151 0.00036377 76.993 77.112 0.50440 592.86 0.0016867 76.849 76.954 0.50368 1.4218 2.2007 1229.8 -0.0055237 221.63 0.13541 1.5353 0.65136 472.83 513.32 2.4824 1.1710 1.3834 215.72 0.52882 6.0056 0.010656
-51.625 9.4655 0.00037546 79.197 79.323 0.51437 591.73 0.0016900 79.049 79.159 0.51363 1.4240 2.2048 1223.2 -0.0054880 219.04 0.13482 1.6062 0.62258 473.89 514.52 2.4789 1.1752 1.3886 216.00 0.52241 6.0320 0.010741
-50.625 9.9335 0.00038726 81.406 81.538 0.52432 590.60 0.0016932 81.253 81.369 0.52356 1.4262 2.2089 1216.6 -0.0054519 216.48 0.13422 1.6797 0.59534 474.95 515.73 2.4755 1.1796 1.3938 216.28 0.51612 6.0584 0.010827
-49.625 10.419 0.00039913 83.618 83.757 0.53424 589.47 0.0016964 83.462 83.584 0.53347 1.4285 2.2131 1210.1 -0.0054152 213.98 0.13363 1.7558 0.56954 476.01 516.93 2.4722 1.1839 1.3991 216.55 0.50994 6.0848 0.010913
-48.625 10.924 0.00041106 85.835 85.980 0.54413 588.34 0.0016997 85.674 85.802 0.54334 1.4308 2.2173 1203.5 -0.0053780 211.51 0.13303 1.8345 0.54510 477.07 518.13 2.4689 1.1883 1.4044 216.82 0.50387 6.1112 0.010999
-47.625 11.448 0.00042305 88.056 88.207 0.55400 587.20 0.0017030 87.891 88.025 0.55319 1.4331 2.2216 1196.9 -0.0053403 209.08 0.13244 1.9159 0.52194 478.14 519.33 2.4657 1.1927 1.4098 217.08 0.49792 6.1375 0.011085
-46.625 11.991 0.00043506 90.281 90.440 0.56385 586.06 0.0017063 90.111 90.252 0.56302 1.4354 2.2259 1190.4 -0.0053020 206.69 0.13185 2.0001 0.49997 479.20 520.53 2.4625 1.1971 1.4153 217.33 0.49207 6.1639 0.011172
-45.625 12.554 0.00044708 92.510 92.676 0.57366 584.92 0.0017096 92.336 92.484 0.57282 1.4378 2.2303 1183.8 -0.0052633 204.34 0.13126 2.0872 0.47912 480.27 521.74 2.4594 1.2015 1.4207 217.58 0.48633 6.1902 0.011259
-44.625 13.137 0.00045908 94.743 94.917 0.58346 583.77 0.0017130 94.565 94.720 0.58260 1.4402 2.2347 1177.3 -0.0052240 202.03 0.13067 2.1771 0.45933 481.33 522.94 2.4564 1.2060 1.4263 217.82 0.48069 6.2165 0.011347
-43.625 13.741 0.00047106 96.980 97.162 0.59323 582.62 0.0017164 96.799 96.961 0.59235 1.4426 2.2392 1170.7 -0.0051841 199.75 0.13008 2.2700 0.44053 482.40 524.14 2.4535 1.2104 1.4319 218.05 0.47516 6.2429 0.011435
-42.625 14.367 0.00048297 99.222 99.413 0.60297 581.47 0.0017198 99.036 99.207 0.60208 1.4450 2.2437 1164.2 -0.0051437 197.51 0.12949 2.3659 0.42267 483.46 525.33 2.4506 1.2149 1.4375 218.28 0.46973 6.2692 0.011523
-41.625 15.015 0.00049480 101.47 101.67 0.61270 580.32 0.0017232 101.28 101.46 0.61179 1.4475 2.2483 1157.7 -0.0051027 195.30 0.12891 2.4649 0.40569 484.53 526.53 2.4478 1.2195 1.4432 218.50 0.46440 6.2955 0.011612
-40.625 15.686 0.00050652 103.72 103.93 0.62239 579.16 0.0017266 103.52 103.71 0.62147 1.4500 2.2529 1151.1 -0.0050611 193.13 0.12832 2.5671 0.38954 485.60 527.73 2.4450 1.2240 1.4489 218.72 0.45917 6.3218 0.011701
-39.625 16.380 0.00051811 105.97 106.19 0.63207 578.00 0.0017301 105.78 105.97 0.63113 1.4525 2.2576 1144.6 -0.0050189 190.99 0.12774 2.6725 0.37418 486.67 528.93 2.4423 1.2286 1.4547 218.93 0.45403 6.3481 0.011790
-38.625 17.097 0.00052953 108.23 108.46 0.64172 576.83 0.0017336 108.03 108.24 0.64077 1.4550 2.2623 1138.0 -0.0049761 188.88 0.12716 2.7813 0.35955 487.74 530.12 2.4397 1.2332 1.4606 219.13 0.44900 6.3744 0.011880
-37.625 17.838 0.00054076 110.50 110.73 0.65136 575.66 0.0017371 110.29 110.51 0.65039 1.4576 2.2671 1131.5 -0.0049327 186.81 0.12658 2.8934 0.34562 488.81 531.32 2.4371 1.2378 1.4665 219.33 0.44405 6.4007 0.011970
-36.625 18.604 0.00055175 112.76 113.01 0.66097 574.49 0.0017407 112.56 112.78 0.65999 1.4602 2.2719 1125.0 -0.0048887 184.76 0.12600 3.0089 0.33235 489.88 532.51 2.4346 1.2424 1.4724 219.52 0.43920 6.4270 0.012060
-35.625 19.395 0.00056249 115.04 115.29 0.67055 573.32 0.0017442 114.83 115.06 0.66956 1.4628 2.2768 1118.5 -0.0048440 182.75 0.12542 3.1280 0.31969 490.95 533.70 2.4321 1.2471 1.4784 219.70 0.43444 6.4533 0.012151
-34.625 20.212 0.00057293 117.31 117.58 0.68012 572.14 0.0017478 117.10 117.34 0.67912 1.4654 2.2818 1111.9 -0.0047987 180.76 0.12485 3.2506 0.30763 492.02 534.89 2.4297 1.2517 1.4845 219.88 0.42977 6.4797 0.012243
-33.625 21.056 0.00058304 119.60 119.88 0.68967 570.96 0.0017514 119.38 119.63 0.68865 1.4681 2.2868 1105.4 -0.0047527 178.80 0.12427 3.3770 0.29612 493.09 536.08 2.4273 1.2564 1.4906 220.05 0.42519 6.5060 0.012334
-32.625 21.926 0.00059278 121.88 122.17 0.69919 569.77 0.0017551 121.66 121.93 0.69817 1.4708 2.2918 1098.9 -0.0047061 176.87 0.12370 3.5071 0.28514 494.17 537.27 2.4250 1.2611 1.4968 220.21 0.42070 6.5323 0.012426
-31.625 22.823 0.00060211 124.17 124.48 0.70870 568.58 0.0017588 123.95 124.23 0.70767 1.4735 2.2970 1092.3 -0.0046587 174.97 0.12313 3.6410 0.27465 495.24 538.46 2.4227 1.2659 1.5031 220.36 0.41629 6.5587 0.012519
-30.625 23.749 0.00061098 126.47 126.78 0.71818 567.39 0.0017625 126.24 126.53 0.71714 1.4762 2.3021 1085.8 -0.0046107 173.09 0.12256 3.7787 0.26464 496.31 539.64 2.4205 1.2706 1.5094 220.51 0.41196 6.5850 0.012612
-29.625 24.703 0.00061935 128.77 129.10 0.72765 566.19 0.0017662 128.54 128.84 0.72660 1.4790 2.3074 1079.3 -0.0045619 171.24 0.12200 3.9205 0.25507 497.38 540.83 2.4184 1.2754 1.5157 220.65 0.40772 6.6114 0.012706
-28.625 25.687 0.00062718 131.07 131.42 0.73710 564.99 0.0017699 130.84 131.16 0.73604 1.4818 2.3126 1072.8 -0.0045124 169.42 0.12143 4.0663 0.24592 498.46 542.01 2.4162 1.2802 1.5222 220.79 0.40356 6.6378 0.012800
-27.625 26.700 0.00063442 133.38 133.74 0.74652 563.78 0.0017737 133.15 133.48 0.74547 1.4846 2.3180 1066.2 -0.0044621 167.62 0.12087 4.2163 0.23717 499.53 543.19 2.4142 1.2850 1.5286 220.91 0.39947 6.6642 0.012894
-26.625 27.743 0.00064101 135.70 136.07 0.75593 562.57 0.0017775 135.47 135.81 0.75487 1.4874 2.3234 1059.7 -0.0044111 165.84 0.12031 4.3705 0.22881 500.60 544.37 2.4122 1.2899 1.5352 221.03 0.39547 6.6906 0.012989
-25.625 28.817 0.00064691 138.02 138.40 0.76532 561.36 0.0017814 137.78 138.14 0.76426 1.4902 2.3289 1053.2 -0.0043593 164.09 0.11975 4.5290 0.22080 501.68 545.55 2.4102 1.2947 1.5418 221.14 0.39154 6.7171 0.013084
-24.625 29.923 0.00065205 140.34 140.74 0.77470 560.14 0.0017853 140.11 140.48 0.77363 1.4931 2.3344 1046.7 -0.0043067 162.36 0.11919 4.6918 0.21314 502.75 546.72 2.4083 1.2996 1.5485 221.25 0.38768 6.7436 0.013180
-23.625 31.061 0.00065639 142.67 143.08 0.78405 558.92 0.0017892 142.44 142.82 0.78298 1.4960 2.3400 1040.1 -0.0042533 160.65 0.11863 4.8592 0.20580 503.82 547.90 2.4064 1.3045 1.5552 221.35 0.38391 6.7701 0.013277
-22.625 32.232 0.00065985 145.01 145.43 0.79339 557.69 0.0017931 144.77 145.17 0.79232 1.4990 2.3457 1033.6 -0.0041990 158.97 0.11807 5.0311 0.19877 504.90 549.07 2.4045 1.3095 1.5621 221.44 0.38020 6.7967 0.013374
-21.625 33.435 0.00066239 147.35 147.79 0.80271 556.46 0.0017971 147.11 147.52 0.80164 1.5019 2.3514 1027.1 -0.0041439 157.30 0.11752 5.2076 0.19203 505.97 550.24 2.4027 1.3144 1.5690 221.52 0.37656 6.8232 0.013471
-20.625 34.673 0.00066392 149.69 150.15 0.81201 555.23 0.0018011 149.45 149.88 0.81095 1.5049 2.3572 1020.6 -0.0040879 155.66 0.11697 5.3889 0.18557 507.04 551.40 2.4010 1.3194 1.5759 221.59 0.37300 6.8499 0.013569
-19.625 35.946 0.00066439 152.04 152.52 0.82129 553.99 0.0018051 151.80 152.25 0.82024 1.5079 2.3630 1014.0 -0.0040311 154.04 0.11642 5.5750 0.17937 508.11 552.57 2.3992 1.3244 1.5829 221.66 0.36950 6.8765 0.013668
-18.625 37.253 0.00066373 154.40 154.89 0.83056 552.74 0.0018092 154.16 154.62 0.82952 1.5109 2.3689 1007.5 -0.0039733 152.44 0.11587 5.7660 0.17343 509.19 553.73 2.3976 1.3294 1.5901 221.72 0.36608 6.9032 0.013767
-17.625 38.596 0.00066185 156.75 157.27 0.83981 551.49 0.0018133 156.52 157.00 0.83878 1.5140 2.3749 1001.0 -0.0039145 150.86 0.11532 5.9621 0.16773 510.26 554.89 2.3959 1.3345 1.5972 221.77 0.36272 6.9300 0.013867
-16.625 39.976 0.00065868 159.12 159.65 0.84905 550.24 0.0018174 158.89 159.39 0.84803 1.5171 2.3810 994.44 -0.0038549 149.29 0.11478 6.1632 0.16225 511.33 556.05 2.3943 1.3395 1.6045 221.81 0.35942 6.9568 0.013968
-15.625 41.392 0.00065415 161.49 162.04 0.85827 548.98 0.0018216 161.26 161.78 0.85726 1.5202 2.3871 987.91 -0.0037942 147.75 0.11423 6.3696 0.15700 512.40 557.20 2.3927 1.3446 1.6119 221.85 0.35619 6.9836 0.014069
-14.625 42.846 0.00064816 163.86 164.43 0.86747 547.71 0.0018258 163.64 164.18 0.86649 1.5233 2.3933 981.37 -0.0037325 146.22 0.11369 6.5812 0.15195 513.47 558.36 2.3912 1.3497 1.6193 221.87 0.35302 7.0105 0.014170
-13.625 44.338 0.00064063 166.24 166.83 0.87666 546.44 0.0018300 166.02 166.58 0.87569 1.5264 2.3996 974.83 -0.0036698 144.72 0.11315 6.7983 0.14710 514.54 559.51 2.3897 1.3549 1.6268 221.89 0.34992 7.0375 0.014273
-12.625 45.870 0.00063147 168.63 169.24 0.88584 545.17 0.0018343 168.41 168.99 0.88489 1.5296 2.4059 968.29 -0.0036061 143.23 0.11261 7.0208 0.14243 515.61 560.65 2.3883 1.3600 1.6344 221.90 0.34688 7.0646 0.014376
-11.625 47.440 0.00062058 171.02 171.65 0.89500 543.89 0.0018386 170.81 171.41 0.89407 1.5328 2.4124 961.75 -0.0035413 141.76 0.11208 7.2490 0.13795 516.68 561.80 2.3868 1.3652 1.6421 221.91 0.34389 7.0917 0.014479
-10.625 49.051 0.00060786 173.42 174.07 0.90414 542.60 0.0018430 173.21 173.83 0.90324 1.5360 2.4189 955.20 -0.0034753 140.30 0.11154 7.4829 0.13364 517.75 562.94 2.3854 1.3704 1.6498 221.90 0.34097 7.1188 0.014584
-9.6250 50.703 0.00059322 175.82 176.49 0.91327 541.31 0.0018474 175.61 176.26 0.91240 1.5393 2.4255 948.65 -0.0034082 138.86 0.11101 7.7226 0.12949 518.81 564.08 2.3841 1.3757 1.6577 221.88 0.33810 7.1461 0.014689
-8.6250 52.396 0.00057653 178.22 178.92 0.92239 540.02 0.0018518 178.03 178.70 0.92154 1.5426 2.4321 942.10 -0.0033400 137.44 0.11048 7.9683 0.12550 519.88 565.21 2.3827 1.3809 1.6657 221.86 0.33529 7.1734 0.014795
-7.6250 54.131 0.00055770 180.64 181.35 0.93149 538.72 0.0018563 180.45 181.14 0.93068 1.5459 2.4389 935.55 -0.0032705 136.03 0.10995 8.2200 0.12165 520.94 566.35 2.3814 1.3862 1.6737 221.83 0.33254 7.2008 0.014902
-6.6250 55.909 0.00053659 183.05 183.80 0.94058 537.41 0.0018608 182.87 183.59 0.93980 1.5492 2.4457 928.99 -0.0031998 134.64 0.10942 8.4779 0.11795 522.01 567.48 2.3801 1.3915 1.6819 221.79 0.32984 7.2284 0.015009
-5.6250 57.730 0.00051310 185.48 186.24 0.94965 536.10 0.0018653 185.30 186.05 0.94892 1.5525 2.4526 922.43 -0.0031279 133.27 0.10889 8.7420 0.11439 523.07 568.60 2.3789 1.3969 1.6902 221.74 0.32720 7.2560 0.015117
-4.6250 59.595 0.00048709 187.91 188.70 0.95871 534.78 0.0018699 187.74 188.51 0.95802 1.5559 2.4596 915.87 -0.0030546 131.91 0.10837 9.0126 0.11096 524.13 569.72 2.3777 1.4022 1.6985 221.68 0.32461 7.2837 0.015226
-3.6250 61.505 0.00045843 190.34 191.16 0.96776 533.45 0.0018746 190.19 190.98 0.96711 1.5593 2.4667 909.30 -0.0029800 130.56 0.10785 9.2896 0.10765 525.19 570.84 2.3765 1.4076 1.7070 221.62 0.32207 7.3115 0.015336
-2.6250 63.461 0.00042698 192.78 193.62 0.97680 532.12 0.0018793 192.64 193.46 0.97620 1.5627 2.4739 902.73 -0.0029041 129.23 0.10733 9.5733 0.10446 526.25 571.96 2.3753 1.4131 1.7156 221.54 0.31958 7.3394 0.015447
-1.6250 65.462 0.00039259 195.23 196.09 0.98582 530.78 0.0018840 195.10 195.95 0.98527 1.5662 2.4811 896.16 -0.0028267 127.91 0.10681 9.8638 0.10138 527.31 573.07 2.3742 1.4185 1.7243 221.45 0.31715 7.3674 0.015559
-0.62500 67.510 0.00035513 197.68 198.57 0.99483 529.44 0.0018888 197.56 198.44 0.99434 1.5696 2.4885 889.58 -0.0027478 126.61 0.10629 10.161 0.098414 528.37 574.18 2.3731 1.4240 1.7331 221.36 0.31476 7.3956 0.015671
0.37500 69.606 0.00031442 200.13 201.06 1.0038 528.09 0.0018936 200.03 200.94 1.0034 1.5731 2.4960 883.00 -0.0026675 125.32 0.10578 10.466 0.095552 529.42 575.28 2.3720 1.4295 1.7421 221.26 0.31242 7.4239 0.015785
1.3750 71.749 0.00027030 202.60 203.55 1.0128 526.73 0.0018985 202.51 203.45 1.0124 1.5767 2.5035 876.42 -0.0025856 124.04 0.10527 10.777 0.092790 530.48 576.38 2.3709 1.4350 1.7512 221.14 0.31013 7.4523 0.015899
2.3750 73.941 0.00022261 205.06 206.04 1.0218 525.37 0.0019034 204.99 205.96 1.0215 1.5802 2.5112 869.83 -0.0025022 122.78 0.10476 11.096 0.090123 531.53 577.47 2.3699 1.4406 1.7604 221.02 0.30789 7.4808 0.016015
3.3750 76.183 0.00017117 207.54 208.55 1.0307 523.99 0.0019084 207.48 208.48 1.0305 1.5838 2.5190 863.24 -0.0024171 121.53 0.10425 11.422 0.087549 532.58 578.56 2.3688 1.4462 1.7697 220.89 0.30569 7.5095 0.016131
4.3750 78.475 0.00011578 210.02 211.06 1.0397 522.62 0.0019134 209.98 211.01 1.0395 1.5874 2.5268 856.64 -0.0023303 120.29 0.10374 11.756 0.085062 533.63 579.65 2.3678 1.4518 1.7792 220.75 0.30354 7.5384 0.016249
5.3750 80.817 5.6254e-05 212.50 213.57 1.0486 521.23 0.0019185 212.48 213.55 1.0486 1.5910 2.5348 850.04 -0.0022417 119.06 0.10324 12.098 0.082660 534.67 580.73 2.3669 1.4575 1.7888 220.60 0.30144 7.5674 0.016368
6.3750 93.669 undefined 214.89 216.13 1.0572 520.00 0.0019231 214.89 216.13 1.0572 1.5946 2.5416 844.54 -0.0021682 117.99 0.10280 520.00 0.0019231 214.89 216.13 1.0572 1.5946 2.5416 844.54 -0.0021682 117.99 0.10280
7.3750 186.53 undefined 216.49 218.96 1.0629 520.00 0.0019231 216.49 218.96 1.0629 1.5984 2.5387 847.48 -0.0022212 117.99 0.10290 520.00 0.0019231 216.49 218.96 1.0629 1.5984 2.5387 847.48 -0.0022212 117.99 0.10290
8.3750 279.37 undefined 218.09 221.79 1.0686 520.00 0.0019231 218.09 221.79 1.0686 1.6022 2.5359 850.40 -0.0022729 117.98 0.10301 520.00 0.0019231 218.09 221.79 1.0686 1.6022 2.5359 850.40 -0.0022729 117.98 0.10301
9.3750 372.21 undefined 219.69 224.62 1.0743 520.00 0.0019231 219.69 224.62 1.0743 1.6059 2.5332 853.28 -0.0023234 117.98 0.10311 520.00 0.0019231 219.69 224.62 1.0743 1.6059 2.5332 853.28 -0.0023234 117.98 0.10311
10.375 465.03 undefined 221.30 227.46 1.0800 520.00 0.0019231 221.30 227.46 1.0800 1.6097 2.5307 856.14 -0.0023728 117.98 0.10321 520.00 0.0019231 221.30 227.46 1.0800 1.6097 2.5307 856.14 -0.0023728 117.98 0.10321
11.375 557.84 undefined 222.91 230.31 1.0856 520.00 0.0019231 222.91 230.31 1.0856 1.6135 2.5284 858.97 -0.0024209 117.97 0.10331 520.00 0.0019231 222.91 230.31 1.0856 1.6135 2.5284 858.97 -0.0024209 117.97 0.10331
12.375 650.63 undefined 224.52 233.15 1.0913 520.00 0.0019231 224.52 233.15 1.0913 1.6174 2.5262 861.76 -0.0024680 117.97 0.10342 520.00 0.0019231 224.52 233.15 1.0913 1.6174 2.5262 861.76 -0.0024680 117.97 0.10342
13.375 743.40 undefined 226.14 236.00 1.0970 520.00 0.0019231 226.14 236.00 1.0970 1.6212 2.5241 864.53 -0.0025140 117.97 0.10352 520.00 0.0019231 226.14 236.00 1.0970 1.6212 2.5241 864.53 -0.0025140 117.97 0.10352
14.375 836.16 undefined 227.77 238.85 1.1026 520.00 0.0019231 227.77 238.85 1.1026 1.6251 2.5222 867.28 -0.0025589 117.96 0.10362 520.00 0.0019231 227.77 238.85 1.1026 1.6251 2.5222 867.28 -0.0025589 117.96 0.10362
15.375 928.89 undefined 229.39 241.71 1.1083 520.00 0.0019231 229.39 241.71 1.1083 1.6289 2.5204 869.99 -0.0026028 117.96 0.10373 520.00 0.0019231 229.39 241.71 1.1083 1.6289 2.5204 869.99 -0.0026028 117.96 0.10373
16.375 1021.6 undefined 231.02 244.57 1.1139 520.00 0.0019231 231.02 244.57 1.1139 1.6328 2.5187 872.68 -0.0026458 117.96 0.10383 520.00 0.0019231 231.02 244.57 1.1139 1.6328 2.5187 872.68 -0.0026458 117.96 0.10383
17.375 1114.3 undefined 232.66 247.43 1.1195 520.00 0.0019231 232.66 247.43 1.1195 1.6367 2.5172 875.35 -0.0026877 117.96 0.10394 520.00 0.0019231 232.66 247.43 1.1195 1.6367 2.5172 875.35 -0.0026877 117.96 0.10394
18.375 1206.9 undefined 234.30 250.30 1.1252 520.00 0.0019231 234.30 250.30 1.1252 1.6406 2.5157 877.99 -0.0027288 117.96 0.10404 520.00 0.0019231 234.30 250.30 1.1252 1.6406 2.5157 877.99 -0.0027288 117.96 0.10404
19.375 1299.6 undefined 235.94 253.17 1.1308 520.00 0.0019231 235.94 253.17 1.1308 1.6445 2.5144 880.60 -0.0027690 117.95 0.10415 520.00 0.0019231 235.94 253.17 1.1308 1.6445 2.5144 880.60 -0.0027690 117.95 0.10415
20.375 1392.2 undefined 237.59 256.05 1.1364 520.00 0.0019231 237.59 256.05 1.1364 1.6485 2.5131 883.20 -0.0028082 117.95 0.10425 520.00 0.0019231 237.59 256.05 1.1364 1.6485 2.5131 883.20 -0.0028082 117.95 0.10425
21.375 1484.8 undefined 239.24 258.92 1.1420 520.00 0.0019231 239.24 258.92 1.1420 1.6524 2.5120 885.76 -0.0028467 117.95 0.10436 520.00 0.0019231 239.24 258.92 1.1420 1.6524 2.5120 885.76 -0.0028467 117.95 0.10436
22.375 1577.3 undefined 240.89 261.81 1.1476 520.00 0.0019231 240.89 261.81 1.1476 1.6564 2.5110 888.31 -0.0028843 117.95 0.10447 520.00 0.0019231 240.89 261.81 1.1476 1.6564 2.5110 888.31 -0.0028843 117.95 0.10447
23.375 1669.8 undefined 242.55 264.69 1.1532 520.00 0.0019231 242.55 264.69 1.1532 1.6604 2.5101 890.83 -0.0029210 117.95 0.10457 520.00 0.0019231 242.55 264.69 1.1532 1.6604 2.5101 890.83 -0.0029210 117.95 0.10457
24.375 1762.3 undefined 244.21 267.58 1.1588 520.00 0.0019231 244.21 267.58 1.1588 1.6644 2.5092 893.33 -0.0029571 117.95 0.10468 520.00 0.0019231 244.21 267.58 1.1588 1.6644 2.5092 893.33 -0.0029571 117.95 0.10468
25.375 1854.8 undefined 245.88 270.47 1.1644 520.00 0.0019231 245.88 270.47 1.1644 1.6684 2.5085 895.81 -0.0029923 117.95 0.10479 520.00 0.0019231 245.88 270.47 1.1644 1.6684 2.5085 895.81 -0.0029923 117.95 0.10479
26.375 1947.2 undefined 247.55 273.37 1.1700 520.00 0.0019231 247.55 273.37 1.1700 1.6724 2.5079 898.26 -0.0030268 117.95 0.10489 520.00 0.0019231 247.55 273.37 1.1700 1.6724 2.5079 898.26 -0.0030268 117.95 0.10489
27.375 2039.5 undefined 249.22 276.27 1.1756 520.00 0.0019231 249.22 276.27 1.1756 1.6765 2.5073 900.70 -0.0030606 117.95 0.10500 520.00 0.0019231 249.22 276.27 1.1756 1.6765 2.5073 900.70 -0.0030606 117.95 0.10500
28.375 2131.9 undefined 250.90 279.17 1.1812 520.00 0.0019231 250.90 279.17 1.1812 1.6805 2.5068 903.11 -0.0030937 117.95 0.10511 520.00 0.0019231 250.90 279.17 1.1812 1.6805 2.5068 903.11 -0.0030937 117.95 0.10511
29.375 2224.2 undefined 252.59 282.08 1.1867 520.00 0.0019231 252.59 282.08 1.1867 1.6846 2.5065 905.51 -0.0031261 117.95 0.10522 520.00 0.0019231 252.59 282.08 1.1867 1.6846 2.5065 905.51 -0.0031261 117.95 0.10522
30.375 2316.5 undefined 254.27 284.99 1.1923 520.00 0.0019231 254.27 284.99 1.1923 1.6887 2.5062 907.89 -0.0031578 117.95 0.10533 520.00 0.0019231 254.27 284.99 1.1923 1.6887 2.5062 907.89 -0.0031578 117.95 0.10533
31.375 2408.7 undefined 255.96 287.90 1.1979 520.00 0.0019231 255.96 287.90 1.1979 1.6928 2.5059 910.24 -0.0031888 117.95 0.10544 520.00 0.0019231 255.96 287.90 1.1979 1.6928 2.5059 910.24 -0.0031888 117.95 0.10544
32.375 2500.9 undefined 257.66 290.82 1.2034 520.00 0.0019231 257.66 290.82 1.2034 1.6969 2.5058 912.58 -0.0032193 117.95 0.10555 520.00 0.0019231 257.66 290.82 1.2034 1.6969 2.5058 912.58 -0.0032193 117.95 0.10555
33.375 2593.0 undefined 259.36 293.74 1.2090 520.00 0.0019231 259.36 293.74 1.2090 1.7010 2.5057 914.90 -0.0032491 117.95 0.10566 520.00 0.0019231 259.36 293.74 1.2090 1.7010 2.5057 914.90 -0.0032491 117.95 0.10566
34.375 2685.1 undefined 261.06 296.66 1.2145 520.00 0.0019231 261.06 296.66 1.2145 1.7051 2.5057 917.21 -0.0032783 117.95 0.10577 520.00 0.0019231 261.06 296.66 1.2145 1.7051 2.5057 917.21 -0.0032783 117.95 0.10577
35.375 2777.1 undefined 262.77 299.59 1.2201 520.00 0.0019231 262.77 299.59 1.2201 1.7092 2.5058 919.49 -0.0033069 117.95 0.10588 520.00 0.0019231 262.77 299.59 1.2201 1.7092 2.5058 919.49 -0.0033069 117.95 0.10588
36.375 2869.1 undefined 264.48 302.52 1.2256 520.00 0.0019231 264.48 302.52 1.2256 1.7134 2.5059 921.76 -0.0033349 117.95 0.10599 520.00 0.0019231 264.48 302.52 1.2256 1.7134 2.5059 921.76 -0.0033349 117.95 0.10599
37.375 2961.1 undefined 266.19 305.46 1.2311 520.00 0.0019231 266.19 305.46 1.2311 1.7175 2.5062 924.02 -0.0033623 117.95 0.10610 520.00 0.0019231 266.19 305.46 1.2311 1.7175 2.5062 924.02 -0.0033623 117.95 0.10610
38.375 3053.0 undefined 267.91 308.39 1.2367 520.00 0.0019231 267.91 308.39 1.2367 1.7217 2.5064 926.25 -0.0033892 117.95 0.10621 520.00 0.0019231 267.91 308.39 1.2367 1.7217 2.5064 926.25 -0.0033892 117.95 0.10621
39.375 3144.9 undefined 269.64 311.34 1.2422 520.00 0.0019231 269.64 311.34 1.2422 1.7259 2.5068 928.48 -0.0034156 117.96 0.10632 520.00 0.0019231 269.64 311.34 1.2422 1.7259 2.5068 928.48 -0.0034156 117.96 0.10632
40.375 3236.7 undefined 271.36 314.28 1.2477 520.00 0.0019231 271.36 314.28 1.2477 1.7301 2.5072 930.68 -0.0034414 117.96 0.10643 520.00 0.0019231 271.36 314.28 1.2477 1.7301 2.5072 930.68 -0.0034414 117.96 0.10643
41.375 3328.5 undefined 273.10 317.23 1.2532 520.00 0.0019231 273.10 317.23 1.2532 1.7343 2.5077 932.87 -0.0034667 117.96 0.10654 520.00 0.0019231 273.10 317.23 1.2532 1.7343 2.5077 932.87 -0.0034667 117.96 0.10654
42.375 3420.2 undefined 274.83 320.18 1.2587 520.00 0.0019231 274.83 320.18 1.2587 1.7385 2.5082 935.05 -0.0034915 117.96 0.10666 520.00 0.0019231 274.83 320.18 1.2587 1.7385 2.5082 935.05 -0.0034915 117.96 0.10666
43.375 3511.9 undefined 276.57 323.14 1.2642 520.00 0.0019231 276.57 323.14 1.2642 1.7427 2.5088 937.21 -0.0035158 117.96 0.10677 520.00 0.0019231 276.57 323.14 1.2642 1.7427 2.5088 937.21 -0.0035158 117.96 0.10677
44.375 3603.5 undefined 278.32 326.10 1.2698 520.00 0.0019231 278.32 326.10 1.2698 1.7469 2.5094 939.36 -0.0035397 117.97 0.10688 520.00 0.0019231 278.32 326.10 1.2698 1.7469 2.5094 939.36 -0.0035397 117.97 0.10688
45.375 3695.1 undefined 280.07 329.06 1.2752 520.00 0.0019231 280.07 329.06 1.2752 1.7511 2.5101 941.49 -0.0035630 117.97 0.10700 520.00 0.0019231 280.07 329.06 1.2752 1.7511 2.5101 941.49 -0.0035630 117.97 0.10700
46.375 3786.6 undefined 281.82 332.03 1.2807 520.00 0.0019231 281.82 332.03 1.2807 1.7554 2.5109 943.61 -0.0035859 117.97 0.10711 520.00 0.0019231 281.82 332.03 1.2807 1.7554 2.5109 943.61 -0.0035859 117.97 0.10711
47.375 3878.1 undefined 283.58 335.00 1.2862 520.00 0.0019231 283.58 335.00 1.2862 1.7596 2.5117 945.72 -0.0036083 117.97 0.10722 520.00 0.0019231 283.58 335.00 1.2862 1.7596 2.5117 945.72 -0.0036083 117.97 0.10722
48.375 3969.5 undefined 285.34 337.97 1.2917 520.00 0.0019231 285.34 337.97 1.2917 1.7639 2.5126 947.81 -0.0036303 117.98 0.10734 520.00 0.0019231 285.34 337.97 1.2917 1.7639 2.5126 947.81 -0.0036303 117.98 0.10734
49.375 4060.9 undefined 287.11 340.95 1.2972 520.00 0.0019231 287.11 340.95 1.2972 1.7681 2.5135 949.89 -0.0036518 117.98 0.10745 520.00 0.0019231 287.11 340.95 1.2972 1.7681 2.5135 949.89 -0.0036518 117.98 0.10745
50.375 4152.2 undefined 288.88 343.93 1.3027 520.00 0.0019231 288.88 343.93 1.3027 1.7724 2.5144 951.96 -0.0036730 117.98 0.10757 520.00 0.0019231 288.88 343.93 1.3027 1.7724 2.5144 951.96 -0.0036730 117.98 0.10757
51.375 4243.5 undefined 290.65 346.92 1.3082 520.00 0.0019231 290.65 346.92 1.3082 1.7767 2.5155 954.02 -0.0036937 117.99 0.10768 520.00 0.0019231 290.65 346.92 1.3082 1.7767 2.5155 954.02 -0.0036937 117.99 0.10768
52.375 4334.7 undefined 292.43 349.90 1.3136 520.00 0.0019231 292.43 349.90 1.3136 1.7810 2.5165 956.06 -0.0037139 117.99 0.10780 520.00 0.0019231 292.43 349.90 1.3136 1.7810 2.5165 956.06 -0.0037139 117.99 0.10780
53.375 4425.8 undefined 294.21 352.90 1.3191 520.00 0.0019231 294.21 352.90 1.3191 1.7852 2.5176 958.10 -0.0037338 117.99 0.10791 520.00 0.0019231 294.21 352.90 1.3191 1.7852 2.5176 958.10 -0.0037338 117.99 0.10791
54.375 4516.9 undefined 296.00 355.89 1.3246 520.00 0.0019231 296.00 355.89 1.3246 1.7895 2.5188 960.12 -0.0037533 118.00 0.10803 520.00 0.0019231 296.00 355.89 1.3246 1.7895 2.5188 960.12 -0.0037533 118.00 0.10803
55.375 4608.0 undefined 297.79 358.89 1.3300 520.00 0.0019231 297.79 358.89 1.3300 1.7938 2.5200 962.13 -0.0037724 118.00 0.10815 520.00 0.0019231 297.79 358.89 1.3300 1.7938 2.5200 962.13 -0.0037724 118.00 0.10815
56.375 4699.0 undefined 299.59 361.89 1.3355 520.00 0.0019231 299.59 361.89 1.3355 1.7981 2.5212 964.13 -0.0037911 118.01 0.10826 520.00 0.0019231 299.59 361.89 1.3355 1.7981 2.5212 964.13 -0.0037911 118.01 0.10826
57.375 4789.9 undefined 301.39 364.90 1.3409 520.00 0.0019231 301.39 364.90 1.3409 1.8025 2.5225 966.12 -0.0038095 118.01 0.10838 520.00 0.0019231 301.39 364.90 1.3409 1.8025 2.5225 966.12 -0.0038095 118.01 0.10838
58.375 4880.8 undefined 303.19 367.91 1.3464 520.00 0.0019231 303.19 367.91 1.3464 1.8068 2.5238 968.10 -0.0038275 118.01 0.10850 520.00 0.0019231 303.19 367.91 1.3464 1.8068 2.5238 968.10 -0.0038275 118.01 0.10850
59.375 4971.6 undefined 305.00 370.92 1.3518 520.00 0.0019231 305.00 370.92 1.3518 1.8111 2.5252 970.07 -0.0038451 118.02 0.10861 520.00 0.0019231 305.00 370.92 1.3518 1.8111 2.5252 970.07 -0.0038451 118.02 0.10861
60.375 5062.4 undefined 306.82 373.94 1.3573 520.00 0.0019231 306.82 373.94 1.3573 1.8154 2.5266 972.02 -0.0038624 118.02 0.10873 520.00 0.0019231 306.82 373.94 1.3573 1.8154 2.5266 972.02 -0.0038624 118.02 0.10873
61.375 5153.1 undefined 308.63 376.96 1.3627 520.00 0.0019231 308.63 376.96 1.3627 1.8197 2.5281 973.97 -0.0038793 118.03 0.10885 520.00 0.0019231 308.63 376.96 1.3627 1.8197 2.5281 973.97 -0.0038793 118.03 0.10885
62.375 5243.8 undefined 310.45 379.98 1.3682 520.00 0.0019231 310.45 379.98 1.3682 1.8241 2.5296 975.91 -0.0038959 118.03 0.10897 520.00 0.0019231 310.45 379.98 1.3682 1.8241 2.5296 975.91 -0.0038959 118.03 0.10897
63.375 5334.4 undefined 312.28 383.01 1.3736 520.00 0.0019231 312.28 383.01 1.3736 1.8284 2.5311 977.84 -0.0039122 118.04 0.10909 520.00 0.0019231 312.28 383.01 1.3736 1.8284 2.5311 977.84 -0.0039122 118.04 0.10909
64.375 5424.9 undefined 314.11 386.04 1.3790 520.00 0.0019231 314.11 386.04 1.3790 1.8327 2.5326 979.76 -0.0039281 118.04 0.10921 520.00 0.0019231 314.11 386.04 1.3790 1.8327 2.5326 979.76 -0.0039281 118.04 0.10921
65.375 5515.4 undefined 315.95 389.08 1.3845 520.00 0.0019231 315.95 389.08 1.3845 1.8371 2.5342 981.67 -0.0039437 118.05 0.10933 520.00 0.0019231 315.95 389.08 1.3845 1.8371 2.5342 981.67 -0.0039437 118.05 0.10933
66.375 5605.8 undefined 317.79 392.11 1.3899 520.00 0.0019231 317.79 392.11 1.3899 1.8414 2.5359 983.57 -0.0039591 118.05 0.10945 520.00 0.0019231 317.79 392.11 1.3899 1.8414 2.5359 983.57 -0.0039591 118.05 0.10945
67.375 5696.2 undefined 319.63 395.16 1.3953 520.00 0.0019231 319.63 395.16 1.3953 1.8458 2.5375 985.46 -0.0039741 118.06 0.10957 520.00 0.0019231 319.63 395.16 1.3953 1.8458 2.5375 985.46 -0.0039741 118.06 0.10957
68.375 5786.5 undefined 321.48 398.20 1.4007 520.00 0.0019231 321.48 398.20 1.4007 1.8501 2.5392 987.34 -0.0039888 118.06 0.10969 520.00 0.0019231 321.48 398.20 1.4007 1.8501 2.5392 987.34 -0.0039888 118.06 0.10969
69.375 5876.8 undefined 323.33 401.25 1.4061 520.00 0.0019231 323.33 401.25 1.4061 1.8545 2.5410 989.22 -0.0040032 118.07 0.10981 520.00 0.0019231 323.33 401.25 1.4061 1.8545 2.5410 989.22 -0.0040032 118.07 0.10981
70.375 5967.0 undefined 325.19 404.30 1.4116 520.00 0.0019231 325.19 404.30 1.4116 1.8588 2.5427 991.08 -0.0040173 118.07 0.10993 520.00 0.0019231 325.19 404.30 1.4116 1.8588 2.5427 991.08 -0.0040173 118.07 0.10993
71.375 6057.1 undefined 327.05 407.36 1.4170 520.00 0.0019231 327.05 407.36 1.4170 1.8632 2.5445 992.94 -0.0040311 118.08 0.11005 520.00 0.0019231 327.05 407.36 1.4170 1.8632 2.5445 992.94 -0.0040311 118.08 0.11005
72.375 6147.2 undefined 328.91 410.42 1.4224 520.00 0.0019231 328.91 410.42 1.4224 1.8675 2.5463 994.79 -0.0040447 118.09 0.11017 520.00 0.0019231 328.91 410.42 1.4224 1.8675 2.5463 994.79 -0.0040447 118.09 0.11017
73.375 6237.2 undefined 330.78 413.48 1.4278 520.00 0.0019231 330.78 413.48 1.4278 1.8719 2.5482 996.63 -0.0040580 118.09 0.11029 520.00 0.0019231 330.78 413.48 1.4278 1.8719 2.5482 996.63 -0.0040580 118.09 0.11029
74.375 6327.2 undefined 332.66 416.55 1.4332 520.00 0.0019231 332.66 416.55 1.4332 1.8763 2.5501 998.46 -0.0040710 118.10 0.11041 520.00 0.0019231 332.66 416.55 1.4332 1.8763 2.5501 998.46 -0.0040710 118.10 0.11041
75.375 6417.1 undefined 334.53 419.62 1.4386 520.00 0.0019231 334.53 419.62 1.4386 1.8806 2.5520 1000.3 -0.0040838 118.10 0.11053 520.00 0.0019231 334.53 419.62 1.4386 1.8806 2.5520 1000.3 -0.0040838 118.10 0.11053
76.375 6507.0 undefined 336.42 422.69 1.4440 520.00 0.0019231 336.42 422.69 1.4440 1.8850 2.5539 1002.1 -0.0040962 118.11 0.11066 520.00 0.0019231 336.42 422.69 1.4440 1.8850 2.5539 1002.1 -0.0040962 118.11 0.11066
77.375 6596.8 undefined 338.30 425.77 1.4494 520.00 0.0019231 338.30 425.77 1.4494 1.8893 2.5559 1003.9 -0.0041085 118.12 0.11078 520.00 0.0019231 338.30 425.77 1.4494 1.8893 2.5559 1003.9 -0.0041085 118.12 0.11078
78.375 6686.5 undefined 340.20 428.85 1.4548 520.00 0.0019231 340.20 428.85 1.4548 1.8937 2.5579 1005.7 -0.0041205 118.12 0.11090 520.00 0.0019231 340.20 428.85 1.4548 1.8937 2.5579 1005.7 -0.0041205 118.12 0.11090
79.375 6776.2 undefined 342.09 431.94 1.4601 520.00 0.0019231 342.09 431.94 1.4601 1.8981 2.5599 1007.5 -0.0041322 118.13 0.11103 520.00 0.0019231 342.09 431.94 1.4601 1.8981 2.5599 1007.5 -0.0041322 118.13 0.11103
80.375 6865.8 undefined 343.99 435.03 1.4655 520.00 0.0019231 343.99 435.03 1.4655 1.9024 2.5620 1009.3 -0.0041437 118.14 0.11115 520.00 0.0019231 343.99 435.03 1.4655 1.9024 2.5620 1009.3 -0.0041437 118.14 0.11115
81.375 6955.4 undefined 345.90 438.12 1.4709 520.00 0.0019231 345.90 438.12 1.4709 1.9068 2.5640 1011.1 -0.0041550 118.14 0.11128 520.00 0.0019231 345.90 438.12 1.4709 1.9068 2.5640 1011.1 -0.0041550 118.14 0.11128
82.375 7044.9 undefined 347.81 441.22 1.4763 520.00 0.0019231 347.81 441.22 1.4763 1.9112 2.5661 1012.8 -0.0041661 118.15 0.11140 520.00 0.0019231 347.81 441.22 1.4763 1.9112 2.5661 1012.8 -0.0041661 118.15 0.11140
83.375 7134.4 undefined 349.72 444.31 1.4817 520.00 0.0019231 349.72 444.31 1.4817 1.9155 2.5683 1014.6 -0.0041769 118.16 0.11153 520.00 0.0019231 349.72 444.31 1.4817 1.9155 2.5683 1014.6 -0.0041769 118.16 0.11153
84.375 7223.7 undefined 351.64 447.42 1.4870 520.00 0.0019231 351.64 447.42 1.4870 1.9199 2.5704 1016.4 -0.0041875 118.16 0.11165 520.00 0.0019231 351.64 447.42 1.4870 1.9199 2.5704 1016.4 -0.0041875 118.16 0.11165
85.375 7313.1 undefined 353.56 450.52 1.4924 520.00 0.0019231 353.56 450.52 1.4924 1.9243 2.5726 1018.1 -0.0041978 118.17 0.11178 520.00 0.0019231 353.56 450.52 1.4924 1.9243 2.5726 1018.1 -0.0041978 118.17 0.11178
86.375 7402.3 undefined 355.49 453.63 1.4978 520.00 0.0019231 355.49 453.63 1.4978 1.9286 2.5748 1019.9 -0.0042080 118.18 0.11191 520.00 0.0019231 355.49 453.63 1.4978 1.9286 2.5748 1019.9 -0.0042080 118.18 0.11191
87.375 7491.6 undefined 357.42 456.75 1.5031 520.00 0.0019231 357.42 456.75 1.5031 1.9330 2.5770 1021.6 -0.0042179 118.19 0.11203 520.00 0.0019231 357.42 456.75 1.5031 1.9330 2.5770 1021.6 -0.0042179 118.19 0.11203
88.375 7580.7 undefined 359.35 459.87 1.5085 520.00 0.0019231 359.35 459.87 1.5085 1.9374 2.5792 1023.3 -0.0042277 118.19 0.11216 520.00 0.0019231 359.35 459.87 1.5085 1.9374 2.5792 1023.3 -0.0042277 118.19 0.11216
89.375 7669.8 undefined 361.29 462.99 1.5138 520.00 0.0019231 361.29 462.99 1.5138 1.9417 2.5815 1025.1 -0.0042372 118.20 0.11229 520.00 0.0019231 361.29 462.99 1.5138 1.9417 2.5815 1025.1 -0.0042372 118.20 0.11229
90.375 7758.9 undefined 363.23 466.11 1.5192 520.00 0.0019231 363.23 466.11 1.5192 1.9461 2.5837 1026.8 -0.0042465 118.21 0.11242 520.00 0.0019231 363.23 466.11 1.5192 1.9461 2.5837 1026.8 -0.0042465 118.21 0.11242
91.375 7847.8 undefined 365.18 469.24 1.5245 520.00 0.0019231 365.18 469.24 1.5245 1.9505 2.5860 1028.5 -0.0042557 118.22 0.11254 520.00 0.0019231 365.18 469.24 1.5245 1.9505 2.5860 1028.5 -0.0042557 118.22 0.11254
92.375 7936.8 undefined 367.14 472.37 1.5299 520.00 0.0019231 367.14 472.37 1.5299 1.9548 2.5884 1030.2 -0.0042646 118.23 0.11267 520.00 0.0019231 367.14 472.37 1.5299 1.9548 2.5884 1030.2 -0.0042646 118.23 0.11267
93.375 8025.6 undefined 369.09 475.51 1.5352 520.00 0.0019231 369.09 475.51 1.5352 1.9592 2.5907 1031.9 -0.0042734 118.23 0.11280 520.00 0.0019231 369.09 475.51 1.5352 1.9592 2.5907 1031.9 -0.0042734 118.23 0.11280
94.375 8114.4 undefined 371.05 478.64 1.5406 520.00 0.0019231 371.05 478.64 1.5406 1.9636 2.5930 1033.6 -0.0042820 118.24 0.11293 520.00 0.0019231 371.05 478.64 1.5406 1.9636 2.5930 1033.6 -0.0042820 118.24 0.11293
95.375 8203.2 undefined 373.02 481.79 1.5459 520.00 0.0019231 373.02 481.79 1.5459 1.9679 2.5954 1035.3 -0.0042903 118.25 0.11306 520.00 0.0019231 373.02 481.79 1.5459 1.9679 2.5954 1035.3 -0.0042903 118.25 0.11306
96.375 8291.9 undefined 374.99 484.93 1.5513 520.00 0.0019231 374.99 484.93 1.5513 1.9723 2.5978 1037.0 -0.0042986 118.26 0.11319 520.00 0.0019231 374.99 484.93 1.5513 1.9723 2.5978 1037.0 -0.0042986 118.26 0.11319
97.375 8380.5 undefined 376.96 488.08 1.5566 520.00 0.0019231 376.96 488.08 1.5566 1.9766 2.6002 1038.6 -0.0043066 118.27 0.11332 520.00 0.0019231 376.96 488.08 1.5566 1.9766 2.6002 1038.6 -0.0043066 118.27 0.11332
98.375 8469.1 undefined 378.94 491.24 1.5619 520.00 0.0019231 378.94 491.24 1.5619 1.9810 2.6026 1040.3 -0.0043145 118.27 0.11345 520.00 0.0019231 378.94 491.24 1.5619 1.9810 2.6026 1040.3 -0.0043145 118.27 0.11345
99.375 8557.6 undefined 380.93 494.39 1.5673 520.00 0.0019231 380.93 494.39 1.5673 1.9854 2.6051 1042.0 -0.0043221 118.28 0.11358 520.00 0.0019231 380.93 494.39 1.5673 1.9854 2.6051 1042.0 -0.0043221 118.28 0.11358
100.38 8646.0 undefined 382.91 497.55 1.5726 520.00 0.0019231 382.91 497.55 1.5726 1.9897 2.6076 1043.6 -0.0043297 118.29 0.11371 520.00 0.0019231 382.91 497.55 1.5726 1.9897 2.6076 1043.6 -0.0043297 118.29 0.11371
101.38 8734.4 undefined 384.91 500.72 1.5779 520.00 0.0019231 384.91 500.72 1.5779 1.9941 2.6100 1045.3 -0.0043370 118.30 0.11384 520.00 0.0019231 384.91 500.72 1.5779 1.9941 2.6100 1045.3 -0.0043370 118.30 0.11384
102.38 8822.8 undefined 386.90 503.88 1.5832 520.00 0.0019231 386.90 503.88 1.5832 1.9984 2.6125 1046.9 -0.0043442 118.31 0.11397 520.00 0.0019231 386.90 503.88 1.5832 1.9984 2.6125 1046.9 -0.0043442 118.31 0.11397
103.38 8911.1 undefined 388.90 507.06 1.5886 520.00 0.0019231 388.90 507.06 1.5886 2.0028 2.6150 1048.6 -0.0043513 118.32 0.11411 520.00 0.0019231 388.90 507.06 1.5886 2.0028 2.6150 1048.6 -0.0043513 118.32 0.11411
104.38 8999.3 undefined 390.91 510.23 1.5939 520.00 0.0019231 390.91 510.23 1.5939 2.0071 2.6176 1050.2 -0.0043581 118.33 0.11424 520.00 0.0019231 390.91 510.23 1.5939 2.0071 2.6176 1050.2 -0.0043581 118.33 0.11424
105.38 9087.5 undefined 392.92 513.41 1.5992 520.00 0.0019231 392.92 513.41 1.5992 2.0114 2.6201 1051.8 -0.0043649 118.34 0.11437 520.00 0.0019231 392.92 513.41 1.5992 2.0114 2.6201 1051.8 -0.0043649 118.34 0.11437
106.38 9175.6 undefined 394.93 516.59 1.6045 520.00 0.0019231 394.93 516.59 1.6045 2.0158 2.6226 1053.5 -0.0043715 118.35 0.11450 520.00 0.0019231 394.93 516.59 1.6045 2.0158 2.6226 1053.5 -0.0043715 118.35 0.11450
107.38 9263.6 undefined 396.95 519.78 1.6098 520.00 0.0019231 396.95 519.78 1.6098 2.0201 2.6252 1055.1 -0.0043779 118.35 0.11463 520.00 0.0019231 396.95 519.78 1.6098 2.0201 2.6252 1055.1 -0.0043779 118.35 0.11463
108.38 9351.6 undefined 398.97 522.97 1.6151 520.00 0.0019231 398.97 522.97 1.6151 2.0245 2.6278 1056.7 -0.0043842 118.36 0.11477 520.00 0.0019231 398.97 522.97 1.6151 2.0245 2.6278 1056.7 -0.0043842 118.36 0.11477
109.38 9439.5 undefined 401.00 526.16 1.6204 520.00 0.0019231 401.00 526.16 1.6204 2.0288 2.6304 1058.3 -0.0043903 118.37 0.11490 520.00 0.0019231 401.00 526.16 1.6204 2.0288 2.6304 1058.3 -0.0043903 118.37 0.11490
110.38 9527.4 undefined 403.03 529.35 1.6257 520.00 0.0019231 403.03 529.35 1.6257 2.0331 2.6330 1059.9 -0.0043963 118.38 0.11503 520.00 0.0019231 403.03 529.35 1.6257 2.0331 2.6330 1059.9 -0.0043963 118.38 0.11503
111.38 9615.2 undefined 405.06 532.55 1.6310 520.00 0.0019231 405.06 532.55 1.6310 2.0375 2.6356 1061.5 -0.0044022 118.39 0.11517 520.00 0.0019231 405.06 532.55 1.6310 2.0375 2.6356 1061.5 -0.0044022 118.39 0.11517
112.38 9703.0 undefined 407.10 535.76 1.6363 520.00 0.0019231 407.10 535.76 1.6363 2.0418 2.6382 1063.1 -0.0044079 118.40 0.11530 520.00 0.0019231 407.10 535.76 1.6363 2.0418 2.6382 1063.1 -0.0044079 118.40 0.11530
113.38 9790.7 undefined 409.15 538.96 1.6416 520.00 0.0019231 409.15 538.96 1.6416 2.0461 2.6409 1064.7 -0.0044135 118.41 0.11544 520.00 0.0019231 409.15 538.96 1.6416 2.0461 2.6409 1064.7 -0.0044135 118.41 0.11544
114.38 9878.3 undefined 411.20 542.17 1.6469 520.00 0.0019231 411.20 542.17 1.6469 2.0504 2.6435 1066.3 -0.0044190 118.42 0.11557 520.00 0.0019231 411.20 542.17 1.6469 2.0504 2.6435 1066.3 -0.0044190 118.42 0.11557
115.38 9965.9 undefined 413.25 545.39 1.6522 520.00 0.0019231 413.25 545.39 1.6522 2.0548 2.6462 1067.8 -0.0044244 118.43 0.11571 520.00 0.0019231 413.25 545.39 1.6522 2.0548 2.6462 1067.8 -0.0044244 118.43 0.11571
116.38 10053. undefined 415.31 548.61 1.6575 520.00 0.0019231 415.31 548.61 1.6575 2.0591 2.6489 1069.4 -0.0044296 118.44 0.11584 520.00 0.0019231 415.31 548.61 1.6575 2.0591 2.6489 1069.4 -0.0044296 118.44 0.11584
117.38 10141. undefined 417.37 551.83 1.6628 520.00 0.0019231 417.37 551.83 1.6628 2.0634 2.6516 1071.0 -0.0044347 118.45 0.11598 520.00 0.0019231 417.37 551.83 1.6628 2.0634 2.6516 1071.0 -0.0044347 118.45 0.11598
118.38 10228. undefined 419.43 555.05 1.6681 520.00 0.0019231 419.43 555.05 1.6681 2.0677 2.6543 1072.5 -0.0044397 118.46 0.11611 520.00 0.0019231 419.43 555.05 1.6681 2.0677 2.6543 1072.5 -0.0044397 118.46 0.11611
119.38 10316. undefined 421.50 558.28 1.6733 520.00 0.0019231 421.50 558.28 1.6733 2.0720 2.6570 1074.1 -0.0044445 118.47 0.11625 520.00 0.0019231 421.50 558.28 1.6733 2.0720 2.6570 1074.1 -0.0044445 118.47 0.11625
120.38 10403. undefined 423.58 561.51 1.6786 520.00 0.0019231 423.58 561.51 1.6786 2.0763 2.6597 1075.6 -0.0044492 118.48 0.11639 520.00 0.0019231 423.58 561.51 1.6786 2.0763 2.6597 1075.6 -0.0044492 118.48 0.11639
121.38 10490. undefined 425.65 564.75 1.6839 520.00 0.0019231 425.65 564.75 1.6839 2.0806 2.6625 1077.2 -0.0044539 118.49 0.11652 520.00 0.0019231 425.65 564.75 1.6839 2.0806 2.6625 1077.2 -0.0044539 118.49 0.11652
122.38 10577. undefined 427.74 567.99 1.6892 520.00 0.0019231 427.74 567.99 1.6892 2.0849 2.6652 1078.7 -0.0044584 118.50 0.11666 520.00 0.0019231 427.74 567.99 1.6892 2.0849 2.6652 1078.7 -0.0044584 118.50 0.11666
123.38 10665. undefined 429.82 571.23 1.6944 520.00 0.0019231 429.82 571.23 1.6944 2.0892 2.6680 1080.3 -0.0044628 118.51 0.11680 520.00 0.0019231 429.82 571.23 1.6944 2.0892 2.6680 1080.3 -0.0044628 118.51 0.11680
124.38 10752. undefined 431.92 574.47 1.6997 520.00 0.0019231 431.92 574.47 1.6997 2.0935 2.6707 1081.8 -0.0044671 118.52 0.11694 520.00 0.0019231 431.92 574.47 1.6997 2.0935 2.6707 1081.8 -0.0044671 118.52 0.11694
125.38 10839. undefined 434.01 577.72 1.7050 520.00 0.0019231 434.01 577.72 1.7050 2.0978 2.6735 1083.3 -0.0044712 118.53 0.11708 520.00 0.0019231 434.01 577.72 1.7050 2.0978 2.6735 1083.3 -0.0044712 118.53 0.11708
126.38 10926. undefined 436.11 580.98 1.7102 520.00 0.0019231 436.11 580.98 1.7102 2.1021 2.6763 1084.9 -0.0044753 118.54 0.11721 520.00 0.0019231 436.11 580.98 1.7102 2.1021 2.6763 1084.9 -0.0044753 118.54 0.11721
127.38 11013. undefined 438.22 584.23 1.7155 520.00 0.0019231 438.22 584.23 1.7155 2.1064 2.6791 1086.4 -0.0044793 118.55 0.11735 520.00 0.0019231 438.22 584.23 1.7155 2.1064 2.6791 1086.4 -0.0044793 118.55 0.11735
128.38 11099. undefined 440.32 587.49 1.7208 520.00 0.0019231 440.32 587.49 1.7208 2.1107 2.6819 1087.9 -0.0044832 118.56 0.11749 520.00 0.0019231 440.32 587.49 1.7208 2.1107 2.6819 1087.9 -0.0044832 118.56 0.11749
129.38 11186. undefined 442.44 590.76 1.7260 520.00 0.0019231 442.44 590.76 1.7260 2.1149 2.6847 1089.4 -0.0044869 118.57 0.11763 520.00 0.0019231 442.44 590.76 1.7260 2.1149 2.6847 1089.4 -0.0044869 118.57 0.11763
130.38 11273. undefined 444.55 594.02 1.7313 520.00 0.0019231 444.55 594.02 1.7313 2.1192 2.6875 1090.9 -0.0044906 118.59 0.11777 520.00 0.0019231 444.55 594.02 1.7313 2.1192 2.6875 1090.9 -0.0044906 118.59 0.11777
131.38 11360. undefined 446.68 597.29 1.7365 520.00 0.0019231 446.68 597.29 1.7365 2.1235 2.6903 1092.4 -0.0044942 118.60 0.11791 520.00 0.0019231 446.68 597.29 1.7365 2.1235 2.6903 1092.4 -0.0044942 118.60 0.11791
132.38 11446. undefined 448.80 600.57 1.7418 520.00 0.0019231 448.80 600.57 1.7418 2.1277 2.6932 1093.9 -0.0044976 118.61 0.11805 520.00 0.0019231 448.80 600.57 1.7418 2.1277 2.6932 1093.9 -0.0044976 118.61 0.11805
133.38 11533. undefined 450.93 603.85 1.7470 520.00 0.0019231 450.93 603.85 1.7470 2.1320 2.6960 1095.4 -0.0045010 118.62 0.11819 520.00 0.0019231 450.93 603.85 1.7470 2.1320 2.6960 1095.4 -0.0045010 118.62 0.11819
134.38 11619. undefined 453.06 607.13 1.7522 520.00 0.0019231 453.06 607.13 1.7522 2.1363 2.6989 1096.9 -0.0045043 118.63 0.11833 520.00 0.0019231 453.06 607.13 1.7522 2.1363 2.6989 1096.9 -0.0045043 118.63 0.11833
135.38 11706. undefined 455.20 610.41 1.7575 520.00 0.0019231 455.20 610.41 1.7575 2.1405 2.7017 1098.4 -0.0045075 118.64 0.11847 520.00 0.0019231 455.20 610.41 1.7575 2.1405 2.7017 1098.4 -0.0045075 118.64 0.11847
136.38 11792. undefined 457.35 613.70 1.7627 520.00 0.0019231 457.35 613.70 1.7627 2.1448 2.7046 1099.9 -0.0045106 118.65 0.11861 520.00 0.0019231 457.35 613.70 1.7627 2.1448 2.7046 1099.9 -0.0045106 118.65 0.11861
137.38 11878. undefined 459.49 616.99 1.7680 520.00 0.0019231 459.49 616.99 1.7680 2.1490 2.7075 1101.4 -0.0045137 118.66 0.11876 520.00 0.0019231 459.49 616.99 1.7680 2.1490 2.7075 1101.4 -0.0045137 118.66 0.11876
138.38 11965. undefined 461.64 620.29 1.7732 520.00 0.0019231 461.64 620.29 1.7732 2.1533 2.7103 1102.8 -0.0045166 118.67 0.11890 520.00 0.0019231 461.64 620.29 1.7732 2.1533 2.7103 1102.8 -0.0045166 118.67 0.11890
139.38 12051. undefined 463.80 623.59 1.7784 520.00 0.0019231 463.80 623.59 1.7784 2.1575 2.7132 1104.3 -0.0045195 118.69 0.11904 520.00 0.0019231 463.80 623.59 1.7784 2.1575 2.7132 1104.3 -0.0045195 118.69 0.11904
140.38 12137. undefined 465.96 626.89 1.7837 520.00 0.0019231 465.96 626.89 1.7837 2.1617 2.7161 1105.8 -0.0045222 118.70 0.11918 520.00 0.0019231 465.96 626.89 1.7837 2.1617 2.7161 1105.8 -0.0045222 118.70 0.11918
141.38 12223. undefined 468.12 630.19 1.7889 520.00 0.0019231 468.12 630.19 1.7889 2.1660 2.7190 1107.2 -0.0045249 118.71 0.11932 520.00 0.0019231 468.12 630.19 1.7889 2.1660 2.7190 1107.2 -0.0045249 118.71 0.11932
142.38 12309. undefined 470.29 633.50 1.7941 520.00 0.0019231 470.29 633.50 1.7941 2.1702 2.7219 1108.7 -0.0045275 118.72 0.11947 520.00 0.0019231 470.29 633.50 1.7941 2.1702 2.7219 1108.7 -0.0045275 118.72 0.11947
143.38 12395. undefined 472.46 636.81 1.7993 520.00 0.0019231 472.46 636.81 1.7993 2.1744 2.7248 1110.1 -0.0045301 118.73 0.11961 520.00 0.0019231 472.46 636.81 1.7993 2.1744 2.7248 1110.1 -0.0045301 118.73 0.11961
144.38 12481. undefined 474.64 640.13 1.8045 520.00 0.0019231 474.64 640.13 1.8045 2.1786 2.7277 1111.6 -0.0045325 118.74 0.11975 520.00 0.0019231 474.64 640.13 1.8045 2.1786 2.7277 1111.6 -0.0045325 118.74 0.11975
145.38 12567. undefined 476.82 643.45 1.8098 520.00 0.0019231 476.82 643.45 1.8098 2.1829 2.7307 1113.0 -0.0045349 118.75 0.11990 520.00 0.0019231 476.82 643.45 1.8098 2.1829 2.7307 1113.0 -0.0045349 118.75 0.11990
146.38 12653. undefined 479.01 646.77 1.8150 520.00 0.0019231 479.01 646.77 1.8150 2.1871 2.7336 1114.5 -0.0045372 118.77 0.12004 520.00 0.0019231 479.01 646.77 1.8150 2.1871 2.7336 1114.5 -0.0045372 118.77 0.12004
147.38 12739. undefined 481.19 650.10 1.8202 520.00 0.0019231 481.19 650.10 1.8202 2.1913 2.7365 1115.9 -0.0045394 118.78 0.12019 520.00 0.0019231 481.19 650.10 1.8202 2.1913 2.7365 1115.9 -0.0045394 118.78 0.12019
148.38 12825. undefined 483.39 653.43 1.8254 520.00 0.0019231 483.39 653.43 1.8254 2.1955 2.7394 1117.4 -0.0045416 118.79 0.12033 520.00 0.0019231 483.39 653.43 1.8254 2.1955 2.7394 1117.4 -0.0045416 118.79 0.12033
149.38 12910. undefined 485.59 656.76 1.8306 520.00 0.0019231 485.59 656.76 1.8306 2.1997 2.7424 1118.8 -0.0045437 118.80 0.12048 520.00 0.0019231 485.59 656.76 1.8306 2.1997 2.7424 1118.8 -0.0045437 118.80 0.12048
150.38 12996. undefined 487.79 660.10 1.8358 520.00 0.0019231 487.79 660.10 1.8358 2.2039 2.7453 1120.2 -0.0045457 118.81 0.12062 520.00 0.0019231 487.79 660.10 1.8358 2.2039 2.7453 1120.2 -0.0045457 118.81 0.12062
151.38 13081. undefined 489.99 663.44 1.8410 520.00 0.0019231 489.99 663.44 1.8410 2.2081 2.7483 1121.6 -0.0045476 118.83 0.12077 520.00 0.0019231 489.99 663.44 1.8410 2.2081 2.7483 1121.6 -0.0045476 118.83 0.12077
152.38 13167. undefined 492.20 666.79 1.8462 520.00 0.0019231 492.20 666.79 1.8462 2.2123 2.7512 1123.1 -0.0045495 118.84 0.12091 520.00 0.0019231 492.20 666.79 1.8462 2.2123 2.7512 1123.1 -0.0045495 118.84 0.12091
153.38 13252. undefined 494.42 670.13 1.8514 520.00 0.0019231 494.42 670.13 1.8514 2.2164 2.7542 1124.5 -0.0045513 118.85 0.12106 520.00 0.0019231 494.42 670.13 1.8514 2.2164 2.7542 1124.5 -0.0045513 118.85 0.12106
154.38 13338. undefined 496.64 673.48 1.8566 520.00 0.0019231 496.64 673.48 1.8566 2.2206 2.7572 1125.9 -0.0045531 118.86 0.12121 520.00 0.0019231 496.64 673.48 1.8566 2.2206 2.7572 1125.9 -0.0045531 118.86 0.12121
155.38 13423. undefined 498.86 676.84 1.8618 520.00 0.0019231 498.86 676.84 1.8618 2.2248 2.7601 1127.3 -0.0045548 118.87 0.12135 520.00 0.0019231 498.86 676.84 1.8618 2.2248 2.7601 1127.3 -0.0045548 118.87 0.12135
156.38 13508. undefined 501.09 680.20 1.8670 520.00 0.0019231 501.09 680.20 1.8670 2.2290 2.7631 1128.7 -0.0045564 118.89 0.12150 520.00 0.0019231 501.09 680.20 1.8670 2.2290 2.7631 1128.7 -0.0045564 118.89 0.12150
157.38 13594. undefined 503.32 683.56 1.8722 520.00 0.0019231 503.32 683.56 1.8722 2.2331 2.7661 1130.1 -0.0045579 118.90 0.12165 520.00 0.0019231 503.32 683.56 1.8722 2.2331 2.7661 1130.1 -0.0045579 118.90 0.12165
158.38 13679. undefined 505.55 686.92 1.8774 520.00 0.0019231 505.55 686.92 1.8774 2.2373 2.7691 1131.5 -0.0045594 118.91 0.12180 520.00 0.0019231 505.55 686.92 1.8774 2.2373 2.7691 1131.5 -0.0045594 118.91 0.12180
159.38 13764. undefined 507.79 690.29 1.8825 520.00 0.0019231 507.79 690.29 1.8825 2.2415 2.7721 1132.9 -0.0045609 118.92 0.12194 520.00 0.0019231 507.79 690.29 1.8825 2.2415 2.7721 1132.9 -0.0045609 118.92 0.12194
160.38 13849. undefined 510.04 693.66 1.8877 520.00 0.0019231 510.04 693.66 1.8877 2.2456 2.7750 1134.3 -0.0045623 118.94 0.12209 520.00 0.0019231 510.04 693.66 1.8877 2.2456 2.7750 1134.3 -0.0045623 118.94 0.12209
161.38 13934. undefined 512.28 697.04 1.8929 520.00 0.0019231 512.28 697.04 1.8929 2.2498 2.7780 1135.7 -0.0045636 118.95 0.12224 520.00 0.0019231 512.28 697.04 1.8929 2.2498 2.7780 1135.7 -0.0045636 118.95 0.12224
162.38 14019. undefined 514.53 700.41 1.8981 520.00 0.0019231 514.53 700.41 1.8981 2.2539 2.7810 1137.1 -0.0045648 118.96 0.12239 520.00 0.0019231 514.53 700.41 1.8981 2.2539 2.7810 1137.1 -0.0045648 118.96 0.12239
163.38 14104. undefined 516.79 703.80 1.9033 520.00 0.0019231 516.79 703.80 1.9033 2.2580 2.7840 1138.4 -0.0045660 118.97 0.12254 520.00 0.0019231 516.79 703.80 1.9033 2.2580 2.7840 1138.4 -0.0045660 118.97 0.12254
164.38 14189. undefined 519.05 707.18 1.9084 520.00 0.0019231 519.05 707.18 1.9084 2.2622 2.7870 1139.8 -0.0045672 118.99 0.12269 520.00 0.0019231 519.05 707.18 1.9084 2.2622 2.7870 1139.8 -0.0045672 118.99 0.12269
165.38 14274. undefined 521.32 710.57 1.9136 520.00 0.0019231 521.32 710.57 1.9136 2.2663 2.7900 1141.2 -0.0045683 119.00 0.12284 520.00 0.0019231 521.32 710.57 1.9136 2.2663 2.7900 1141.2 -0.0045683 119.00 0.12284
166.38 14358. undefined 523.58 713.96 1.9188 520.00 0.0019231 523.58 713.96 1.9188 2.2704 2.7931 1142.6 -0.0045693 119.01 0.12299 520.00 0.0019231 523.58 713.96 1.9188 2.2704 2.7931 1142.6 -0.0045693 119.01 0.12299
167.38 14443. undefined 525.86 717.36 1.9239 520.00 0.0019231 525.86 717.36 1.9239 2.2745 2.7961 1143.9 -0.0045703 119.02 0.12314 520.00 0.0019231 525.86 717.36 1.9239 2.2745 2.7961 1143.9 -0.0045703 119.02 0.12314
168.38 14528. undefined 528.13 720.76 1.9291 520.00 0.0019231 528.13 720.76 1.9291 2.2787 2.7991 1145.3 -0.0045713 119.04 0.12329 520.00 0.0019231 528.13 720.76 1.9291 2.2787 2.7991 1145.3 -0.0045713 119.04 0.12329
169.38 14612. undefined 530.41 724.16 1.9343 520.00 0.0019231 530.41 724.16 1.9343 2.2828 2.8021 1146.7 -0.0045722 119.05 0.12344 520.00 0.0019231 530.41 724.16 1.9343 2.2828 2.8021 1146.7 -0.0045722 119.05 0.12344
170.38 14697. undefined 532.70 727.56 1.9394 520.00 0.0019231 532.70 727.56 1.9394 2.2869 2.8051 1148.0 -0.0045730 119.06 0.12359 520.00 0.0019231 532.70 727.56 1.9394 2.2869 2.8051 1148.0 -0.0045730 119.06 0.12359
171.38 14781. undefined 534.99 730.97 1.9446 520.00 0.0019231 534.99 730.97 1.9446 2.2910 2.8081 1149.4 -0.0045738 119.08 0.12374 520.00 0.0019231 534.99 730.97 1.9446 2.2910 2.8081 1149.4 -0.0045738 119.08 0.12374
172.38 14866. undefined 537.28 734.39 1.9497 520.00 0.0019231 537.28 734.39 1.9497 2.2951 2.8112 1150.7 -0.0045745 119.09 0.12390 520.00 0.0019231 537.28 734.39 1.9497 2.2951 2.8112 1150.7 -0.0045745 119.09 0.12390
173.38 14950. undefined 539.58 737.80 1.9549 520.00 0.0019231 539.58 737.80 1.9549 2.2992 2.8142 1152.1 -0.0045752 119.10 0.12405 520.00 0.0019231 539.58 737.80 1.9549 2.2992 2.8142 1152.1 -0.0045752 119.10 0.12405
174.38 15034. undefined 541.88 741.22 1.9600 520.00 0.0019231 541.88 741.22 1.9600 2.3033 2.8172 1153.4 -0.0045759 119.12 0.12420 520.00 0.0019231 541.88 741.22 1.9600 2.3033 2.8172 1153.4 -0.0045759 119.12 0.12420
175.38 15119. undefined 544.18 744.64 1.9652 520.00 0.0019231 544.18 744.64 1.9652 2.3073 2.8202 1154.7 -0.0045765 119.13 0.12435 520.00 0.0019231 544.18 744.64 1.9652 2.3073 2.8202 1154.7 -0.0045765 119.13 0.12435
176.38 15203. undefined 546.49 748.07 1.9703 520.00 0.0019231 546.49 748.07 1.9703 2.3114 2.8233 1156.1 -0.0045770 119.14 0.12451 520.00 0.0019231 546.49 748.07 1.9703 2.3114 2.8233 1156.1 -0.0045770 119.14 0.12451
177.38 15287. undefined 548.81 751.50 1.9754 520.00 0.0019231 548.81 751.50 1.9754 2.3155 2.8263 1157.4 -0.0045775 119.15 0.12466 520.00 0.0019231 548.81 751.50 1.9754 2.3155 2.8263 1157.4 -0.0045775 119.15 0.12466
178.38 15371. undefined 551.12 754.93 1.9806 520.00 0.0019231 551.12 754.93 1.9806 2.3196 2.8293 1158.8 -0.0045780 119.17 0.12481 520.00 0.0019231 551.12 754.93 1.9806 2.3196 2.8293 1158.8 -0.0045780 119.17 0.12481
179.38 15455. undefined 553.45 758.37 1.9857 520.00 0.0019231 553.45 758.37 1.9857 2.3236 2.8324 1160.1 -0.0045784 119.18 0.12497 520.00 0.0019231 553.45 758.37 1.9857 2.3236 2.8324 1160.1 -0.0045784 119.18 0.12497
180.38 15539. undefined 555.77 761.81 1.9909 520.00 0.0019231 555.77 761.81 1.9909 2.3277 2.8354 1161.4 -0.0045788 119.19 0.12512 520.00 0.0019231 555.77 761.81 1.9909 2.3277 2.8354 1161.4 -0.0045788 119.19 0.12512
181.38 15623. undefined 558.10 765.25 1.9960 520.00 0.0019231 558.10 765.25 1.9960 2.3317 2.8385 1162.7 -0.0045791 119.21 0.12528 520.00 0.0019231 558.10 765.25 1.9960 2.3317 2.8385 1162.7 -0.0045791 119.21 0.12528
182.38 15707. undefined 560.43 768.70 2.0011 520.00 0.0019231 560.43 768.70 2.0011 2.3358 2.8415 1164.0 -0.0045794 119.22 0.12543 520.00 0.0019231 560.43 768.70 2.0011 2.3358 2.8415 1164.0 -0.0045794 119.22 0.12543
183.38 15791. undefined 562.77 772.15 2.0062 520.00 0.0019231 562.77 772.15 2.0062 2.3398 2.8446 1165.4 -0.0045797 119.23 0.12559 520.00 0.0019231 562.77 772.15 2.0062 2.3398 2.8446 1165.4 -0.0045797 119.23 0.12559
184.38 15875. undefined 565.11 775.60 2.0114 520.00 0.0019231 565.11 775.60 2.0114 2.3439 2.8476 1166.7 -0.0045799 119.25 0.12574 520.00 0.0019231 565.11 775.60 2.0114 2.3439 2.8476 1166.7 -0.0045799 119.25 0.12574
185.38 15958. undefined 567.46 779.05 2.0165 520.00 0.0019231 567.46 779.05 2.0165 2.3479 2.8506 1168.0 -0.0045801 119.26 0.12590 520.00 0.0019231 567.46 779.05 2.0165 2.3479 2.8506 1168.0 -0.0045801 119.26 0.12590
186.38 16042. undefined 569.81 782.51 2.0216 520.00 0.0019231 569.81 782.51 2.0216 2.3519 2.8537 1169.3 -0.0045803 119.28 0.12605 520.00 0.0019231 569.81 782.51 2.0216 2.3519 2.8537 1169.3 -0.0045803 119.28 0.12605
187.38 16126. undefined 572.16 785.98 2.0267 520.00 0.0019231 572.16 785.98 2.0267 2.3560 2.8567 1170.6 -0.0045804 119.29 0.12621 520.00 0.0019231 572.16 785.98 2.0267 2.3560 2.8567 1170.6 -0.0045804 119.29 0.12621
188.38 16209. undefined 574.52 789.44 2.0318 520.00 0.0019231 574.52 789.44 2.0318 2.3600 2.8598 1171.9 -0.0045804 119.30 0.12636 520.00 0.0019231 574.52 789.44 2.0318 2.3600 2.8598 1171.9 -0.0045804 119.30 0.12636
189.38 16293. undefined 576.88 792.91 2.0369 520.00 0.0019231 576.88 792.91 2.0369 2.3640 2.8628 1173.2 -0.0045805 119.32 0.12652 520.00 0.0019231 576.88 792.91 2.0369 2.3640 2.8628 1173.2 -0.0045805 119.32 0.12652
190.38 16376. undefined 579.25 796.38 2.0421 520.00 0.0019231 579.25 796.38 2.0421 2.3680 2.8659 1174.5 -0.0045805 119.33 0.12668 520.00 0.0019231 579.25 796.38 2.0421 2.3680 2.8659 1174.5 -0.0045805 119.33 0.12668
191.38 16460. undefined 581.62 799.86 2.0472 520.00 0.0019231 581.62 799.86 2.0472 2.3720 2.8689 1175.8 -0.0045804 119.34 0.12684 520.00 0.0019231 581.62 799.86 2.0472 2.3720 2.8689 1175.8 -0.0045804 119.34 0.12684
192.38 16543. undefined 583.99 803.34 2.0523 520.00 0.0019231 583.99 803.34 2.0523 2.3760 2.8720 1177.1 -0.0045803 119.36 0.12699 520.00 0.0019231 583.99 803.34 2.0523 2.3760 2.8720 1177.1 -0.0045803 119.36 0.12699
193.38 16626. undefined 586.37 806.82 2.0574 520.00 0.0019231 586.37 806.82 2.0574 2.3800 2.8751 1178.4 -0.0045802 119.37 0.12715 520.00 0.0019231 586.37 806.82 2.0574 2.3800 2.8751 1178.4 -0.0045802 119.37 0.12715
194.38 16710. undefined 588.75 810.31 2.0625 520.00 0.0019231 588.75 810.31 2.0625 2.3840 2.8781 1179.7 -0.0045801 119.38 0.12731 520.00 0.0019231 588.75 810.31 2.0625 2.3840 2.8781 1179.7 -0.0045801 119.38 0.12731
195.38 16793. undefined 591.14 813.80 2.0676 520.00 0.0019231 591.14 813.80 2.0676 2.3880 2.8812 1180.9 -0.0045799 119.40 0.12747 520.00 0.0019231 591.14 813.80 2.0676 2.3880 2.8812 1180.9 -0.0045799 119.40 0.12747
196.38 16876. undefined 593.53 817.29 2.0727 520.00 0.0019231 593.53 817.29 2.0727 2.3920 2.8842 1182.2 -0.0045797 119.41 0.12763 520.00 0.0019231 593.53 817.29 2.0727 2.3920 2.8842 1182.2 -0.0045797 119.41 0.12763
197.38 16959. undefined 595.92 820.79 2.0778 520.00 0.0019231 595.92 820.79 2.0778 2.3959 2.8873 1183.5 -0.0045795 119.43 0.12779 520.00 0.0019231 595.92 820.79 2.0778 2.3959 2.8873 1183.5 -0.0045795 119.43 0.12779
198.38 17042. undefined 598.32 824.29 2.0829 520.00 0.0019231 598.32 824.29 2.0829 2.3999 2.8903 1184.8 -0.0045792 119.44 0.12795 520.00 0.0019231 598.32 824.29 2.0829 2.3999 2.8903 1184.8 -0.0045792 119.44 0.12795
199.38 17125. undefined 600.72 827.79 2.0879 520.00 0.0019231 600.72 827.79 2.0879 2.4039 2.8934 1186.0 -0.0045789 119.45 0.12811 520.00 0.0019231 600.72 827.79 2.0879 2.4039 2.8934 1186.0 -0.0045789 119.45 0.12811
200.38 17208. undefined 603.13 831.30 2.0930 520.00 0.0019231 603.13 831.30 2.0930 2.4078 2.8964 1187.3 -0.0045786 119.47 0.12827 520.00 0.0019231 603.13 831.30 2.0930 2.4078 2.8964 1187.3 -0.0045786 119.47 0.12827
201.38 17291. undefined 605.54 834.80 2.0981 520.00 0.0019231 605.54 834.80 2.0981 2.4118 2.8995 1188.6 -0.0045782 119.48 0.12843 520.00 0.0019231 605.54 834.80 2.0981 2.4118 2.8995 1188.6 -0.0045782 119.48 0.12843
202.38 17374. undefined 607.95 838.32 2.1032 520.00 0.0019231 607.95 838.32 2.1032 2.4157 2.9026 1189.8 -0.0045778 119.50 0.12859 520.00 0.0019231 607.95 838.32 2.1032 2.4157 2.9026 1189.8 -0.0045778 119.50 0.12859
203.38 17457. undefined 610.37 841.83 2.1083 520.00 0.0019231 610.37 841.83 2.1083 2.4197 2.9056 1191.1 -0.0045774 119.51 0.12875 520.00 0.0019231 610.37 841.83 2.1083 2.4197 2.9056 1191.1 -0.0045774 119.51 0.12875
204.38 17539. undefined 612.79 845.35 2.1133 520.00 0.0019231 612.79 845.35 2.1133 2.4236 2.9087 1192.3 -0.0045770 119.52 0.12891 520.00 0.0019231 612.79 845.35 2.1133 2.4236 2.9087 1192.3 -0.0045770 119.52 0.12891
205.38 17622. undefined 615.22 848.87 2.1184 520.00 0.0019231 615.22 848.87 2.1184 2.4276 2.9117 1193.6 -0.0045765 119.54 0.12907 520.00 0.0019231 615.22 848.87 2.1184 2.4276 2.9117 1193.6 -0.0045765 119.54 0.12907
206.38 17705. undefined 617.65 852.40 2.1235 520.00 0.0019231 617.65 852.40 2.1235 2.4315 2.9148 1194.9 -0.0045760 119.55 0.12923 520.00 0.0019231 617.65 852.40 2.1235 2.4315 2.9148 1194.9 -0.0045760 119.55 0.12923
207.38 17787. undefined 620.08 855.93 2.1286 520.00 0.0019231 620.08 855.93 2.1286 2.4354 2.9179 1196.1 -0.0045754 119.57 0.12939 520.00 0.0019231 620.08 855.93 2.1286 2.4354 2.9179 1196.1 -0.0045754 119.57 0.12939
208.38 17870. undefined 622.52 859.46 2.1336 520.00 0.0019231 622.52 859.46 2.1336 2.4393 2.9209 1197.3 -0.0045749 119.58 0.12956 520.00 0.0019231 622.52 859.46 2.1336 2.4393 2.9209 1197.3 -0.0045749 119.58 0.12956
209.38 17953. undefined 624.96 862.99 2.1387 520.00 0.0019231 624.96 862.99 2.1387 2.4432 2.9240 1198.6 -0.0045743 119.60 0.12972 520.00 0.0019231 624.96 862.99 2.1387 2.4432 2.9240 1198.6 -0.0045743 119.60 0.12972
210.38 18035. undefined 627.41 866.53 2.1438 520.00 0.0019231 627.41 866.53 2.1438 2.4471 2.9270 1199.8 -0.0045737 119.61 0.12988 520.00 0.0019231 627.41 866.53 2.1438 2.4471 2.9270 1199.8 -0.0045737 119.61 0.12988
211.38 18117. undefined 629.85 870.07 2.1488 520.00 0.0019231 629.85 870.07 2.1488 2.4510 2.9301 1201.1 -0.0045731 119.62 0.13005 520.00 0.0019231 629.85 870.07 2.1488 2.4510 2.9301 1201.1 -0.0045731 119.62 0.13005
212.38 18200. undefined 632.31 873.62 2.1539 520.00 0.0019231 632.31 873.62 2.1539 2.4549 2.9331 1202.3 -0.0045724 119.64 0.13021 520.00 0.0019231 632.31 873.62 2.1539 2.4549 2.9331 1202.3 -0.0045724 119.64 0.13021
213.38 18282. undefined 634.76 877.17 2.1589 520.00 0.0019231 634.76 877.17 2.1589 2.4588 2.9362 1203.5 -0.0045717 119.65 0.13037 520.00 0.0019231 634.76 877.17 2.1589 2.4588 2.9362 1203.5 -0.0045717 119.65 0.13037
214.38 18364. undefined 637.22 880.72 2.1640 520.00 0.0019231 637.22 880.72 2.1640 2.4627 2.9392 1204.8 -0.0045710 119.67 0.13054 520.00 0.0019231 637.22 880.72 2.1640 2.4627 2.9392 1204.8 -0.0045710 119.67 0.13054
215.38 18446. undefined 639.69 884.27 2.1690 520.00 0.0019231 639.69 884.27 2.1690 2.4666 2.9423 1206.0 -0.0045703 119.68 0.13070 520.00 0.0019231 639.69 884.27 2.1690 2.4666 2.9423 1206.0 -0.0045703 119.68 0.13070
216.38 18529. undefined 642.16 887.83 2.1741 520.00 0.0019231 642.16 887.83 2.1741 2.4705 2.9454 1207.2 -0.0045695 119.70 0.13087 520.00 0.0019231 642.16 887.83 2.1741 2.4705 2.9454 1207.2 -0.0045695 119.70 0.13087
217.38 18611. undefined 644.63 891.39 2.1791 520.00 0.0019231 644.63 891.39 2.1791 2.4744 2.9484 1208.5 -0.0045688 119.71 0.13103 520.00 0.0019231 644.63 891.39 2.1791 2.4744 2.9484 1208.5 -0.0045688 119.71 0.13103
218.38 18693. undefined 647.11 894.96 2.1842 520.00 0.0019231 647.11 894.96 2.1842 2.4782 2.9515 1209.7 -0.0045680 119.72 0.13120 520.00 0.0019231 647.11 894.96 2.1842 2.4782 2.9515 1209.7 -0.0045680 119.72 0.13120
219.38 18775. undefined 649.59 898.52 2.1892 520.00 0.0019231 649.59 898.52 2.1892 2.4821 2.9545 1210.9 -0.0045672 119.74 0.13136 520.00 0.0019231 649.59 898.52 2.1892 2.4821 2.9545 1210.9 -0.0045672 119.74 0.13136
220.38 18857. undefined 652.07 902.10 2.1942 520.00 0.0019231 652.07 902.10 2.1942 2.4860 2.9576 1212.1 -0.0045663 119.75 0.13153 520.00 0.0019231 652.07 902.10 2.1942 2.4860 2.9576 1212.1 -0.0045663 119.75 0.13153
221.38 18939. undefined 654.56 905.67 2.1993 520.00 0.0019231 654.56 905.67 2.1993 2.4898 2.9606 1213.3 -0.0045655 119.77 0.13169 520.00 0.0019231 654.56 905.67 2.1993 2.4898 2.9606 1213.3 -0.0045655 119.77 0.13169
222.38 19021. undefined 657.05 909.25 2.2043 520.00 0.0019231 657.05 909.25 2.2043 2.4936 2.9637 1214.5 -0.0045646 119.78 0.13186 520.00 0.0019231 657.05 909.25 2.2043 2.4936 2.9637 1214.5 -0.0045646 119.78 0.13186
223.38 19102. undefined 659.55 912.83 2.2093 520.00 0.0019231 659.55 912.83 2.2093 2.4975 2.9667 1215.7 -0.0045637 119.80 0.13203 520.00 0.0019231 659.55 912.83 2.2093 2.4975 2.9667 1215.7 -0.0045637 119.80 0.13203
224.38 19184. undefined 662.05 916.41 2.2144 520.00 0.0019231 662.05 916.41 2.2144 2.5013 2.9698 1216.9 -0.0045627 119.81 0.13219 520.00 0.0019231 662.05 916.41 2.2144 2.5013 2.9698 1216.9 -0.0045627 119.81 0.13219
225.38 19266. undefined 664.55 920.00 2.2194 520.00 0.0019231 664.55 920.00 2.2194 2.5052 2.9728 1218.2 -0.0045618 119.83 0.13236 520.00 0.0019231 664.55 920.00 2.2194 2.5052 2.9728 1218.2 -0.0045618 119.83 0.13236
226.38 19347. undefined 667.06 923.59 2.2244 520.00 0.0019231 667.06 923.59 2.2244 2.5090 2.9758 1219.4 -0.0045608 119.84 0.13253 520.00 0.0019231 667.06 923.59 2.2244 2.5090 2.9758 1219.4 -0.0045608 119.84 0.13253
227.38 19429. undefined 669.57 927.18 2.2294 520.00 0.0019231 669.57 927.18 2.2294 2.5128 2.9789 1220.6 -0.0045599 119.86 0.13270 520.00 0.0019231 669.57 927.18 2.2294 2.5128 2.9789 1220.6 -0.0045599 119.86 0.13270
228.38 19511. undefined 672.08 930.78 2.2345 520.00 0.0019231 672.08 930.78 2.2345 2.5166 2.9819 1221.7 -0.0045589 119.87 0.13287 520.00 0.0019231 672.08 930.78 2.2345 2.5166 2.9819 1221.7 -0.0045589 119.87 0.13287
229.38 19592. undefined 674.60 934.37 2.2395 520.00 0.0019231 674.60 934.37 2.2395 2.5204 2.9850 1222.9 -0.0045578 119.89 0.13303 520.00 0.0019231 674.60 934.37 2.2395 2.5204 2.9850 1222.9 -0.0045578 119.89 0.13303
230.38 19674. undefined 677.12 937.98 2.2445 520.00 0.0019231 677.12 937.98 2.2445 2.5242 2.9880 1224.1 -0.0045568 119.90 0.13320 520.00 0.0019231 677.12 937.98 2.2445 2.5242 2.9880 1224.1 -0.0045568 119.90 0.13320
231.38 19755. undefined 679.65 941.58 2.2495 520.00 0.0019231 679.65 941.58 2.2495 2.5280 2.9911 1225.3 -0.0045557 119.92 0.13337 520.00 0.0019231 679.65 941.58 2.2495 2.5280 2.9911 1225.3 -0.0045557 119.92 0.13337
232.38 19836. undefined 682.18 945.19 2.2545 520.00 0.0019231 682.18 945.19 2.2545 2.5318 2.9941 1226.5 -0.0045547 119.93 0.13354 520.00 0.0019231 682.18 945.19 2.2545 2.5318 2.9941 1226.5 -0.0045547 119.93 0.13354
233.38 19918. undefined 684.71 948.80 2.2595 520.00 0.0019231 684.71 948.80 2.2595 2.5356 2.9971 1227.7 -0.0045536 119.95 0.13371 520.00 0.0019231 684.71 948.80 2.2595 2.5356 2.9971 1227.7 -0.0045536 119.95 0.13371
234.38 19999. undefined 687.25 952.42 2.2645 520.00 0.0019231 687.25 952.42 2.2645 2.5394 3.0002 1228.9 -0.0045525 119.96 0.13388 520.00 0.0019231 687.25 952.42 2.2645 2.5394 3.0002 1228.9 -0.0045525 119.96 0.13388
235.38 20080. undefined 689.79 956.04 2.2695 520.00 0.0019231 689.79 956.04 2.2695 2.5432 3.0032 1230.1 -0.0045513 119.98 0.13405 520.00 0.0019231 689.79 956.04 2.2695 2.5432 3.0032 1230.1 -0.0045513 119.98 0.13405
236.38 20161. undefined 692.34 959.66 2.2745 520.00 0.0019231 692.34 959.66 2.2745 2.5470 3.0062 1231.2 -0.0045502 119.99 0.13422 520.00 0.0019231 692.34 959.66 2.2745 2.5470 3.0062 1231.2 -0.0045502 119.99 0.13422
237.38 20242. undefined 694.88 963.28 2.2795 520.00 0.0019231 694.88 963.28 2.2795 2.5507 3.0093 1232.4 -0.0045490 120.00 0.13439 520.00 0.0019231 694.88 963.28 2.2795 2.5507 3.0093 1232.4 -0.0045490 120.00 0.13439
238.38 20324. undefined 697.44 966.91 2.2845 520.00 0.0019231 697.44 966.91 2.2845 2.5545 3.0123 1233.6 -0.0045479 120.02 0.13456 520.00 0.0019231 697.44 966.91 2.2845 2.5545 3.0123 1233.6 -0.0045479 120.02 0.13456
239.38 20405. undefined 699.99 970.54 2.2895 520.00 0.0019231 699.99 970.54 2.2895 2.5583 3.0153 1234.8 -0.0045467 120.03 0.13473 520.00 0.0019231 699.99 970.54 2.2895 2.5583 3.0153 1234.8 -0.0045467 120.03 0.13473
240.38 20486. undefined 702.55 974.17 2.2945 520.00 0.0019231 702.55 974.17 2.2945 2.5620 3.0184 1235.9 -0.0045455 120.05 0.13491 520.00 0.0019231 702.55 974.17 2.2945 2.5620 3.0184 1235.9 -0.0045455 120.05 0.13491
241.38 20566. undefined 705.12 977.81 2.2995 520.00 0.0019231 705.12 977.81 2.2995 2.5658 3.0214 1237.1 -0.0045443 120.06 0.13508 520.00 0.0019231 705.12 977.81 2.2995 2.5658 3.0214 1237.1 -0.0045443 120.06 0.13508
242.38 20647. undefined 707.69 981.45 2.3045 520.00 0.0019231 707.69 981.45 2.3045 2.5695 3.0244 1238.3 -0.0045430 120.08 0.13525 520.00 0.0019231 707.69 981.45 2.3045 2.5695 3.0244 1238.3 -0.0045430 120.08 0.13525
243.38 20728. undefined 710.26 985.10 2.3095 520.00 0.0019231 710.26 985.10 2.3095 2.5732 3.0274 1239.4 -0.0045418 120.09 0.13542 520.00 0.0019231 710.26 985.10 2.3095 2.5732 3.0274 1239.4 -0.0045418 120.09 0.13542
244.38 20809. undefined 712.83 988.74 2.3144 520.00 0.0019231 712.83 988.74 2.3144 2.5770 3.0305 1240.6 -0.0045405 120.11 0.13560 520.00 0.0019231 712.83 988.74 2.3144 2.5770 3.0305 1240.6 -0.0045405 120.11 0.13560
245.38 20890. undefined 715.41 992.39 2.3194 520.00 0.0019231 715.41 992.39 2.3194 2.5807 3.0335 1241.8 -0.0045392 120.13 0.13577 520.00 0.0019231 715.41 992.39 2.3194 2.5807 3.0335 1241.8 -0.0045392 120.13 0.13577
246.38 20970. undefined 717.99 996.04 2.3244 520.00 0.0019231 717.99 996.04 2.3244 2.5844 3.0365 1242.9 -0.0045379 120.14 0.13594 520.00 0.0019231 717.99 996.04 2.3244 2.5844 3.0365 1242.9 -0.0045379 120.14 0.13594
247.38 21051. undefined 720.58 999.70 2.3294 520.00 0.0019231 720.58 999.70 2.3294 2.5881 3.0395 1244.1 -0.0045366 120.16 0.13612 520.00 0.0019231 720.58 999.70 2.3294 2.5881 3.0395 1244.1 -0.0045366 120.16 0.13612
248.38 21132. undefined 723.17 1003.4 2.3343 520.00 0.0019231 723.17 1003.4 2.3343 2.5919 3.0425 1245.2 -0.0045353 120.17 0.13629 520.00 0.0019231 723.17 1003.4 2.3343 2.5919 3.0425 1245.2 -0.0045353 120.17 0.13629
249.38 21212. undefined 725.76 1007.0 2.3393 520.00 0.0019231 725.76 1007.0 2.3393 2.5956 3.0455 1246.4 -0.0045340 120.19 0.13647 520.00 0.0019231 725.76 1007.0 2.3393 2.5956 3.0455 1246.4 -0.0045340 120.19 0.13647
250.38 21293. undefined 728.36 1010.7 2.3443 520.00 0.0019231 728.36 1010.7 2.3443 2.5993 3.0486 1247.5 -0.0045326 120.20 0.13664 520.00 0.0019231 728.36 1010.7 2.3443 2.5993 3.0486 1247.5 -0.0045326 120.20 0.13664
251.38 21373. undefined 730.96 1014.4 2.3492 520.00 0.0019231 730.96 1014.4 2.3492 2.6030 3.0516 1248.7 -0.0045313 120.22 0.13681 520.00 0.0019231 730.96 1014.4 2.3492 2.6030 3.0516 1248.7 -0.0045313 120.22 0.13681
252.38 21454. undefined 733.57 1018.0 2.3542 520.00 0.0019231 733.57 1018.0 2.3542 2.6066 3.0546 1249.8 -0.0045299 120.23 0.13699 520.00 0.0019231 733.57 1018.0 2.3542 2.6066 3.0546 1249.8 -0.0045299 120.23 0.13699
253.38 21534. undefined 736.18 1021.7 2.3592 520.00 0.0019231 736.18 1021.7 2.3592 2.6103 3.0576 1250.9 -0.0045285 120.25 0.13717 520.00 0.0019231 736.18 1021.7 2.3592 2.6103 3.0576 1250.9 -0.0045285 120.25 0.13717
254.38 21614. undefined 738.79 1025.4 2.3641 520.00 0.0019231 738.79 1025.4 2.3641 2.6140 3.0606 1252.1 -0.0045271 120.26 0.13734 520.00 0.0019231 738.79 1025.4 2.3641 2.6140 3.0606 1252.1 -0.0045271 120.26 0.13734
255.38 21695. undefined 741.40 1029.1 2.3691 520.00 0.0019231 741.40 1029.1 2.3691 2.6177 3.0636 1253.2 -0.0045257 120.28 0.13752 520.00 0.0019231 741.40 1029.1 2.3691 2.6177 3.0636 1253.2 -0.0045257 120.28 0.13752
256.38 21775. undefined 744.02 1032.7 2.3740 520.00 0.0019231 744.02 1032.7 2.3740 2.6214 3.0666 1254.4 -0.0045243 120.29 0.13769 520.00 0.0019231 744.02 1032.7 2.3740 2.6214 3.0666 1254.4 -0.0045243 120.29 0.13769
257.38 21855. undefined 746.65 1036.4 2.3790 520.00 0.0019231 746.65 1036.4 2.3790 2.6250 3.0696 1255.5 -0.0045229 120.31 0.13787 520.00 0.0019231 746.65 1036.4 2.3790 2.6250 3.0696 1255.5 -0.0045229 120.31 0.13787
258.38 21935. undefined 749.27 1040.1 2.3839 520.00 0.0019231 749.27 1040.1 2.3839 2.6287 3.0726 1256.6 -0.0045214 120.32 0.13805 520.00 0.0019231 749.27 1040.1 2.3839 2.6287 3.0726 1256.6 -0.0045214 120.32 0.13805
259.38 22015. undefined 751.90 1043.8 2.3889 520.00 0.0019231 751.90 1043.8 2.3889 2.6323 3.0756 1257.8 -0.0045200 120.34 0.13822 520.00 0.0019231 751.90 1043.8 2.3889 2.6323 3.0756 1257.8 -0.0045200 120.34 0.13822
260.38 22095. undefined 754.54 1047.5 2.3938 520.00 0.0019231 754.54 1047.5 2.3938 2.6360 3.0786 1258.9 -0.0045185 120.35 0.13840 520.00 0.0019231 754.54 1047.5 2.3938 2.6360 3.0786 1258.9 -0.0045185 120.35 0.13840
261.38 22175. undefined 757.18 1051.2 2.3987 520.00 0.0019231 757.18 1051.2 2.3987 2.6396 3.0816 1260.0 -0.0045171 120.37 0.13858 520.00 0.0019231 757.18 1051.2 2.3987 2.6396 3.0816 1260.0 -0.0045171 120.37 0.13858
262.38 22255. undefined 759.82 1054.9 2.4037 520.00 0.0019231 759.82 1054.9 2.4037 2.6433 3.0846 1261.1 -0.0045156 120.38 0.13876 520.00 0.0019231 759.82 1054.9 2.4037 2.6433 3.0846 1261.1 -0.0045156 120.38 0.13876
263.38 22335. undefined 762.46 1058.6 2.4086 520.00 0.0019231 762.46 1058.6 2.4086 2.6469 3.0875 1262.3 -0.0045141 120.40 0.13894 520.00 0.0019231 762.46 1058.6 2.4086 2.6469 3.0875 1262.3 -0.0045141 120.40 0.13894
264.38 22415. undefined 765.11 1062.3 2.4136 520.00 0.0019231 765.11 1062.3 2.4136 2.6505 3.0905 1263.4 -0.0045126 120.41 0.13912 520.00 0.0019231 765.11 1062.3 2.4136 2.6505 3.0905 1263.4 -0.0045126 120.41 0.13912
265.38 22495. undefined 767.76 1066.0 2.4185 520.00 0.0019231 767.76 1066.0 2.4185 2.6542 3.0935 1264.5 -0.0045111 120.43 0.13929 520.00 0.0019231 767.76 1066.0 2.4185 2.6542 3.0935 1264.5 -0.0045111 120.43 0.13929
266.38 22575. undefined 770.42 1069.7 2.4234 520.00 0.0019231 770.42 1069.7 2.4234 2.6578 3.0965 1265.6 -0.0045095 120.45 0.13947 520.00 0.0019231 770.42 1069.7 2.4234 2.6578 3.0965 1265.6 -0.0045095 120.45 0.13947
267.38 22654. undefined 773.08 1073.5 2.4283 520.00 0.0019231 773.08 1073.5 2.4283 2.6614 3.0995 1266.7 -0.0045080 120.46 0.13965 520.00 0.0019231 773.08 1073.5 2.4283 2.6614 3.0995 1266.7 -0.0045080 120.46 0.13965
268.38 22734. undefined 775.74 1077.2 2.4333 520.00 0.0019231 775.74 1077.2 2.4333 2.6650 3.1024 1267.8 -0.0045065 120.48 0.13983 520.00 0.0019231 775.74 1077.2 2.4333 2.6650 3.1024 1267.8 -0.0045065 120.48 0.13983
269.38 22814. undefined 778.41 1080.9 2.4382 520.00 0.0019231 778.41 1080.9 2.4382 2.6686 3.1054 1268.9 -0.0045049 120.49 0.14001 520.00 0.0019231 778.41 1080.9 2.4382 2.6686 3.1054 1268.9 -0.0045049 120.49 0.14001
270.38 22893. undefined 781.08 1084.6 2.4431 520.00 0.0019231 781.08 1084.6 2.4431 2.6722 3.1084 1270.0 -0.0045034 120.51 0.14019 520.00 0.0019231 781.08 1084.6 2.4431 2.6722 3.1084 1270.0 -0.0045034 120.51 0.14019
271.38 22973. undefined 783.75 1088.4 2.4480 520.00 0.0019231 783.75 1088.4 2.4480 2.6758 3.1114 1271.2 -0.0045018 120.52 0.14037 520.00 0.0019231 783.75 1088.4 2.4480 2.6758 3.1114 1271.2 -0.0045018 120.52 0.14037
272.38 23052. undefined 786.43 1092.1 2.4529 520.00 0.0019231 786.43 1092.1 2.4529 2.6794 3.1143 1272.3 -0.0045002 120.54 0.14056 520.00 0.0019231 786.43 1092.1 2.4529 2.6794 3.1143 1272.3 -0.0045002 120.54 0.14056
273.38 23132. undefined 789.11 1095.8 2.4578 520.00 0.0019231 789.11 1095.8 2.4578 2.6830 3.1173 1273.4 -0.0044986 120.55 0.14074 520.00 0.0019231 789.11 1095.8 2.4578 2.6830 3.1173 1273.4 -0.0044986 120.55 0.14074
274.38 23211. undefined 791.80 1099.6 2.4627 520.00 0.0019231 791.80 1099.6 2.4627 2.6866 3.1203 1274.5 -0.0044970 120.57 0.14092 520.00 0.0019231 791.80 1099.6 2.4627 2.6866 3.1203 1274.5 -0.0044970 120.57 0.14092
275.38 23290. undefined 794.48 1103.3 2.4676 520.00 0.0019231 794.48 1103.3 2.4676 2.6901 3.1232 1275.6 -0.0044954 120.58 0.14110 520.00 0.0019231 794.48 1103.3 2.4676 2.6901 3.1232 1275.6 -0.0044954 120.58 0.14110
276.38 23370. undefined 797.18 1107.0 2.4725 520.00 0.0019231 797.18 1107.0 2.4725 2.6937 3.1262 1276.7 -0.0044938 120.60 0.14128 520.00 0.0019231 797.18 1107.0 2.4725 2.6937 3.1262 1276.7 -0.0044938 120.60 0.14128
277.38 23449. undefined 799.87 1110.8 2.4775 520.00 0.0019231 799.87 1110.8 2.4775 2.6973 3.1291 1277.8 -0.0044922 120.62 0.14147 520.00 0.0019231 799.87 1110.8 2.4775 2.6973 3.1291 1277.8 -0.0044922 120.62 0.14147
278.38 23528. undefined 802.57 1114.5 2.4823 520.00 0.0019231 802.57 1114.5 2.4823 2.7008 3.1321 1278.8 -0.0044906 120.63 0.14165 520.00 0.0019231 802.57 1114.5 2.4823 2.7008 3.1321 1278.8 -0.0044906 120.63 0.14165
279.38 23607. undefined 805.27 1118.3 2.4872 520.00 0.0019231 805.27 1118.3 2.4872 2.7044 3.1350 1279.9 -0.0044889 120.65 0.14183 520.00 0.0019231 805.27 1118.3 2.4872 2.7044 3.1350 1279.9 -0.0044889 120.65 0.14183
280.38 23686. undefined 807.98 1122.0 2.4921 520.00 0.0019231 807.98 1122.0 2.4921 2.7079 3.1380 1281.0 -0.0044873 120.66 0.14201 520.00 0.0019231 807.98 1122.0 2.4921 2.7079 3.1380 1281.0 -0.0044873 120.66 0.14201
281.38 23766. undefined 810.69 1125.8 2.4970 520.00 0.0019231 810.69 1125.8 2.4970 2.7115 3.1409 1282.1 -0.0044857 120.68 0.14220 520.00 0.0019231 810.69 1125.8 2.4970 2.7115 3.1409 1282.1 -0.0044857 120.68 0.14220
282.38 23845. undefined 813.40 1129.6 2.5019 520.00 0.0019231 813.40 1129.6 2.5019 2.7150 3.1439 1283.2 -0.0044840 120.69 0.14210 520.00 0.0019231 813.40 1129.6 2.5019 2.7150 3.1439 1283.2 -0.0044840 120.69 0.14210
283.38 23924. undefined 816.12 1133.3 2.5068 520.00 0.0019231 816.12 1133.3 2.5068 2.7185 3.1468 1284.3 -0.0044823 120.71 0.14228 520.00 0.0019231 816.12 1133.3 2.5068 2.7185 3.1468 1284.3 -0.0044823 120.71 0.14228
284.38 24003. undefined 818.84 1137.1 2.5117 520.00 0.0019231 818.84 1137.1 2.5117 2.7221 3.1498 1285.4 -0.0044807 120.73 0.14246 520.00 0.0019231 818.84 1137.1 2.5117 2.7221 3.1498 1285.4 -0.0044807 120.73 0.14246
285.38 24081. undefined 821.56 1140.9 2.5166 520.00 0.0019231 821.56 1140.9 2.5166 2.7256 3.1527 1286.4 -0.0044790 120.74 0.14265 520.00 0.0019231 821.56 1140.9 2.5166 2.7256 3.1527 1286.4 -0.0044790 120.74 0.14265
286.38 24160. undefined 824.29 1144.6 2.5214 520.00 0.0019231 824.29 1144.6 2.5214 2.7291 3.1556 1287.5 -0.0044773 120.76 0.14283 520.00 0.0019231 824.29 1144.6 2.5214 2.7291 3.1556 1287.5 -0.0044773 120.76 0.14283
287.38 24239. undefined 827.02 1148.4 2.5263 520.00 0.0019231 827.02 1148.4 2.5263 2.7326 3.1586 1288.6 -0.0044756 120.77 0.14302 520.00 0.0019231 827.02 1148.4 2.5263 2.7326 3.1586 1288.6 -0.0044756 120.77 0.14302
288.38 24318. undefined 829.76 1152.2 2.5312 520.00 0.0019231 829.76 1152.2 2.5312 2.7361 3.1615 1289.7 -0.0044739 120.79 0.14320 520.00 0.0019231 829.76 1152.2 2.5312 2.7361 3.1615 1289.7 -0.0044739 120.79 0.14320
289.38 24397. undefined 832.49 1156.0 2.5361 520.00 0.0019231 832.49 1156.0 2.5361 2.7396 3.1644 1290.7 -0.0044722 120.80 0.14339 520.00 0.0019231 832.49 1156.0 2.5361 2.7396 3.1644 1290.7 -0.0044722 120.80 0.14339
290.38 24475. undefined 835.24 1159.8 2.5409 520.00 0.0019231 835.24 1159.8 2.5409 2.7431 3.1674 1291.8 -0.0044705 120.82 0.14357 520.00 0.0019231 835.24 1159.8 2.5409 2.7431 3.1674 1291.8 -0.0044705 120.82 0.14357
291.38 24554. undefined 837.98 1163.5 2.5458 520.00 0.0019231 837.98 1163.5 2.5458 2.7466 3.1703 1292.9 -0.0044688 120.83 0.14376 520.00 0.0019231 837.98 1163.5 2.5458 2.7466 3.1703 1292.9 -0.0044688 120.83 0.14376
292.38 24633. undefined 840.73 1167.3 2.5507 520.00 0.0019231 840.73 1167.3 2.5507 2.7501 3.1732 1294.0 -0.0044671 120.85 0.14394 520.00 0.0019231 840.73 1167.3 2.5507 2.7501 3.1732 1294.0 -0.0044671 120.85 0.14394
293.38 24711. undefined 843.48 1171.1 2.5555 520.00 0.0019231 843.48 1171.1 2.5555 2.7536 3.1761 1295.0 -0.0044654 120.87 0.14413 520.00 0.0019231 843.48 1171.1 2.5555 2.7536 3.1761 1295.0 -0.0044654 120.87 0.14413
294.38 24790. undefined 846.24 1174.9 2.5604 520.00 0.0019231 846.24 1174.9 2.5604 2.7571 3.1790 1296.1 -0.0044636 120.88 0.14432 520.00 0.0019231 846.24 1174.9 2.5604 2.7571 3.1790 1296.1 -0.0044636 120.88 0.14432
295.38 24868. undefined 849.00 1178.7 2.5652 520.00 0.0019231 849.00 1178.7 2.5652 2.7606 3.1820 1297.1 -0.0044619 120.90 0.14450 520.00 0.0019231 849.00 1178.7 2.5652 2.7606 3.1820 1297.1 -0.0044619 120.90 0.14450
296.38 24947. undefined 851.76 1182.5 2.5701 520.00 0.0019231 851.76 1182.5 2.5701 2.7640 3.1849 1298.2 -0.0044602 120.91 0.14469 520.00 0.0019231 851.76 1182.5 2.5701 2.7640 3.1849 1298.2 -0.0044602 120.91 0.14469
297.38 25025. undefined 854.52 1186.3 2.5750 520.00 0.0019231 854.52 1186.3 2.5750 2.7675 3.1878 1299.3 -0.0044584 120.93 0.14488 520.00 0.0019231 854.52 1186.3 2.5750 2.7675 3.1878 1299.3 -0.0044584 120.93 0.14488
298.38 25103. undefined 857.29 1190.1 2.5798 520.00 0.0019231 857.29 1190.1 2.5798 2.7709 3.1907 1300.3 -0.0044567 120.94 0.14507 520.00 0.0019231 857.29 1190.1 2.5798 2.7709 3.1907 1300.3 -0.0044567 120.94 0.14507
299.38 25182. undefined 860.07 1194.0 2.5846 520.00 0.0019231 860.07 1194.0 2.5846 2.7744 3.1936 1301.4 -0.0044549 120.96 0.14526 520.00 0.0019231 860.07 1194.0 2.5846 2.7744 3.1936 1301.4 -0.0044549 120.96 0.14526
300.38 25260. undefined 862.84 1197.8 2.5895 520.00 0.0019231 862.84 1197.8 2.5895 2.7778 3.1965 1302.4 -0.0044531 120.98 0.14544 520.00 0.0019231 862.84 1197.8 2.5895 2.7778 3.1965 1302.4 -0.0044531 120.98 0.14544