Temperature (C) Pressure (psia) Quality (l+v) Internal Energy (l+v, kJ/kg) Enthalpy (l+v, kJ/kg) Entropy (l+v, J/g*K) Density (l, kg/m3) Volume (l, m3/kg) Internal Energy (l, kJ/kg) Enthalpy (l, kJ/kg) Entropy (l, J/g*K) Cv (l, J/g*K) Cp (l, J/g*K) Sound Spd. (l, m/s) Joule-Thomson (l, F/psia) Viscosity (l, uPa*s) Therm. Cond. (l, W/m*K) Density (v, kg/m3) Volume (v, m3/kg) Internal Energy (v, kJ/kg) Enthalpy (v, kJ/kg) Entropy (v, J/g*K) Cv (v, J/g*K) Cp (v, J/g*K) Sound Spd. (v, m/s) Joule-Thomson (v, F/psia) Viscosity (v, uPa*s) Therm. Cond. (v, W/m*K)
-187.62 2.4953e-08 5.5773e-12 -196.64 -196.64 -1.3959 733.13 0.0013640 -196.64 -196.64 -1.3959 1.3553 1.9158 2136.4 -0.0077592 10960. 0.20792 1.0669e-08 9.3732e+07 350.13 366.26 5.1858 0.69067 0.87923 143.28 6.1051 2.3259 0.0017061
-186.62 3.7339e-08 8.2186e-12 -194.73 -194.73 -1.3736 732.08 0.0013660 -194.73 -194.73 -1.3736 1.3539 1.9166 2129.6 -0.0077546 10073. 0.20765 1.5780e-08 6.3371e+07 350.82 367.14 5.1200 0.69462 0.88317 144.03 5.9178 2.3534 0.0017533
-185.62 5.5322e-08 1.1992e-11 -192.81 -192.81 -1.3516 731.04 0.0013679 -192.81 -192.81 -1.3516 1.3525 1.9174 2122.9 -0.0077498 9276.1 0.20737 2.3112e-08 4.3267e+07 351.52 368.02 5.0561 0.69857 0.88713 144.77 5.7383 2.3808 0.0018007
-184.62 8.1182e-08 1.7334e-11 -190.89 -190.89 -1.3298 730.00 0.0013699 -190.89 -190.89 -1.3298 1.3513 1.9182 2116.1 -0.0077448 8557.8 0.20708 3.3533e-08 2.9821e+07 352.22 368.91 4.9939 0.70253 0.89108 145.51 5.5662 2.4083 0.0018485
-183.62 1.1803e-07 2.4827e-11 -188.97 -188.97 -1.3083 728.96 0.0013718 -188.97 -188.97 -1.3083 1.3501 1.9191 2109.3 -0.0077395 7909.8 0.20678 4.8211e-08 2.0742e+07 352.92 369.81 4.9333 0.70648 0.89504 146.24 5.4011 2.4357 0.0018965
-182.62 1.7009e-07 3.5246e-11 -187.05 -187.05 -1.2869 727.92 0.0013738 -187.05 -187.05 -1.2869 1.3490 1.9201 2102.5 -0.0077340 7324.3 0.20647 6.8704e-08 1.4555e+07 353.63 370.70 4.8744 0.71043 0.89899 146.97 5.2426 2.4632 0.0019448
-181.62 2.4299e-07 4.9613e-11 -185.13 -185.13 -1.2658 726.88 0.0013757 -185.13 -185.13 -1.2658 1.3480 1.9210 2095.7 -0.0077283 6794.5 0.20616 9.7079e-08 1.0301e+07 354.35 371.60 4.8170 0.71438 0.90294 147.69 5.0904 2.4906 0.0019934
-180.62 3.4425e-07 6.9261e-11 -183.21 -183.21 -1.2450 725.85 0.0013777 -183.21 -183.21 -1.2450 1.3470 1.9220 2088.9 -0.0077225 6314.4 0.20584 1.3605e-07 7.3504e+06 355.06 372.51 4.7612 0.71833 0.90688 148.41 4.9442 2.5181 0.0020423
-179.62 4.8378e-07 9.5923e-11 -181.29 -181.29 -1.2243 724.81 0.0013797 -181.29 -181.29 -1.2243 1.3461 1.9231 2082.0 -0.0077164 5878.8 0.20551 1.8915e-07 5.2868e+06 355.78 373.42 4.7068 0.72227 0.91082 149.13 4.8038 2.5456 0.0020915
-178.62 6.7459e-07 1.3183e-10 -179.37 -179.37 -1.2038 723.78 0.0013816 -179.37 -179.37 -1.2038 1.3453 1.9241 2075.2 -0.0077102 5482.9 0.20517 2.6096e-07 3.8320e+06 356.51 374.33 4.6538 0.72620 0.91475 149.84 4.6688 2.5731 0.0021410
-177.62 9.3358e-07 1.7982e-10 -177.44 -177.44 -1.1836 722.75 0.0013836 -177.44 -177.44 -1.1836 1.3445 1.9252 2068.4 -0.0077039 5122.6 0.20483 3.5737e-07 2.7982e+06 357.23 375.25 4.6022 0.73012 0.91867 150.54 4.5390 2.6005 0.0021907
-176.62 1.2826e-06 2.4353e-10 -175.52 -175.52 -1.1635 721.72 0.0013856 -175.52 -175.52 -1.1635 1.3437 1.9263 2061.5 -0.0076973 4794.1 0.20447 4.8588e-07 2.0581e+06 357.97 376.17 4.5519 0.73403 0.92258 151.25 4.4142 2.6280 0.0022408
-175.62 1.7496e-06 3.2750e-10 -173.59 -173.59 -1.1437 720.69 0.0013876 -173.59 -173.59 -1.1437 1.3430 1.9274 2054.7 -0.0076907 4494.3 0.20411 6.5601e-07 1.5244e+06 358.70 377.09 4.5029 0.73792 0.92648 151.95 4.2941 2.6555 0.0022912
-174.62 2.3705e-06 4.3746e-10 -171.66 -171.66 -1.1240 719.66 0.0013895 -171.66 -171.66 -1.1240 1.3423 1.9286 2047.9 -0.0076838 4220.2 0.20375 8.7976e-07 1.1367e+06 359.44 378.02 4.4551 0.74181 0.93036 152.64 4.1784 2.6830 0.0023418
-173.62 3.1903e-06 5.8052e-10 -169.73 -169.73 -1.1045 718.64 0.0013915 -169.73 -169.73 -1.1045 1.3417 1.9298 2041.0 -0.0076769 3969.3 0.20338 1.1721e-06 8.5314e+05 360.19 378.95 4.4085 0.74568 0.93423 153.33 4.0671 2.7105 0.0023928
-172.62 4.2661e-06 7.6547e-10 -167.80 -167.80 -1.0852 717.61 0.0013935 -167.80 -167.80 -1.0852 1.3411 1.9310 2034.2 -0.0076698 3739.3 0.20300 1.5518e-06 6.4441e+05 360.93 379.89 4.3631 0.74953 0.93809 154.02 3.9599 2.7379 0.0024440
-171.62 5.6692e-06 1.0031e-09 -165.87 -165.87 -1.0661 716.58 0.0013955 -165.87 -165.87 -1.0661 1.3405 1.9322 2027.3 -0.0076625 3528.0 0.20261 2.0419e-06 4.8974e+05 361.69 380.83 4.3188 0.75337 0.94193 154.71 3.8566 2.7654 0.0024955
-170.62 7.4884e-06 1.3068e-09 -163.94 -163.94 -1.0472 715.56 0.0013975 -163.94 -163.94 -1.0472 1.3400 1.9334 2020.5 -0.0076552 3333.8 0.20222 2.6708e-06 3.7442e+05 362.44 381.77 4.2755 0.75720 0.94575 155.39 3.7570 2.7929 0.0025473
-169.62 9.8334e-06 1.6925e-09 -162.00 -162.00 -1.0284 714.54 0.0013995 -162.00 -162.00 -1.0284 1.3395 1.9347 2013.6 -0.0076477 3154.9 0.20182 3.4733e-06 2.8791e+05 363.20 382.72 4.2334 0.76100 0.94956 156.07 3.6609 2.8204 0.0025994
-168.62 1.2839e-05 2.1797e-09 -160.07 -160.07 -1.0098 713.52 0.0014015 -160.07 -160.07 -1.0098 1.3390 1.9359 2006.8 -0.0076401 2989.9 0.20141 4.4917e-06 2.2263e+05 363.96 383.67 4.1922 0.76479 0.95335 156.74 3.5683 2.8479 0.0026518
-167.62 1.6672e-05 2.7919e-09 -158.13 -158.13 -0.99134 712.49 0.0014035 -158.13 -158.13 -0.99134 1.3386 1.9372 2000.0 -0.0076323 2837.5 0.20100 5.7771e-06 1.7310e+05 364.73 384.63 4.1521 0.76856 0.95712 157.41 3.4790 2.8754 0.0027045
-166.62 2.1533e-05 3.5572e-09 -156.19 -156.19 -0.97306 711.47 0.0014055 -156.19 -156.19 -0.97306 1.3382 1.9385 1993.1 -0.0076245 2696.5 0.20058 7.3914e-06 1.3529e+05 365.50 385.59 4.1129 0.77232 0.96087 158.08 3.3927 2.9029 0.0027575
-165.62 2.7666e-05 4.5089e-09 -154.25 -154.25 -0.95494 710.45 0.0014075 -154.25 -154.25 -0.95494 1.3378 1.9398 1986.3 -0.0076165 2566.0 0.20016 9.4084e-06 1.0629e+05 366.27 386.55 4.0746 0.77605 0.96460 158.75 3.3095 2.9304 0.0028108
-164.62 3.5367e-05 5.6868e-09 -152.31 -152.31 -0.93698 709.44 0.0014096 -152.31 -152.31 -0.93698 1.3375 1.9411 1979.4 -0.0076084 2444.9 0.19973 1.1916e-05 83918. 367.05 387.52 4.0372 0.77976 0.96832 159.41 3.2291 2.9579 0.0028643
-163.62 4.4989e-05 7.1375e-09 -150.37 -150.37 -0.91917 708.42 0.0014116 -150.37 -150.37 -0.91917 1.3371 1.9424 1972.6 -0.0076002 2332.3 0.19930 1.5020e-05 66577. 367.83 388.49 4.0008 0.78346 0.97201 160.07 3.1514 2.9854 0.0029182
-162.62 5.6956e-05 8.9162e-09 -148.43 -148.43 -0.90151 707.40 0.0014136 -148.43 -148.43 -0.90151 1.3368 1.9437 1965.8 -0.0075919 2227.7 0.19886 1.8844e-05 53068. 368.62 389.46 3.9651 0.78713 0.97569 160.72 3.0764 3.0129 0.0029723
-161.62 7.1773e-05 1.1087e-08 -146.48 -146.48 -0.88400 706.38 0.0014157 -146.48 -146.48 -0.88400 1.3365 1.9451 1959.0 -0.0075834 2130.2 0.19841 2.3533e-05 42494. 369.41 390.44 3.9304 0.79079 0.97935 161.38 3.0038 3.0404 0.0030268
-160.62 9.0036e-05 1.3725e-08 -144.54 -144.54 -0.86663 705.37 0.0014177 -144.54 -144.54 -0.86663 1.3363 1.9465 1952.1 -0.0075748 2039.2 0.19796 2.9258e-05 34178. 370.20 391.42 3.8964 0.79443 0.98298 162.03 2.9337 3.0679 0.0030815
-159.62 0.00011245 1.6917e-08 -142.59 -142.59 -0.84940 704.35 0.0014197 -142.59 -142.59 -0.84940 1.3360 1.9478 1945.3 -0.0075661 1954.2 0.19751 3.6221e-05 27609. 371.00 392.40 3.8632 0.79805 0.98660 162.68 2.8658 3.0955 0.0031365
-158.62 0.00013985 2.0763e-08 -140.64 -140.64 -0.83231 703.34 0.0014218 -140.64 -140.64 -0.83231 1.3358 1.9492 1938.5 -0.0075573 1874.8 0.19705 4.4652e-05 22395. 371.80 393.39 3.8307 0.80164 0.99020 163.32 2.8002 3.1230 0.0031918
-157.62 0.00017320 2.5380e-08 -138.69 -138.69 -0.81536 702.32 0.0014238 -138.69 -138.69 -0.81536 1.3356 1.9506 1931.7 -0.0075484 1800.3 0.19658 5.4822e-05 18241. 372.60 394.38 3.7990 0.80522 0.99378 163.96 2.7367 3.1505 0.0032474
-156.62 0.00021364 3.0898e-08 -136.74 -136.74 -0.79854 701.31 0.0014259 -136.74 -136.74 -0.79854 1.3354 1.9520 1924.9 -0.0075393 1730.5 0.19611 6.7040e-05 14916. 373.41 395.38 3.7680 0.80878 0.99734 164.60 2.6752 3.1780 0.0033033
-155.62 0.00026248 3.7471e-08 -134.79 -134.79 -0.78185 700.30 0.0014280 -134.79 -134.79 -0.78185 1.3352 1.9534 1918.1 -0.0075302 1664.9 0.19564 8.1666e-05 12245. 374.22 396.38 3.7377 0.81232 1.0009 165.24 2.6157 3.2055 0.0033595
-154.62 0.00032125 4.5269e-08 -132.83 -132.83 -0.76530 699.29 0.0014300 -132.83 -132.83 -0.76530 1.3350 1.9548 1911.3 -0.0075209 1603.3 0.19516 9.9109e-05 10090. 375.03 397.38 3.7081 0.81585 1.0044 165.87 2.5580 3.2330 0.0034160
-153.62 0.00039171 5.4489e-08 -130.88 -130.88 -0.74887 698.27 0.0014321 -130.88 -130.88 -0.74887 1.3349 1.9563 1904.5 -0.0075114 1545.3 0.19468 0.00011984 8344.6 375.85 398.39 3.6792 0.81935 1.0079 166.50 2.5022 3.2606 0.0034727
-152.62 0.00047590 6.5350e-08 -128.92 -128.92 -0.73256 697.26 0.0014342 -128.92 -128.92 -0.73256 1.3348 1.9577 1897.8 -0.0075019 1490.6 0.19419 0.00014439 6925.9 376.67 399.40 3.6509 0.82284 1.0114 167.13 2.4481 3.2881 0.0035298
-151.62 0.00057613 7.8102e-08 -126.96 -126.96 -0.71638 696.25 0.0014363 -126.96 -126.96 -0.71638 1.3346 1.9592 1891.0 -0.0074922 1438.9 0.19370 0.00017336 5768.4 377.49 400.41 3.6232 0.82631 1.0149 167.76 2.3957 3.3156 0.0035872
-150.62 0.00069507 9.3023e-08 -125.00 -125.00 -0.70032 695.24 0.0014384 -125.00 -125.00 -0.70032 1.3345 1.9606 1884.2 -0.0074824 1390.2 0.19320 0.00020744 4820.7 378.32 401.42 3.5962 0.82976 1.0183 168.38 2.3448 3.3431 0.0036448
-149.62 0.00083574 1.1043e-07 -123.04 -123.04 -0.68438 694.23 0.0014404 -123.04 -123.04 -0.68438 1.3345 1.9621 1877.4 -0.0074724 1344.0 0.19270 0.00024740 4042.0 379.15 402.44 3.5697 0.83319 1.0218 169.00 2.2956 3.3706 0.0037027
-148.62 0.0010016 1.3066e-07 -121.08 -121.08 -0.66855 693.22 0.0014425 -121.08 -121.08 -0.66855 1.3344 1.9636 1870.7 -0.0074623 1300.3 0.19220 0.00029412 3400.0 379.99 403.47 3.5438 0.83661 1.0252 169.62 2.2478 3.3982 0.0037610
-147.62 0.0011965 1.5411e-07 -119.11 -119.11 -0.65284 692.21 0.0014447 -119.11 -119.11 -0.65284 1.3343 1.9651 1863.9 -0.0074521 1258.9 0.19169 0.00034856 2869.0 380.83 404.49 3.5185 0.84001 1.0286 170.24 2.2014 3.4257 0.0038195
-146.62 0.0014249 1.8121e-07 -117.15 -117.15 -0.63724 691.20 0.0014468 -117.15 -117.15 -0.63724 1.3343 1.9666 1857.2 -0.0074417 1219.6 0.19117 0.00041181 2428.3 381.67 405.52 3.4938 0.84340 1.0320 170.85 2.1565 3.4532 0.0038783
-145.62 0.0016917 2.1243e-07 -115.18 -115.18 -0.62175 690.19 0.0014489 -115.18 -115.18 -0.62175 1.3343 1.9682 1850.4 -0.0074312 1182.3 0.19066 0.00048510 2061.4 382.51 406.56 3.4695 0.84677 1.0353 171.46 2.1128 3.4807 0.0039374
-144.62 0.0020026 2.4829e-07 -113.21 -113.21 -0.60637 689.18 0.0014510 -113.21 -113.21 -0.60637 1.3343 1.9697 1843.7 -0.0074206 1146.8 0.19014 0.00056976 1755.1 383.36 407.59 3.4458 0.85012 1.0387 172.07 2.0705 3.5082 0.0039967
-143.62 0.0023637 2.8938e-07 -111.24 -111.24 -0.59110 688.17 0.0014531 -111.24 -111.24 -0.59110 1.3343 1.9713 1836.9 -0.0074098 1113.0 0.18962 0.00066731 1498.6 384.21 408.63 3.4226 0.85346 1.0420 172.68 2.0294 3.5358 0.0040564
-142.62 0.0027820 3.3632e-07 -109.27 -109.27 -0.57593 687.16 0.0014553 -109.27 -109.27 -0.57593 1.3343 1.9728 1830.2 -0.0073988 1080.8 0.18909 0.00077939 1283.1 385.07 409.68 3.3999 0.85679 1.0454 173.28 1.9896 3.5633 0.0041164
-141.62 0.0032653 3.8981e-07 -107.30 -107.30 -0.56087 686.15 0.0014574 -107.30 -107.30 -0.56087 1.3343 1.9744 1823.5 -0.0073878 1050.1 0.18856 0.00090784 1101.5 385.93 410.72 3.3777 0.86011 1.0487 173.88 1.9508 3.5908 0.0041766
-140.62 0.0038222 4.5059e-07 -105.32 -105.32 -0.54591 685.14 0.0014596 -105.32 -105.32 -0.54591 1.3344 1.9760 1816.7 -0.0073765 1020.7 0.18803 0.0010547 948.16 386.79 411.77 3.3560 0.86341 1.0520 174.48 1.9133 3.6183 0.0042372
-139.62 0.0044623 5.1949e-07 -103.34 -103.34 -0.53105 684.13 0.0014617 -103.34 -103.34 -0.53105 1.3344 1.9776 1810.0 -0.0073651 992.74 0.18749 0.0012221 818.26 387.65 412.83 3.3347 0.86670 1.0553 175.08 1.8768 3.6459 0.0042980
-138.62 0.0051963 5.9739e-07 -101.37 -101.37 -0.51628 683.12 0.0014639 -101.37 -101.37 -0.51629 1.3345 1.9792 1803.3 -0.0073536 965.97 0.18695 0.0014125 707.94 388.52 413.88 3.3139 0.86998 1.0586 175.67 1.8413 3.6734 0.0043592
-137.62 0.0060358 6.8526e-07 -99.386 -99.386 -0.50162 682.11 0.0014660 -99.386 -99.386 -0.50162 1.3346 1.9808 1796.6 -0.0073419 940.35 0.18641 0.0016287 614.00 389.39 414.94 3.2935 0.87325 1.0619 176.26 1.8069 3.7009 0.0044206
-136.62 0.0069938 7.8414e-07 -97.404 -97.404 -0.48705 681.10 0.0014682 -97.404 -97.404 -0.48705 1.3347 1.9825 1789.9 -0.0073301 915.81 0.18586 0.0018733 533.80 390.26 416.00 3.2735 0.87650 1.0651 176.85 1.7734 3.7284 0.0044823
-135.62 0.0080843 8.9514e-07 -95.421 -95.421 -0.47258 680.09 0.0014704 -95.421 -95.421 -0.47258 1.3348 1.9841 1783.2 -0.0073180 892.30 0.18531 0.0021497 465.17 391.14 417.07 3.2540 0.87975 1.0684 177.44 1.7409 3.7559 0.0045443
-134.62 0.0093230 1.0195e-06 -93.436 -93.436 -0.45819 679.08 0.0014726 -93.436 -93.436 -0.45820 1.3350 1.9858 1776.5 -0.0073059 869.75 0.18476 0.0024613 406.30 392.02 418.14 3.2348 0.88299 1.0716 178.02 1.7093 3.7834 0.0046066
-133.62 0.010727 1.1584e-06 -91.449 -91.449 -0.44390 678.07 0.0014748 -91.450 -91.449 -0.44391 1.3351 1.9875 1769.8 -0.0072935 848.11 0.18421 0.0028116 355.67 392.91 419.21 3.2161 0.88622 1.0749 178.61 1.6786 3.8109 0.0046691
-132.62 0.012315 1.3134e-06 -89.461 -89.460 -0.42970 677.06 0.0014770 -89.461 -89.461 -0.42971 1.3353 1.9892 1763.1 -0.0072810 827.32 0.18365 0.0032049 312.03 393.79 420.29 3.1977 0.88944 1.0781 179.19 1.6488 3.8385 0.0047320
-131.62 0.014106 1.4858e-06 -87.470 -87.470 -0.41559 676.04 0.0014792 -87.471 -87.471 -0.41560 1.3354 1.9909 1756.4 -0.0072684 807.34 0.18309 0.0036453 274.33 394.68 421.36 3.1798 0.89266 1.0813 179.76 1.6197 3.8660 0.0047951
-130.62 0.016124 1.6773e-06 -85.479 -85.478 -0.40157 675.03 0.0014814 -85.479 -85.479 -0.40157 1.3356 1.9926 1749.7 -0.0072555 788.12 0.18253 0.0041375 241.69 395.58 422.44 3.1622 0.89586 1.0846 180.34 1.5915 3.8935 0.0048586
-129.62 0.018392 1.8895e-06 -83.485 -83.485 -0.38763 674.02 0.0014836 -83.486 -83.486 -0.38763 1.3358 1.9944 1743.0 -0.0072425 769.63 0.18196 0.0046867 213.37 396.47 423.53 3.1450 0.89906 1.0878 180.91 1.5641 3.9210 0.0049223
-128.62 0.020935 2.1242e-06 -81.490 -81.489 -0.37377 673.01 0.0014859 -81.491 -81.490 -0.37378 1.3360 1.9961 1736.3 -0.0072294 751.83 0.18140 0.0052981 188.75 397.37 424.62 3.1281 0.90226 1.0910 181.48 1.5374 3.9485 0.0049863
-127.62 0.023783 2.3832e-06 -79.492 -79.492 -0.36000 672.00 0.0014881 -79.494 -79.493 -0.36001 1.3363 1.9979 1729.6 -0.0072160 734.67 0.18083 0.0059776 167.29 398.27 425.71 3.1116 0.90545 1.0942 182.05 1.5114 3.9760 0.0050506
-126.62 0.026966 2.6686e-06 -77.494 -77.493 -0.34631 670.98 0.0014904 -77.495 -77.495 -0.34632 1.3365 1.9997 1722.9 -0.0072025 718.14 0.18025 0.0067313 148.56 399.18 426.80 3.0954 0.90863 1.0974 182.62 1.4861 4.0035 0.0051152
-125.62 0.030515 2.9824e-06 -75.493 -75.492 -0.33271 669.97 0.0014926 -75.494 -75.494 -0.33272 1.3368 2.0015 1716.2 -0.0071888 702.18 0.17968 0.0075660 132.17 400.09 427.89 3.0795 0.91181 1.1006 183.18 1.4615 4.0310 0.0051800
-124.62 0.034467 3.3269e-06 -73.490 -73.490 -0.31918 668.95 0.0014949 -73.492 -73.492 -0.31919 1.3371 2.0033 1709.5 -0.0071749 686.79 0.17910 0.0084885 117.81 401.00 428.99 3.0640 0.91499 1.1038 183.74 1.4375 4.0584 0.0052452
-123.62 0.038859 3.7043e-06 -71.486 -71.485 -0.30573 667.94 0.0014971 -71.488 -71.487 -0.30574 1.3374 2.0051 1702.8 -0.0071609 671.93 0.17852 0.0095065 105.19 401.91 430.10 3.0488 0.91816 1.1070 184.30 1.4141 4.0859 0.0053106
-122.62 0.043731 4.1170e-06 -69.480 -69.479 -0.29235 666.92 0.0014994 -69.482 -69.481 -0.29237 1.3377 2.0070 1696.2 -0.0071466 657.57 0.17794 0.010628 94.092 402.83 431.20 3.0339 0.92134 1.1102 184.86 1.3913 4.1134 0.0053764
-121.62 0.049128 4.5676e-06 -67.472 -67.471 -0.27906 665.91 0.0015017 -67.474 -67.473 -0.27907 1.3380 2.0089 1689.5 -0.0071322 643.70 0.17736 0.011861 84.309 403.75 432.31 3.0193 0.92451 1.1134 185.41 1.3691 4.1409 0.0054424
-120.62 0.055096 5.0588e-06 -65.462 -65.461 -0.26584 664.89 0.0015040 -65.464 -65.463 -0.26585 1.3384 2.0107 1682.8 -0.0071176 630.28 0.17678 0.013215 75.669 404.67 433.42 3.0050 0.92767 1.1166 185.96 1.3475 4.1683 0.0055087
-119.62 0.061684 5.5932e-06 -63.450 -63.449 -0.25269 663.87 0.0015063 -63.452 -63.452 -0.25271 1.3387 2.0126 1676.1 -0.0071028 617.30 0.17619 0.014700 68.027 405.60 434.53 2.9909 0.93084 1.1198 186.51 1.3264 4.1958 0.0055752
-118.62 0.068946 6.1738e-06 -61.436 -61.435 -0.23961 662.86 0.0015086 -61.439 -61.438 -0.23963 1.3391 2.0146 1669.4 -0.0070878 604.74 0.17560 0.016325 61.255 406.53 435.64 2.9772 0.93401 1.1231 187.06 1.3058 4.2233 0.0056421
-117.62 0.076937 6.8035e-06 -59.420 -59.419 -0.22661 661.84 0.0015109 -59.423 -59.422 -0.22663 1.3395 2.0165 1662.8 -0.0070726 592.58 0.17501 0.018101 55.245 407.46 436.76 2.9638 0.93718 1.1263 187.60 1.2857 4.2507 0.0057092
-116.62 0.085718 7.4854e-06 -57.402 -57.401 -0.21368 660.82 0.0015133 -57.406 -57.405 -0.21370 1.3400 2.0184 1656.1 -0.0070573 580.80 0.17442 0.020040 49.901 408.39 437.88 2.9506 0.94035 1.1295 188.14 1.2660 4.2782 0.0057767
-115.62 0.095353 8.2227e-06 -55.382 -55.381 -0.20082 659.80 0.0015156 -55.386 -55.385 -0.20084 1.3404 2.0204 1649.4 -0.0070417 569.38 0.17383 0.022152 45.142 409.33 439.01 2.9377 0.94352 1.1327 188.68 1.2468 4.3056 0.0058444
-114.62 0.10591 9.0187e-06 -53.361 -53.359 -0.18802 658.78 0.0015180 -53.365 -53.364 -0.18805 1.3409 2.0224 1642.7 -0.0070260 558.32 0.17323 0.024451 40.898 410.27 440.13 2.9250 0.94669 1.1360 189.22 1.2281 4.3330 0.0059123
-113.62 0.11746 9.8767e-06 -51.337 -51.335 -0.17530 657.76 0.0015203 -51.342 -51.340 -0.17533 1.3413 2.0244 1636.0 -0.0070100 547.59 0.17264 0.026949 37.107 411.21 441.26 2.9126 0.94987 1.1392 189.75 1.2097 4.3604 0.0059806
-112.62 0.13008 1.0800e-05 -49.311 -49.309 -0.16264 656.73 0.0015227 -49.316 -49.315 -0.16267 1.3418 2.0264 1629.3 -0.0069938 537.18 0.17204 0.029661 33.715 412.16 442.39 2.9005 0.95305 1.1424 190.28 1.1918 4.3879 0.0060491
-111.62 0.14384 1.1793e-05 -47.283 -47.281 -0.15004 655.71 0.0015251 -47.289 -47.287 -0.15008 1.3424 2.0285 1622.7 -0.0069774 527.08 0.17144 0.032600 30.675 413.10 443.53 2.8885 0.95623 1.1457 190.81 1.1742 4.4153 0.0061180
-110.62 0.15884 1.2858e-05 -45.253 -45.251 -0.13751 654.69 0.0015274 -45.259 -45.258 -0.13755 1.3429 2.0305 1616.0 -0.0069609 517.28 0.17084 0.035781 27.948 414.06 444.66 2.8769 0.95942 1.1490 191.34 1.1570 4.4427 0.0061871
-109.62 0.17516 1.4000e-05 -43.221 -43.219 -0.12505 653.66 0.0015298 -43.228 -43.226 -0.12509 1.3435 2.0326 1609.3 -0.0069441 507.76 0.17024 0.039220 25.497 415.01 445.80 2.8654 0.96261 1.1522 191.86 1.1402 4.4701 0.0062564
-108.62 0.19290 1.5223e-05 -41.187 -41.185 -0.11265 652.64 0.0015322 -41.194 -41.192 -0.11269 1.3441 2.0347 1602.6 -0.0069271 498.51 0.16964 0.042933 23.292 415.96 446.94 2.8542 0.96581 1.1555 192.38 1.1236 4.4974 0.0063261
-107.62 0.21215 1.6529e-05 -39.151 -39.148 -0.10031 651.61 0.0015347 -39.158 -39.156 -0.10036 1.3447 2.0369 1595.9 -0.0069098 489.52 0.16903 0.046937 21.305 416.92 448.09 2.8433 0.96901 1.1588 192.90 1.1075 4.5248 0.0063960
-106.62 0.23301 1.7924e-05 -37.112 -37.109 -0.088030 650.58 0.0015371 -37.120 -37.118 -0.088082 1.3453 2.0390 1589.2 -0.0068924 480.79 0.16843 0.051250 19.512 417.88 449.23 2.8325 0.97222 1.1621 193.41 1.0916 4.5522 0.0064662
-105.62 0.25561 1.9411e-05 -35.072 -35.068 -0.075812 649.55 0.0015395 -35.080 -35.078 -0.075868 1.3460 2.0412 1582.6 -0.0068747 472.30 0.16782 0.055891 17.892 418.85 450.38 2.8220 0.97544 1.1655 193.93 1.0760 4.5795 0.0065367
-104.62 0.28004 2.0994e-05 -33.029 -33.025 -0.063654 648.52 0.0015420 -33.038 -33.035 -0.063714 1.3467 2.0434 1575.9 -0.0068569 464.04 0.16721 0.060878 16.426 419.81 451.53 2.8116 0.97867 1.1688 194.44 1.0608 4.6069 0.0066074
-103.62 0.30643 2.2678e-05 -30.984 -30.980 -0.051554 647.49 0.0015444 -30.994 -30.991 -0.051619 1.3474 2.0456 1569.2 -0.0068387 456.00 0.16660 0.066231 15.099 420.78 452.68 2.8015 0.98191 1.1722 194.94 1.0458 4.6342 0.0066785
-102.62 0.33490 2.4466e-05 -28.936 -28.932 -0.039512 646.46 0.0015469 -28.947 -28.944 -0.039582 1.3481 2.0478 1562.5 -0.0068204 448.18 0.16600 0.071971 13.894 421.75 453.84 2.7916 0.98516 1.1755 195.44 1.0310 4.6615 0.0067498
-101.62 0.36558 2.6363e-05 -26.887 -26.882 -0.027528 645.43 0.0015494 -26.898 -26.894 -0.027602 1.3489 2.0501 1555.8 -0.0068018 440.57 0.16539 0.078120 12.801 422.73 454.99 2.7818 0.98841 1.1789 195.95 1.0166 4.6888 0.0068213
-100.62 0.39862 2.8373e-05 -24.834 -24.829 -0.015599 644.39 0.0015519 -24.847 -24.843 -0.015678 1.3497 2.0524 1549.1 -0.0067830 433.16 0.16478 0.084699 11.807 423.70 456.15 2.7723 0.99168 1.1823 196.44 1.0024 4.7161 0.0068932
-99.625 0.43414 3.0499e-05 -22.780 -22.774 -0.0037259 643.36 0.0015544 -22.794 -22.789 -0.0038103 1.3505 2.0547 1542.4 -0.0067639 425.95 0.16416 0.091731 10.901 424.68 457.31 2.7630 0.99496 1.1858 196.94 0.98838 4.7434 0.0069653
-98.625 0.47230 3.2748e-05 -20.723 -20.717 0.0080927 642.32 0.0015569 -20.738 -20.733 0.0080027 1.3514 2.0570 1535.7 -0.0067447 418.92 0.16355 0.099240 10.077 425.66 458.48 2.7538 0.99825 1.1892 197.43 0.97464 4.7707 0.0070377
-97.625 0.51325 3.5121e-05 -18.664 -18.658 0.019857 641.28 0.0015594 -18.680 -18.674 0.019762 1.3522 2.0594 1529.0 -0.0067251 412.07 0.16294 0.10725 9.3239 426.65 459.64 2.7448 1.0016 1.1927 197.92 0.96112 4.7979 0.0071103
-96.625 0.55714 3.7624e-05 -16.603 -16.596 0.031569 640.24 0.0015619 -16.620 -16.614 0.031467 1.3531 2.0618 1522.3 -0.0067053 405.39 0.16233 0.11579 8.6365 427.63 460.81 2.7360 1.0049 1.1962 198.40 0.94783 4.8251 0.0071832
-95.625 0.60416 4.0261e-05 -14.539 -14.531 0.043228 639.20 0.0015645 -14.557 -14.550 0.043120 1.3540 2.0642 1515.7 -0.0066853 398.88 0.16171 0.12488 8.0078 428.62 461.98 2.7274 1.0082 1.1997 198.88 0.93475 4.8524 0.0072564
-94.625 0.65446 4.3035e-05 -12.472 -12.464 0.054836 638.16 0.0015670 -12.491 -12.484 0.054721 1.3550 2.0667 1509.0 -0.0066650 392.53 0.16110 0.13455 7.4323 429.61 463.15 2.7189 1.0116 1.2032 199.36 0.92188 4.8796 0.0073299
-93.625 0.70822 4.5951e-05 -10.403 -10.394 0.066393 637.12 0.0015696 -10.424 -10.416 0.066271 1.3560 2.0691 1502.3 -0.0066444 386.34 0.16048 0.14482 6.9050 430.60 464.32 2.7107 1.0149 1.2068 199.83 0.90921 4.9068 0.0074036
-92.625 0.76564 4.9012e-05 -8.3320 -8.3220 0.077899 636.07 0.0015722 -8.3535 -8.3452 0.077771 1.3570 2.0716 1495.6 -0.0066236 380.31 0.15987 0.15573 6.4212 431.60 465.49 2.7025 1.0183 1.2104 200.30 0.89673 4.9340 0.0074776
-91.625 0.82689 5.2223e-05 -6.2579 -6.2472 0.089356 635.02 0.0015747 -6.2808 -6.2719 0.089220 1.3580 2.0742 1488.9 -0.0066025 374.41 0.15925 0.16731 5.9769 432.59 466.67 2.6946 1.0217 1.2140 200.77 0.88445 4.9611 0.0075518
-90.625 0.89218 5.5587e-05 -4.1813 -4.1697 0.10076 633.98 0.0015773 -4.2056 -4.1959 0.10062 1.3591 2.0767 1482.2 -0.0065811 368.66 0.15864 0.17958 5.5685 433.59 467.84 2.6868 1.0251 1.2177 201.24 0.87236 4.9883 0.0076263
-89.625 0.96172 5.9107e-05 -2.1021 -2.0895 0.11213 632.93 0.0015800 -2.1279 -2.1174 0.11197 1.3602 2.0793 1475.5 -0.0065595 363.05 0.15802 0.19258 5.1928 434.59 469.02 2.6791 1.0285 1.2213 201.70 0.86045 5.0154 0.0077011
-88.625 1.0357 6.2787e-05 -0.020164 -0.0066901 0.12344 631.88 0.0015826 -0.047516 -0.036215 0.12328 1.3613 2.0819 1468.8 -0.0065375 357.56 0.15740 0.20633 4.8466 435.59 470.20 2.6717 1.0320 1.2250 202.15 0.84873 5.0425 0.0077761
-87.625 1.1144 6.6631e-05 2.0644 2.0789 0.13470 630.83 0.0015852 2.0355 2.0476 0.13454 1.3625 2.0846 1462.1 -0.0065153 352.21 0.15679 0.22087 4.5276 436.60 471.39 2.6643 1.0354 1.2288 202.61 0.83718 5.0696 0.0078514
-86.625 1.1979 7.0641e-05 4.1517 4.1673 0.14593 629.77 0.0015879 4.1211 4.1342 0.14575 1.3637 2.0873 1455.4 -0.0064928 346.98 0.15617 0.23623 4.2331 437.61 472.57 2.6571 1.0389 1.2325 203.06 0.82580 5.0967 0.0079270
-85.625 1.2866 7.4820e-05 6.2417 6.2584 0.15710 628.72 0.0015905 6.2094 6.2235 0.15691 1.3649 2.0900 1448.8 -0.0064701 341.87 0.15555 0.25245 3.9612 438.61 473.75 2.6501 1.0424 1.2363 203.50 0.81460 5.1237 0.0080028
-84.625 1.3806 7.9171e-05 8.3345 8.3525 0.16823 627.66 0.0015932 8.3004 8.3155 0.16803 1.3661 2.0927 1442.1 -0.0064470 336.87 0.15494 0.26956 3.7097 439.63 474.94 2.6432 1.0460 1.2402 203.95 0.80356 5.1508 0.0080789
-83.625 1.4803 8.3697e-05 10.430 10.449 0.17932 626.60 0.0015959 10.394 10.410 0.17911 1.3674 2.0955 1435.4 -0.0064236 331.99 0.15432 0.28760 3.4771 440.64 476.13 2.6364 1.0495 1.2440 204.38 0.79269 5.1778 0.0081553
-82.625 1.5858 8.8400e-05 12.529 12.549 0.19036 625.54 0.0015986 12.491 12.508 0.19014 1.3687 2.0983 1428.7 -0.0063999 327.22 0.15370 0.30659 3.2616 441.65 477.31 2.6298 1.0531 1.2479 204.82 0.78199 5.2048 0.0082319
-81.625 1.6975 9.3281e-05 14.630 14.652 0.20136 624.48 0.0016013 14.590 14.609 0.20113 1.3700 2.1012 1422.0 -0.0063759 322.55 0.15309 0.32659 3.0619 442.67 478.50 2.6233 1.0567 1.2519 205.25 0.77144 5.2318 0.0083088
-80.625 1.8155 9.8343e-05 16.734 16.758 0.21232 623.42 0.0016041 16.692 16.712 0.21208 1.3714 2.1041 1415.4 -0.0063516 317.99 0.15247 0.34763 2.8766 443.69 479.70 2.6169 1.0603 1.2558 205.67 0.76106 5.2587 0.0083860
-79.625 1.9402 0.00010359 18.841 18.866 0.22323 622.36 0.0016068 18.797 18.819 0.22299 1.3728 2.1070 1408.7 -0.0063270 313.52 0.15186 0.36974 2.7046 444.71 480.89 2.6106 1.0639 1.2598 206.10 0.75083 5.2857 0.0084634
-78.625 2.0718 0.00010901 20.951 20.978 0.23411 621.29 0.0016096 20.905 20.928 0.23385 1.3742 2.1099 1402.0 -0.0063021 309.15 0.15124 0.39296 2.5448 445.73 482.08 2.6045 1.0676 1.2639 206.51 0.74076 5.3126 0.0085411
-77.625 2.2107 0.00011462 23.064 23.093 0.24495 620.22 0.0016123 23.016 23.040 0.24468 1.3757 2.1129 1395.3 -0.0062768 304.88 0.15062 0.41735 2.3961 446.75 483.27 2.5985 1.0712 1.2680 206.93 0.73084 5.3395 0.0086190
-76.625 2.3571 0.00012042 25.181 25.211 0.25574 619.15 0.0016151 25.130 25.156 0.25546 1.3772 2.1159 1388.7 -0.0062512 300.69 0.15001 0.44292 2.2577 447.78 484.47 2.5926 1.0749 1.2721 207.34 0.72107 5.3664 0.0086972
-75.625 2.5113 0.00012640 27.300 27.332 0.26650 618.08 0.0016179 27.247 27.275 0.26620 1.3787 2.1190 1382.0 -0.0062253 296.59 0.14939 0.46974 2.1288 448.81 485.67 2.5869 1.0787 1.2762 207.74 0.71146 5.3933 0.0087757
-74.625 2.6736 0.00013256 29.422 29.457 0.27721 617.01 0.0016207 29.366 29.396 0.27691 1.3802 2.1221 1375.4 -0.0061990 292.58 0.14878 0.49783 2.0087 449.83 486.86 2.5812 1.0824 1.2804 208.14 0.70200 5.4201 0.0088544
-73.625 2.8444 0.00013891 31.548 31.585 0.28789 615.93 0.0016236 31.489 31.521 0.28758 1.3818 2.1252 1368.7 -0.0061724 288.65 0.14816 0.52725 1.8966 450.86 488.06 2.5757 1.0862 1.2847 208.54 0.69268 5.4469 0.0089334
-72.625 3.0240 0.00014544 33.676 33.716 0.29854 614.85 0.0016264 33.615 33.649 0.29821 1.3834 2.1284 1362.0 -0.0061454 284.81 0.14755 0.55804 1.7920 451.90 489.26 2.5703 1.0900 1.2889 208.93 0.68351 5.4737 0.0090126
-71.625 3.2127 0.00015215 35.808 35.850 0.30914 613.78 0.0016293 35.745 35.781 0.30880 1.3851 2.1316 1355.4 -0.0061181 281.03 0.14694 0.59024 1.6942 452.93 490.46 2.5650 1.0938 1.2932 209.32 0.67448 5.5005 0.0090922
-70.625 3.4108 0.00015904 37.943 37.988 0.31971 612.69 0.0016321 37.877 37.915 0.31935 1.3867 2.1349 1348.7 -0.0060904 277.34 0.14632 0.62390 1.6028 453.96 491.66 2.5598 1.0976 1.2976 209.70 0.66560 5.5273 0.0091720
-69.625 3.6187 0.00016611 40.082 40.129 0.33024 611.61 0.0016350 40.013 40.053 0.32987 1.3884 2.1382 1342.1 -0.0060624 273.72 0.14571 0.65906 1.5173 455.00 492.86 2.5547 1.1015 1.3020 210.08 0.65687 5.5540 0.0092520
-68.625 3.8367 0.00017335 42.223 42.273 0.34074 610.53 0.0016379 42.152 42.195 0.34036 1.3902 2.1415 1335.5 -0.0060339 270.17 0.14510 0.69577 1.4372 456.04 494.06 2.5497 1.1054 1.3064 210.45 0.64827 5.5807 0.0093324
-67.625 4.0652 0.00018076 44.368 44.421 0.35120 609.44 0.0016409 44.294 44.340 0.35080 1.3919 2.1449 1328.8 -0.0060051 266.69 0.14449 0.73408 1.3622 457.08 495.26 2.5448 1.1093 1.3109 210.82 0.63981 5.6074 0.0094130
-66.625 4.3046 0.00018833 46.517 46.573 0.36163 608.35 0.0016438 46.439 46.488 0.36122 1.3937 2.1483 1322.2 -0.0059760 263.28 0.14388 0.77404 1.2919 458.12 496.46 2.5400 1.1133 1.3154 211.18 0.63150 5.6341 0.0094939
-65.625 4.5551 0.00019607 48.669 48.728 0.37202 607.26 0.0016467 48.588 48.640 0.37160 1.3955 2.1518 1315.6 -0.0059464 259.93 0.14327 0.81570 1.2259 459.16 497.67 2.5353 1.1172 1.3200 211.54 0.62332 5.6608 0.0095750
-64.625 4.8173 0.00020396 50.824 50.887 0.38238 606.16 0.0016497 50.740 50.795 0.38195 1.3974 2.1553 1308.9 -0.0059164 256.65 0.14266 0.85910 1.1640 460.21 498.87 2.5307 1.1212 1.3246 211.89 0.61527 5.6874 0.0096564
-63.625 5.0915 0.00021200 52.983 53.049 0.39271 605.07 0.0016527 52.896 52.954 0.39226 1.3993 2.1588 1302.3 -0.0058861 253.42 0.14205 0.90429 1.1058 461.25 500.07 2.5262 1.1252 1.3293 212.24 0.60736 5.7140 0.0097382
-62.625 5.3781 0.00022018 55.145 55.215 0.40301 603.97 0.0016557 55.055 55.117 0.40254 1.4012 2.1624 1295.7 -0.0058553 250.26 0.14144 0.95134 1.0511 462.30 501.28 2.5218 1.1293 1.3340 212.58 0.59958 5.7406 0.0098201
-61.625 5.6774 0.00022850 57.311 57.385 0.41327 602.87 0.0016587 57.218 57.283 0.41279 1.4031 2.1660 1289.1 -0.0058241 247.16 0.14084 1.0003 0.99972 463.35 502.48 2.5175 1.1333 1.3387 212.92 0.59194 5.7672 0.0099024
-60.625 5.9899 0.00023695 59.480 59.558 0.42350 601.77 0.0016618 59.385 59.453 0.42301 1.4051 2.1697 1282.5 -0.0057925 244.12 0.14023 1.0512 0.95131 464.40 503.68 2.5133 1.1374 1.3435 213.26 0.58442 5.7938 0.0099850
-59.625 6.3160 0.00024552 61.654 61.736 0.43371 600.66 0.0016648 61.554 61.627 0.43320 1.4071 2.1734 1275.9 -0.0057605 241.13 0.13962 1.1041 0.90573 465.45 504.89 2.5091 1.1415 1.3483 213.58 0.57704 5.8203 0.010068
-58.625 6.6561 0.00025419 63.830 63.917 0.44388 599.55 0.0016679 63.728 63.805 0.44335 1.4091 2.1772 1269.3 -0.0057280 238.19 0.13902 1.1591 0.86277 466.50 506.09 2.5051 1.1457 1.3532 213.90 0.56978 5.8468 0.010151
-57.625 7.0107 0.00026297 66.011 66.102 0.45402 598.44 0.0016710 65.905 65.986 0.45348 1.4111 2.1810 1262.7 -0.0056951 235.31 0.13842 1.2161 0.82228 467.55 507.30 2.5011 1.1498 1.3581 214.22 0.56265 5.8733 0.010234
-56.625 7.3801 0.00027183 68.195 68.291 0.46413 597.33 0.0016741 68.086 68.172 0.46358 1.4132 2.1848 1256.1 -0.0056617 232.48 0.13781 1.2754 0.78408 468.60 508.50 2.4972 1.1540 1.3631 214.53 0.55564 5.8998 0.010318
-55.625 7.7648 0.00028077 70.383 70.484 0.47421 596.22 0.0016772 70.271 70.361 0.47364 1.4153 2.1887 1249.5 -0.0056279 229.69 0.13721 1.3369 0.74802 469.66 509.71 2.4934 1.1582 1.3681 214.84 0.54875 5.9263 0.010402
-54.625 8.1652 0.00028978 72.575 72.682 0.48426 595.10 0.0016804 72.460 72.554 0.48368 1.4174 2.1927 1242.9 -0.0055937 226.96 0.13661 1.4006 0.71396 470.72 510.91 2.4897 1.1624 1.3731 215.14 0.54199 5.9527 0.010486
-53.625 8.5819 0.00029883 74.771 74.883 0.49429 593.98 0.0016836 74.652 74.752 0.49369 1.4196 2.1967 1236.3 -0.0055589 224.27 0.13601 1.4667 0.68178 471.77 512.11 2.4860 1.1667 1.3782 215.43 0.53535 5.9792 0.010571
-52.625 9.0151 0.00030792 76.971 77.088 0.50429 592.86 0.0016867 76.849 76.954 0.50368 1.4218 2.2007 1229.8 -0.0055237 221.63 0.13541 1.5353 0.65136 472.83 513.32 2.4824 1.1710 1.3834 215.72 0.52882 6.0056 0.010656
-51.625 9.4655 0.00031702 79.174 79.297 0.51426 591.73 0.0016900 79.049 79.159 0.51363 1.4240 2.2048 1223.2 -0.0054880 219.04 0.13482 1.6062 0.62258 473.89 514.52 2.4789 1.1752 1.3886 216.00 0.52241 6.0320 0.010741
-50.625 9.9335 0.00032613 81.382 81.511 0.52420 590.60 0.0016932 81.253 81.369 0.52356 1.4262 2.2089 1216.6 -0.0054519 216.48 0.13422 1.6797 0.59534 474.95 515.73 2.4755 1.1796 1.3938 216.28 0.51612 6.0584 0.010827
-49.625 10.419 0.00033523 83.593 83.729 0.53412 589.47 0.0016964 83.462 83.584 0.53347 1.4285 2.2131 1210.1 -0.0054152 213.98 0.13363 1.7558 0.56954 476.01 516.93 2.4722 1.1839 1.3991 216.55 0.50994 6.0848 0.010913
-48.625 10.924 0.00034429 85.809 85.951 0.54401 588.34 0.0016997 85.674 85.802 0.54334 1.4308 2.2173 1203.5 -0.0053780 211.51 0.13303 1.8345 0.54510 477.07 518.13 2.4689 1.1883 1.4044 216.82 0.50387 6.1112 0.010999
-47.625 11.448 0.00035330 88.028 88.177 0.55387 587.20 0.0017030 87.891 88.025 0.55319 1.4331 2.2216 1196.9 -0.0053403 209.08 0.13244 1.9159 0.52194 478.14 519.33 2.4657 1.1927 1.4098 217.08 0.49792 6.1375 0.011085
-46.625 11.991 0.00036224 90.252 90.408 0.56371 586.06 0.0017063 90.111 90.252 0.56302 1.4354 2.2259 1190.4 -0.0053020 206.69 0.13185 2.0001 0.49997 479.20 520.53 2.4625 1.1971 1.4153 217.33 0.49207 6.1639 0.011172
-45.625 12.554 0.00037108 92.480 92.643 0.57352 584.92 0.0017096 92.336 92.484 0.57282 1.4378 2.2303 1183.8 -0.0052633 204.34 0.13126 2.0872 0.47912 480.27 521.74 2.4594 1.2015 1.4207 217.58 0.48633 6.1902 0.011259
-44.625 13.137 0.00037979 94.712 94.883 0.58331 583.77 0.0017130 94.565 94.720 0.58260 1.4402 2.2347 1177.3 -0.0052240 202.03 0.13067 2.1771 0.45933 481.33 522.94 2.4564 1.2060 1.4263 217.82 0.48069 6.2165 0.011347
-43.625 13.741 0.00038837 96.948 97.127 0.59307 582.62 0.0017164 96.799 96.961 0.59235 1.4426 2.2392 1170.7 -0.0051841 199.75 0.13008 2.2700 0.44053 482.40 524.14 2.4535 1.2104 1.4319 218.05 0.47516 6.2429 0.011435
-42.625 14.367 0.00039677 99.189 99.376 0.60281 581.47 0.0017198 99.036 99.207 0.60208 1.4450 2.2437 1164.2 -0.0051437 197.51 0.12949 2.3659 0.42267 483.46 525.33 2.4506 1.2149 1.4375 218.28 0.46973 6.2692 0.011523
-41.625 15.015 0.00040498 101.43 101.63 0.61253 580.32 0.0017232 101.28 101.46 0.61179 1.4475 2.2483 1157.7 -0.0051027 195.30 0.12891 2.4649 0.40569 484.53 526.53 2.4478 1.2195 1.4432 218.50 0.46440 6.2955 0.011612
-40.625 15.686 0.00041296 103.68 103.89 0.62222 579.16 0.0017266 103.52 103.71 0.62147 1.4500 2.2529 1151.1 -0.0050611 193.13 0.12832 2.5671 0.38954 485.60 527.73 2.4450 1.2240 1.4489 218.72 0.45917 6.3218 0.011701
-39.625 16.380 0.00042069 105.94 106.15 0.63189 578.00 0.0017301 105.78 105.97 0.63113 1.4525 2.2576 1144.6 -0.0050189 190.99 0.12774 2.6725 0.37418 486.67 528.93 2.4423 1.2286 1.4547 218.93 0.45403 6.3481 0.011790
-38.625 17.097 0.00042812 108.19 108.42 0.64154 576.83 0.0017336 108.03 108.24 0.64077 1.4550 2.2623 1138.0 -0.0049761 188.88 0.12716 2.7813 0.35955 487.74 530.12 2.4397 1.2332 1.4606 219.13 0.44900 6.3744 0.011880
-37.625 17.838 0.00043524 110.46 110.69 0.65117 575.66 0.0017371 110.29 110.51 0.65039 1.4576 2.2671 1131.5 -0.0049327 186.81 0.12658 2.8934 0.34562 488.81 531.32 2.4371 1.2378 1.4665 219.33 0.44405 6.4007 0.011970
-36.625 18.604 0.00044200 112.72 112.96 0.66077 574.49 0.0017407 112.56 112.78 0.65999 1.4602 2.2719 1125.0 -0.0048887 184.76 0.12600 3.0089 0.33235 489.88 532.51 2.4346 1.2424 1.4724 219.52 0.43920 6.4270 0.012060
-35.625 19.395 0.00044837 114.99 115.25 0.67035 573.32 0.0017442 114.83 115.06 0.66956 1.4628 2.2768 1118.5 -0.0048440 182.75 0.12542 3.1280 0.31969 490.95 533.70 2.4321 1.2471 1.4784 219.70 0.43444 6.4533 0.012151
-34.625 20.212 0.00045431 117.27 117.53 0.67991 572.14 0.0017478 117.10 117.34 0.67912 1.4654 2.2818 1111.9 -0.0047987 180.76 0.12485 3.2506 0.30763 492.02 534.89 2.4297 1.2517 1.4845 219.88 0.42977 6.4797 0.012243
-33.625 21.056 0.00045978 119.55 119.82 0.68945 570.96 0.0017514 119.38 119.63 0.68865 1.4681 2.2868 1105.4 -0.0047527 178.80 0.12427 3.3770 0.29612 493.09 536.08 2.4273 1.2564 1.4906 220.05 0.42519 6.5060 0.012334
-32.625 21.926 0.00046474 121.83 122.12 0.69897 569.77 0.0017551 121.66 121.93 0.69817 1.4708 2.2918 1098.9 -0.0047061 176.87 0.12370 3.5071 0.28514 494.17 537.27 2.4250 1.2611 1.4968 220.21 0.42070 6.5323 0.012426
-31.625 22.823 0.00046914 124.12 124.42 0.70847 568.58 0.0017588 123.95 124.23 0.70767 1.4735 2.2970 1092.3 -0.0046587 174.97 0.12313 3.6410 0.27465 495.24 538.46 2.4227 1.2659 1.5031 220.36 0.41629 6.5587 0.012519
-30.625 23.749 0.00047295 126.42 126.73 0.71795 567.39 0.0017625 126.24 126.53 0.71714 1.4762 2.3021 1085.8 -0.0046107 173.09 0.12256 3.7787 0.26464 496.31 539.64 2.4205 1.2706 1.5094 220.51 0.41196 6.5850 0.012612
-29.625 24.703 0.00047611 128.72 129.04 0.72741 566.19 0.0017662 128.54 128.84 0.72660 1.4790 2.3074 1079.3 -0.0045619 171.24 0.12200 3.9205 0.25507 497.38 540.83 2.4184 1.2754 1.5157 220.65 0.40772 6.6114 0.012706
-28.625 25.687 0.00047857 131.02 131.35 0.73685 564.99 0.0017699 130.84 131.16 0.73604 1.4818 2.3126 1072.8 -0.0045124 169.42 0.12143 4.0663 0.24592 498.46 542.01 2.4162 1.2802 1.5222 220.79 0.40356 6.6378 0.012800
-27.625 26.700 0.00048028 133.33 133.68 0.74627 563.78 0.0017737 133.15 133.48 0.74547 1.4846 2.3180 1066.2 -0.0044621 167.62 0.12087 4.2163 0.23717 499.53 543.19 2.4142 1.2850 1.5286 220.91 0.39947 6.6642 0.012894
-26.625 27.743 0.00048119 135.64 136.00 0.75567 562.57 0.0017775 135.47 135.81 0.75487 1.4874 2.3234 1059.7 -0.0044111 165.84 0.12031 4.3705 0.22881 500.60 544.37 2.4122 1.2899 1.5352 221.03 0.39547 6.6906 0.012989
-25.625 28.817 0.00048124 137.96 138.33 0.76505 561.36 0.0017814 137.78 138.14 0.76426 1.4902 2.3289 1053.2 -0.0043593 164.09 0.11975 4.5290 0.22080 501.68 545.55 2.4102 1.2947 1.5418 221.14 0.39154 6.7171 0.013084
-24.625 29.923 0.00048037 140.28 140.67 0.77441 560.14 0.0017853 140.11 140.48 0.77363 1.4931 2.3344 1046.7 -0.0043067 162.36 0.11919 4.6918 0.21314 502.75 546.72 2.4083 1.2996 1.5485 221.25 0.38768 6.7436 0.013180
-23.625 31.061 0.00047853 142.61 143.01 0.78376 558.92 0.0017892 142.44 142.82 0.78298 1.4960 2.3400 1040.1 -0.0042533 160.65 0.11863 4.8592 0.20580 503.82 547.90 2.4064 1.3045 1.5552 221.35 0.38391 6.7701 0.013277
-22.625 32.232 0.00047564 144.94 145.36 0.79309 557.69 0.0017931 144.77 145.17 0.79232 1.4990 2.3457 1033.6 -0.0041990 158.97 0.11807 5.0311 0.19877 504.90 549.07 2.4045 1.3095 1.5621 221.44 0.38020 6.7967 0.013374
-21.625 33.435 0.00047165 147.28 147.71 0.80240 556.46 0.0017971 147.11 147.52 0.80164 1.5019 2.3514 1027.1 -0.0041439 157.30 0.11752 5.2076 0.19203 505.97 550.24 2.4027 1.3144 1.5690 221.52 0.37656 6.8232 0.013471
-20.625 34.673 0.00046647 149.62 150.07 0.81169 555.23 0.0018011 149.45 149.88 0.81095 1.5049 2.3572 1020.6 -0.0040879 155.66 0.11697 5.3889 0.18557 507.04 551.40 2.4010 1.3194 1.5759 221.59 0.37300 6.8499 0.013569
-19.625 35.946 0.00046005 151.97 152.44 0.82097 553.99 0.0018051 151.80 152.25 0.82024 1.5079 2.3630 1014.0 -0.0040311 154.04 0.11642 5.5750 0.17937 508.11 552.57 2.3992 1.3244 1.5829 221.66 0.36950 6.8765 0.013668
-18.625 37.253 0.00045230 154.32 154.80 0.83023 552.74 0.0018092 154.16 154.62 0.82952 1.5109 2.3689 1007.5 -0.0039733 152.44 0.11587 5.7660 0.17343 509.19 553.73 2.3976 1.3294 1.5901 221.72 0.36608 6.9032 0.013767
-17.625 38.596 0.00044316 156.68 157.18 0.83947 551.49 0.0018133 156.52 157.00 0.83878 1.5140 2.3749 1001.0 -0.0039145 150.86 0.11532 5.9621 0.16773 510.26 554.89 2.3959 1.3345 1.5972 221.77 0.36272 6.9300 0.013867
-16.625 39.976 0.00043252 159.04 159.56 0.84870 550.24 0.0018174 158.89 159.39 0.84803 1.5171 2.3810 994.44 -0.0038549 149.29 0.11478 6.1632 0.16225 511.33 556.05 2.3943 1.3395 1.6045 221.81 0.35942 6.9568 0.013968
-15.625 41.392 0.00042032 161.41 161.95 0.85791 548.98 0.0018216 161.26 161.78 0.85726 1.5202 2.3871 987.91 -0.0037942 147.75 0.11423 6.3696 0.15700 512.40 557.20 2.3927 1.3446 1.6119 221.85 0.35619 6.9836 0.014069
-14.625 42.846 0.00040646 163.78 164.34 0.86711 547.71 0.0018258 163.64 164.18 0.86649 1.5233 2.3933 981.37 -0.0037325 146.22 0.11369 6.5812 0.15195 513.47 558.36 2.3912 1.3497 1.6193 221.87 0.35302 7.0105 0.014170
-13.625 44.338 0.00039085 166.16 166.73 0.87629 546.44 0.0018300 166.02 166.58 0.87569 1.5264 2.3996 974.83 -0.0036698 144.72 0.11315 6.7983 0.14710 514.54 559.51 2.3897 1.3549 1.6268 221.89 0.34992 7.0375 0.014273
-12.625 45.870 0.00037340 168.54 169.14 0.88545 545.17 0.0018343 168.41 168.99 0.88489 1.5296 2.4059 968.29 -0.0036061 143.23 0.11261 7.0208 0.14243 515.61 560.65 2.3883 1.3600 1.6344 221.90 0.34688 7.0646 0.014376
-11.625 47.440 0.00035400 170.93 171.55 0.89460 543.89 0.0018386 170.81 171.41 0.89407 1.5328 2.4124 961.75 -0.0035413 141.76 0.11208 7.2490 0.13795 516.68 561.80 2.3868 1.3652 1.6421 221.91 0.34389 7.0917 0.014479
-10.625 49.051 0.00033255 173.32 173.96 0.90373 542.60 0.0018430 173.21 173.83 0.90324 1.5360 2.4189 955.20 -0.0034753 140.30 0.11154 7.4829 0.13364 517.75 562.94 2.3854 1.3704 1.6498 221.90 0.34097 7.1188 0.014584
-9.6250 50.703 0.00030895 175.72 176.38 0.91285 541.31 0.0018474 175.61 176.26 0.91240 1.5393 2.4255 948.65 -0.0034082 138.86 0.11101 7.7226 0.12949 518.81 564.08 2.3841 1.3757 1.6577 221.88 0.33810 7.1461 0.014689
-8.6250 52.396 0.00028308 178.12 178.81 0.92196 540.02 0.0018518 178.03 178.70 0.92154 1.5426 2.4321 942.10 -0.0033400 137.44 0.11048 7.9683 0.12550 519.88 565.21 2.3827 1.3809 1.6657 221.86 0.33529 7.1734 0.014795
-7.6250 54.131 0.00025482 180.53 181.24 0.93105 538.72 0.0018563 180.45 181.14 0.93068 1.5459 2.4389 935.55 -0.0032705 136.03 0.10995 8.2200 0.12165 520.94 566.35 2.3814 1.3862 1.6737 221.83 0.33254 7.2008 0.014902
-6.6250 55.909 0.00022405 182.95 183.68 0.94013 537.41 0.0018608 182.87 183.59 0.93980 1.5492 2.4457 928.99 -0.0031998 134.64 0.10942 8.4779 0.11795 522.01 567.48 2.3801 1.3915 1.6819 221.79 0.32984 7.2284 0.015009
-5.6250 57.730 0.00019064 185.37 186.12 0.94919 536.10 0.0018653 185.30 186.05 0.94892 1.5525 2.4526 922.43 -0.0031279 133.27 0.10889 8.7420 0.11439 523.07 568.60 2.3789 1.3969 1.6902 221.74 0.32720 7.2560 0.015117
-4.6250 59.595 0.00015447 187.79 188.57 0.95824 534.78 0.0018699 187.74 188.51 0.95802 1.5559 2.4596 915.87 -0.0030546 131.91 0.10837 9.0126 0.11096 524.13 569.72 2.3777 1.4022 1.6985 221.68 0.32461 7.2837 0.015226
-3.6250 61.505 0.00011538 190.23 191.03 0.96728 533.45 0.0018746 190.19 190.98 0.96711 1.5593 2.4667 909.30 -0.0029800 130.56 0.10785 9.2896 0.10765 525.19 570.84 2.3765 1.4076 1.7070 221.62 0.32207 7.3115 0.015336
-2.6250 63.461 7.3251e-05 192.66 193.49 0.97630 532.12 0.0018793 192.64 193.46 0.97620 1.5627 2.4739 902.73 -0.0029041 129.23 0.10733 9.5733 0.10446 526.25 571.96 2.3753 1.4131 1.7156 221.54 0.31958 7.3394 0.015447
-1.6250 65.462 2.7915e-05 195.10 195.96 0.98531 530.78 0.0018840 195.10 195.95 0.98527 1.5662 2.4811 896.16 -0.0028267 127.91 0.10681 9.8638 0.10138 527.31 573.07 2.3742 1.4185 1.7243 221.45 0.31715 7.3674 0.015559
-0.62500 108.47 undefined 197.18 198.60 0.99296 530.00 0.0018868 197.18 198.60 0.99296 1.5697 2.4844 893.55 -0.0028002 127.15 0.10655 530.00 0.0018868 197.18 198.60 0.99296 1.5697 2.4844 893.55 -0.0028002 127.15 0.10655
0.37500 208.48 undefined 198.76 201.47 0.99871 530.00 0.0018868 198.76 201.47 0.99871 1.5735 2.4820 896.43 -0.0028453 127.14 0.10666 530.00 0.0018868 198.76 201.47 0.99871 1.5735 2.4820 896.43 -0.0028453 127.14 0.10666
1.3750 308.46 undefined 200.33 204.34 1.0045 530.00 0.0018868 200.33 204.34 1.0045 1.5773 2.4798 899.28 -0.0028894 127.12 0.10676 530.00 0.0018868 200.33 204.34 1.0045 1.5773 2.4798 899.28 -0.0028894 127.12 0.10676
2.3750 408.40 undefined 201.91 207.22 1.0102 530.00 0.0018868 201.91 207.22 1.0102 1.5810 2.4777 902.11 -0.0029324 127.11 0.10687 530.00 0.0018868 201.91 207.22 1.0102 1.5810 2.4777 902.11 -0.0029324 127.11 0.10687
3.3750 508.31 undefined 203.49 210.11 1.0159 530.00 0.0018868 203.49 210.11 1.0159 1.5848 2.4757 904.91 -0.0029744 127.10 0.10697 530.00 0.0018868 203.49 210.11 1.0159 1.5848 2.4757 904.91 -0.0029744 127.10 0.10697
4.3750 608.19 undefined 205.08 212.99 1.0217 530.00 0.0018868 205.08 212.99 1.0217 1.5886 2.4739 907.68 -0.0030154 127.09 0.10708 530.00 0.0018868 205.08 212.99 1.0217 1.5886 2.4739 907.68 -0.0030154 127.09 0.10708
5.3750 708.03 undefined 206.67 215.88 1.0274 530.00 0.0018868 206.67 215.88 1.0274 1.5925 2.4721 910.43 -0.0030555 127.08 0.10718 530.00 0.0018868 206.67 215.88 1.0274 1.5925 2.4721 910.43 -0.0030555 127.08 0.10718
6.3750 807.84 undefined 208.26 218.77 1.0331 530.00 0.0018868 208.26 218.77 1.0331 1.5963 2.4706 913.15 -0.0030947 127.07 0.10729 530.00 0.0018868 208.26 218.77 1.0331 1.5963 2.4706 913.15 -0.0030947 127.07 0.10729
7.3750 907.60 undefined 209.86 221.67 1.0388 530.00 0.0018868 209.86 221.67 1.0388 1.6001 2.4691 915.84 -0.0031330 127.06 0.10739 530.00 0.0018868 209.86 221.67 1.0388 1.6001 2.4691 915.84 -0.0031330 127.06 0.10739
8.3750 1007.3 undefined 211.47 224.57 1.0445 530.00 0.0018868 211.47 224.57 1.0445 1.6040 2.4677 918.52 -0.0031704 127.05 0.10750 530.00 0.0018868 211.47 224.57 1.0445 1.6040 2.4677 918.52 -0.0031704 127.05 0.10750
9.3750 1107.0 undefined 213.07 227.47 1.0502 530.00 0.0018868 213.07 227.47 1.0502 1.6079 2.4665 921.16 -0.0032069 127.04 0.10761 530.00 0.0018868 213.07 227.47 1.0502 1.6079 2.4665 921.16 -0.0032069 127.04 0.10761
10.375 1206.7 undefined 214.68 230.38 1.0559 530.00 0.0018868 214.68 230.38 1.0559 1.6118 2.4653 923.79 -0.0032427 127.03 0.10771 530.00 0.0018868 214.68 230.38 1.0559 1.6118 2.4653 923.79 -0.0032427 127.03 0.10771
11.375 1306.3 undefined 216.29 233.29 1.0616 530.00 0.0018868 216.29 233.29 1.0616 1.6157 2.4643 926.39 -0.0032776 127.02 0.10782 530.00 0.0018868 216.29 233.29 1.0616 1.6157 2.4643 926.39 -0.0032776 127.02 0.10782
12.375 1405.8 undefined 217.91 236.20 1.0673 530.00 0.0018868 217.91 236.20 1.0673 1.6196 2.4634 928.96 -0.0033118 127.01 0.10793 530.00 0.0018868 217.91 236.20 1.0673 1.6196 2.4634 928.96 -0.0033118 127.01 0.10793
13.375 1505.3 undefined 219.53 239.12 1.0729 530.00 0.0018868 219.53 239.12 1.0729 1.6236 2.4625 931.52 -0.0033452 127.00 0.10804 530.00 0.0018868 219.53 239.12 1.0729 1.6236 2.4625 931.52 -0.0033452 127.00 0.10804
14.375 1604.8 undefined 221.16 242.04 1.0786 530.00 0.0018868 221.16 242.04 1.0786 1.6275 2.4618 934.05 -0.0033779 126.99 0.10814 530.00 0.0018868 221.16 242.04 1.0786 1.6275 2.4618 934.05 -0.0033779 126.99 0.10814
15.375 1704.2 undefined 222.79 244.96 1.0842 530.00 0.0018868 222.79 244.96 1.0842 1.6315 2.4611 936.56 -0.0034098 126.98 0.10825 530.00 0.0018868 222.79 244.96 1.0842 1.6315 2.4611 936.56 -0.0034098 126.98 0.10825
16.375 1803.6 undefined 224.42 247.89 1.0899 530.00 0.0018868 224.42 247.89 1.0899 1.6355 2.4605 939.05 -0.0034411 126.98 0.10836 530.00 0.0018868 224.42 247.89 1.0899 1.6355 2.4605 939.05 -0.0034411 126.98 0.10836
17.375 1902.9 undefined 226.06 250.81 1.0955 530.00 0.0018868 226.06 250.81 1.0955 1.6394 2.4601 941.52 -0.0034717 126.97 0.10847 530.00 0.0018868 226.06 250.81 1.0955 1.6394 2.4601 941.52 -0.0034717 126.97 0.10847
18.375 2002.2 undefined 227.70 253.75 1.1012 530.00 0.0018868 227.70 253.75 1.1012 1.6435 2.4597 943.96 -0.0035016 126.96 0.10858 530.00 0.0018868 227.70 253.75 1.1012 1.6435 2.4597 943.96 -0.0035016 126.96 0.10858
19.375 2101.4 undefined 229.35 256.68 1.1068 530.00 0.0018868 229.35 256.68 1.1068 1.6475 2.4594 946.39 -0.0035309 126.95 0.10869 530.00 0.0018868 229.35 256.68 1.1068 1.6475 2.4594 946.39 -0.0035309 126.95 0.10869
20.375 2200.6 undefined 231.00 259.62 1.1124 530.00 0.0018868 231.00 259.62 1.1124 1.6515 2.4591 948.80 -0.0035595 126.95 0.10880 530.00 0.0018868 231.00 259.62 1.1124 1.6515 2.4591 948.80 -0.0035595 126.95 0.10880
21.375 2299.7 undefined 232.65 262.57 1.1181 530.00 0.0018868 232.65 262.57 1.1181 1.6555 2.4590 951.19 -0.0035875 126.94 0.10891 530.00 0.0018868 232.65 262.57 1.1181 1.6555 2.4590 951.19 -0.0035875 126.94 0.10891
22.375 2398.8 undefined 234.31 265.51 1.1237 530.00 0.0018868 234.31 265.51 1.1237 1.6596 2.4589 953.56 -0.0036150 126.93 0.10902 530.00 0.0018868 234.31 265.51 1.1237 1.6596 2.4589 953.56 -0.0036150 126.93 0.10902
23.375 2497.8 undefined 235.97 268.46 1.1293 530.00 0.0018868 235.97 268.46 1.1293 1.6637 2.4589 955.91 -0.0036418 126.92 0.10913 530.00 0.0018868 235.97 268.46 1.1293 1.6637 2.4589 955.91 -0.0036418 126.92 0.10913
24.375 2596.7 undefined 237.63 271.42 1.1349 530.00 0.0018868 237.63 271.42 1.1349 1.6678 2.4590 958.24 -0.0036681 126.92 0.10924 530.00 0.0018868 237.63 271.42 1.1349 1.6678 2.4590 958.24 -0.0036681 126.92 0.10924
25.375 2695.6 undefined 239.30 274.37 1.1405 530.00 0.0018868 239.30 274.37 1.1405 1.6718 2.4591 960.56 -0.0036938 126.91 0.10936 530.00 0.0018868 239.30 274.37 1.1405 1.6718 2.4591 960.56 -0.0036938 126.91 0.10936
26.375 2794.5 undefined 240.98 277.33 1.1461 530.00 0.0018868 240.98 277.33 1.1461 1.6760 2.4593 962.86 -0.0037190 126.91 0.10947 530.00 0.0018868 240.98 277.33 1.1461 1.6760 2.4593 962.86 -0.0037190 126.91 0.10947
27.375 2893.2 undefined 242.66 280.29 1.1517 530.00 0.0018868 242.66 280.29 1.1517 1.6801 2.4596 965.14 -0.0037436 126.90 0.10958 530.00 0.0018868 242.66 280.29 1.1517 1.6801 2.4596 965.14 -0.0037436 126.90 0.10958
28.375 2992.0 undefined 244.34 283.26 1.1573 530.00 0.0018868 244.34 283.26 1.1573 1.6842 2.4599 967.40 -0.0037677 126.90 0.10969 530.00 0.0018868 244.34 283.26 1.1573 1.6842 2.4599 967.40 -0.0037677 126.90 0.10969
29.375 3090.6 undefined 246.02 286.23 1.1629 530.00 0.0018868 246.02 286.23 1.1629 1.6883 2.4603 969.65 -0.0037913 126.89 0.10980 530.00 0.0018868 246.02 286.23 1.1629 1.6883 2.4603 969.65 -0.0037913 126.89 0.10980
30.375 3189.2 undefined 247.72 289.20 1.1684 530.00 0.0018868 247.72 289.20 1.1684 1.6925 2.4608 971.89 -0.0038144 126.88 0.10992 530.00 0.0018868 247.72 289.20 1.1684 1.6925 2.4608 971.89 -0.0038144 126.88 0.10992
31.375 3287.8 undefined 249.41 292.18 1.1740 530.00 0.0018868 249.41 292.18 1.1740 1.6966 2.4613 974.10 -0.0038371 126.88 0.11003 530.00 0.0018868 249.41 292.18 1.1740 1.6966 2.4613 974.10 -0.0038371 126.88 0.11003
32.375 3386.3 undefined 251.11 295.16 1.1796 530.00 0.0018868 251.11 295.16 1.1796 1.7008 2.4619 976.31 -0.0038592 126.88 0.11015 530.00 0.0018868 251.11 295.16 1.1796 1.7008 2.4619 976.31 -0.0038592 126.88 0.11015
33.375 3484.7 undefined 252.81 298.14 1.1852 530.00 0.0018868 252.81 298.14 1.1852 1.7050 2.4626 978.49 -0.0038809 126.87 0.11026 530.00 0.0018868 252.81 298.14 1.1852 1.7050 2.4626 978.49 -0.0038809 126.87 0.11026
34.375 3583.0 undefined 254.52 301.13 1.1907 530.00 0.0018868 254.52 301.13 1.1907 1.7092 2.4633 980.67 -0.0039021 126.87 0.11037 530.00 0.0018868 254.52 301.13 1.1907 1.7092 2.4633 980.67 -0.0039021 126.87 0.11037
35.375 3681.3 undefined 256.23 304.12 1.1963 530.00 0.0018868 256.23 304.12 1.1963 1.7134 2.4640 982.82 -0.0039229 126.86 0.11049 530.00 0.0018868 256.23 304.12 1.1963 1.7134 2.4640 982.82 -0.0039229 126.86 0.11049
36.375 3779.6 undefined 257.95 307.11 1.2018 530.00 0.0018868 257.95 307.11 1.2018 1.7176 2.4648 984.97 -0.0039433 126.86 0.11060 530.00 0.0018868 257.95 307.11 1.2018 1.7176 2.4648 984.97 -0.0039433 126.86 0.11060
37.375 3877.8 undefined 259.66 310.11 1.2074 530.00 0.0018868 259.66 310.11 1.2074 1.7218 2.4657 987.10 -0.0039632 126.85 0.11072 530.00 0.0018868 259.66 310.11 1.2074 1.7218 2.4657 987.10 -0.0039632 126.85 0.11072
38.375 3975.9 undefined 261.39 313.11 1.2129 530.00 0.0018868 261.39 313.11 1.2129 1.7260 2.4666 989.22 -0.0039827 126.85 0.11083 530.00 0.0018868 261.39 313.11 1.2129 1.7260 2.4666 989.22 -0.0039827 126.85 0.11083
39.375 4073.9 undefined 263.12 316.11 1.2185 530.00 0.0018868 263.12 316.11 1.2185 1.7303 2.4676 991.32 -0.0040018 126.85 0.11095 530.00 0.0018868 263.12 316.11 1.2185 1.7303 2.4676 991.32 -0.0040018 126.85 0.11095
40.375 4171.9 undefined 264.85 319.12 1.2240 530.00 0.0018868 264.85 319.12 1.2240 1.7345 2.4686 993.41 -0.0040205 126.85 0.11107 530.00 0.0018868 264.85 319.12 1.2240 1.7345 2.4686 993.41 -0.0040205 126.85 0.11107
41.375 4269.8 undefined 266.59 322.13 1.2295 530.00 0.0018868 266.59 322.13 1.2295 1.7387 2.4697 995.49 -0.0040388 126.84 0.11118 530.00 0.0018868 266.59 322.13 1.2295 1.7387 2.4697 995.49 -0.0040388 126.84 0.11118
42.375 4367.7 undefined 268.33 325.15 1.2350 530.00 0.0018868 268.33 325.15 1.2350 1.7430 2.4708 997.56 -0.0040567 126.84 0.11130 530.00 0.0018868 268.33 325.15 1.2350 1.7430 2.4708 997.56 -0.0040567 126.84 0.11130
43.375 4465.4 undefined 270.07 328.16 1.2406 530.00 0.0018868 270.07 328.16 1.2406 1.7473 2.4720 999.61 -0.0040742 126.84 0.11142 530.00 0.0018868 270.07 328.16 1.2406 1.7473 2.4720 999.61 -0.0040742 126.84 0.11142
44.375 4563.2 undefined 271.82 331.18 1.2461 530.00 0.0018868 271.82 331.18 1.2461 1.7515 2.4732 1001.7 -0.0040914 126.83 0.11153 530.00 0.0018868 271.82 331.18 1.2461 1.7515 2.4732 1001.7 -0.0040914 126.83 0.11153
45.375 4660.8 undefined 273.58 334.21 1.2516 530.00 0.0018868 273.58 334.21 1.2516 1.7558 2.4744 1003.7 -0.0041082 126.83 0.11165 530.00 0.0018868 273.58 334.21 1.2516 1.7558 2.4744 1003.7 -0.0041082 126.83 0.11165
46.375 4758.4 undefined 275.33 337.23 1.2571 530.00 0.0018868 275.33 337.23 1.2571 1.7601 2.4757 1005.7 -0.0041246 126.83 0.11177 530.00 0.0018868 275.33 337.23 1.2571 1.7601 2.4757 1005.7 -0.0041246 126.83 0.11177
47.375 4855.9 undefined 277.10 340.27 1.2626 530.00 0.0018868 277.10 340.27 1.2626 1.7644 2.4771 1007.7 -0.0041408 126.83 0.11189 530.00 0.0018868 277.10 340.27 1.2626 1.7644 2.4771 1007.7 -0.0041408 126.83 0.11189
48.375 4953.4 undefined 278.86 343.30 1.2681 530.00 0.0018868 278.86 343.30 1.2681 1.7687 2.4785 1009.7 -0.0041565 126.83 0.11201 530.00 0.0018868 278.86 343.30 1.2681 1.7687 2.4785 1009.7 -0.0041565 126.83 0.11201
49.375 5050.7 undefined 280.63 346.34 1.2736 530.00 0.0018868 280.63 346.34 1.2736 1.7730 2.4799 1011.7 -0.0041719 126.83 0.11212 530.00 0.0018868 280.63 346.34 1.2736 1.7730 2.4799 1011.7 -0.0041719 126.83 0.11212
50.375 5148.1 undefined 282.41 349.38 1.2791 530.00 0.0018868 282.41 349.38 1.2791 1.7773 2.4813 1013.7 -0.0041870 126.82 0.11224 530.00 0.0018868 282.41 349.38 1.2791 1.7773 2.4813 1013.7 -0.0041870 126.82 0.11224
51.375 5245.3 undefined 284.19 352.42 1.2846 530.00 0.0018868 284.19 352.42 1.2846 1.7816 2.4828 1015.6 -0.0042018 126.82 0.11236 530.00 0.0018868 284.19 352.42 1.2846 1.7816 2.4828 1015.6 -0.0042018 126.82 0.11236
52.375 5342.5 undefined 285.97 355.47 1.2901 530.00 0.0018868 285.97 355.47 1.2901 1.7859 2.4844 1017.6 -0.0042163 126.82 0.11248 530.00 0.0018868 285.97 355.47 1.2901 1.7859 2.4844 1017.6 -0.0042163 126.82 0.11248
53.375 5439.6 undefined 287.76 358.52 1.2956 530.00 0.0018868 287.76 358.52 1.2956 1.7902 2.4860 1019.5 -0.0042304 126.82 0.11260 530.00 0.0018868 287.76 358.52 1.2956 1.7902 2.4860 1019.5 -0.0042304 126.82 0.11260
54.375 5536.7 undefined 289.55 361.58 1.3011 530.00 0.0018868 289.55 361.58 1.3011 1.7946 2.4876 1021.5 -0.0042443 126.82 0.11272 530.00 0.0018868 289.55 361.58 1.3011 1.7946 2.4876 1021.5 -0.0042443 126.82 0.11272
55.375 5633.6 undefined 291.35 364.64 1.3065 530.00 0.0018868 291.35 364.64 1.3065 1.7989 2.4892 1023.4 -0.0042578 126.82 0.11284 530.00 0.0018868 291.35 364.64 1.3065 1.7989 2.4892 1023.4 -0.0042578 126.82 0.11284
56.375 5730.5 undefined 293.15 367.70 1.3120 530.00 0.0018868 293.15 367.70 1.3120 1.8032 2.4909 1025.3 -0.0042711 126.82 0.11296 530.00 0.0018868 293.15 367.70 1.3120 1.8032 2.4909 1025.3 -0.0042711 126.82 0.11296
57.375 5827.4 undefined 294.95 370.76 1.3175 530.00 0.0018868 294.95 370.76 1.3175 1.8076 2.4926 1027.2 -0.0042841 126.82 0.11308 530.00 0.0018868 294.95 370.76 1.3175 1.8076 2.4926 1027.2 -0.0042841 126.82 0.11308
58.375 5924.1 undefined 296.76 373.83 1.3229 530.00 0.0018868 296.76 373.83 1.3229 1.8119 2.4944 1029.1 -0.0042968 126.82 0.11321 530.00 0.0018868 296.76 373.83 1.3229 1.8119 2.4944 1029.1 -0.0042968 126.82 0.11321
59.375 6020.8 undefined 298.58 376.90 1.3284 530.00 0.0018868 298.58 376.90 1.3284 1.8163 2.4962 1031.0 -0.0043092 126.82 0.11333 530.00 0.0018868 298.58 376.90 1.3284 1.8163 2.4962 1031.0 -0.0043092 126.82 0.11333
60.375 6117.5 undefined 300.40 379.98 1.3339 530.00 0.0018868 300.40 379.98 1.3339 1.8206 2.4980 1032.9 -0.0043213 126.82 0.11345 530.00 0.0018868 300.40 379.98 1.3339 1.8206 2.4980 1032.9 -0.0043213 126.82 0.11345
61.375 6214.0 undefined 302.22 383.06 1.3393 530.00 0.0018868 302.22 383.06 1.3393 1.8250 2.4998 1034.8 -0.0043332 126.82 0.11357 530.00 0.0018868 302.22 383.06 1.3393 1.8250 2.4998 1034.8 -0.0043332 126.82 0.11357
62.375 6310.5 undefined 304.05 386.14 1.3448 530.00 0.0018868 304.05 386.14 1.3448 1.8293 2.5017 1036.6 -0.0043448 126.82 0.11370 530.00 0.0018868 304.05 386.14 1.3448 1.8293 2.5017 1036.6 -0.0043448 126.82 0.11370
63.375 6407.0 undefined 305.88 389.23 1.3502 530.00 0.0018868 305.88 389.23 1.3502 1.8337 2.5036 1038.5 -0.0043562 126.82 0.11382 530.00 0.0018868 305.88 389.23 1.3502 1.8337 2.5036 1038.5 -0.0043562 126.82 0.11382
64.375 6503.3 undefined 307.71 392.32 1.3557 530.00 0.0018868 307.71 392.32 1.3557 1.8380 2.5055 1040.3 -0.0043673 126.82 0.11395 530.00 0.0018868 307.71 392.32 1.3557 1.8380 2.5055 1040.3 -0.0043673 126.82 0.11395
65.375 6599.6 undefined 309.55 395.41 1.3611 530.00 0.0018868 309.55 395.41 1.3611 1.8424 2.5075 1042.2 -0.0043782 126.82 0.11407 530.00 0.0018868 309.55 395.41 1.3611 1.8424 2.5075 1042.2 -0.0043782 126.82 0.11407
66.375 6695.8 undefined 311.40 398.51 1.3666 530.00 0.0018868 311.40 398.51 1.3666 1.8468 2.5095 1044.0 -0.0043888 126.83 0.11420 530.00 0.0018868 311.40 398.51 1.3666 1.8468 2.5095 1044.0 -0.0043888 126.83 0.11420
67.375 6792.0 undefined 313.25 401.60 1.3720 530.00 0.0018868 313.25 401.60 1.3720 1.8511 2.5115 1045.8 -0.0043992 126.83 0.11432 530.00 0.0018868 313.25 401.60 1.3720 1.8511 2.5115 1045.8 -0.0043992 126.83 0.11432
68.375 6888.1 undefined 315.10 404.71 1.3774 530.00 0.0018868 315.10 404.71 1.3774 1.8555 2.5136 1047.6 -0.0044093 126.83 0.11445 530.00 0.0018868 315.10 404.71 1.3774 1.8555 2.5136 1047.6 -0.0044093 126.83 0.11445
69.375 6984.1 undefined 316.96 407.81 1.3829 530.00 0.0018868 316.96 407.81 1.3829 1.8599 2.5157 1049.4 -0.0044193 126.83 0.11457 530.00 0.0018868 316.96 407.81 1.3829 1.8599 2.5157 1049.4 -0.0044193 126.83 0.11457
70.375 7080.0 undefined 318.82 410.92 1.3883 530.00 0.0018868 318.82 410.92 1.3883 1.8643 2.5178 1051.2 -0.0044290 126.83 0.11470 530.00 0.0018868 318.82 410.92 1.3883 1.8643 2.5178 1051.2 -0.0044290 126.83 0.11470
71.375 7175.9 undefined 320.69 414.04 1.3937 530.00 0.0018868 320.69 414.04 1.3937 1.8686 2.5199 1053.0 -0.0044384 126.83 0.11483 530.00 0.0018868 320.69 414.04 1.3937 1.8686 2.5199 1053.0 -0.0044384 126.83 0.11483
72.375 7271.7 undefined 322.56 417.16 1.3991 530.00 0.0018868 322.56 417.16 1.3991 1.8730 2.5220 1054.8 -0.0044477 126.84 0.11495 530.00 0.0018868 322.56 417.16 1.3991 1.8730 2.5220 1054.8 -0.0044477 126.84 0.11495
73.375 7367.4 undefined 324.43 420.28 1.4046 530.00 0.0018868 324.43 420.28 1.4046 1.8774 2.5242 1056.6 -0.0044568 126.84 0.11508 530.00 0.0018868 324.43 420.28 1.4046 1.8774 2.5242 1056.6 -0.0044568 126.84 0.11508
74.375 7463.1 undefined 326.31 423.40 1.4100 530.00 0.0018868 326.31 423.40 1.4100 1.8818 2.5264 1058.4 -0.0044656 126.84 0.11521 530.00 0.0018868 326.31 423.40 1.4100 1.8818 2.5264 1058.4 -0.0044656 126.84 0.11521
75.375 7558.7 undefined 328.20 426.53 1.4154 530.00 0.0018868 328.20 426.53 1.4154 1.8862 2.5287 1060.1 -0.0044743 126.84 0.11533 530.00 0.0018868 328.20 426.53 1.4154 1.8862 2.5287 1060.1 -0.0044743 126.84 0.11533
76.375 7654.2 undefined 330.09 429.66 1.4208 530.00 0.0018868 330.09 429.66 1.4208 1.8905 2.5309 1061.9 -0.0044827 126.85 0.11546 530.00 0.0018868 330.09 429.66 1.4208 1.8905 2.5309 1061.9 -0.0044827 126.85 0.11546
77.375 7749.7 undefined 331.98 432.79 1.4262 530.00 0.0018868 331.98 432.79 1.4262 1.8949 2.5332 1063.6 -0.0044909 126.85 0.11559 530.00 0.0018868 331.98 432.79 1.4262 1.8949 2.5332 1063.6 -0.0044909 126.85 0.11559
78.375 7845.0 undefined 333.88 435.93 1.4316 530.00 0.0018868 333.88 435.93 1.4316 1.8993 2.5355 1065.4 -0.0044990 126.85 0.11572 530.00 0.0018868 333.88 435.93 1.4316 1.8993 2.5355 1065.4 -0.0044990 126.85 0.11572
79.375 7940.4 undefined 335.78 439.07 1.4370 530.00 0.0018868 335.78 439.07 1.4370 1.9037 2.5378 1067.1 -0.0045069 126.85 0.11585 530.00 0.0018868 335.78 439.07 1.4370 1.9037 2.5378 1067.1 -0.0045069 126.85 0.11585
80.375 8035.6 undefined 337.68 442.22 1.4424 530.00 0.0018868 337.68 442.22 1.4424 1.9081 2.5401 1068.8 -0.0045145 126.86 0.11598 530.00 0.0018868 337.68 442.22 1.4424 1.9081 2.5401 1068.8 -0.0045145 126.86 0.11598
81.375 8130.8 undefined 339.59 445.37 1.4478 530.00 0.0018868 339.59 445.37 1.4478 1.9124 2.5425 1070.6 -0.0045220 126.86 0.11610 530.00 0.0018868 339.59 445.37 1.4478 1.9124 2.5425 1070.6 -0.0045220 126.86 0.11610
82.375 8225.9 undefined 341.51 448.52 1.4532 530.00 0.0018868 341.51 448.52 1.4532 1.9168 2.5448 1072.3 -0.0045293 126.86 0.11623 530.00 0.0018868 341.51 448.52 1.4532 1.9168 2.5448 1072.3 -0.0045293 126.86 0.11623
83.375 8320.9 undefined 343.43 451.67 1.4586 530.00 0.0018868 343.43 451.67 1.4586 1.9212 2.5472 1074.0 -0.0045365 126.87 0.11636 530.00 0.0018868 343.43 451.67 1.4586 1.9212 2.5472 1074.0 -0.0045365 126.87 0.11636
84.375 8415.9 undefined 345.35 454.83 1.4640 530.00 0.0018868 345.35 454.83 1.4640 1.9256 2.5497 1075.7 -0.0045434 126.87 0.11649 530.00 0.0018868 345.35 454.83 1.4640 1.9256 2.5497 1075.7 -0.0045434 126.87 0.11649
85.375 8510.8 undefined 347.28 458.00 1.4694 530.00 0.0018868 347.28 458.00 1.4694 1.9300 2.5521 1077.4 -0.0045502 126.87 0.11662 530.00 0.0018868 347.28 458.00 1.4694 1.9300 2.5521 1077.4 -0.0045502 126.87 0.11662
86.375 8605.7 undefined 349.21 461.16 1.4747 530.00 0.0018868 349.21 461.16 1.4747 1.9343 2.5545 1079.1 -0.0045569 126.88 0.11676 530.00 0.0018868 349.21 461.16 1.4747 1.9343 2.5545 1079.1 -0.0045569 126.88 0.11676
87.375 8700.4 undefined 351.15 464.33 1.4801 530.00 0.0018868 351.15 464.33 1.4801 1.9387 2.5570 1080.8 -0.0045633 126.88 0.11689 530.00 0.0018868 351.15 464.33 1.4801 1.9387 2.5570 1080.8 -0.0045633 126.88 0.11689
88.375 8795.1 undefined 353.09 467.50 1.4855 530.00 0.0018868 353.09 467.50 1.4855 1.9431 2.5595 1082.4 -0.0045696 126.89 0.11702 530.00 0.0018868 353.09 467.50 1.4855 1.9431 2.5595 1082.4 -0.0045696 126.89 0.11702
89.375 8889.8 undefined 355.03 470.68 1.4909 530.00 0.0018868 355.03 470.68 1.4909 1.9475 2.5620 1084.1 -0.0045758 126.89 0.11715 530.00 0.0018868 355.03 470.68 1.4909 1.9475 2.5620 1084.1 -0.0045758 126.89 0.11715
90.375 8984.3 undefined 356.98 473.86 1.4962 530.00 0.0018868 356.98 473.86 1.4962 1.9519 2.5645 1085.8 -0.0045818 126.90 0.11728 530.00 0.0018868 356.98 473.86 1.4962 1.9519 2.5645 1085.8 -0.0045818 126.90 0.11728
91.375 9078.8 undefined 358.94 477.04 1.5016 530.00 0.0018868 358.94 477.04 1.5016 1.9562 2.5671 1087.4 -0.0045876 126.90 0.11741 530.00 0.0018868 358.94 477.04 1.5016 1.9562 2.5671 1087.4 -0.0045876 126.90 0.11741
92.375 9173.2 undefined 360.89 480.23 1.5070 530.00 0.0018868 360.89 480.23 1.5070 1.9606 2.5696 1089.1 -0.0045933 126.90 0.11755 530.00 0.0018868 360.89 480.23 1.5070 1.9606 2.5696 1089.1 -0.0045933 126.90 0.11755
93.375 9267.6 undefined 362.86 483.42 1.5123 530.00 0.0018868 362.86 483.42 1.5123 1.9650 2.5722 1090.8 -0.0045988 126.91 0.11768 530.00 0.0018868 362.86 483.42 1.5123 1.9650 2.5722 1090.8 -0.0045988 126.91 0.11768
94.375 9361.9 undefined 364.82 486.61 1.5177 530.00 0.0018868 364.82 486.61 1.5177 1.9694 2.5748 1092.4 -0.0046042 126.91 0.11781 530.00 0.0018868 364.82 486.61 1.5177 1.9694 2.5748 1092.4 -0.0046042 126.91 0.11781
95.375 9456.1 undefined 366.80 489.81 1.5231 530.00 0.0018868 366.80 489.81 1.5231 1.9737 2.5774 1094.0 -0.0046095 126.92 0.11794 530.00 0.0018868 366.80 489.81 1.5231 1.9737 2.5774 1094.0 -0.0046095 126.92 0.11794
96.375 9550.3 undefined 368.77 493.01 1.5284 530.00 0.0018868 368.77 493.01 1.5284 1.9781 2.5800 1095.7 -0.0046146 126.92 0.11808 530.00 0.0018868 368.77 493.01 1.5284 1.9781 2.5800 1095.7 -0.0046146 126.92 0.11808
97.375 9644.4 undefined 370.75 496.22 1.5338 530.00 0.0018868 370.75 496.22 1.5338 1.9825 2.5826 1097.3 -0.0046196 126.93 0.11821 530.00 0.0018868 370.75 496.22 1.5338 1.9825 2.5826 1097.3 -0.0046196 126.93 0.11821
98.375 9738.4 undefined 372.74 499.42 1.5391 530.00 0.0018868 372.74 499.42 1.5391 1.9868 2.5853 1098.9 -0.0046244 126.93 0.11835 530.00 0.0018868 372.74 499.42 1.5391 1.9868 2.5853 1098.9 -0.0046244 126.93 0.11835
99.375 9832.3 undefined 374.73 502.63 1.5445 530.00 0.0018868 374.73 502.63 1.5445 1.9912 2.5879 1100.5 -0.0046292 126.94 0.11848 530.00 0.0018868 374.73 502.63 1.5445 1.9912 2.5879 1100.5 -0.0046292 126.94 0.11848
100.38 9926.2 undefined 376.72 505.85 1.5498 530.00 0.0018868 376.72 505.85 1.5498 1.9956 2.5906 1102.2 -0.0046337 126.95 0.11862 530.00 0.0018868 376.72 505.85 1.5498 1.9956 2.5906 1102.2 -0.0046337 126.95 0.11862
101.38 10020. undefined 378.72 509.07 1.5551 530.00 0.0018868 378.72 509.07 1.5551 1.9999 2.5933 1103.8 -0.0046382 126.95 0.11875 530.00 0.0018868 378.72 509.07 1.5551 1.9999 2.5933 1103.8 -0.0046382 126.95 0.11875
102.38 10114. undefined 380.72 512.29 1.5605 530.00 0.0018868 380.72 512.29 1.5605 2.0043 2.5960 1105.4 -0.0046425 126.96 0.11889 530.00 0.0018868 380.72 512.29 1.5605 2.0043 2.5960 1105.4 -0.0046425 126.96 0.11889
103.38 10207. undefined 382.73 515.51 1.5658 530.00 0.0018868 382.73 515.51 1.5658 2.0086 2.5987 1107.0 -0.0046467 126.96 0.11902 530.00 0.0018868 382.73 515.51 1.5658 2.0086 2.5987 1107.0 -0.0046467 126.96 0.11902
104.38 10301. undefined 384.74 518.74 1.5712 530.00 0.0018868 384.74 518.74 1.5712 2.0130 2.6014 1108.6 -0.0046508 126.97 0.11916 530.00 0.0018868 384.74 518.74 1.5712 2.0130 2.6014 1108.6 -0.0046508 126.97 0.11916
105.38 10395. undefined 386.75 521.98 1.5765 530.00 0.0018868 386.75 521.98 1.5765 2.0174 2.6041 1110.1 -0.0046548 126.97 0.11929 530.00 0.0018868 386.75 521.98 1.5765 2.0174 2.6041 1110.1 -0.0046548 126.97 0.11929
106.38 10488. undefined 388.77 525.21 1.5818 530.00 0.0018868 388.77 525.21 1.5818 2.0217 2.6069 1111.7 -0.0046587 126.98 0.11943 530.00 0.0018868 388.77 525.21 1.5818 2.0217 2.6069 1111.7 -0.0046587 126.98 0.11943
107.38 10582. undefined 390.80 528.45 1.5871 530.00 0.0018868 390.80 528.45 1.5871 2.0261 2.6096 1113.3 -0.0046624 126.99 0.11957 530.00 0.0018868 390.80 528.45 1.5871 2.0261 2.6096 1113.3 -0.0046624 126.99 0.11957
108.38 10675. undefined 392.82 531.69 1.5925 530.00 0.0018868 392.82 531.69 1.5925 2.0304 2.6124 1114.9 -0.0046660 126.99 0.11971 530.00 0.0018868 392.82 531.69 1.5925 2.0304 2.6124 1114.9 -0.0046660 126.99 0.11971
109.38 10768. undefined 394.86 534.94 1.5978 530.00 0.0018868 394.86 534.94 1.5978 2.0347 2.6152 1116.4 -0.0046696 127.00 0.11984 530.00 0.0018868 394.86 534.94 1.5978 2.0347 2.6152 1116.4 -0.0046696 127.00 0.11984
110.38 10861. undefined 396.89 538.19 1.6031 530.00 0.0018868 396.89 538.19 1.6031 2.0391 2.6180 1118.0 -0.0046730 127.01 0.11998 530.00 0.0018868 396.89 538.19 1.6031 2.0391 2.6180 1118.0 -0.0046730 127.01 0.11998
111.38 10955. undefined 398.93 541.44 1.6084 530.00 0.0018868 398.93 541.44 1.6084 2.0434 2.6208 1119.6 -0.0046763 127.01 0.12012 530.00 0.0018868 398.93 541.44 1.6084 2.0434 2.6208 1119.6 -0.0046763 127.01 0.12012
112.38 11048. undefined 400.98 544.70 1.6137 530.00 0.0018868 400.98 544.70 1.6137 2.0478 2.6236 1121.1 -0.0046795 127.02 0.12026 530.00 0.0018868 400.98 544.70 1.6137 2.0478 2.6236 1121.1 -0.0046795 127.02 0.12026
113.38 11141. undefined 403.03 547.96 1.6190 530.00 0.0018868 403.03 547.96 1.6190 2.0521 2.6264 1122.7 -0.0046826 127.03 0.12040 530.00 0.0018868 403.03 547.96 1.6190 2.0521 2.6264 1122.7 -0.0046826 127.03 0.12040
114.38 11234. undefined 405.08 551.22 1.6243 530.00 0.0018868 405.08 551.22 1.6243 2.0564 2.6292 1124.2 -0.0046856 127.03 0.12053 530.00 0.0018868 405.08 551.22 1.6243 2.0564 2.6292 1124.2 -0.0046856 127.03 0.12053
115.38 11326. undefined 407.14 554.49 1.6297 530.00 0.0018868 407.14 554.49 1.6297 2.0607 2.6321 1125.7 -0.0046885 127.04 0.12067 530.00 0.0018868 407.14 554.49 1.6297 2.0607 2.6321 1125.7 -0.0046885 127.04 0.12067
116.38 11419. undefined 409.21 557.76 1.6350 530.00 0.0018868 409.21 557.76 1.6350 2.0651 2.6349 1127.3 -0.0046913 127.05 0.12081 530.00 0.0018868 409.21 557.76 1.6350 2.0651 2.6349 1127.3 -0.0046913 127.05 0.12081
117.38 11512. undefined 411.27 561.03 1.6403 530.00 0.0018868 411.27 561.03 1.6403 2.0694 2.6378 1128.8 -0.0046940 127.05 0.12095 530.00 0.0018868 411.27 561.03 1.6403 2.0694 2.6378 1128.8 -0.0046940 127.05 0.12095
118.38 11605. undefined 413.34 564.31 1.6456 530.00 0.0018868 413.34 564.31 1.6456 2.0737 2.6407 1130.3 -0.0046967 127.06 0.12109 530.00 0.0018868 413.34 564.31 1.6456 2.0737 2.6407 1130.3 -0.0046967 127.06 0.12109
119.38 11697. undefined 415.42 567.59 1.6508 530.00 0.0018868 415.42 567.59 1.6508 2.0780 2.6435 1131.8 -0.0046992 127.07 0.12123 530.00 0.0018868 415.42 567.59 1.6508 2.0780 2.6435 1131.8 -0.0046992 127.07 0.12123
120.38 11790. undefined 417.50 570.88 1.6561 530.00 0.0018868 417.50 570.88 1.6561 2.0823 2.6464 1133.4 -0.0047016 127.08 0.12137 530.00 0.0018868 417.50 570.88 1.6561 2.0823 2.6464 1133.4 -0.0047016 127.08 0.12137
121.38 11882. undefined 419.59 574.16 1.6614 530.00 0.0018868 419.59 574.16 1.6614 2.0867 2.6493 1134.9 -0.0047040 127.08 0.12152 530.00 0.0018868 419.59 574.16 1.6614 2.0867 2.6493 1134.9 -0.0047040 127.08 0.12152
122.38 11975. undefined 421.67 577.45 1.6667 530.00 0.0018868 421.67 577.45 1.6667 2.0910 2.6522 1136.4 -0.0047062 127.09 0.12166 530.00 0.0018868 421.67 577.45 1.6667 2.0910 2.6522 1136.4 -0.0047062 127.09 0.12166
123.38 12067. undefined 423.77 580.75 1.6720 530.00 0.0018868 423.77 580.75 1.6720 2.0953 2.6551 1137.9 -0.0047084 127.10 0.12180 530.00 0.0018868 423.77 580.75 1.6720 2.0953 2.6551 1137.9 -0.0047084 127.10 0.12180
124.38 12159. undefined 425.86 584.05 1.6773 530.00 0.0018868 425.86 584.05 1.6773 2.0996 2.6580 1139.4 -0.0047105 127.11 0.12194 530.00 0.0018868 425.86 584.05 1.6773 2.0996 2.6580 1139.4 -0.0047105 127.11 0.12194
125.38 12252. undefined 427.97 587.35 1.6826 530.00 0.0018868 427.97 587.35 1.6826 2.1039 2.6610 1140.9 -0.0047125 127.12 0.12208 530.00 0.0018868 427.97 587.35 1.6826 2.1039 2.6610 1140.9 -0.0047125 127.12 0.12208
126.38 12344. undefined 430.07 590.65 1.6878 530.00 0.0018868 430.07 590.65 1.6878 2.1082 2.6639 1142.4 -0.0047144 127.12 0.12222 530.00 0.0018868 430.07 590.65 1.6878 2.1082 2.6639 1142.4 -0.0047144 127.12 0.12222
127.38 12436. undefined 432.18 593.96 1.6931 530.00 0.0018868 432.18 593.96 1.6931 2.1124 2.6668 1143.9 -0.0047163 127.13 0.12237 530.00 0.0018868 432.18 593.96 1.6931 2.1124 2.6668 1143.9 -0.0047163 127.13 0.12237
128.38 12528. undefined 434.30 597.27 1.6984 530.00 0.0018868 434.30 597.27 1.6984 2.1167 2.6698 1145.3 -0.0047181 127.14 0.12251 530.00 0.0018868 434.30 597.27 1.6984 2.1167 2.6698 1145.3 -0.0047181 127.14 0.12251
129.38 12620. undefined 436.42 600.59 1.7037 530.00 0.0018868 436.42 600.59 1.7037 2.1210 2.6727 1146.8 -0.0047198 127.15 0.12265 530.00 0.0018868 436.42 600.59 1.7037 2.1210 2.6727 1146.8 -0.0047198 127.15 0.12265
130.38 12712. undefined 438.54 603.91 1.7089 530.00 0.0018868 438.54 603.91 1.7089 2.1253 2.6757 1148.3 -0.0047214 127.16 0.12280 530.00 0.0018868 438.54 603.91 1.7089 2.1253 2.6757 1148.3 -0.0047214 127.16 0.12280
131.38 12804. undefined 440.67 607.23 1.7142 530.00 0.0018868 440.67 607.23 1.7142 2.1296 2.6787 1149.8 -0.0047229 127.16 0.12294 530.00 0.0018868 440.67 607.23 1.7142 2.1296 2.6787 1149.8 -0.0047229 127.16 0.12294
132.38 12896. undefined 442.80 610.56 1.7195 530.00 0.0018868 442.80 610.56 1.7195 2.1338 2.6816 1151.2 -0.0047244 127.17 0.12309 530.00 0.0018868 442.80 610.56 1.7195 2.1338 2.6816 1151.2 -0.0047244 127.17 0.12309
133.38 12987. undefined 444.93 613.88 1.7247 530.00 0.0018868 444.93 613.88 1.7247 2.1381 2.6846 1152.7 -0.0047258 127.18 0.12323 530.00 0.0018868 444.93 613.88 1.7247 2.1381 2.6846 1152.7 -0.0047258 127.18 0.12323
134.38 13079. undefined 447.07 617.22 1.7300 530.00 0.0018868 447.07 617.22 1.7300 2.1424 2.6876 1154.2 -0.0047271 127.19 0.12337 530.00 0.0018868 447.07 617.22 1.7300 2.1424 2.6876 1154.2 -0.0047271 127.19 0.12337
135.38 13170. undefined 449.22 620.55 1.7352 530.00 0.0018868 449.22 620.55 1.7352 2.1466 2.6906 1155.6 -0.0047284 127.20 0.12352 530.00 0.0018868 449.22 620.55 1.7352 2.1466 2.6906 1155.6 -0.0047284 127.20 0.12352
136.38 13262. undefined 451.37 623.89 1.7405 530.00 0.0018868 451.37 623.89 1.7405 2.1509 2.6936 1157.1 -0.0047296 127.21 0.12367 530.00 0.0018868 451.37 623.89 1.7405 2.1509 2.6936 1157.1 -0.0047296 127.21 0.12367
137.38 13353. undefined 453.52 627.24 1.7457 530.00 0.0018868 453.52 627.24 1.7457 2.1551 2.6966 1158.5 -0.0047307 127.22 0.12381 530.00 0.0018868 453.52 627.24 1.7457 2.1551 2.6966 1158.5 -0.0047307 127.22 0.12381
138.38 13445. undefined 455.68 630.58 1.7510 530.00 0.0018868 455.68 630.58 1.7510 2.1594 2.6996 1159.9 -0.0047318 127.22 0.12396 530.00 0.0018868 455.68 630.58 1.7510 2.1594 2.6996 1159.9 -0.0047318 127.22 0.12396
139.38 13536. undefined 457.84 633.93 1.7562 530.00 0.0018868 457.84 633.93 1.7562 2.1636 2.7026 1161.4 -0.0047328 127.23 0.12410 530.00 0.0018868 457.84 633.93 1.7562 2.1636 2.7026 1161.4 -0.0047328 127.23 0.12410
140.38 13627. undefined 460.01 637.28 1.7615 530.00 0.0018868 460.01 637.28 1.7615 2.1679 2.7056 1162.8 -0.0047337 127.24 0.12425 530.00 0.0018868 460.01 637.28 1.7615 2.1679 2.7056 1162.8 -0.0047337 127.24 0.12425
141.38 13719. undefined 462.18 640.64 1.7667 530.00 0.0018868 462.18 640.64 1.7667 2.1721 2.7086 1164.3 -0.0047346 127.25 0.12440 530.00 0.0018868 462.18 640.64 1.7667 2.1721 2.7086 1164.3 -0.0047346 127.25 0.12440
142.38 13810. undefined 464.35 644.00 1.7720 530.00 0.0018868 464.35 644.00 1.7720 2.1764 2.7117 1165.7 -0.0047354 127.26 0.12454 530.00 0.0018868 464.35 644.00 1.7720 2.1764 2.7117 1165.7 -0.0047354 127.26 0.12454
143.38 13901. undefined 466.53 647.36 1.7772 530.00 0.0018868 466.53 647.36 1.7772 2.1806 2.7147 1167.1 -0.0047362 127.27 0.12469 530.00 0.0018868 466.53 647.36 1.7772 2.1806 2.7147 1167.1 -0.0047362 127.27 0.12469
144.38 13992. undefined 468.71 650.73 1.7824 530.00 0.0018868 468.71 650.73 1.7824 2.1848 2.7177 1168.5 -0.0047369 127.28 0.12484 530.00 0.0018868 468.71 650.73 1.7824 2.1848 2.7177 1168.5 -0.0047369 127.28 0.12484
145.38 14083. undefined 470.90 654.10 1.7877 530.00 0.0018868 470.90 654.10 1.7877 2.1890 2.7208 1169.9 -0.0047375 127.29 0.12499 530.00 0.0018868 470.90 654.10 1.7877 2.1890 2.7208 1169.9 -0.0047375 127.29 0.12499
146.38 14174. undefined 473.09 657.48 1.7929 530.00 0.0018868 473.09 657.48 1.7929 2.1933 2.7238 1171.4 -0.0047381 127.30 0.12513 530.00 0.0018868 473.09 657.48 1.7929 2.1933 2.7238 1171.4 -0.0047381 127.30 0.12513
147.38 14265. undefined 475.28 660.85 1.7981 530.00 0.0018868 475.28 660.85 1.7981 2.1975 2.7269 1172.8 -0.0047386 127.31 0.12528 530.00 0.0018868 475.28 660.85 1.7981 2.1975 2.7269 1172.8 -0.0047386 127.31 0.12528
148.38 14355. undefined 477.48 664.23 1.8033 530.00 0.0018868 477.48 664.23 1.8033 2.2017 2.7299 1174.2 -0.0047391 127.32 0.12543 530.00 0.0018868 477.48 664.23 1.8033 2.2017 2.7299 1174.2 -0.0047391 127.32 0.12543
149.38 14446. undefined 479.69 667.62 1.8086 530.00 0.0018868 479.69 667.62 1.8086 2.2059 2.7330 1175.6 -0.0047395 127.33 0.12558 530.00 0.0018868 479.69 667.62 1.8086 2.2059 2.7330 1175.6 -0.0047395 127.33 0.12558
150.38 14537. undefined 481.90 671.00 1.8138 530.00 0.0018868 481.90 671.00 1.8138 2.2101 2.7360 1177.0 -0.0047399 127.34 0.12573 530.00 0.0018868 481.90 671.00 1.8138 2.2101 2.7360 1177.0 -0.0047399 127.34 0.12573
151.38 14627. undefined 484.11 674.39 1.8190 530.00 0.0018868 484.11 674.39 1.8190 2.2143 2.7391 1178.4 -0.0047402 127.35 0.12588 530.00 0.0018868 484.11 674.39 1.8190 2.2143 2.7391 1178.4 -0.0047402 127.35 0.12588
152.38 14718. undefined 486.32 677.79 1.8242 530.00 0.0018868 486.32 677.79 1.8242 2.2185 2.7422 1179.8 -0.0047405 127.36 0.12603 530.00 0.0018868 486.32 677.79 1.8242 2.2185 2.7422 1179.8 -0.0047405 127.36 0.12603
153.38 14808. undefined 488.54 681.19 1.8294 530.00 0.0018868 488.54 681.19 1.8294 2.2227 2.7452 1181.1 -0.0047407 127.37 0.12618 530.00 0.0018868 488.54 681.19 1.8294 2.2227 2.7452 1181.1 -0.0047407 127.37 0.12618
154.38 14899. undefined 490.77 684.59 1.8346 530.00 0.0018868 490.77 684.59 1.8346 2.2268 2.7483 1182.5 -0.0047409 127.38 0.12633 530.00 0.0018868 490.77 684.59 1.8346 2.2268 2.7483 1182.5 -0.0047409 127.38 0.12633
155.38 14989. undefined 493.00 687.99 1.8398 530.00 0.0018868 493.00 687.99 1.8398 2.2310 2.7514 1183.9 -0.0047410 127.39 0.12648 530.00 0.0018868 493.00 687.99 1.8398 2.2310 2.7514 1183.9 -0.0047410 127.39 0.12648
156.38 15079. undefined 495.23 691.40 1.8450 530.00 0.0018868 495.23 691.40 1.8450 2.2352 2.7545 1185.3 -0.0047411 127.40 0.12663 530.00 0.0018868 495.23 691.40 1.8450 2.2352 2.7545 1185.3 -0.0047411 127.40 0.12663
157.38 15170. undefined 497.47 694.81 1.8502 530.00 0.0018868 497.47 694.81 1.8502 2.2394 2.7575 1186.7 -0.0047411 127.41 0.12679 530.00 0.0018868 497.47 694.81 1.8502 2.2394 2.7575 1186.7 -0.0047411 127.41 0.12679
158.38 15260. undefined 499.71 698.22 1.8554 530.00 0.0018868 499.71 698.22 1.8554 2.2435 2.7606 1188.0 -0.0047411 127.42 0.12694 530.00 0.0018868 499.71 698.22 1.8554 2.2435 2.7606 1188.0 -0.0047411 127.42 0.12694
159.38 15350. undefined 501.96 701.64 1.8606 530.00 0.0018868 501.96 701.64 1.8606 2.2477 2.7637 1189.4 -0.0047410 127.43 0.12709 530.00 0.0018868 501.96 701.64 1.8606 2.2477 2.7637 1189.4 -0.0047410 127.43 0.12709
160.38 15440. undefined 504.21 705.06 1.8658 530.00 0.0018868 504.21 705.06 1.8658 2.2518 2.7668 1190.8 -0.0047409 127.44 0.12724 530.00 0.0018868 504.21 705.06 1.8658 2.2518 2.7668 1190.8 -0.0047409 127.44 0.12724
161.38 15530. undefined 506.46 708.49 1.8710 530.00 0.0018868 506.46 708.49 1.8710 2.2560 2.7699 1192.1 -0.0047407 127.45 0.12739 530.00 0.0018868 506.46 708.49 1.8710 2.2560 2.7699 1192.1 -0.0047407 127.45 0.12739
162.38 15620. undefined 508.72 711.91 1.8762 530.00 0.0018868 508.72 711.91 1.8762 2.2601 2.7730 1193.5 -0.0047405 127.46 0.12755 530.00 0.0018868 508.72 711.91 1.8762 2.2601 2.7730 1193.5 -0.0047405 127.46 0.12755
163.38 15710. undefined 510.98 715.34 1.8814 530.00 0.0018868 510.98 715.34 1.8814 2.2643 2.7761 1194.8 -0.0047403 127.47 0.12770 530.00 0.0018868 510.98 715.34 1.8814 2.2643 2.7761 1194.8 -0.0047403 127.47 0.12770
164.38 15799. undefined 513.25 718.78 1.8866 530.00 0.0018868 513.25 718.78 1.8866 2.2684 2.7792 1196.2 -0.0047400 127.48 0.12785 530.00 0.0018868 513.25 718.78 1.8866 2.2684 2.7792 1196.2 -0.0047400 127.48 0.12785
165.38 15889. undefined 515.52 722.22 1.8918 530.00 0.0018868 515.52 722.22 1.8918 2.2726 2.7823 1197.5 -0.0047397 127.49 0.12801 530.00 0.0018868 515.52 722.22 1.8918 2.2726 2.7823 1197.5 -0.0047397 127.49 0.12801
166.38 15979. undefined 517.79 725.66 1.8970 530.00 0.0018868 517.79 725.66 1.8970 2.2767 2.7854 1198.9 -0.0047394 127.50 0.12816 530.00 0.0018868 517.79 725.66 1.8970 2.2767 2.7854 1198.9 -0.0047394 127.50 0.12816
167.38 16068. undefined 520.07 729.10 1.9021 530.00 0.0018868 520.07 729.10 1.9021 2.2808 2.7885 1200.2 -0.0047390 127.51 0.12832 530.00 0.0018868 520.07 729.10 1.9021 2.2808 2.7885 1200.2 -0.0047390 127.51 0.12832
168.38 16158. undefined 522.35 732.55 1.9073 530.00 0.0018868 522.35 732.55 1.9073 2.2849 2.7916 1201.6 -0.0047385 127.52 0.12847 530.00 0.0018868 522.35 732.55 1.9073 2.2849 2.7916 1201.6 -0.0047385 127.52 0.12847
169.38 16247. undefined 524.64 736.00 1.9125 530.00 0.0018868 524.64 736.00 1.9125 2.2891 2.7947 1202.9 -0.0047381 127.53 0.12863 530.00 0.0018868 524.64 736.00 1.9125 2.2891 2.7947 1202.9 -0.0047381 127.53 0.12863
170.38 16337. undefined 526.93 739.46 1.9177 530.00 0.0018868 526.93 739.46 1.9177 2.2932 2.7978 1204.2 -0.0047375 127.54 0.12878 530.00 0.0018868 526.93 739.46 1.9177 2.2932 2.7978 1204.2 -0.0047375 127.54 0.12878
171.38 16426. undefined 529.23 742.91 1.9228 530.00 0.0018868 529.23 742.91 1.9228 2.2973 2.8009 1205.6 -0.0047370 127.56 0.12894 530.00 0.0018868 529.23 742.91 1.9228 2.2973 2.8009 1205.6 -0.0047370 127.56 0.12894
172.38 16515. undefined 531.53 746.37 1.9280 530.00 0.0018868 531.53 746.37 1.9280 2.3014 2.8040 1206.9 -0.0047364 127.57 0.12909 530.00 0.0018868 531.53 746.37 1.9280 2.3014 2.8040 1206.9 -0.0047364 127.57 0.12909
173.38 16605. undefined 533.83 749.84 1.9332 530.00 0.0018868 533.83 749.84 1.9332 2.3055 2.8072 1208.2 -0.0047358 127.58 0.12925 530.00 0.0018868 533.83 749.84 1.9332 2.3055 2.8072 1208.2 -0.0047358 127.58 0.12925
174.38 16694. undefined 536.14 753.31 1.9383 530.00 0.0018868 536.14 753.31 1.9383 2.3096 2.8103 1209.5 -0.0047352 127.59 0.12941 530.00 0.0018868 536.14 753.31 1.9383 2.3096 2.8103 1209.5 -0.0047352 127.59 0.12941
175.38 16783. undefined 538.45 756.78 1.9435 530.00 0.0018868 538.45 756.78 1.9435 2.3136 2.8134 1210.9 -0.0047345 127.60 0.12956 530.00 0.0018868 538.45 756.78 1.9435 2.3136 2.8134 1210.9 -0.0047345 127.60 0.12956
176.38 16872. undefined 540.76 760.25 1.9486 530.00 0.0018868 540.76 760.25 1.9486 2.3177 2.8165 1212.2 -0.0047338 127.61 0.12972 530.00 0.0018868 540.76 760.25 1.9486 2.3177 2.8165 1212.2 -0.0047338 127.61 0.12972
177.38 16961. undefined 543.08 763.73 1.9538 530.00 0.0018868 543.08 763.73 1.9538 2.3218 2.8196 1213.5 -0.0047330 127.62 0.12988 530.00 0.0018868 543.08 763.73 1.9538 2.3218 2.8196 1213.5 -0.0047330 127.62 0.12988
178.38 17050. undefined 545.41 767.21 1.9590 530.00 0.0018868 545.41 767.21 1.9590 2.3259 2.8228 1214.8 -0.0047322 127.63 0.13003 530.00 0.0018868 545.41 767.21 1.9590 2.3259 2.8228 1214.8 -0.0047322 127.63 0.13003
179.38 17139. undefined 547.74 770.70 1.9641 530.00 0.0018868 547.74 770.70 1.9641 2.3299 2.8259 1216.1 -0.0047314 127.65 0.13019 530.00 0.0018868 547.74 770.70 1.9641 2.3299 2.8259 1216.1 -0.0047314 127.65 0.13019
180.38 17228. undefined 550.07 774.18 1.9692 530.00 0.0018868 550.07 774.18 1.9692 2.3340 2.8290 1217.4 -0.0047306 127.66 0.13035 530.00 0.0018868 550.07 774.18 1.9692 2.3340 2.8290 1217.4 -0.0047306 127.66 0.13035
181.38 17317. undefined 552.40 777.67 1.9744 530.00 0.0018868 552.40 777.67 1.9744 2.3381 2.8321 1218.7 -0.0047297 127.67 0.13051 530.00 0.0018868 552.40 777.67 1.9744 2.3381 2.8321 1218.7 -0.0047297 127.67 0.13051
182.38 17405. undefined 554.74 781.17 1.9795 530.00 0.0018868 554.74 781.17 1.9795 2.3421 2.8352 1220.0 -0.0047288 127.68 0.13067 530.00 0.0018868 554.74 781.17 1.9795 2.3421 2.8352 1220.0 -0.0047288 127.68 0.13067
183.38 17494. undefined 557.09 784.67 1.9847 530.00 0.0018868 557.09 784.67 1.9847 2.3462 2.8384 1221.3 -0.0047279 127.69 0.13083 530.00 0.0018868 557.09 784.67 1.9847 2.3462 2.8384 1221.3 -0.0047279 127.69 0.13083
184.38 17583. undefined 559.44 788.17 1.9898 530.00 0.0018868 559.44 788.17 1.9898 2.3502 2.8415 1222.6 -0.0047269 127.70 0.13099 530.00 0.0018868 559.44 788.17 1.9898 2.3502 2.8415 1222.6 -0.0047269 127.70 0.13099
185.38 17671. undefined 561.79 791.67 1.9950 530.00 0.0018868 561.79 791.67 1.9950 2.3542 2.8446 1223.9 -0.0047260 127.71 0.13115 530.00 0.0018868 561.79 791.67 1.9950 2.3542 2.8446 1223.9 -0.0047260 127.71 0.13115
186.38 17760. undefined 564.14 795.18 2.0001 530.00 0.0018868 564.14 795.18 2.0001 2.3583 2.8477 1225.2 -0.0047250 127.73 0.13131 530.00 0.0018868 564.14 795.18 2.0001 2.3583 2.8477 1225.2 -0.0047250 127.73 0.13131
187.38 17848. undefined 566.50 798.69 2.0052 530.00 0.0018868 566.50 798.69 2.0052 2.3623 2.8509 1226.5 -0.0047239 127.74 0.13147 530.00 0.0018868 566.50 798.69 2.0052 2.3623 2.8509 1226.5 -0.0047239 127.74 0.13147
188.38 17936. undefined 568.87 802.20 2.0103 530.00 0.0018868 568.87 802.20 2.0103 2.3663 2.8540 1227.7 -0.0047229 127.75 0.13163 530.00 0.0018868 568.87 802.20 2.0103 2.3663 2.8540 1227.7 -0.0047229 127.75 0.13163
189.38 18025. undefined 571.24 805.72 2.0155 530.00 0.0018868 571.24 805.72 2.0155 2.3703 2.8571 1229.0 -0.0047218 127.76 0.13179 530.00 0.0018868 571.24 805.72 2.0155 2.3703 2.8571 1229.0 -0.0047218 127.76 0.13179
190.38 18113. undefined 573.61 809.24 2.0206 530.00 0.0018868 573.61 809.24 2.0206 2.3744 2.8603 1230.3 -0.0047206 127.77 0.13195 530.00 0.0018868 573.61 809.24 2.0206 2.3744 2.8603 1230.3 -0.0047206 127.77 0.13195
191.38 18201. undefined 575.99 812.76 2.0257 530.00 0.0018868 575.99 812.76 2.0257 2.3784 2.8634 1231.6 -0.0047195 127.79 0.13211 530.00 0.0018868 575.99 812.76 2.0257 2.3784 2.8634 1231.6 -0.0047195 127.79 0.13211
192.38 18289. undefined 578.37 816.29 2.0308 530.00 0.0018868 578.37 816.29 2.0308 2.3824 2.8665 1232.8 -0.0047183 127.80 0.13227 530.00 0.0018868 578.37 816.29 2.0308 2.3824 2.8665 1232.8 -0.0047183 127.80 0.13227
193.38 18377. undefined 580.75 819.82 2.0359 530.00 0.0018868 580.75 819.82 2.0359 2.3864 2.8696 1234.1 -0.0047172 127.81 0.13243 530.00 0.0018868 580.75 819.82 2.0359 2.3864 2.8696 1234.1 -0.0047172 127.81 0.13243
194.38 18465. undefined 583.14 823.35 2.0411 530.00 0.0018868 583.14 823.35 2.0411 2.3904 2.8728 1235.4 -0.0047159 127.82 0.13260 530.00 0.0018868 583.14 823.35 2.0411 2.3904 2.8728 1235.4 -0.0047159 127.82 0.13260
195.38 18553. undefined 585.53 826.89 2.0462 530.00 0.0018868 585.53 826.89 2.0462 2.3943 2.8759 1236.6 -0.0047147 127.83 0.13276 530.00 0.0018868 585.53 826.89 2.0462 2.3943 2.8759 1236.6 -0.0047147 127.83 0.13276
196.38 18641. undefined 587.93 830.43 2.0513 530.00 0.0018868 587.93 830.43 2.0513 2.3983 2.8790 1237.9 -0.0047134 127.85 0.13292 530.00 0.0018868 587.93 830.43 2.0513 2.3983 2.8790 1237.9 -0.0047134 127.85 0.13292
197.38 18729. undefined 590.33 833.97 2.0564 530.00 0.0018868 590.33 833.97 2.0564 2.4023 2.8821 1239.1 -0.0047122 127.86 0.13309 530.00 0.0018868 590.33 833.97 2.0564 2.4023 2.8821 1239.1 -0.0047122 127.86 0.13309
198.38 18817. undefined 592.73 837.52 2.0615 530.00 0.0018868 592.73 837.52 2.0615 2.4063 2.8853 1240.4 -0.0047109 127.87 0.13325 530.00 0.0018868 592.73 837.52 2.0615 2.4063 2.8853 1240.4 -0.0047109 127.87 0.13325
199.38 18905. undefined 595.14 841.07 2.0666 530.00 0.0018868 595.14 841.07 2.0666 2.4102 2.8884 1241.6 -0.0047095 127.88 0.13341 530.00 0.0018868 595.14 841.07 2.0666 2.4102 2.8884 1241.6 -0.0047095 127.88 0.13341
200.38 18992. undefined 597.55 844.62 2.0717 530.00 0.0018868 597.55 844.62 2.0717 2.4142 2.8915 1242.9 -0.0047082 127.90 0.13358 530.00 0.0018868 597.55 844.62 2.0717 2.4142 2.8915 1242.9 -0.0047082 127.90 0.13358
201.38 19080. undefined 599.97 848.18 2.0768 530.00 0.0018868 599.97 848.18 2.0768 2.4182 2.8946 1244.1 -0.0047068 127.91 0.13374 530.00 0.0018868 599.97 848.18 2.0768 2.4182 2.8946 1244.1 -0.0047068 127.91 0.13374
202.38 19167. undefined 602.39 851.74 2.0819 530.00 0.0018868 602.39 851.74 2.0819 2.4221 2.8978 1245.4 -0.0047054 127.92 0.13391 530.00 0.0018868 602.39 851.74 2.0819 2.4221 2.8978 1245.4 -0.0047054 127.92 0.13391
203.38 19255. undefined 604.81 855.30 2.0870 530.00 0.0018868 604.81 855.30 2.0870 2.4261 2.9009 1246.6 -0.0047040 127.93 0.13407 530.00 0.0018868 604.81 855.30 2.0870 2.4261 2.9009 1246.6 -0.0047040 127.93 0.13407
204.38 19342. undefined 607.24 858.87 2.0921 530.00 0.0018868 607.24 858.87 2.0921 2.4300 2.9040 1247.9 -0.0047026 127.94 0.13424 530.00 0.0018868 607.24 858.87 2.0921 2.4300 2.9040 1247.9 -0.0047026 127.94 0.13424
205.38 19430. undefined 609.67 862.43 2.0972 530.00 0.0018868 609.67 862.43 2.0972 2.4339 2.9071 1249.1 -0.0047012 127.96 0.13440 530.00 0.0018868 609.67 862.43 2.0972 2.4339 2.9071 1249.1 -0.0047012 127.96 0.13440
206.38 19517. undefined 612.11 866.01 2.1022 530.00 0.0018868 612.11 866.01 2.1022 2.4379 2.9103 1250.3 -0.0046997 127.97 0.13457 530.00 0.0018868 612.11 866.01 2.1022 2.4379 2.9103 1250.3 -0.0046997 127.97 0.13457
207.38 19604. undefined 614.55 869.58 2.1073 530.00 0.0018868 614.55 869.58 2.1073 2.4418 2.9134 1251.6 -0.0046982 127.98 0.13473 530.00 0.0018868 614.55 869.58 2.1073 2.4418 2.9134 1251.6 -0.0046982 127.98 0.13473
208.38 19692. undefined 616.99 873.16 2.1124 530.00 0.0018868 616.99 873.16 2.1124 2.4457 2.9165 1252.8 -0.0046967 128.00 0.13490 530.00 0.0018868 616.99 873.16 2.1124 2.4457 2.9165 1252.8 -0.0046967 128.00 0.13490
209.38 19779. undefined 619.44 876.74 2.1175 530.00 0.0018868 619.44 876.74 2.1175 2.4496 2.9196 1254.0 -0.0046952 128.01 0.13507 530.00 0.0018868 619.44 876.74 2.1175 2.4496 2.9196 1254.0 -0.0046952 128.01 0.13507
210.38 19866. undefined 621.89 880.33 2.1226 530.00 0.0018868 621.89 880.33 2.1226 2.4535 2.9227 1255.2 -0.0046937 128.02 0.13523 530.00 0.0018868 621.89 880.33 2.1226 2.4535 2.9227 1255.2 -0.0046937 128.02 0.13523
211.38 19953. undefined 624.35 883.91 2.1276 530.00 0.0018868 624.35 883.91 2.1276 2.4575 2.9259 1256.5 -0.0046921 128.03 0.13540 530.00 0.0018868 624.35 883.91 2.1276 2.4575 2.9259 1256.5 -0.0046921 128.03 0.13540
212.38 20040. undefined 626.81 887.51 2.1327 530.00 0.0018868 626.81 887.51 2.1327 2.4614 2.9290 1257.7 -0.0046905 128.05 0.13557 530.00 0.0018868 626.81 887.51 2.1327 2.4614 2.9290 1257.7 -0.0046905 128.05 0.13557
213.38 20127. undefined 629.27 891.10 2.1378 530.00 0.0018868 629.27 891.10 2.1378 2.4652 2.9321 1258.9 -0.0046889 128.06 0.13574 530.00 0.0018868 629.27 891.10 2.1378 2.4652 2.9321 1258.9 -0.0046889 128.06 0.13574
214.38 20214. undefined 631.74 894.70 2.1428 530.00 0.0018868 631.74 894.70 2.1428 2.4691 2.9352 1260.1 -0.0046873 128.07 0.13591 530.00 0.0018868 631.74 894.70 2.1428 2.4691 2.9352 1260.1 -0.0046873 128.07 0.13591
215.38 20301. undefined 634.21 898.30 2.1479 530.00 0.0018868 634.21 898.30 2.1479 2.4730 2.9383 1261.3 -0.0046857 128.08 0.13607 530.00 0.0018868 634.21 898.30 2.1479 2.4730 2.9383 1261.3 -0.0046857 128.08 0.13607
216.38 20387. undefined 636.68 901.90 2.1530 530.00 0.0018868 636.68 901.90 2.1530 2.4769 2.9414 1262.5 -0.0046841 128.10 0.13624 530.00 0.0018868 636.68 901.90 2.1530 2.4769 2.9414 1262.5 -0.0046841 128.10 0.13624
217.38 20474. undefined 639.16 905.51 2.1580 530.00 0.0018868 639.16 905.51 2.1580 2.4808 2.9445 1263.7 -0.0046824 128.11 0.13641 530.00 0.0018868 639.16 905.51 2.1580 2.4808 2.9445 1263.7 -0.0046824 128.11 0.13641
218.38 20561. undefined 641.64 909.12 2.1631 530.00 0.0018868 641.64 909.12 2.1631 2.4846 2.9477 1264.9 -0.0046808 128.12 0.13658 530.00 0.0018868 641.64 909.12 2.1631 2.4846 2.9477 1264.9 -0.0046808 128.12 0.13658
219.38 20647. undefined 644.13 912.73 2.1681 530.00 0.0018868 644.13 912.73 2.1681 2.4885 2.9508 1266.1 -0.0046791 128.14 0.13675 530.00 0.0018868 644.13 912.73 2.1681 2.4885 2.9508 1266.1 -0.0046791 128.14 0.13675
220.38 20734. undefined 646.62 916.35 2.1732 530.00 0.0018868 646.62 916.35 2.1732 2.4924 2.9539 1267.3 -0.0046774 128.15 0.13692 530.00 0.0018868 646.62 916.35 2.1732 2.4924 2.9539 1267.3 -0.0046774 128.15 0.13692
221.38 20821. undefined 649.12 919.97 2.1782 530.00 0.0018868 649.12 919.97 2.1782 2.4962 2.9570 1268.5 -0.0046757 128.16 0.13709 530.00 0.0018868 649.12 919.97 2.1782 2.4962 2.9570 1268.5 -0.0046757 128.16 0.13709
222.38 20907. undefined 651.61 923.59 2.1833 530.00 0.0018868 651.61 923.59 2.1833 2.5001 2.9601 1269.7 -0.0046740 128.18 0.13726 530.00 0.0018868 651.61 923.59 2.1833 2.5001 2.9601 1269.7 -0.0046740 128.18 0.13726
223.38 20993. undefined 654.12 927.22 2.1883 530.00 0.0018868 654.12 927.22 2.1883 2.5039 2.9632 1270.9 -0.0046723 128.19 0.13743 530.00 0.0018868 654.12 927.22 2.1883 2.5039 2.9632 1270.9 -0.0046723 128.19 0.13743
224.38 21080. undefined 656.62 930.85 2.1934 530.00 0.0018868 656.62 930.85 2.1934 2.5078 2.9663 1272.1 -0.0046705 128.20 0.13760 530.00 0.0018868 656.62 930.85 2.1934 2.5078 2.9663 1272.1 -0.0046705 128.20 0.13760
225.38 21166. undefined 659.13 934.48 2.1984 530.00 0.0018868 659.13 934.48 2.1984 2.5116 2.9694 1273.3 -0.0046687 128.22 0.13777 530.00 0.0018868 659.13 934.48 2.1984 2.5116 2.9694 1273.3 -0.0046687 128.22 0.13777
226.38 21252. undefined 661.65 938.11 2.2034 530.00 0.0018868 661.65 938.11 2.2034 2.5154 2.9725 1274.5 -0.0046670 128.23 0.13795 530.00 0.0018868 661.65 938.11 2.2034 2.5154 2.9725 1274.5 -0.0046670 128.23 0.13795
227.38 21338. undefined 664.16 941.75 2.2085 530.00 0.0018868 664.16 941.75 2.2085 2.5192 2.9756 1275.7 -0.0046652 128.24 0.13812 530.00 0.0018868 664.16 941.75 2.2085 2.5192 2.9756 1275.7 -0.0046652 128.24 0.13812
228.38 21425. undefined 666.68 945.39 2.2135 530.00 0.0018868 666.68 945.39 2.2135 2.5231 2.9787 1276.8 -0.0046634 128.26 0.13829 530.00 0.0018868 666.68 945.39 2.2135 2.5231 2.9787 1276.8 -0.0046634 128.26 0.13829
229.38 21511. undefined 669.21 949.04 2.2185 530.00 0.0018868 669.21 949.04 2.2185 2.5269 2.9818 1278.0 -0.0046616 128.27 0.13846 530.00 0.0018868 669.21 949.04 2.2185 2.5269 2.9818 1278.0 -0.0046616 128.27 0.13846
230.38 21597. undefined 671.74 952.69 2.2236 530.00 0.0018868 671.74 952.69 2.2236 2.5307 2.9849 1279.2 -0.0046598 128.28 0.13864 530.00 0.0018868 671.74 952.69 2.2236 2.5307 2.9849 1279.2 -0.0046598 128.28 0.13864
231.38 21683. undefined 674.27 956.34 2.2286 530.00 0.0018868 674.27 956.34 2.2286 2.5345 2.9880 1280.4 -0.0046579 128.30 0.13881 530.00 0.0018868 674.27 956.34 2.2286 2.5345 2.9880 1280.4 -0.0046579 128.30 0.13881
232.38 21769. undefined 676.81 959.99 2.2336 530.00 0.0018868 676.81 959.99 2.2336 2.5383 2.9911 1281.6 -0.0046561 128.31 0.13898 530.00 0.0018868 676.81 959.99 2.2336 2.5383 2.9911 1281.6 -0.0046561 128.31 0.13898
233.38 21854. undefined 679.35 963.65 2.2386 530.00 0.0018868 679.35 963.65 2.2386 2.5421 2.9942 1282.7 -0.0046542 128.32 0.13916 530.00 0.0018868 679.35 963.65 2.2386 2.5421 2.9942 1282.7 -0.0046542 128.32 0.13916
234.38 21940. undefined 681.89 967.31 2.2436 530.00 0.0018868 681.89 967.31 2.2436 2.5458 2.9972 1283.9 -0.0046524 128.34 0.13933 530.00 0.0018868 681.89 967.31 2.2436 2.5458 2.9972 1283.9 -0.0046524 128.34 0.13933
235.38 22026. undefined 684.44 970.97 2.2487 530.00 0.0018868 684.44 970.97 2.2487 2.5496 3.0003 1285.1 -0.0046505 128.35 0.13950 530.00 0.0018868 684.44 970.97 2.2487 2.5496 3.0003 1285.1 -0.0046505 128.35 0.13950
236.38 22112. undefined 686.99 974.64 2.2537 530.00 0.0018868 686.99 974.64 2.2537 2.5534 3.0034 1286.2 -0.0046486 128.36 0.13968 530.00 0.0018868 686.99 974.64 2.2537 2.5534 3.0034 1286.2 -0.0046486 128.36 0.13968
237.38 22197. undefined 689.55 978.31 2.2587 530.00 0.0018868 689.55 978.31 2.2587 2.5572 3.0065 1287.4 -0.0046467 128.38 0.13985 530.00 0.0018868 689.55 978.31 2.2587 2.5572 3.0065 1287.4 -0.0046467 128.38 0.13985
238.38 22283. undefined 692.10 981.98 2.2637 530.00 0.0018868 692.10 981.98 2.2637 2.5609 3.0096 1288.5 -0.0046448 128.39 0.14003 530.00 0.0018868 692.10 981.98 2.2637 2.5609 3.0096 1288.5 -0.0046448 128.39 0.14003
239.38 22368. undefined 694.67 985.66 2.2687 530.00 0.0018868 694.67 985.66 2.2687 2.5647 3.0126 1289.7 -0.0046429 128.40 0.14020 530.00 0.0018868 694.67 985.66 2.2687 2.5647 3.0126 1289.7 -0.0046429 128.40 0.14020
240.38 22454. undefined 697.23 989.34 2.2737 530.00 0.0018868 697.23 989.34 2.2737 2.5685 3.0157 1290.9 -0.0046410 128.42 0.14038 530.00 0.0018868 697.23 989.34 2.2737 2.5685 3.0157 1290.9 -0.0046410 128.42 0.14038
241.38 22539. undefined 699.80 993.02 2.2787 530.00 0.0018868 699.80 993.02 2.2787 2.5722 3.0188 1292.0 -0.0046390 128.43 0.14056 530.00 0.0018868 699.80 993.02 2.2787 2.5722 3.0188 1292.0 -0.0046390 128.43 0.14056
242.38 22625. undefined 702.38 996.70 2.2837 530.00 0.0018868 702.38 996.70 2.2837 2.5759 3.0219 1293.2 -0.0046371 128.44 0.14073 530.00 0.0018868 702.38 996.70 2.2837 2.5759 3.0219 1293.2 -0.0046371 128.44 0.14073
243.38 22710. undefined 704.96 1000.4 2.2887 530.00 0.0018868 704.96 1000.4 2.2887 2.5797 3.0249 1294.3 -0.0046351 128.46 0.14091 530.00 0.0018868 704.96 1000.4 2.2887 2.5797 3.0249 1294.3 -0.0046351 128.46 0.14091
244.38 22795. undefined 707.54 1004.1 2.2937 530.00 0.0018868 707.54 1004.1 2.2937 2.5834 3.0280 1295.4 -0.0046332 128.47 0.14109 530.00 0.0018868 707.54 1004.1 2.2937 2.5834 3.0280 1295.4 -0.0046332 128.47 0.14109
245.38 22881. undefined 710.12 1007.8 2.2987 530.00 0.0018868 710.12 1007.8 2.2987 2.5871 3.0311 1296.6 -0.0046312 128.49 0.14126 530.00 0.0018868 710.12 1007.8 2.2987 2.5871 3.0311 1296.6 -0.0046312 128.49 0.14126
246.38 22966. undefined 712.71 1011.5 2.3037 530.00 0.0018868 712.71 1011.5 2.3037 2.5909 3.0341 1297.7 -0.0046292 128.50 0.14144 530.00 0.0018868 712.71 1011.5 2.3037 2.5909 3.0341 1297.7 -0.0046292 128.50 0.14144
247.38 23051. undefined 715.30 1015.2 2.3087 530.00 0.0018868 715.30 1015.2 2.3087 2.5946 3.0372 1298.9 -0.0046272 128.51 0.14162 530.00 0.0018868 715.30 1015.2 2.3087 2.5946 3.0372 1298.9 -0.0046272 128.51 0.14162
248.38 23136. undefined 717.90 1018.9 2.3136 530.00 0.0018868 717.90 1018.9 2.3136 2.5983 3.0403 1300.0 -0.0046252 128.53 0.14180 530.00 0.0018868 717.90 1018.9 2.3136 2.5983 3.0403 1300.0 -0.0046252 128.53 0.14180
249.38 23221. undefined 720.50 1022.6 2.3186 530.00 0.0018868 720.50 1022.6 2.3186 2.6020 3.0433 1301.2 -0.0046232 128.54 0.14198 530.00 0.0018868 720.50 1022.6 2.3186 2.6020 3.0433 1301.2 -0.0046232 128.54 0.14198
250.38 23306. undefined 723.10 1026.3 2.3236 530.00 0.0018868 723.10 1026.3 2.3236 2.6057 3.0464 1302.3 -0.0046212 128.56 0.14215 530.00 0.0018868 723.10 1026.3 2.3236 2.6057 3.0464 1302.3 -0.0046212 128.56 0.14215
251.38 23391. undefined 725.71 1030.0 2.3286 530.00 0.0018868 725.71 1030.0 2.3286 2.6094 3.0494 1303.4 -0.0046192 128.57 0.14233 530.00 0.0018868 725.71 1030.0 2.3286 2.6094 3.0494 1303.4 -0.0046192 128.57 0.14233
252.38 23476. undefined 728.32 1033.7 2.3335 530.00 0.0018868 728.32 1033.7 2.3335 2.6131 3.0525 1304.5 -0.0046172 128.58 0.14251 530.00 0.0018868 728.32 1033.7 2.3335 2.6131 3.0525 1304.5 -0.0046172 128.58 0.14251
253.38 23561. undefined 730.94 1037.4 2.3385 530.00 0.0018868 730.94 1037.4 2.3385 2.6168 3.0555 1305.7 -0.0046151 128.60 0.14269 530.00 0.0018868 730.94 1037.4 2.3385 2.6168 3.0555 1305.7 -0.0046151 128.60 0.14269
254.38 23645. undefined 733.56 1041.2 2.3435 530.00 0.0018868 733.56 1041.2 2.3435 2.6205 3.0586 1306.8 -0.0046131 128.61 0.14287 530.00 0.0018868 733.56 1041.2 2.3435 2.6205 3.0586 1306.8 -0.0046131 128.61 0.14287
255.38 23730. undefined 736.18 1044.9 2.3485 530.00 0.0018868 736.18 1044.9 2.3485 2.6241 3.0616 1307.9 -0.0046111 128.62 0.14305 530.00 0.0018868 736.18 1044.9 2.3485 2.6241 3.0616 1307.9 -0.0046111 128.62 0.14305
256.38 23815. undefined 738.81 1048.6 2.3534 530.00 0.0018868 738.81 1048.6 2.3534 2.6278 3.0647 1309.0 -0.0046090 128.64 0.14323 530.00 0.0018868 738.81 1048.6 2.3534 2.6278 3.0647 1309.0 -0.0046090 128.64 0.14323
257.38 23899. undefined 741.44 1052.3 2.3584 530.00 0.0018868 741.44 1052.3 2.3584 2.6315 3.0677 1310.2 -0.0046069 128.65 0.14341 530.00 0.0018868 741.44 1052.3 2.3584 2.6315 3.0677 1310.2 -0.0046069 128.65 0.14341
258.38 23984. undefined 744.07 1056.1 2.3633 530.00 0.0018868 744.07 1056.1 2.3633 2.6351 3.0708 1311.3 -0.0046049 128.67 0.14359 530.00 0.0018868 744.07 1056.1 2.3633 2.6351 3.0708 1311.3 -0.0046049 128.67 0.14359
259.38 24068. undefined 746.71 1059.8 2.3683 530.00 0.0018868 746.71 1059.8 2.3683 2.6388 3.0738 1312.4 -0.0046028 128.68 0.14378 530.00 0.0018868 746.71 1059.8 2.3683 2.6388 3.0738 1312.4 -0.0046028 128.68 0.14378
260.38 24153. undefined 749.35 1063.5 2.3732 530.00 0.0018868 749.35 1063.5 2.3732 2.6425 3.0768 1313.5 -0.0046007 128.70 0.14396 530.00 0.0018868 749.35 1063.5 2.3732 2.6425 3.0768 1313.5 -0.0046007 128.70 0.14396
261.38 24237. undefined 751.99 1067.3 2.3782 530.00 0.0018868 751.99 1067.3 2.3782 2.6461 3.0799 1314.6 -0.0045987 128.71 0.14414 530.00 0.0018868 751.99 1067.3 2.3782 2.6461 3.0799 1314.6 -0.0045987 128.71 0.14414
262.38 24322. undefined 754.64 1071.0 2.3831 530.00 0.0018868 754.64 1071.0 2.3831 2.6497 3.0829 1315.7 -0.0045966 128.72 0.14432 530.00 0.0018868 754.64 1071.0 2.3831 2.6497 3.0829 1315.7 -0.0045966 128.72 0.14432
263.38 24406. undefined 757.29 1074.8 2.3881 530.00 0.0018868 757.29 1074.8 2.3881 2.6534 3.0859 1316.8 -0.0045945 128.74 0.14450 530.00 0.0018868 757.29 1074.8 2.3881 2.6534 3.0859 1316.8 -0.0045945 128.74 0.14450
264.38 24490. undefined 759.94 1078.5 2.3930 530.00 0.0018868 759.94 1078.5 2.3930 2.6570 3.0889 1318.0 -0.0045924 128.75 0.14469 530.00 0.0018868 759.94 1078.5 2.3930 2.6570 3.0889 1318.0 -0.0045924 128.75 0.14469
265.38 24574. undefined 762.60 1082.3 2.3980 530.00 0.0018868 762.60 1082.3 2.3980 2.6606 3.0920 1319.1 -0.0045903 128.77 0.14487 530.00 0.0018868 762.60 1082.3 2.3980 2.6606 3.0920 1319.1 -0.0045903 128.77 0.14487
266.38 24658. undefined 765.27 1086.0 2.4029 530.00 0.0018868 765.27 1086.0 2.4029 2.6642 3.0950 1320.2 -0.0045882 128.78 0.14505 530.00 0.0018868 765.27 1086.0 2.4029 2.6642 3.0950 1320.2 -0.0045882 128.78 0.14505
267.38 24743. undefined 767.93 1089.8 2.4079 530.00 0.0018868 767.93 1089.8 2.4079 2.6679 3.0980 1321.3 -0.0045860 128.79 0.14524 530.00 0.0018868 767.93 1089.8 2.4079 2.6679 3.0980 1321.3 -0.0045860 128.79 0.14524
268.38 24827. undefined 770.60 1093.6 2.4128 530.00 0.0018868 770.60 1093.6 2.4128 2.6715 3.1010 1322.4 -0.0045839 128.81 0.14542 530.00 0.0018868 770.60 1093.6 2.4128 2.6715 3.1010 1322.4 -0.0045839 128.81 0.14542
269.38 24911. undefined 773.28 1097.3 2.4177 530.00 0.0018868 773.28 1097.3 2.4177 2.6751 3.1040 1323.5 -0.0045818 128.82 0.14561 530.00 0.0018868 773.28 1097.3 2.4177 2.6751 3.1040 1323.5 -0.0045818 128.82 0.14561
270.38 24995. undefined 775.95 1101.1 2.4227 530.00 0.0018868 775.95 1101.1 2.4227 2.6787 3.1070 1324.6 -0.0045797 128.84 0.14579 530.00 0.0018868 775.95 1101.1 2.4227 2.6787 3.1070 1324.6 -0.0045797 128.84 0.14579
271.38 25078. undefined 778.63 1104.9 2.4276 530.00 0.0018868 778.63 1104.9 2.4276 2.6823 3.1100 1325.6 -0.0045775 128.85 0.14597 530.00 0.0018868 778.63 1104.9 2.4276 2.6823 3.1100 1325.6 -0.0045775 128.85 0.14597
272.38 25162. undefined 781.32 1108.7 2.4325 530.00 0.0018868 781.32 1108.7 2.4325 2.6859 3.1130 1326.7 -0.0045754 128.87 0.14616 530.00 0.0018868 781.32 1108.7 2.4325 2.6859 3.1130 1326.7 -0.0045754 128.87 0.14616
273.38 25246. undefined 784.00 1112.4 2.4374 530.00 0.0018868 784.00 1112.4 2.4374 2.6894 3.1160 1327.8 -0.0045732 128.88 0.14634 530.00 0.0018868 784.00 1112.4 2.4374 2.6894 3.1160 1327.8 -0.0045732 128.88 0.14634
274.38 25330. undefined 786.70 1116.2 2.4423 530.00 0.0018868 786.70 1116.2 2.4423 2.6930 3.1191 1328.9 -0.0045711 128.89 0.14653 530.00 0.0018868 786.70 1116.2 2.4423 2.6930 3.1191 1328.9 -0.0045711 128.89 0.14653
275.38 25414. undefined 789.39 1120.0 2.4473 530.00 0.0018868 789.39 1120.0 2.4473 2.6966 3.1220 1330.0 -0.0045690 128.91 0.14672 530.00 0.0018868 789.39 1120.0 2.4473 2.6966 3.1220 1330.0 -0.0045690 128.91 0.14672
276.38 25497. undefined 792.09 1123.8 2.4522 530.00 0.0018868 792.09 1123.8 2.4522 2.7002 3.1250 1331.1 -0.0045668 128.92 0.14690 530.00 0.0018868 792.09 1123.8 2.4522 2.7002 3.1250 1331.1 -0.0045668 128.92 0.14690
277.38 25581. undefined 794.79 1127.6 2.4571 530.00 0.0018868 794.79 1127.6 2.4571 2.7037 3.1280 1332.2 -0.0045646 128.94 0.14709 530.00 0.0018868 794.79 1127.6 2.4571 2.7037 3.1280 1332.2 -0.0045646 128.94 0.14709
278.38 25664. undefined 797.50 1131.4 2.4620 530.00 0.0018868 797.50 1131.4 2.4620 2.7073 3.1310 1333.3 -0.0045625 128.95 0.14728 530.00 0.0018868 797.50 1131.4 2.4620 2.7073 3.1310 1333.3 -0.0045625 128.95 0.14728
279.38 25748. undefined 800.21 1135.2 2.4669 530.00 0.0018868 800.21 1135.2 2.4669 2.7108 3.1340 1334.3 -0.0045603 128.97 0.14746 530.00 0.0018868 800.21 1135.2 2.4669 2.7108 3.1340 1334.3 -0.0045603 128.97 0.14746
280.38 25831. undefined 802.92 1139.0 2.4718 530.00 0.0018868 802.92 1139.0 2.4718 2.7144 3.1370 1335.4 -0.0045581 128.98 0.14765 530.00 0.0018868 802.92 1139.0 2.4718 2.7144 3.1370 1335.4 -0.0045581 128.98 0.14765
281.38 25915. undefined 805.63 1142.8 2.4767 530.00 0.0018868 805.63 1142.8 2.4767 2.7179 3.1400 1336.5 -0.0045560 129.00 0.14784 530.00 0.0018868 805.63 1142.8 2.4767 2.7179 3.1400 1336.5 -0.0045560 129.00 0.14784
282.38 25998. undefined 808.35 1146.6 2.4816 530.00 0.0018868 808.35 1146.6 2.4816 2.7215 3.1430 1337.6 -0.0045538 129.01 0.14775 530.00 0.0018868 808.35 1146.6 2.4816 2.7215 3.1430 1337.6 -0.0045538 129.01 0.14775
283.38 26081. undefined 811.08 1150.4 2.4865 530.00 0.0018868 811.08 1150.4 2.4865 2.7250 3.1459 1338.6 -0.0045516 129.03 0.14794 530.00 0.0018868 811.08 1150.4 2.4865 2.7250 3.1459 1338.6 -0.0045516 129.03 0.14794
284.38 26165. undefined 813.80 1154.2 2.4914 530.00 0.0018868 813.80 1154.2 2.4914 2.7285 3.1489 1339.7 -0.0045494 129.04 0.14813 530.00 0.0018868 813.80 1154.2 2.4914 2.7285 3.1489 1339.7 -0.0045494 129.04 0.14813
285.38 26248. undefined 816.53 1158.0 2.4963 530.00 0.0018868 816.53 1158.0 2.4963 2.7320 3.1519 1340.8 -0.0045472 129.05 0.14832 530.00 0.0018868 816.53 1158.0 2.4963 2.7320 3.1519 1340.8 -0.0045472 129.05 0.14832
286.38 26331. undefined 819.27 1161.8 2.5012 530.00 0.0018868 819.27 1161.8 2.5012 2.7356 3.1549 1341.8 -0.0045451 129.07 0.14851 530.00 0.0018868 819.27 1161.8 2.5012 2.7356 3.1549 1341.8 -0.0045451 129.07 0.14851
287.38 26414. undefined 822.01 1165.6 2.5061 530.00 0.0018868 822.01 1165.6 2.5061 2.7391 3.1578 1342.9 -0.0045429 129.08 0.14869 530.00 0.0018868 822.01 1165.6 2.5061 2.7391 3.1578 1342.9 -0.0045429 129.08 0.14869
288.38 26497. undefined 824.75 1169.4 2.5110 530.00 0.0018868 824.75 1169.4 2.5110 2.7426 3.1608 1344.0 -0.0045407 129.10 0.14888 530.00 0.0018868 824.75 1169.4 2.5110 2.7426 3.1608 1344.0 -0.0045407 129.10 0.14888
289.38 26580. undefined 827.49 1173.3 2.5158 530.00 0.0018868 827.49 1173.3 2.5158 2.7461 3.1637 1345.0 -0.0045385 129.11 0.14907 530.00 0.0018868 827.49 1173.3 2.5158 2.7461 3.1637 1345.0 -0.0045385 129.11 0.14907
290.38 26663. undefined 830.24 1177.1 2.5207 530.00 0.0018868 830.24 1177.1 2.5207 2.7496 3.1667 1346.1 -0.0045363 129.13 0.14926 530.00 0.0018868 830.24 1177.1 2.5207 2.7496 3.1667 1346.1 -0.0045363 129.13 0.14926
291.38 26746. undefined 832.99 1180.9 2.5256 530.00 0.0018868 832.99 1180.9 2.5256 2.7531 3.1697 1347.1 -0.0045341 129.14 0.14945 530.00 0.0018868 832.99 1180.9 2.5256 2.7531 3.1697 1347.1 -0.0045341 129.14 0.14945
292.38 26829. undefined 835.74 1184.8 2.5305 530.00 0.0018868 835.74 1184.8 2.5305 2.7566 3.1726 1348.2 -0.0045319 129.16 0.14964 530.00 0.0018868 835.74 1184.8 2.5305 2.7566 3.1726 1348.2 -0.0045319 129.16 0.14964
293.38 26912. undefined 838.50 1188.6 2.5354 530.00 0.0018868 838.50 1188.6 2.5354 2.7601 3.1756 1349.3 -0.0045297 129.17 0.14983 530.00 0.0018868 838.50 1188.6 2.5354 2.7601 3.1756 1349.3 -0.0045297 129.17 0.14983
294.38 26995. undefined 841.26 1192.4 2.5402 530.00 0.0018868 841.26 1192.4 2.5402 2.7635 3.1785 1350.3 -0.0045275 129.19 0.15002 530.00 0.0018868 841.26 1192.4 2.5402 2.7635 3.1785 1350.3 -0.0045275 129.19 0.15002
295.38 27077. undefined 844.03 1196.3 2.5451 530.00 0.0018868 844.03 1196.3 2.5451 2.7670 3.1815 1351.4 -0.0045253 129.20 0.15021 530.00 0.0018868 844.03 1196.3 2.5451 2.7670 3.1815 1351.4 -0.0045253 129.20 0.15021
296.38 27160. undefined 846.80 1200.1 2.5500 530.00 0.0018868 846.80 1200.1 2.5500 2.7705 3.1844 1352.4 -0.0045230 129.22 0.15041 530.00 0.0018868 846.80 1200.1 2.5500 2.7705 3.1844 1352.4 -0.0045230 129.22 0.15041
297.38 27243. undefined 849.57 1204.0 2.5548 530.00 0.0018868 849.57 1204.0 2.5548 2.7739 3.1873 1353.5 -0.0045208 129.23 0.15060 530.00 0.0018868 849.57 1204.0 2.5548 2.7739 3.1873 1353.5 -0.0045208 129.23 0.15060
298.38 27325. undefined 852.35 1207.8 2.5597 530.00 0.0018868 852.35 1207.8 2.5597 2.7774 3.1903 1354.5 -0.0045186 129.24 0.15079 530.00 0.0018868 852.35 1207.8 2.5597 2.7774 3.1903 1354.5 -0.0045186 129.24 0.15079
299.38 27408. undefined 855.13 1211.7 2.5645 530.00 0.0018868 855.13 1211.7 2.5645 2.7808 3.1932 1355.5 -0.0045164 129.26 0.15098 530.00 0.0018868 855.13 1211.7 2.5645 2.7808 3.1932 1355.5 -0.0045164 129.26 0.15098
300.38 27490. undefined 857.91 1215.5 2.5694 530.00 0.0018868 857.91 1215.5 2.5694 2.7843 3.1961 1356.6 -0.0045142 129.27 0.15117 530.00 0.0018868 857.91 1215.5 2.5694 2.7843 3.1961 1356.6 -0.0045142 129.27 0.15117