Temperature (C) Pressure (psia) Quality (l+v) Internal Energy (l+v, kJ/kg) Enthalpy (l+v, kJ/kg) Entropy (l+v, J/g*K) Density (l, kg/m3) Volume (l, m3/kg) Internal Energy (l, kJ/kg) Enthalpy (l, kJ/kg) Entropy (l, J/g*K) Cv (l, J/g*K) Cp (l, J/g*K) Sound Spd. (l, m/s) Joule-Thomson (l, F/psia) Viscosity (l, uPa*s) Therm. Cond. (l, W/m*K) Density (v, kg/m3) Volume (v, m3/kg) Internal Energy (v, kJ/kg) Enthalpy (v, kJ/kg) Entropy (v, J/g*K) Cv (v, J/g*K) Cp (v, J/g*K) Sound Spd. (v, m/s) Joule-Thomson (v, F/psia) Viscosity (v, uPa*s) Therm. Cond. (v, W/m*K)
-187.62 2.4953e-08 5.2045e-12 -196.64 -196.64 -1.3959 733.13 0.0013640 -196.64 -196.64 -1.3959 1.3553 1.9158 2136.4 -0.0077592 10960. 0.20792 1.0669e-08 9.3732e+07 350.13 366.26 5.1858 0.69067 0.87923 143.28 6.1051 2.3259 0.0017061
-186.62 3.7339e-08 7.6672e-12 -194.73 -194.73 -1.3736 732.08 0.0013660 -194.73 -194.73 -1.3736 1.3539 1.9166 2129.6 -0.0077546 10073. 0.20765 1.5780e-08 6.3371e+07 350.82 367.14 5.1200 0.69462 0.88317 144.03 5.9178 2.3534 0.0017533
-185.62 5.5322e-08 1.1185e-11 -192.81 -192.81 -1.3516 731.04 0.0013679 -192.81 -192.81 -1.3516 1.3525 1.9174 2122.9 -0.0077498 9276.1 0.20737 2.3112e-08 4.3267e+07 351.52 368.02 5.0561 0.69857 0.88713 144.77 5.7383 2.3808 0.0018007
-184.62 8.1182e-08 1.6163e-11 -190.89 -190.89 -1.3298 730.00 0.0013699 -190.89 -190.89 -1.3298 1.3513 1.9182 2116.1 -0.0077448 8557.8 0.20708 3.3533e-08 2.9821e+07 352.22 368.91 4.9939 0.70253 0.89108 145.51 5.5662 2.4083 0.0018485
-183.62 1.1803e-07 2.3143e-11 -188.97 -188.97 -1.3083 728.96 0.0013718 -188.97 -188.97 -1.3083 1.3501 1.9191 2109.3 -0.0077395 7909.8 0.20678 4.8211e-08 2.0742e+07 352.92 369.81 4.9333 0.70648 0.89504 146.24 5.4011 2.4357 0.0018965
-182.62 1.7009e-07 3.2846e-11 -187.05 -187.05 -1.2869 727.92 0.0013738 -187.05 -187.05 -1.2869 1.3490 1.9201 2102.5 -0.0077340 7324.3 0.20647 6.8704e-08 1.4555e+07 353.63 370.70 4.8744 0.71043 0.89899 146.97 5.2426 2.4632 0.0019448
-181.62 2.4299e-07 4.6221e-11 -185.13 -185.13 -1.2658 726.88 0.0013757 -185.13 -185.13 -1.2658 1.3480 1.9210 2095.7 -0.0077283 6794.5 0.20616 9.7079e-08 1.0301e+07 354.35 371.60 4.8170 0.71438 0.90294 147.69 5.0904 2.4906 0.0019934
-180.62 3.4425e-07 6.4508e-11 -183.21 -183.21 -1.2450 725.85 0.0013777 -183.21 -183.21 -1.2450 1.3470 1.9220 2088.9 -0.0077225 6314.4 0.20584 1.3605e-07 7.3504e+06 355.06 372.51 4.7612 0.71833 0.90688 148.41 4.9442 2.5181 0.0020423
-179.62 4.8378e-07 8.9314e-11 -181.29 -181.29 -1.2243 724.81 0.0013797 -181.29 -181.29 -1.2243 1.3461 1.9231 2082.0 -0.0077164 5878.8 0.20551 1.8915e-07 5.2868e+06 355.78 373.42 4.7068 0.72227 0.91082 149.13 4.8038 2.5456 0.0020915
-178.62 6.7459e-07 1.2271e-10 -179.37 -179.37 -1.2038 723.78 0.0013816 -179.37 -179.37 -1.2038 1.3453 1.9241 2075.2 -0.0077102 5482.9 0.20517 2.6096e-07 3.8320e+06 356.51 374.33 4.6538 0.72620 0.91475 149.84 4.6688 2.5731 0.0021410
-177.62 9.3358e-07 1.6734e-10 -177.44 -177.44 -1.1836 722.75 0.0013836 -177.44 -177.44 -1.1836 1.3445 1.9252 2068.4 -0.0077039 5122.6 0.20483 3.5737e-07 2.7982e+06 357.23 375.25 4.6022 0.73012 0.91867 150.54 4.5390 2.6005 0.0021907
-176.62 1.2826e-06 2.2655e-10 -175.52 -175.52 -1.1635 721.72 0.0013856 -175.52 -175.52 -1.1635 1.3437 1.9263 2061.5 -0.0076973 4794.1 0.20447 4.8588e-07 2.0581e+06 357.97 376.17 4.5519 0.73403 0.92258 151.25 4.4142 2.6280 0.0022408
-175.62 1.7496e-06 3.0458e-10 -173.59 -173.59 -1.1437 720.69 0.0013876 -173.59 -173.59 -1.1437 1.3430 1.9274 2054.7 -0.0076907 4494.3 0.20411 6.5601e-07 1.5244e+06 358.70 377.09 4.5029 0.73792 0.92648 151.95 4.2941 2.6555 0.0022912
-174.62 2.3705e-06 4.0672e-10 -171.66 -171.66 -1.1240 719.66 0.0013895 -171.66 -171.66 -1.1240 1.3423 1.9286 2047.9 -0.0076838 4220.2 0.20375 8.7976e-07 1.1367e+06 359.44 378.02 4.4551 0.74181 0.93036 152.64 4.1784 2.6830 0.0023418
-173.62 3.1903e-06 5.3956e-10 -169.73 -169.73 -1.1045 718.64 0.0013915 -169.73 -169.73 -1.1045 1.3417 1.9298 2041.0 -0.0076769 3969.3 0.20338 1.1721e-06 8.5314e+05 360.19 378.95 4.4085 0.74568 0.93423 153.33 4.0671 2.7105 0.0023928
-172.62 4.2661e-06 7.1125e-10 -167.80 -167.80 -1.0852 717.61 0.0013935 -167.80 -167.80 -1.0852 1.3411 1.9310 2034.2 -0.0076698 3739.3 0.20300 1.5518e-06 6.4441e+05 360.93 379.89 4.3631 0.74953 0.93809 154.02 3.9599 2.7379 0.0024440
-171.62 5.6692e-06 9.3180e-10 -165.87 -165.87 -1.0661 716.58 0.0013955 -165.87 -165.87 -1.0661 1.3405 1.9322 2027.3 -0.0076625 3528.0 0.20261 2.0419e-06 4.8974e+05 361.69 380.83 4.3188 0.75337 0.94193 154.71 3.8566 2.7654 0.0024955
-170.62 7.4884e-06 1.2135e-09 -163.94 -163.94 -1.0472 715.56 0.0013975 -163.94 -163.94 -1.0472 1.3400 1.9334 2020.5 -0.0076552 3333.8 0.20222 2.6708e-06 3.7442e+05 362.44 381.77 4.2755 0.75720 0.94575 155.39 3.7570 2.7929 0.0025473
-169.62 9.8334e-06 1.5711e-09 -162.00 -162.00 -1.0284 714.54 0.0013995 -162.00 -162.00 -1.0284 1.3395 1.9347 2013.6 -0.0076477 3154.9 0.20182 3.4733e-06 2.8791e+05 363.20 382.72 4.2334 0.76100 0.94956 156.07 3.6609 2.8204 0.0025994
-168.62 1.2839e-05 2.0228e-09 -160.07 -160.07 -1.0098 713.52 0.0014015 -160.07 -160.07 -1.0098 1.3390 1.9359 2006.8 -0.0076401 2989.9 0.20141 4.4917e-06 2.2263e+05 363.96 383.67 4.1922 0.76479 0.95335 156.74 3.5683 2.8479 0.0026518
-167.62 1.6672e-05 2.5901e-09 -158.13 -158.13 -0.99134 712.49 0.0014035 -158.13 -158.13 -0.99134 1.3386 1.9372 2000.0 -0.0076323 2837.5 0.20100 5.7771e-06 1.7310e+05 364.73 384.63 4.1521 0.76856 0.95712 157.41 3.4790 2.8754 0.0027045
-166.62 2.1533e-05 3.2989e-09 -156.19 -156.19 -0.97306 711.47 0.0014055 -156.19 -156.19 -0.97306 1.3382 1.9385 1993.1 -0.0076245 2696.5 0.20058 7.3914e-06 1.3529e+05 365.50 385.59 4.1129 0.77232 0.96087 158.08 3.3927 2.9029 0.0027575
-165.62 2.7666e-05 4.1802e-09 -154.25 -154.25 -0.95494 710.45 0.0014075 -154.25 -154.25 -0.95494 1.3378 1.9398 1986.3 -0.0076165 2566.0 0.20016 9.4084e-06 1.0629e+05 366.27 386.55 4.0746 0.77605 0.96460 158.75 3.3095 2.9304 0.0028108
-164.62 3.5367e-05 5.2704e-09 -152.31 -152.31 -0.93698 709.44 0.0014096 -152.31 -152.31 -0.93698 1.3375 1.9411 1979.4 -0.0076084 2444.9 0.19973 1.1916e-05 83918. 367.05 387.52 4.0372 0.77976 0.96832 159.41 3.2291 2.9579 0.0028643
-163.62 4.4989e-05 6.6127e-09 -150.37 -150.37 -0.91917 708.42 0.0014116 -150.37 -150.37 -0.91917 1.3371 1.9424 1972.6 -0.0076002 2332.3 0.19930 1.5020e-05 66577. 367.83 388.49 4.0008 0.78346 0.97201 160.07 3.1514 2.9854 0.0029182
-162.62 5.6956e-05 8.2577e-09 -148.43 -148.43 -0.90151 707.40 0.0014136 -148.43 -148.43 -0.90151 1.3368 1.9437 1965.8 -0.0075919 2227.7 0.19886 1.8844e-05 53068. 368.62 389.46 3.9651 0.78713 0.97569 160.72 3.0764 3.0129 0.0029723
-161.62 7.1773e-05 1.0265e-08 -146.48 -146.48 -0.88400 706.38 0.0014157 -146.48 -146.48 -0.88400 1.3365 1.9451 1959.0 -0.0075834 2130.2 0.19841 2.3533e-05 42494. 369.41 390.44 3.9304 0.79079 0.97935 161.38 3.0038 3.0404 0.0030268
-160.62 9.0036e-05 1.2703e-08 -144.54 -144.54 -0.86663 705.37 0.0014177 -144.54 -144.54 -0.86663 1.3363 1.9465 1952.1 -0.0075748 2039.2 0.19796 2.9258e-05 34178. 370.20 391.42 3.8964 0.79443 0.98298 162.03 2.9337 3.0679 0.0030815
-159.62 0.00011245 1.5651e-08 -142.59 -142.59 -0.84940 704.35 0.0014197 -142.59 -142.59 -0.84940 1.3360 1.9478 1945.3 -0.0075661 1954.2 0.19751 3.6221e-05 27609. 371.00 392.40 3.8632 0.79805 0.98660 162.68 2.8658 3.0955 0.0031365
-158.62 0.00013985 1.9203e-08 -140.64 -140.64 -0.83231 703.34 0.0014218 -140.64 -140.64 -0.83231 1.3358 1.9492 1938.5 -0.0075573 1874.8 0.19705 4.4652e-05 22395. 371.80 393.39 3.8307 0.80164 0.99020 163.32 2.8002 3.1230 0.0031918
-157.62 0.00017320 2.3464e-08 -138.69 -138.69 -0.81536 702.32 0.0014238 -138.69 -138.69 -0.81536 1.3356 1.9506 1931.7 -0.0075484 1800.3 0.19658 5.4822e-05 18241. 372.60 394.38 3.7990 0.80522 0.99378 163.96 2.7367 3.1505 0.0032474
-156.62 0.00021364 2.8556e-08 -136.74 -136.74 -0.79854 701.31 0.0014259 -136.74 -136.74 -0.79854 1.3354 1.9520 1924.9 -0.0075393 1730.5 0.19611 6.7040e-05 14916. 373.41 395.38 3.7680 0.80878 0.99734 164.60 2.6752 3.1780 0.0033033
-155.62 0.00026248 3.4617e-08 -134.79 -134.79 -0.78185 700.30 0.0014280 -134.79 -134.79 -0.78185 1.3352 1.9534 1918.1 -0.0075302 1664.9 0.19564 8.1666e-05 12245. 374.22 396.38 3.7377 0.81232 1.0009 165.24 2.6157 3.2055 0.0033595
-154.62 0.00032125 4.1806e-08 -132.83 -132.83 -0.76530 699.29 0.0014300 -132.83 -132.83 -0.76530 1.3350 1.9548 1911.3 -0.0075209 1603.3 0.19516 9.9109e-05 10090. 375.03 397.38 3.7081 0.81585 1.0044 165.87 2.5580 3.2330 0.0034160
-153.62 0.00039171 5.0302e-08 -130.88 -130.88 -0.74887 698.27 0.0014321 -130.88 -130.88 -0.74887 1.3349 1.9563 1904.5 -0.0075114 1545.3 0.19468 0.00011984 8344.6 375.85 398.39 3.6792 0.81935 1.0079 166.50 2.5022 3.2606 0.0034727
-152.62 0.00047590 6.0305e-08 -128.92 -128.92 -0.73256 697.26 0.0014342 -128.92 -128.92 -0.73256 1.3348 1.9577 1897.8 -0.0075019 1490.6 0.19419 0.00014439 6925.9 376.67 399.40 3.6509 0.82284 1.0114 167.13 2.4481 3.2881 0.0035298
-151.62 0.00057613 7.2045e-08 -126.96 -126.96 -0.71638 696.25 0.0014363 -126.96 -126.96 -0.71638 1.3346 1.9592 1891.0 -0.0074922 1438.9 0.19370 0.00017336 5768.4 377.49 400.41 3.6232 0.82631 1.0149 167.76 2.3957 3.3156 0.0035872
-150.62 0.00069507 8.5775e-08 -125.00 -125.00 -0.70032 695.24 0.0014384 -125.00 -125.00 -0.70032 1.3345 1.9606 1884.2 -0.0074824 1390.2 0.19320 0.00020744 4820.7 378.32 401.42 3.5962 0.82976 1.0183 168.38 2.3448 3.3431 0.0036448
-149.62 0.00083574 1.0178e-07 -123.04 -123.04 -0.68438 694.23 0.0014404 -123.04 -123.04 -0.68438 1.3345 1.9621 1877.4 -0.0074724 1344.0 0.19270 0.00024740 4042.0 379.15 402.44 3.5697 0.83319 1.0218 169.00 2.2956 3.3706 0.0037027
-148.62 0.0010016 1.2038e-07 -121.08 -121.08 -0.66855 693.22 0.0014425 -121.08 -121.08 -0.66855 1.3344 1.9636 1870.7 -0.0074623 1300.3 0.19220 0.00029412 3400.0 379.99 403.47 3.5438 0.83661 1.0252 169.62 2.2478 3.3982 0.0037610
-147.62 0.0011965 1.4193e-07 -119.11 -119.11 -0.65284 692.21 0.0014447 -119.11 -119.11 -0.65284 1.3343 1.9651 1863.9 -0.0074521 1258.9 0.19169 0.00034856 2869.0 380.83 404.49 3.5185 0.84001 1.0286 170.24 2.2014 3.4257 0.0038195
-146.62 0.0014249 1.6682e-07 -117.15 -117.15 -0.63724 691.20 0.0014468 -117.15 -117.15 -0.63724 1.3343 1.9666 1857.2 -0.0074417 1219.6 0.19117 0.00041181 2428.3 381.67 405.52 3.4938 0.84340 1.0320 170.85 2.1565 3.4532 0.0038783
-145.62 0.0016917 1.9548e-07 -115.18 -115.18 -0.62175 690.19 0.0014489 -115.18 -115.18 -0.62175 1.3343 1.9682 1850.4 -0.0074312 1182.3 0.19066 0.00048510 2061.4 382.51 406.56 3.4695 0.84677 1.0353 171.46 2.1128 3.4807 0.0039374
-144.62 0.0020026 2.2839e-07 -113.21 -113.21 -0.60637 689.18 0.0014510 -113.21 -113.21 -0.60637 1.3343 1.9697 1843.7 -0.0074206 1146.8 0.19014 0.00056976 1755.1 383.36 407.59 3.4458 0.85012 1.0387 172.07 2.0705 3.5082 0.0039967
-143.62 0.0023637 2.6607e-07 -111.24 -111.24 -0.59110 688.17 0.0014531 -111.24 -111.24 -0.59110 1.3343 1.9713 1836.9 -0.0074098 1113.0 0.18962 0.00066731 1498.6 384.21 408.63 3.4226 0.85346 1.0420 172.68 2.0294 3.5358 0.0040564
-142.62 0.0027820 3.0909e-07 -109.27 -109.27 -0.57593 687.16 0.0014553 -109.27 -109.27 -0.57593 1.3343 1.9728 1830.2 -0.0073988 1080.8 0.18909 0.00077939 1283.1 385.07 409.68 3.3999 0.85679 1.0454 173.28 1.9896 3.5633 0.0041164
-141.62 0.0032653 3.5809e-07 -107.30 -107.30 -0.56087 686.15 0.0014574 -107.30 -107.30 -0.56087 1.3343 1.9744 1823.5 -0.0073878 1050.1 0.18856 0.00090784 1101.5 385.93 410.72 3.3777 0.86011 1.0487 173.88 1.9508 3.5908 0.0041766
-140.62 0.0038222 4.1374e-07 -105.32 -105.32 -0.54591 685.14 0.0014596 -105.32 -105.32 -0.54591 1.3344 1.9760 1816.7 -0.0073765 1020.7 0.18803 0.0010547 948.16 386.79 411.77 3.3560 0.86341 1.0520 174.48 1.9133 3.6183 0.0042372
-139.62 0.0044623 4.7679e-07 -103.34 -103.34 -0.53105 684.13 0.0014617 -103.34 -103.34 -0.53105 1.3344 1.9776 1810.0 -0.0073651 992.74 0.18749 0.0012221 818.26 387.65 412.83 3.3347 0.86670 1.0553 175.08 1.8768 3.6459 0.0042980
-138.62 0.0051963 5.4804e-07 -101.37 -101.37 -0.51628 683.12 0.0014639 -101.37 -101.37 -0.51629 1.3345 1.9792 1803.3 -0.0073536 965.97 0.18695 0.0014125 707.94 388.52 413.88 3.3139 0.86998 1.0586 175.67 1.8413 3.6734 0.0043592
-137.62 0.0060358 6.2835e-07 -99.386 -99.386 -0.50162 682.11 0.0014660 -99.386 -99.386 -0.50162 1.3346 1.9808 1796.6 -0.0073419 940.35 0.18641 0.0016287 614.00 389.39 414.94 3.2935 0.87325 1.0619 176.26 1.8069 3.7009 0.0044206
-136.62 0.0069938 7.1868e-07 -97.404 -97.404 -0.48705 681.10 0.0014682 -97.404 -97.404 -0.48705 1.3347 1.9825 1789.9 -0.0073301 915.81 0.18586 0.0018733 533.80 390.26 416.00 3.2735 0.87650 1.0651 176.85 1.7734 3.7284 0.0044823
-135.62 0.0080843 8.2003e-07 -95.421 -95.421 -0.47258 680.09 0.0014704 -95.421 -95.421 -0.47258 1.3348 1.9841 1783.2 -0.0073180 892.30 0.18531 0.0021497 465.17 391.14 417.07 3.2540 0.87975 1.0684 177.44 1.7409 3.7559 0.0045443
-134.62 0.0093230 9.3348e-07 -93.436 -93.436 -0.45819 679.08 0.0014726 -93.436 -93.436 -0.45820 1.3350 1.9858 1776.5 -0.0073059 869.75 0.18476 0.0024613 406.30 392.02 418.14 3.2348 0.88299 1.0716 178.02 1.7093 3.7834 0.0046066
-133.62 0.010727 1.0602e-06 -91.449 -91.449 -0.44390 678.07 0.0014748 -91.450 -91.449 -0.44391 1.3351 1.9875 1769.8 -0.0072935 848.11 0.18421 0.0028116 355.67 392.91 419.21 3.2161 0.88622 1.0749 178.61 1.6786 3.8109 0.0046691
-132.62 0.012315 1.2014e-06 -89.461 -89.460 -0.42970 677.06 0.0014770 -89.461 -89.461 -0.42971 1.3353 1.9892 1763.1 -0.0072810 827.32 0.18365 0.0032049 312.03 393.79 420.29 3.1977 0.88944 1.0781 179.19 1.6488 3.8385 0.0047320
-131.62 0.014106 1.3584e-06 -87.470 -87.470 -0.41559 676.04 0.0014792 -87.471 -87.471 -0.41560 1.3354 1.9909 1756.4 -0.0072684 807.34 0.18309 0.0036453 274.33 394.68 421.36 3.1798 0.89266 1.0813 179.76 1.6197 3.8660 0.0047951
-130.62 0.016124 1.5327e-06 -85.479 -85.478 -0.40157 675.03 0.0014814 -85.479 -85.479 -0.40157 1.3356 1.9926 1749.7 -0.0072555 788.12 0.18253 0.0041375 241.69 395.58 422.44 3.1622 0.89586 1.0846 180.34 1.5915 3.8935 0.0048586
-129.62 0.018392 1.7257e-06 -83.485 -83.485 -0.38763 674.02 0.0014836 -83.486 -83.486 -0.38763 1.3358 1.9944 1743.0 -0.0072425 769.63 0.18196 0.0046867 213.37 396.47 423.53 3.1450 0.89906 1.0878 180.91 1.5641 3.9210 0.0049223
-128.62 0.020935 1.9390e-06 -81.490 -81.489 -0.37377 673.01 0.0014859 -81.491 -81.490 -0.37378 1.3360 1.9961 1736.3 -0.0072294 751.83 0.18140 0.0052981 188.75 397.37 424.62 3.1281 0.90226 1.0910 181.48 1.5374 3.9485 0.0049863
-127.62 0.023783 2.1743e-06 -79.493 -79.492 -0.36000 672.00 0.0014881 -79.494 -79.493 -0.36001 1.3363 1.9979 1729.6 -0.0072160 734.67 0.18083 0.0059776 167.29 398.27 425.71 3.1116 0.90545 1.0942 182.05 1.5114 3.9760 0.0050506
-126.62 0.026966 2.4334e-06 -77.494 -77.493 -0.34631 670.98 0.0014904 -77.495 -77.495 -0.34632 1.3365 1.9997 1722.9 -0.0072025 718.14 0.18025 0.0067313 148.56 399.18 426.80 3.0954 0.90863 1.0974 182.62 1.4861 4.0035 0.0051152
-125.62 0.030515 2.7181e-06 -75.493 -75.493 -0.33271 669.97 0.0014926 -75.494 -75.494 -0.33272 1.3368 2.0015 1716.2 -0.0071888 702.18 0.17968 0.0075660 132.17 400.09 427.89 3.0795 0.91181 1.1006 183.18 1.4615 4.0310 0.0051800
-124.62 0.034467 3.0303e-06 -73.490 -73.490 -0.31918 668.95 0.0014949 -73.492 -73.492 -0.31919 1.3371 2.0033 1709.5 -0.0071749 686.79 0.17910 0.0084885 117.81 401.00 428.99 3.0640 0.91499 1.1038 183.74 1.4375 4.0584 0.0052452
-123.62 0.038859 3.3721e-06 -71.486 -71.486 -0.30573 667.94 0.0014971 -71.488 -71.487 -0.30574 1.3374 2.0051 1702.8 -0.0071609 671.93 0.17852 0.0095065 105.19 401.91 430.10 3.0488 0.91816 1.1070 184.30 1.4141 4.0859 0.0053106
-122.62 0.043731 3.7457e-06 -69.480 -69.479 -0.29236 666.92 0.0014994 -69.482 -69.481 -0.29237 1.3377 2.0070 1696.2 -0.0071466 657.57 0.17794 0.010628 94.092 402.83 431.20 3.0339 0.92134 1.1102 184.86 1.3913 4.1134 0.0053764
-121.62 0.049128 4.1532e-06 -67.472 -67.471 -0.27906 665.91 0.0015017 -67.474 -67.473 -0.27907 1.3380 2.0089 1689.5 -0.0071322 643.70 0.17736 0.011861 84.309 403.75 432.31 3.0193 0.92451 1.1134 185.41 1.3691 4.1409 0.0054424
-120.62 0.055096 4.5970e-06 -65.462 -65.461 -0.26584 664.89 0.0015040 -65.464 -65.463 -0.26585 1.3384 2.0107 1682.8 -0.0071176 630.28 0.17678 0.013215 75.669 404.67 433.42 3.0050 0.92767 1.1166 185.96 1.3475 4.1683 0.0055087
-119.62 0.061684 5.0796e-06 -63.450 -63.449 -0.25269 663.87 0.0015063 -63.452 -63.452 -0.25271 1.3387 2.0126 1676.1 -0.0071028 617.30 0.17619 0.014700 68.027 405.60 434.53 2.9909 0.93084 1.1198 186.51 1.3264 4.1958 0.0055752
-118.62 0.068946 5.6034e-06 -61.436 -61.435 -0.23962 662.86 0.0015086 -61.439 -61.438 -0.23963 1.3391 2.0146 1669.4 -0.0070878 604.74 0.17560 0.016325 61.255 406.53 435.64 2.9772 0.93401 1.1231 187.06 1.3058 4.2233 0.0056421
-117.62 0.076937 6.1711e-06 -59.420 -59.419 -0.22661 661.84 0.0015109 -59.423 -59.422 -0.22663 1.3395 2.0165 1662.8 -0.0070726 592.58 0.17501 0.018101 55.245 407.46 436.76 2.9638 0.93718 1.1263 187.60 1.2857 4.2507 0.0057092
-116.62 0.085718 6.7852e-06 -57.403 -57.401 -0.21368 660.82 0.0015133 -57.406 -57.405 -0.21370 1.3400 2.0184 1656.1 -0.0070573 580.80 0.17442 0.020040 49.901 408.39 437.88 2.9506 0.94035 1.1295 188.14 1.2660 4.2782 0.0057767
-115.62 0.095353 7.4487e-06 -55.383 -55.382 -0.20082 659.80 0.0015156 -55.386 -55.385 -0.20084 1.3404 2.0204 1649.4 -0.0070417 569.38 0.17383 0.022152 45.142 409.33 439.01 2.9377 0.94352 1.1327 188.68 1.2468 4.3056 0.0058444
-114.62 0.10591 8.1643e-06 -53.361 -53.360 -0.18802 658.78 0.0015180 -53.365 -53.364 -0.18805 1.3409 2.0224 1642.7 -0.0070260 558.32 0.17323 0.024451 40.898 410.27 440.13 2.9250 0.94669 1.1360 189.22 1.2281 4.3330 0.0059123
-113.62 0.11746 8.9350e-06 -51.337 -51.336 -0.17530 657.76 0.0015203 -51.342 -51.340 -0.17533 1.3413 2.0244 1636.0 -0.0070100 547.59 0.17264 0.026949 37.107 411.21 441.26 2.9126 0.94987 1.1392 189.75 1.2097 4.3604 0.0059806
-112.62 0.13008 9.7638e-06 -49.312 -49.310 -0.16264 656.73 0.0015227 -49.316 -49.315 -0.16267 1.3418 2.0264 1629.3 -0.0069938 537.18 0.17204 0.029661 33.715 412.16 442.39 2.9005 0.95305 1.1424 190.28 1.1918 4.3879 0.0060491
-111.62 0.14384 1.0654e-05 -47.284 -47.282 -0.15005 655.71 0.0015251 -47.289 -47.287 -0.15008 1.3424 2.0285 1622.7 -0.0069774 527.08 0.17144 0.032600 30.675 413.10 443.53 2.8885 0.95623 1.1457 190.81 1.1742 4.4153 0.0061180
-110.62 0.15884 1.1608e-05 -45.254 -45.252 -0.13752 654.69 0.0015274 -45.259 -45.258 -0.13755 1.3429 2.0305 1616.0 -0.0069609 517.28 0.17084 0.035781 27.948 414.06 444.66 2.8769 0.95942 1.1490 191.34 1.1570 4.4427 0.0061871
-109.62 0.17516 1.2630e-05 -43.222 -43.220 -0.12505 653.66 0.0015298 -43.228 -43.226 -0.12509 1.3435 2.0326 1609.3 -0.0069441 507.76 0.17024 0.039220 25.497 415.01 445.80 2.8654 0.96261 1.1522 191.86 1.1402 4.4701 0.0062564
-108.62 0.19290 1.3722e-05 -41.188 -41.185 -0.11265 652.64 0.0015322 -41.194 -41.192 -0.11269 1.3441 2.0347 1602.6 -0.0069271 498.51 0.16964 0.042933 23.292 415.96 446.94 2.8542 0.96581 1.1555 192.38 1.1236 4.4974 0.0063261
-107.62 0.21215 1.4889e-05 -39.152 -39.149 -0.10031 651.61 0.0015347 -39.158 -39.156 -0.10036 1.3447 2.0369 1595.9 -0.0069098 489.52 0.16903 0.046937 21.305 416.92 448.09 2.8433 0.96901 1.1588 192.90 1.1075 4.5248 0.0063960
-106.62 0.23301 1.6133e-05 -37.113 -37.110 -0.088035 650.58 0.0015371 -37.120 -37.118 -0.088082 1.3453 2.0390 1589.2 -0.0068924 480.79 0.16843 0.051250 19.512 417.88 449.23 2.8325 0.97222 1.1621 193.41 1.0916 4.5522 0.0064662
-105.62 0.25561 1.7458e-05 -35.073 -35.069 -0.075818 649.55 0.0015395 -35.080 -35.078 -0.075868 1.3460 2.0412 1582.6 -0.0068747 472.30 0.16782 0.055891 17.892 418.85 450.38 2.8220 0.97544 1.1655 193.93 1.0760 4.5795 0.0065367
-104.62 0.28004 1.8867e-05 -33.030 -33.026 -0.063660 648.52 0.0015420 -33.038 -33.035 -0.063714 1.3467 2.0434 1575.9 -0.0068569 464.04 0.16721 0.060878 16.426 419.81 451.53 2.8116 0.97867 1.1688 194.44 1.0608 4.6069 0.0066074
-103.62 0.30643 2.0363e-05 -30.985 -30.981 -0.051561 647.49 0.0015444 -30.994 -30.991 -0.051619 1.3474 2.0456 1569.2 -0.0068387 456.00 0.16660 0.066231 15.099 420.78 452.68 2.8015 0.98191 1.1722 194.94 1.0458 4.6342 0.0066785
-102.62 0.33490 2.1951e-05 -28.937 -28.933 -0.039520 646.46 0.0015469 -28.947 -28.944 -0.039582 1.3481 2.0478 1562.5 -0.0068204 448.18 0.16600 0.071971 13.894 421.75 453.84 2.7916 0.98516 1.1755 195.44 1.0310 4.6615 0.0067498
-101.62 0.36558 2.3633e-05 -26.888 -26.883 -0.027535 645.43 0.0015494 -26.898 -26.894 -0.027602 1.3489 2.0501 1555.8 -0.0068018 440.57 0.16539 0.078120 12.801 422.73 454.99 2.7818 0.98841 1.1789 195.95 1.0166 4.6888 0.0068213
-100.62 0.39862 2.5413e-05 -24.836 -24.831 -0.015607 644.39 0.0015519 -24.847 -24.843 -0.015678 1.3497 2.0524 1549.1 -0.0067830 433.16 0.16478 0.084699 11.807 423.70 456.15 2.7723 0.99168 1.1823 196.44 1.0024 4.7161 0.0068932
-99.625 0.43414 2.7294e-05 -22.782 -22.776 -0.0037347 643.36 0.0015544 -22.794 -22.789 -0.0038103 1.3505 2.0547 1542.4 -0.0067639 425.95 0.16416 0.091731 10.901 424.68 457.31 2.7630 0.99496 1.1858 196.94 0.98838 4.7434 0.0069653
-98.625 0.47230 2.9280e-05 -20.725 -20.719 0.0080831 642.32 0.0015569 -20.738 -20.733 0.0080027 1.3514 2.0570 1535.7 -0.0067447 418.92 0.16355 0.099240 10.077 425.66 458.48 2.7538 0.99825 1.1892 197.43 0.97464 4.7707 0.0070377
-97.625 0.51325 3.1373e-05 -18.666 -18.659 0.019847 641.28 0.0015594 -18.680 -18.674 0.019762 1.3522 2.0594 1529.0 -0.0067251 412.07 0.16294 0.10725 9.3239 426.65 459.64 2.7448 1.0016 1.1927 197.92 0.96112 4.7979 0.0071103
-96.625 0.55714 3.3578e-05 -16.605 -16.597 0.031558 640.24 0.0015619 -16.620 -16.614 0.031467 1.3531 2.0618 1522.3 -0.0067053 405.39 0.16233 0.11579 8.6365 427.63 460.81 2.7360 1.0049 1.1962 198.40 0.94783 4.8251 0.0071832
-95.625 0.60416 3.5897e-05 -14.541 -14.533 0.043216 639.20 0.0015645 -14.557 -14.550 0.043120 1.3540 2.0642 1515.7 -0.0066853 398.88 0.16171 0.12488 8.0078 428.62 461.98 2.7274 1.0082 1.1997 198.88 0.93475 4.8524 0.0072564
-94.625 0.65446 3.8333e-05 -12.474 -12.466 0.054823 638.16 0.0015670 -12.491 -12.484 0.054721 1.3550 2.0667 1509.0 -0.0066650 392.53 0.16110 0.13455 7.4323 429.61 463.15 2.7189 1.0116 1.2032 199.36 0.92188 4.8796 0.0073299
-93.625 0.70822 4.0890e-05 -10.406 -10.397 0.066379 637.12 0.0015696 -10.424 -10.416 0.066271 1.3560 2.0691 1502.3 -0.0066444 386.34 0.16048 0.14482 6.9050 430.60 464.32 2.7107 1.0149 1.2068 199.83 0.90921 4.9068 0.0074036
-92.625 0.76564 4.3570e-05 -8.3344 -8.3246 0.077885 636.07 0.0015722 -8.3535 -8.3452 0.077771 1.3570 2.0716 1495.6 -0.0066236 380.31 0.15987 0.15573 6.4212 431.60 465.49 2.7025 1.0183 1.2104 200.30 0.89673 4.9340 0.0074776
-91.625 0.82689 4.6376e-05 -6.2605 -6.2499 0.089341 635.02 0.0015747 -6.2808 -6.2719 0.089220 1.3580 2.0742 1488.9 -0.0066025 374.41 0.15925 0.16731 5.9769 432.59 466.67 2.6946 1.0217 1.2140 200.77 0.88445 4.9611 0.0075518
-90.625 0.89218 4.9310e-05 -4.1840 -4.1727 0.10075 633.98 0.0015773 -4.2056 -4.1959 0.10062 1.3591 2.0767 1482.2 -0.0065811 368.66 0.15864 0.17958 5.5685 433.59 467.84 2.6868 1.0251 1.2177 201.24 0.87236 4.9883 0.0076263
-89.625 0.96172 5.2376e-05 -2.1050 -2.0927 0.11211 632.93 0.0015800 -2.1279 -2.1174 0.11197 1.3602 2.0793 1475.5 -0.0065595 363.05 0.15802 0.19258 5.1928 434.59 469.02 2.6791 1.0285 1.2213 201.70 0.86045 5.0154 0.0077011
-88.625 1.0357 5.5576e-05 -0.023305 -0.010081 0.12342 631.88 0.0015826 -0.047516 -0.036215 0.12328 1.3613 2.0819 1468.8 -0.0065375 357.56 0.15740 0.20633 4.8466 435.59 470.20 2.6717 1.0320 1.2250 202.15 0.84873 5.0425 0.0077761
-87.625 1.1144 5.8911e-05 2.0611 2.0753 0.13469 630.83 0.0015852 2.0355 2.0476 0.13454 1.3625 2.0846 1462.1 -0.0065153 352.21 0.15679 0.22087 4.5276 436.60 471.39 2.6643 1.0354 1.2288 202.61 0.83718 5.0696 0.0078514
-86.625 1.1979 6.2384e-05 4.1481 4.1634 0.14590 629.77 0.0015879 4.1211 4.1342 0.14575 1.3637 2.0873 1455.4 -0.0064928 346.98 0.15617 0.23623 4.2331 437.61 472.57 2.6571 1.0389 1.2325 203.06 0.82580 5.0967 0.0079270
-85.625 1.2866 6.5996e-05 6.2379 6.2543 0.15708 628.72 0.0015905 6.2094 6.2235 0.15691 1.3649 2.0900 1448.8 -0.0064701 341.87 0.15555 0.25245 3.9612 438.61 473.75 2.6501 1.0424 1.2363 203.50 0.81460 5.1237 0.0080028
-84.625 1.3806 6.9749e-05 8.3304 8.3481 0.16821 627.66 0.0015932 8.3004 8.3155 0.16803 1.3661 2.0927 1442.1 -0.0064470 336.87 0.15494 0.26956 3.7097 439.63 474.94 2.6432 1.0460 1.2402 203.95 0.80356 5.1508 0.0080789
-83.625 1.4803 7.3644e-05 10.426 10.445 0.17929 626.60 0.0015959 10.394 10.410 0.17911 1.3674 2.0955 1435.4 -0.0064236 331.99 0.15432 0.28760 3.4771 440.64 476.13 2.6364 1.0495 1.2440 204.38 0.79269 5.1778 0.0081553
-82.625 1.5858 7.7682e-05 12.524 12.544 0.19033 625.54 0.0015986 12.491 12.508 0.19014 1.3687 2.0983 1428.7 -0.0063999 327.22 0.15370 0.30659 3.2616 441.65 477.31 2.6298 1.0531 1.2479 204.82 0.78199 5.2048 0.0082319
-81.625 1.6975 8.1864e-05 14.625 14.647 0.20133 624.48 0.0016013 14.590 14.609 0.20113 1.3700 2.1012 1422.0 -0.0063759 322.55 0.15309 0.32659 3.0619 442.67 478.50 2.6233 1.0567 1.2519 205.25 0.77144 5.2318 0.0083088
-80.625 1.8155 8.6190e-05 16.729 16.752 0.21229 623.42 0.0016041 16.692 16.712 0.21208 1.3714 2.1041 1415.4 -0.0063516 317.99 0.15247 0.34763 2.8766 443.69 479.70 2.6169 1.0603 1.2558 205.67 0.76106 5.2587 0.0083860
-79.625 1.9402 9.0660e-05 18.836 18.860 0.22320 622.36 0.0016068 18.797 18.819 0.22299 1.3728 2.1070 1408.7 -0.0063270 313.52 0.15186 0.36974 2.7046 444.71 480.89 2.6106 1.0639 1.2598 206.10 0.75083 5.2857 0.0084634
-78.625 2.0718 9.5275e-05 20.945 20.972 0.23408 621.29 0.0016096 20.905 20.928 0.23385 1.3742 2.1099 1402.0 -0.0063021 309.15 0.15124 0.39296 2.5448 445.73 482.08 2.6045 1.0676 1.2639 206.51 0.74076 5.3126 0.0085411
-77.625 2.2107 0.00010003 23.058 23.086 0.24491 620.22 0.0016123 23.016 23.040 0.24468 1.3757 2.1129 1395.3 -0.0062768 304.88 0.15062 0.41735 2.3961 446.75 483.27 2.5985 1.0712 1.2680 206.93 0.73084 5.3395 0.0086190
-76.625 2.3571 0.00010493 25.174 25.204 0.25570 619.15 0.0016151 25.130 25.156 0.25546 1.3772 2.1159 1388.7 -0.0062512 300.69 0.15001 0.44292 2.2577 447.78 484.47 2.5926 1.0749 1.2721 207.34 0.72107 5.3664 0.0086972
-75.625 2.5113 0.00010997 27.293 27.325 0.26646 618.08 0.0016179 27.247 27.275 0.26620 1.3787 2.1190 1382.0 -0.0062253 296.59 0.14939 0.46974 2.1288 448.81 485.67 2.5869 1.0787 1.2762 207.74 0.71146 5.3933 0.0087757
-74.625 2.6736 0.00011516 29.415 29.449 0.27717 617.01 0.0016207 29.366 29.396 0.27691 1.3802 2.1221 1375.4 -0.0061990 292.58 0.14878 0.49783 2.0087 449.83 486.86 2.5812 1.0824 1.2804 208.14 0.70200 5.4201 0.0088544
-73.625 2.8444 0.00012047 31.540 31.576 0.28785 615.93 0.0016236 31.489 31.521 0.28758 1.3818 2.1252 1368.7 -0.0061724 288.65 0.14816 0.52725 1.8966 450.86 488.06 2.5757 1.0862 1.2847 208.54 0.69268 5.4469 0.0089334
-72.625 3.0240 0.00012593 33.668 33.707 0.29849 614.85 0.0016264 33.615 33.649 0.29821 1.3834 2.1284 1362.0 -0.0061454 284.81 0.14755 0.55804 1.7920 451.90 489.26 2.5703 1.0900 1.2889 208.93 0.68351 5.4737 0.0090126
-71.625 3.2127 0.00013151 35.799 35.841 0.30909 613.78 0.0016293 35.745 35.781 0.30880 1.3851 2.1316 1355.4 -0.0061181 281.03 0.14694 0.59024 1.6942 452.93 490.46 2.5650 1.0938 1.2932 209.32 0.67448 5.5005 0.0090922
-70.625 3.4108 0.00013722 37.934 37.978 0.31966 612.69 0.0016321 37.877 37.915 0.31935 1.3867 2.1349 1348.7 -0.0060904 277.34 0.14632 0.62390 1.6028 453.96 491.66 2.5598 1.0976 1.2976 209.70 0.66560 5.5273 0.0091720
-69.625 3.6187 0.00014306 40.072 40.118 0.33019 611.61 0.0016350 40.013 40.053 0.32987 1.3884 2.1382 1342.1 -0.0060624 273.72 0.14571 0.65906 1.5173 455.00 492.86 2.5547 1.1015 1.3020 210.08 0.65687 5.5540 0.0092520
-68.625 3.8367 0.00014901 42.213 42.262 0.34069 610.53 0.0016379 42.152 42.195 0.34036 1.3902 2.1415 1335.5 -0.0060339 270.17 0.14510 0.69577 1.4372 456.04 494.06 2.5497 1.1054 1.3064 210.45 0.64827 5.5807 0.0093324
-67.625 4.0652 0.00015508 44.358 44.410 0.35115 609.44 0.0016409 44.294 44.340 0.35080 1.3919 2.1449 1328.8 -0.0060051 266.69 0.14449 0.73408 1.3622 457.08 495.26 2.5448 1.1093 1.3109 210.82 0.63981 5.6074 0.0094130
-66.625 4.3046 0.00016125 46.506 46.561 0.36157 608.35 0.0016438 46.439 46.488 0.36122 1.3937 2.1483 1322.2 -0.0059760 263.28 0.14388 0.77404 1.2919 458.12 496.46 2.5400 1.1133 1.3154 211.18 0.63150 5.6341 0.0094939
-65.625 4.5551 0.00016753 48.657 48.715 0.37196 607.26 0.0016467 48.588 48.640 0.37160 1.3955 2.1518 1315.6 -0.0059464 259.93 0.14327 0.81570 1.2259 459.16 497.67 2.5353 1.1172 1.3200 211.54 0.62332 5.6608 0.0095750
-64.625 4.8173 0.00017390 50.812 50.873 0.38232 606.16 0.0016497 50.740 50.795 0.38195 1.3974 2.1553 1308.9 -0.0059164 256.65 0.14266 0.85910 1.1640 460.21 498.87 2.5307 1.1212 1.3246 211.89 0.61527 5.6874 0.0096564
-63.625 5.0915 0.00018036 52.970 53.035 0.39264 605.07 0.0016527 52.896 52.954 0.39226 1.3993 2.1588 1302.3 -0.0058861 253.42 0.14205 0.90429 1.1058 461.25 500.07 2.5262 1.1252 1.3293 212.24 0.60736 5.7140 0.0097382
-62.625 5.3781 0.00018689 55.132 55.200 0.40294 603.97 0.0016557 55.055 55.117 0.40254 1.4012 2.1624 1295.7 -0.0058553 250.26 0.14144 0.95134 1.0511 462.30 501.28 2.5218 1.1293 1.3340 212.58 0.59958 5.7406 0.0098201
-61.625 5.6774 0.00019350 57.297 57.369 0.41320 602.87 0.0016587 57.218 57.283 0.41279 1.4031 2.1660 1289.1 -0.0058241 247.16 0.14084 1.0003 0.99972 463.35 502.48 2.5175 1.1333 1.3387 212.92 0.59194 5.7672 0.0099024
-60.625 5.9899 0.00020016 59.466 59.542 0.42343 601.77 0.0016618 59.385 59.453 0.42301 1.4051 2.1697 1282.5 -0.0057925 244.12 0.14023 1.0512 0.95131 464.40 503.68 2.5133 1.1374 1.3435 213.26 0.58442 5.7938 0.0099850
-59.625 6.3160 0.00020687 61.638 61.719 0.43363 600.66 0.0016648 61.554 61.627 0.43320 1.4071 2.1734 1275.9 -0.0057605 241.13 0.13962 1.1041 0.90573 465.45 504.89 2.5091 1.1415 1.3483 213.58 0.57704 5.8203 0.010068
-58.625 6.6561 0.00021362 63.814 63.899 0.44379 599.55 0.0016679 63.728 63.805 0.44335 1.4091 2.1772 1269.3 -0.0057280 238.19 0.13902 1.1591 0.86277 466.50 506.09 2.5051 1.1457 1.3532 213.90 0.56978 5.8468 0.010151
-57.625 7.0107 0.00022039 65.994 66.083 0.45393 598.44 0.0016710 65.905 65.986 0.45348 1.4111 2.1810 1262.7 -0.0056951 235.31 0.13842 1.2161 0.82228 467.55 507.30 2.5011 1.1498 1.3581 214.22 0.56265 5.8733 0.010234
-56.625 7.3801 0.00022717 68.177 68.272 0.46404 597.33 0.0016741 68.086 68.172 0.46358 1.4132 2.1848 1256.1 -0.0056617 232.48 0.13781 1.2754 0.78408 468.60 508.50 2.4972 1.1540 1.3631 214.53 0.55564 5.8998 0.010318
-55.625 7.7648 0.00023396 70.365 70.464 0.47412 596.22 0.0016772 70.271 70.361 0.47364 1.4153 2.1887 1249.5 -0.0056279 229.69 0.13721 1.3369 0.74802 469.66 509.71 2.4934 1.1582 1.3681 214.84 0.54875 5.9263 0.010402
-54.625 8.1652 0.00024072 72.556 72.660 0.48417 595.10 0.0016804 72.460 72.554 0.48368 1.4174 2.1927 1242.9 -0.0055937 226.96 0.13661 1.4006 0.71396 470.72 510.91 2.4897 1.1624 1.3731 215.14 0.54199 5.9527 0.010486
-53.625 8.5819 0.00024745 74.751 74.860 0.49419 593.98 0.0016836 74.652 74.752 0.49369 1.4196 2.1967 1236.3 -0.0055589 224.27 0.13601 1.4667 0.68178 471.77 512.11 2.4860 1.1667 1.3782 215.43 0.53535 5.9792 0.010571
-52.625 9.0151 0.00025413 76.949 77.064 0.50418 592.86 0.0016867 76.849 76.954 0.50368 1.4218 2.2007 1229.8 -0.0055237 221.63 0.13541 1.5353 0.65136 472.83 513.32 2.4824 1.1710 1.3834 215.72 0.52882 6.0056 0.010656
-51.625 9.4655 0.00026075 79.152 79.273 0.51415 591.73 0.0016900 79.049 79.159 0.51363 1.4240 2.2048 1223.2 -0.0054880 219.04 0.13482 1.6062 0.62258 473.89 514.52 2.4789 1.1752 1.3886 216.00 0.52241 6.0320 0.010741
-50.625 9.9335 0.00026728 81.359 81.485 0.52408 590.60 0.0016932 81.253 81.369 0.52356 1.4262 2.2089 1216.6 -0.0054519 216.48 0.13422 1.6797 0.59534 474.95 515.73 2.4755 1.1796 1.3938 216.28 0.51612 6.0584 0.010827
-49.625 10.419 0.00027370 83.569 83.702 0.53400 589.47 0.0016964 83.462 83.584 0.53347 1.4285 2.2131 1210.1 -0.0054152 213.98 0.13363 1.7558 0.56954 476.01 516.93 2.4722 1.1839 1.3991 216.55 0.50994 6.0848 0.010913
-48.625 10.924 0.00027999 85.784 85.923 0.54388 588.34 0.0016997 85.674 85.802 0.54334 1.4308 2.2173 1203.5 -0.0053780 211.51 0.13303 1.8345 0.54510 477.07 518.13 2.4689 1.1883 1.4044 216.82 0.50387 6.1112 0.010999
-47.625 11.448 0.00028614 88.002 88.148 0.55374 587.20 0.0017030 87.891 88.025 0.55319 1.4331 2.2216 1196.9 -0.0053403 209.08 0.13244 1.9159 0.52194 478.14 519.33 2.4657 1.1927 1.4098 217.08 0.49792 6.1375 0.011085
-46.625 11.991 0.00029211 90.225 90.378 0.56357 586.06 0.0017063 90.111 90.252 0.56302 1.4354 2.2259 1190.4 -0.0053020 206.69 0.13185 2.0001 0.49997 479.20 520.53 2.4625 1.1971 1.4153 217.33 0.49207 6.1639 0.011172
-45.625 12.554 0.00029789 92.452 92.612 0.57338 584.92 0.0017096 92.336 92.484 0.57282 1.4378 2.2303 1183.8 -0.0052633 204.34 0.13126 2.0872 0.47912 480.27 521.74 2.4594 1.2015 1.4207 217.58 0.48633 6.1902 0.011259
-44.625 13.137 0.00030344 94.683 94.850 0.58317 583.77 0.0017130 94.565 94.720 0.58260 1.4402 2.2347 1177.3 -0.0052240 202.03 0.13067 2.1771 0.45933 481.33 522.94 2.4564 1.2060 1.4263 217.82 0.48069 6.2165 0.011347
-43.625 13.741 0.00030874 96.918 97.093 0.59293 582.62 0.0017164 96.799 96.961 0.59235 1.4426 2.2392 1170.7 -0.0051841 199.75 0.13008 2.2700 0.44053 482.40 524.14 2.4535 1.2104 1.4319 218.05 0.47516 6.2429 0.011435
-42.625 14.367 0.00031377 99.157 99.340 0.60266 581.47 0.0017198 99.036 99.207 0.60208 1.4450 2.2437 1164.2 -0.0051437 197.51 0.12949 2.3659 0.42267 483.46 525.33 2.4506 1.2149 1.4375 218.28 0.46973 6.2692 0.011523
-41.625 15.015 0.00031849 101.40 101.59 0.61237 580.32 0.0017232 101.28 101.46 0.61179 1.4475 2.2483 1157.7 -0.0051027 195.30 0.12891 2.4649 0.40569 484.53 526.53 2.4478 1.2195 1.4432 218.50 0.46440 6.2955 0.011612
-40.625 15.686 0.00032287 103.65 103.85 0.62206 579.16 0.0017266 103.52 103.71 0.62147 1.4500 2.2529 1151.1 -0.0050611 193.13 0.12832 2.5671 0.38954 485.60 527.73 2.4450 1.2240 1.4489 218.72 0.45917 6.3218 0.011701
-39.625 16.380 0.00032687 105.90 106.11 0.63172 578.00 0.0017301 105.78 105.97 0.63113 1.4525 2.2576 1144.6 -0.0050189 190.99 0.12774 2.6725 0.37418 486.67 528.93 2.4423 1.2286 1.4547 218.93 0.45403 6.3481 0.011790
-38.625 17.097 0.00033047 108.16 108.38 0.64137 576.83 0.0017336 108.03 108.24 0.64077 1.4550 2.2623 1138.0 -0.0049761 188.88 0.12716 2.7813 0.35955 487.74 530.12 2.4397 1.2332 1.4606 219.13 0.44900 6.3744 0.011880
-37.625 17.838 0.00033363 110.42 110.65 0.65099 575.66 0.0017371 110.29 110.51 0.65039 1.4576 2.2671 1131.5 -0.0049327 186.81 0.12658 2.8934 0.34562 488.81 531.32 2.4371 1.2378 1.4665 219.33 0.44405 6.4007 0.011970
-36.625 18.604 0.00033631 112.68 112.92 0.66058 574.49 0.0017407 112.56 112.78 0.65999 1.4602 2.2719 1125.0 -0.0048887 184.76 0.12600 3.0089 0.33235 489.88 532.51 2.4346 1.2424 1.4724 219.52 0.43920 6.4270 0.012060
-35.625 19.395 0.00033848 114.95 115.20 0.67016 573.32 0.0017442 114.83 115.06 0.66956 1.4628 2.2768 1118.5 -0.0048440 182.75 0.12542 3.1280 0.31969 490.95 533.70 2.4321 1.2471 1.4784 219.70 0.43444 6.4533 0.012151
-34.625 20.212 0.00034008 117.23 117.48 0.67971 572.14 0.0017478 117.10 117.34 0.67912 1.4654 2.2818 1111.9 -0.0047987 180.76 0.12485 3.2506 0.30763 492.02 534.89 2.4297 1.2517 1.4845 219.88 0.42977 6.4797 0.012243
-33.625 21.056 0.00034108 119.51 119.77 0.68925 570.96 0.0017514 119.38 119.63 0.68865 1.4681 2.2868 1105.4 -0.0047527 178.80 0.12427 3.3770 0.29612 493.09 536.08 2.4273 1.2564 1.4906 220.05 0.42519 6.5060 0.012334
-32.625 21.926 0.00034144 121.79 122.07 0.69876 569.77 0.0017551 121.66 121.93 0.69817 1.4708 2.2918 1098.9 -0.0047061 176.87 0.12370 3.5071 0.28514 494.17 537.27 2.4250 1.2611 1.4968 220.21 0.42070 6.5323 0.012426
-31.625 22.823 0.00034111 124.08 124.37 0.70825 568.58 0.0017588 123.95 124.23 0.70767 1.4735 2.2970 1092.3 -0.0046587 174.97 0.12313 3.6410 0.27465 495.24 538.46 2.4227 1.2659 1.5031 220.36 0.41629 6.5587 0.012519
-30.625 23.749 0.00034003 126.37 126.67 0.71772 567.39 0.0017625 126.24 126.53 0.71714 1.4762 2.3021 1085.8 -0.0046107 173.09 0.12256 3.7787 0.26464 496.31 539.64 2.4205 1.2706 1.5094 220.51 0.41196 6.5850 0.012612
-29.625 24.703 0.00033817 128.67 128.98 0.72717 566.19 0.0017662 128.54 128.84 0.72660 1.4790 2.3074 1079.3 -0.0045619 171.24 0.12200 3.9205 0.25507 497.38 540.83 2.4184 1.2754 1.5157 220.65 0.40772 6.6114 0.012706
-28.625 25.687 0.00033546 130.97 131.30 0.73661 564.99 0.0017699 130.84 131.16 0.73604 1.4818 2.3126 1072.8 -0.0045124 169.42 0.12143 4.0663 0.24592 498.46 542.01 2.4162 1.2802 1.5222 220.79 0.40356 6.6378 0.012800
-27.625 26.700 0.00033185 133.27 133.61 0.74602 563.78 0.0017737 133.15 133.48 0.74547 1.4846 2.3180 1066.2 -0.0044621 167.62 0.12087 4.2163 0.23717 499.53 543.19 2.4142 1.2850 1.5286 220.91 0.39947 6.6642 0.012894
-26.625 27.743 0.00032728 135.59 135.94 0.75541 562.57 0.0017775 135.47 135.81 0.75487 1.4874 2.3234 1059.7 -0.0044111 165.84 0.12031 4.3705 0.22881 500.60 544.37 2.4122 1.2899 1.5352 221.03 0.39547 6.6906 0.012989
-25.625 28.817 0.00032171 137.90 138.27 0.76479 561.36 0.0017814 137.78 138.14 0.76426 1.4902 2.3289 1053.2 -0.0043593 164.09 0.11975 4.5290 0.22080 501.68 545.55 2.4102 1.2947 1.5418 221.14 0.39154 6.7171 0.013084
-24.625 29.923 0.00031505 140.22 140.60 0.77414 560.14 0.0017853 140.11 140.48 0.77363 1.4931 2.3344 1046.7 -0.0043067 162.36 0.11919 4.6918 0.21314 502.75 546.72 2.4083 1.2996 1.5485 221.25 0.38768 6.7436 0.013180
-23.625 31.061 0.00030726 142.55 142.94 0.78348 558.92 0.0017892 142.44 142.82 0.78298 1.4960 2.3400 1040.1 -0.0042533 160.65 0.11863 4.8592 0.20580 503.82 547.90 2.4064 1.3045 1.5552 221.35 0.38391 6.7701 0.013277
-22.625 32.232 0.00029825 144.88 145.29 0.79280 557.69 0.0017931 144.77 145.17 0.79232 1.4990 2.3457 1033.6 -0.0041990 158.97 0.11807 5.0311 0.19877 504.90 549.07 2.4045 1.3095 1.5621 221.44 0.38020 6.7967 0.013374
-21.625 33.435 0.00028797 147.21 147.64 0.80211 556.46 0.0017971 147.11 147.52 0.80164 1.5019 2.3514 1027.1 -0.0041439 157.30 0.11752 5.2076 0.19203 505.97 550.24 2.4027 1.3144 1.5690 221.52 0.37656 6.8232 0.013471
-20.625 34.673 0.00027634 149.55 150.00 0.81139 555.23 0.0018011 149.45 149.88 0.81095 1.5049 2.3572 1020.6 -0.0040879 155.66 0.11697 5.3889 0.18557 507.04 551.40 2.4010 1.3194 1.5759 221.59 0.37300 6.8499 0.013569
-19.625 35.946 0.00026328 151.90 152.36 0.82066 553.99 0.0018051 151.80 152.25 0.82024 1.5079 2.3630 1014.0 -0.0040311 154.04 0.11642 5.5750 0.17937 508.11 552.57 2.3992 1.3244 1.5829 221.66 0.36950 6.8765 0.013668
-18.625 37.253 0.00024871 154.25 154.72 0.82991 552.74 0.0018092 154.16 154.62 0.82952 1.5109 2.3689 1007.5 -0.0039733 152.44 0.11587 5.7660 0.17343 509.19 553.73 2.3976 1.3294 1.5901 221.72 0.36608 6.9032 0.013767
-17.625 38.596 0.00023256 156.60 157.10 0.83914 551.49 0.0018133 156.52 157.00 0.83878 1.5140 2.3749 1001.0 -0.0039145 150.86 0.11532 5.9621 0.16773 510.26 554.89 2.3959 1.3345 1.5972 221.77 0.36272 6.9300 0.013867
-16.625 39.976 0.00021474 158.96 159.47 0.84836 550.24 0.0018174 158.89 159.39 0.84803 1.5171 2.3810 994.44 -0.0038549 149.29 0.11478 6.1632 0.16225 511.33 556.05 2.3943 1.3395 1.6045 221.81 0.35942 6.9568 0.013968
-15.625 41.392 0.00019515 161.33 161.86 0.85756 548.98 0.0018216 161.26 161.78 0.85726 1.5202 2.3871 987.91 -0.0037942 147.75 0.11423 6.3696 0.15700 512.40 557.20 2.3927 1.3446 1.6119 221.85 0.35619 6.9836 0.014069
-14.625 42.846 0.00017371 163.70 164.25 0.86675 547.71 0.0018258 163.64 164.18 0.86649 1.5233 2.3933 981.37 -0.0037325 146.22 0.11369 6.5812 0.15195 513.47 558.36 2.3912 1.3497 1.6193 221.87 0.35302 7.0105 0.014170
-13.625 44.338 0.00015032 166.07 166.64 0.87592 546.44 0.0018300 166.02 166.58 0.87569 1.5264 2.3996 974.83 -0.0036698 144.72 0.11315 6.7983 0.14710 514.54 559.51 2.3897 1.3549 1.6268 221.89 0.34992 7.0375 0.014273
-12.625 45.870 0.00012488 168.45 169.04 0.88508 545.17 0.0018343 168.41 168.99 0.88489 1.5296 2.4059 968.29 -0.0036061 143.23 0.11261 7.0208 0.14243 515.61 560.65 2.3883 1.3600 1.6344 221.90 0.34688 7.0646 0.014376
-11.625 47.440 9.7293e-05 170.84 171.45 0.89422 543.89 0.0018386 170.81 171.41 0.89407 1.5328 2.4124 961.75 -0.0035413 141.76 0.11208 7.2490 0.13795 516.68 561.80 2.3868 1.3652 1.6421 221.91 0.34389 7.0917 0.014479
-10.625 49.051 6.7438e-05 173.23 173.86 0.90334 542.60 0.0018430 173.21 173.83 0.90324 1.5360 2.4189 955.20 -0.0034753 140.30 0.11154 7.4829 0.13364 517.75 562.94 2.3854 1.3704 1.6498 221.90 0.34097 7.1188 0.014584
-9.6250 50.703 3.5209e-05 175.63 176.27 0.91245 541.31 0.0018474 175.61 176.26 0.91240 1.5393 2.4255 948.65 -0.0034082 138.86 0.11101 7.7226 0.12949 518.81 564.08 2.3841 1.3757 1.6577 221.88 0.33810 7.1461 0.014689
-8.6250 52.396 4.8839e-07 178.03 178.70 0.92155 540.02 0.0018518 178.03 178.70 0.92154 1.5426 2.4321 942.10 -0.0033400 137.44 0.11048 7.9683 0.12550 519.88 565.21 2.3827 1.3809 1.6657 221.86 0.33529 7.1734 0.014795
-7.6250 158.68 undefined 179.58 181.61 0.92742 540.00 0.0018519 179.58 181.61 0.92742 1.5463 2.4302 944.82 -0.0033776 137.40 0.11057 540.00 0.0018519 179.58 181.61 0.92742 1.5463 2.4302 944.82 -0.0033776 137.40 0.11057
-6.6250 266.35 undefined 181.13 184.53 0.93324 540.00 0.0018519 181.13 184.53 0.93324 1.5500 2.4284 947.64 -0.0034158 137.37 0.11068 540.00 0.0018519 181.13 184.53 0.93324 1.5500 2.4284 947.64 -0.0034158 137.37 0.11068
-5.6250 373.97 undefined 182.68 187.46 0.93905 540.00 0.0018519 182.68 187.46 0.93905 1.5537 2.4266 950.43 -0.0034531 137.35 0.11079 540.00 0.0018519 182.68 187.46 0.93905 1.5537 2.4266 950.43 -0.0034531 137.35 0.11079
-4.6250 481.54 undefined 184.24 190.39 0.94485 540.00 0.0018519 184.24 190.39 0.94485 1.5575 2.4250 953.20 -0.0034895 137.33 0.11090 540.00 0.0018519 184.24 190.39 0.94485 1.5575 2.4250 953.20 -0.0034895 137.33 0.11090
-3.6250 589.05 undefined 185.80 193.32 0.95065 540.00 0.0018519 185.80 193.32 0.95065 1.5613 2.4235 955.94 -0.0035250 137.31 0.11100 540.00 0.0018519 185.80 193.32 0.95065 1.5613 2.4235 955.94 -0.0035250 137.31 0.11100
-2.6250 696.50 undefined 187.36 196.26 0.95644 540.00 0.0018519 187.36 196.26 0.95644 1.5650 2.4221 958.66 -0.0035598 137.28 0.11111 540.00 0.0018519 187.36 196.26 0.95644 1.5650 2.4221 958.66 -0.0035598 137.28 0.11111
-1.6250 803.89 undefined 188.93 199.19 0.96222 540.00 0.0018519 188.93 199.19 0.96222 1.5688 2.4208 961.35 -0.0035937 137.26 0.11122 540.00 0.0018519 188.93 199.19 0.96222 1.5688 2.4208 961.35 -0.0035937 137.26 0.11122
-0.62500 911.23 undefined 190.50 202.13 0.96799 540.00 0.0018519 190.50 202.13 0.96799 1.5727 2.4196 964.02 -0.0036268 137.24 0.11133 540.00 0.0018519 190.50 202.13 0.96799 1.5727 2.4196 964.02 -0.0036268 137.24 0.11133
0.37500 1018.5 undefined 192.07 205.08 0.97376 540.00 0.0018519 192.07 205.08 0.97376 1.5765 2.4185 966.67 -0.0036592 137.22 0.11144 540.00 0.0018519 192.07 205.08 0.97376 1.5765 2.4185 966.67 -0.0036592 137.22 0.11144
1.3750 1125.7 undefined 193.65 208.03 0.97952 540.00 0.0018519 193.65 208.03 0.97952 1.5803 2.4176 969.29 -0.0036908 137.20 0.11155 540.00 0.0018519 193.65 208.03 0.97952 1.5803 2.4176 969.29 -0.0036908 137.20 0.11155
2.3750 1232.9 undefined 195.24 210.98 0.98527 540.00 0.0018519 195.24 210.98 0.98527 1.5842 2.4167 971.89 -0.0037217 137.18 0.11166 540.00 0.0018519 195.24 210.98 0.98527 1.5842 2.4167 971.89 -0.0037217 137.18 0.11166
3.3750 1340.0 undefined 196.82 213.93 0.99102 540.00 0.0018519 196.82 213.93 0.99102 1.5881 2.4159 974.47 -0.0037519 137.16 0.11177 540.00 0.0018519 196.82 213.93 0.99102 1.5881 2.4159 974.47 -0.0037519 137.16 0.11177
4.3750 1447.0 undefined 198.41 216.89 0.99676 540.00 0.0018519 198.41 216.89 0.99676 1.5920 2.4152 977.03 -0.0037814 137.14 0.11188 540.00 0.0018519 198.41 216.89 0.99676 1.5920 2.4152 977.03 -0.0037814 137.14 0.11188
5.3750 1554.0 undefined 200.01 219.85 1.0025 540.00 0.0018519 200.01 219.85 1.0025 1.5959 2.4147 979.56 -0.0038103 137.12 0.11199 540.00 0.0018519 200.01 219.85 1.0025 1.5959 2.4147 979.56 -0.0038103 137.12 0.11199
6.3750 1660.9 undefined 201.60 222.81 1.0082 540.00 0.0018519 201.60 222.81 1.0082 1.5998 2.4142 982.08 -0.0038384 137.10 0.11210 540.00 0.0018519 201.60 222.81 1.0082 1.5998 2.4142 982.08 -0.0038384 137.10 0.11210
7.3750 1767.7 undefined 203.20 225.78 1.0139 540.00 0.0018519 203.20 225.78 1.0139 1.6037 2.4137 984.57 -0.0038660 137.08 0.11221 540.00 0.0018519 203.20 225.78 1.0139 1.6037 2.4137 984.57 -0.0038660 137.08 0.11221
8.3750 1874.5 undefined 204.81 228.74 1.0197 540.00 0.0018519 204.81 228.74 1.0197 1.6077 2.4134 987.04 -0.0038929 137.06 0.11232 540.00 0.0018519 204.81 228.74 1.0197 1.6077 2.4134 987.04 -0.0038929 137.06 0.11232
9.3750 1981.2 undefined 206.42 231.72 1.0254 540.00 0.0018519 206.42 231.72 1.0254 1.6116 2.4131 989.49 -0.0039192 137.05 0.11243 540.00 0.0018519 206.42 231.72 1.0254 1.6116 2.4131 989.49 -0.0039192 137.05 0.11243
10.375 2087.9 undefined 208.03 234.69 1.0311 540.00 0.0018519 208.03 234.69 1.0311 1.6156 2.4130 991.93 -0.0039450 137.03 0.11254 540.00 0.0018519 208.03 234.69 1.0311 1.6156 2.4130 991.93 -0.0039450 137.03 0.11254
11.375 2194.4 undefined 209.65 237.67 1.0368 540.00 0.0018519 209.65 237.67 1.0368 1.6196 2.4129 994.34 -0.0039701 137.01 0.11266 540.00 0.0018519 209.65 237.67 1.0368 1.6196 2.4129 994.34 -0.0039701 137.01 0.11266
12.375 2300.9 undefined 211.27 240.65 1.0424 540.00 0.0018519 211.27 240.65 1.0424 1.6236 2.4128 996.74 -0.0039947 136.99 0.11277 540.00 0.0018519 211.27 240.65 1.0424 1.6236 2.4128 996.74 -0.0039947 136.99 0.11277
13.375 2407.4 undefined 212.90 243.64 1.0481 540.00 0.0018519 212.90 243.64 1.0481 1.6276 2.4129 999.11 -0.0040188 136.98 0.11288 540.00 0.0018519 212.90 243.64 1.0481 1.6276 2.4129 999.11 -0.0040188 136.98 0.11288
14.375 2513.7 undefined 214.53 246.62 1.0538 540.00 0.0018519 214.53 246.62 1.0538 1.6316 2.4130 1001.5 -0.0040423 136.96 0.11299 540.00 0.0018519 214.53 246.62 1.0538 1.6316 2.4130 1001.5 -0.0040423 136.96 0.11299
15.375 2620.0 undefined 216.16 249.61 1.0595 540.00 0.0018519 216.16 249.61 1.0595 1.6356 2.4132 1003.8 -0.0040652 136.95 0.11311 540.00 0.0018519 216.16 249.61 1.0595 1.6356 2.4132 1003.8 -0.0040652 136.95 0.11311
16.375 2726.2 undefined 217.80 252.61 1.0651 540.00 0.0018519 217.80 252.61 1.0651 1.6397 2.4135 1006.1 -0.0040877 136.93 0.11322 540.00 0.0018519 217.80 252.61 1.0651 1.6397 2.4135 1006.1 -0.0040877 136.93 0.11322
17.375 2832.4 undefined 219.44 255.61 1.0708 540.00 0.0018519 219.44 255.61 1.0708 1.6438 2.4138 1008.4 -0.0041097 136.91 0.11334 540.00 0.0018519 219.44 255.61 1.0708 1.6438 2.4138 1008.4 -0.0041097 136.91 0.11334
18.375 2938.5 undefined 221.09 258.61 1.0765 540.00 0.0018519 221.09 258.61 1.0765 1.6478 2.4142 1010.7 -0.0041312 136.90 0.11345 540.00 0.0018519 221.09 258.61 1.0765 1.6478 2.4142 1010.7 -0.0041312 136.90 0.11345
19.375 3044.5 undefined 222.74 261.61 1.0821 540.00 0.0018519 222.74 261.61 1.0821 1.6519 2.4146 1013.0 -0.0041522 136.88 0.11356 540.00 0.0018519 222.74 261.61 1.0821 1.6519 2.4146 1013.0 -0.0041522 136.88 0.11356
20.375 3150.4 undefined 224.39 264.61 1.0878 540.00 0.0018519 224.39 264.61 1.0878 1.6560 2.4152 1015.2 -0.0041727 136.87 0.11368 540.00 0.0018519 224.39 264.61 1.0878 1.6560 2.4152 1015.2 -0.0041727 136.87 0.11368
21.375 3256.2 undefined 226.05 267.62 1.0934 540.00 0.0018519 226.05 267.62 1.0934 1.6601 2.4157 1017.5 -0.0041928 136.86 0.11379 540.00 0.0018519 226.05 267.62 1.0934 1.6601 2.4157 1017.5 -0.0041928 136.86 0.11379
22.375 3362.0 undefined 227.71 270.64 1.0990 540.00 0.0018519 227.71 270.64 1.0990 1.6642 2.4164 1019.7 -0.0042125 136.84 0.11391 540.00 0.0018519 227.71 270.64 1.0990 1.6642 2.4164 1019.7 -0.0042125 136.84 0.11391
23.375 3467.7 undefined 229.38 273.65 1.1047 540.00 0.0018519 229.38 273.65 1.1047 1.6684 2.4171 1021.9 -0.0042317 136.83 0.11403 540.00 0.0018519 229.38 273.65 1.1047 1.6684 2.4171 1021.9 -0.0042317 136.83 0.11403
24.375 3573.3 undefined 231.05 276.67 1.1103 540.00 0.0018519 231.05 276.67 1.1103 1.6725 2.4178 1024.1 -0.0042504 136.82 0.11414 540.00 0.0018519 231.05 276.67 1.1103 1.6725 2.4178 1024.1 -0.0042504 136.82 0.11414
25.375 3678.9 undefined 232.72 279.69 1.1159 540.00 0.0018519 232.72 279.69 1.1159 1.6767 2.4186 1026.3 -0.0042688 136.80 0.11426 540.00 0.0018519 232.72 279.69 1.1159 1.6767 2.4186 1026.3 -0.0042688 136.80 0.11426
26.375 3784.3 undefined 234.40 282.72 1.1215 540.00 0.0018519 234.40 282.72 1.1215 1.6808 2.4195 1028.5 -0.0042867 136.79 0.11438 540.00 0.0018519 234.40 282.72 1.1215 1.6808 2.4195 1028.5 -0.0042867 136.79 0.11438
27.375 3889.7 undefined 236.08 285.75 1.1271 540.00 0.0018519 236.08 285.75 1.1271 1.6850 2.4204 1030.6 -0.0043043 136.78 0.11449 540.00 0.0018519 236.08 285.75 1.1271 1.6850 2.4204 1030.6 -0.0043043 136.78 0.11449
28.375 3995.0 undefined 237.77 288.78 1.1327 540.00 0.0018519 237.77 288.78 1.1327 1.6892 2.4214 1032.7 -0.0043214 136.76 0.11461 540.00 0.0018519 237.77 288.78 1.1327 1.6892 2.4214 1032.7 -0.0043214 136.76 0.11461
29.375 4100.3 undefined 239.46 291.82 1.1383 540.00 0.0018519 239.46 291.82 1.1383 1.6934 2.4224 1034.9 -0.0043382 136.75 0.11473 540.00 0.0018519 239.46 291.82 1.1383 1.6934 2.4224 1034.9 -0.0043382 136.75 0.11473
30.375 4205.4 undefined 241.16 294.85 1.1439 540.00 0.0018519 241.16 294.85 1.1439 1.6976 2.4234 1037.0 -0.0043546 136.74 0.11485 540.00 0.0018519 241.16 294.85 1.1439 1.6976 2.4234 1037.0 -0.0043546 136.74 0.11485
31.375 4310.5 undefined 242.86 297.89 1.1495 540.00 0.0018519 242.86 297.89 1.1495 1.7018 2.4245 1039.1 -0.0043706 136.73 0.11496 540.00 0.0018519 242.86 297.89 1.1495 1.7018 2.4245 1039.1 -0.0043706 136.73 0.11496
32.375 4415.5 undefined 244.56 300.94 1.1551 540.00 0.0018519 244.56 300.94 1.1551 1.7060 2.4257 1041.2 -0.0043863 136.72 0.11508 540.00 0.0018519 244.56 300.94 1.1551 1.7060 2.4257 1041.2 -0.0043863 136.72 0.11508
33.375 4520.4 undefined 246.27 303.99 1.1607 540.00 0.0018519 246.27 303.99 1.1607 1.7102 2.4269 1043.2 -0.0044016 136.71 0.11520 540.00 0.0018519 246.27 303.99 1.1607 1.7102 2.4269 1043.2 -0.0044016 136.71 0.11520
34.375 4625.3 undefined 247.98 307.04 1.1663 540.00 0.0018519 247.98 307.04 1.1663 1.7145 2.4282 1045.3 -0.0044166 136.70 0.11532 540.00 0.0018519 247.98 307.04 1.1663 1.7145 2.4282 1045.3 -0.0044166 136.70 0.11532
35.375 4730.0 undefined 249.70 310.09 1.1718 540.00 0.0018519 249.70 310.09 1.1718 1.7187 2.4295 1047.3 -0.0044312 136.69 0.11544 540.00 0.0018519 249.70 310.09 1.1718 1.7187 2.4295 1047.3 -0.0044312 136.69 0.11544
36.375 4834.7 undefined 251.42 313.15 1.1774 540.00 0.0018519 251.42 313.15 1.1774 1.7230 2.4308 1049.4 -0.0044455 136.68 0.11556 540.00 0.0018519 251.42 313.15 1.1774 1.7230 2.4308 1049.4 -0.0044455 136.68 0.11556
37.375 4939.3 undefined 253.14 316.21 1.1830 540.00 0.0018519 253.14 316.21 1.1830 1.7272 2.4322 1051.4 -0.0044595 136.67 0.11568 540.00 0.0018519 253.14 316.21 1.1830 1.7272 2.4322 1051.4 -0.0044595 136.67 0.11568
38.375 5043.8 undefined 254.87 319.27 1.1885 540.00 0.0018519 254.87 319.27 1.1885 1.7315 2.4336 1053.4 -0.0044731 136.66 0.11580 540.00 0.0018519 254.87 319.27 1.1885 1.7315 2.4336 1053.4 -0.0044731 136.66 0.11580
39.375 5148.2 undefined 256.61 322.34 1.1941 540.00 0.0018519 256.61 322.34 1.1941 1.7357 2.4351 1055.4 -0.0044864 136.65 0.11592 540.00 0.0018519 256.61 322.34 1.1941 1.7357 2.4351 1055.4 -0.0044864 136.65 0.11592
40.375 5252.6 undefined 258.35 325.41 1.1996 540.00 0.0018519 258.35 325.41 1.1996 1.7400 2.4366 1057.4 -0.0044995 136.64 0.11604 540.00 0.0018519 258.35 325.41 1.1996 1.7400 2.4366 1057.4 -0.0044995 136.64 0.11604
41.375 5356.9 undefined 260.09 328.48 1.2052 540.00 0.0018519 260.09 328.48 1.2052 1.7443 2.4381 1059.4 -0.0045122 136.63 0.11617 540.00 0.0018519 260.09 328.48 1.2052 1.7443 2.4381 1059.4 -0.0045122 136.63 0.11617
42.375 5461.1 undefined 261.83 331.56 1.2107 540.00 0.0018519 261.83 331.56 1.2107 1.7486 2.4397 1061.3 -0.0045246 136.62 0.11629 540.00 0.0018519 261.83 331.56 1.2107 1.7486 2.4397 1061.3 -0.0045246 136.62 0.11629
43.375 5565.2 undefined 263.58 334.64 1.2163 540.00 0.0018519 263.58 334.64 1.2163 1.7529 2.4413 1063.3 -0.0045368 136.61 0.11641 540.00 0.0018519 263.58 334.64 1.2163 1.7529 2.4413 1063.3 -0.0045368 136.61 0.11641
44.375 5669.2 undefined 265.34 337.72 1.2218 540.00 0.0018519 265.34 337.72 1.2218 1.7572 2.4430 1065.3 -0.0045486 136.60 0.11654 540.00 0.0018519 265.34 337.72 1.2218 1.7572 2.4430 1065.3 -0.0045486 136.60 0.11654
45.375 5773.1 undefined 267.10 340.81 1.2273 540.00 0.0018519 267.10 340.81 1.2273 1.7615 2.4446 1067.2 -0.0045602 136.60 0.11666 540.00 0.0018519 267.10 340.81 1.2273 1.7615 2.4446 1067.2 -0.0045602 136.60 0.11666
46.375 5877.0 undefined 268.86 343.90 1.2329 540.00 0.0018519 268.86 343.90 1.2329 1.7658 2.4464 1069.1 -0.0045715 136.59 0.11678 540.00 0.0018519 268.86 343.90 1.2329 1.7658 2.4464 1069.1 -0.0045715 136.59 0.11678
47.375 5980.8 undefined 270.63 346.99 1.2384 540.00 0.0018519 270.63 346.99 1.2384 1.7701 2.4481 1071.0 -0.0045826 136.58 0.11691 540.00 0.0018519 270.63 346.99 1.2384 1.7701 2.4481 1071.0 -0.0045826 136.58 0.11691
48.375 6084.5 undefined 272.40 350.09 1.2439 540.00 0.0018519 272.40 350.09 1.2439 1.7745 2.4499 1072.9 -0.0045933 136.57 0.11703 540.00 0.0018519 272.40 350.09 1.2439 1.7745 2.4499 1072.9 -0.0045933 136.57 0.11703
49.375 6188.1 undefined 274.18 353.19 1.2494 540.00 0.0018519 274.18 353.19 1.2494 1.7788 2.4518 1074.9 -0.0046038 136.57 0.11715 540.00 0.0018519 274.18 353.19 1.2494 1.7788 2.4518 1074.9 -0.0046038 136.57 0.11715
50.375 6291.6 undefined 275.96 356.29 1.2549 540.00 0.0018519 275.96 356.29 1.2549 1.7831 2.4536 1076.7 -0.0046141 136.56 0.11728 540.00 0.0018519 275.96 356.29 1.2549 1.7831 2.4536 1076.7 -0.0046141 136.56 0.11728
51.375 6395.1 undefined 277.75 359.40 1.2604 540.00 0.0018519 277.75 359.40 1.2604 1.7875 2.4555 1078.6 -0.0046241 136.55 0.11740 540.00 0.0018519 277.75 359.40 1.2604 1.7875 2.4555 1078.6 -0.0046241 136.55 0.11740
52.375 6498.5 undefined 279.54 362.51 1.2660 540.00 0.0018519 279.54 362.51 1.2660 1.7918 2.4574 1080.5 -0.0046339 136.55 0.11753 540.00 0.0018519 279.54 362.51 1.2660 1.7918 2.4574 1080.5 -0.0046339 136.55 0.11753
53.375 6601.8 undefined 281.33 365.62 1.2715 540.00 0.0018519 281.33 365.62 1.2715 1.7962 2.4594 1082.4 -0.0046434 136.54 0.11766 540.00 0.0018519 281.33 365.62 1.2715 1.7962 2.4594 1082.4 -0.0046434 136.54 0.11766
54.375 6705.0 undefined 283.13 368.74 1.2770 540.00 0.0018519 283.13 368.74 1.2770 1.8005 2.4614 1084.2 -0.0046527 136.53 0.11778 540.00 0.0018519 283.13 368.74 1.2770 1.8005 2.4614 1084.2 -0.0046527 136.53 0.11778
55.375 6808.1 undefined 284.93 371.86 1.2824 540.00 0.0018519 284.93 371.86 1.2824 1.8049 2.4634 1086.1 -0.0046618 136.53 0.11791 540.00 0.0018519 284.93 371.86 1.2824 1.8049 2.4634 1086.1 -0.0046618 136.53 0.11791
56.375 6911.1 undefined 286.74 374.98 1.2879 540.00 0.0018519 286.74 374.98 1.2879 1.8092 2.4654 1087.9 -0.0046706 136.52 0.11803 540.00 0.0018519 286.74 374.98 1.2879 1.8092 2.4654 1087.9 -0.0046706 136.52 0.11803
57.375 7014.1 undefined 288.55 378.11 1.2934 540.00 0.0018519 288.55 378.11 1.2934 1.8136 2.4675 1089.7 -0.0046793 136.52 0.11816 540.00 0.0018519 288.55 378.11 1.2934 1.8136 2.4675 1089.7 -0.0046793 136.52 0.11816
58.375 7117.0 undefined 290.36 381.23 1.2989 540.00 0.0018519 290.36 381.23 1.2989 1.8179 2.4696 1091.6 -0.0046877 136.51 0.11829 540.00 0.0018519 290.36 381.23 1.2989 1.8179 2.4696 1091.6 -0.0046877 136.51 0.11829
59.375 7219.8 undefined 292.18 384.37 1.3044 540.00 0.0018519 292.18 384.37 1.3044 1.8223 2.4717 1093.4 -0.0046959 136.51 0.11842 540.00 0.0018519 292.18 384.37 1.3044 1.8223 2.4717 1093.4 -0.0046959 136.51 0.11842
60.375 7322.5 undefined 294.01 387.50 1.3099 540.00 0.0018519 294.01 387.50 1.3099 1.8267 2.4739 1095.2 -0.0047038 136.50 0.11854 540.00 0.0018519 294.01 387.50 1.3099 1.8267 2.4739 1095.2 -0.0047038 136.50 0.11854
61.375 7425.1 undefined 295.84 390.64 1.3154 540.00 0.0018519 295.84 390.64 1.3154 1.8311 2.4760 1097.0 -0.0047116 136.50 0.11867 540.00 0.0018519 295.84 390.64 1.3154 1.8311 2.4760 1097.0 -0.0047116 136.50 0.11867
62.375 7527.7 undefined 297.67 393.78 1.3208 540.00 0.0018519 297.67 393.78 1.3208 1.8354 2.4782 1098.8 -0.0047192 136.49 0.11880 540.00 0.0018519 297.67 393.78 1.3208 1.8354 2.4782 1098.8 -0.0047192 136.49 0.11880
63.375 7630.1 undefined 299.51 396.93 1.3263 540.00 0.0018519 299.51 396.93 1.3263 1.8398 2.4805 1100.6 -0.0047266 136.49 0.11893 540.00 0.0018519 299.51 396.93 1.3263 1.8398 2.4805 1100.6 -0.0047266 136.49 0.11893
64.375 7732.5 undefined 301.35 400.08 1.3318 540.00 0.0018519 301.35 400.08 1.3318 1.8442 2.4827 1102.3 -0.0047337 136.48 0.11906 540.00 0.0018519 301.35 400.08 1.3318 1.8442 2.4827 1102.3 -0.0047337 136.48 0.11906
65.375 7834.8 undefined 303.20 403.23 1.3372 540.00 0.0018519 303.20 403.23 1.3372 1.8486 2.4850 1104.1 -0.0047407 136.48 0.11919 540.00 0.0018519 303.20 403.23 1.3372 1.8486 2.4850 1104.1 -0.0047407 136.48 0.11919
66.375 7937.0 undefined 305.05 406.39 1.3427 540.00 0.0018519 305.05 406.39 1.3427 1.8529 2.4873 1105.9 -0.0047475 136.48 0.11932 540.00 0.0018519 305.05 406.39 1.3427 1.8529 2.4873 1105.9 -0.0047475 136.48 0.11932
67.375 8039.2 undefined 306.90 409.55 1.3481 540.00 0.0018519 306.90 409.55 1.3481 1.8573 2.4896 1107.6 -0.0047542 136.47 0.11945 540.00 0.0018519 306.90 409.55 1.3481 1.8573 2.4896 1107.6 -0.0047542 136.47 0.11945
68.375 8141.2 undefined 308.76 412.71 1.3536 540.00 0.0018519 308.76 412.71 1.3536 1.8617 2.4919 1109.4 -0.0047606 136.47 0.11958 540.00 0.0018519 308.76 412.71 1.3536 1.8617 2.4919 1109.4 -0.0047606 136.47 0.11958
69.375 8243.2 undefined 310.63 415.88 1.3590 540.00 0.0018519 310.63 415.88 1.3590 1.8661 2.4943 1111.1 -0.0047669 136.47 0.11971 540.00 0.0018519 310.63 415.88 1.3590 1.8661 2.4943 1111.1 -0.0047669 136.47 0.11971
70.375 8345.1 undefined 312.49 419.05 1.3645 540.00 0.0018519 312.49 419.05 1.3645 1.8705 2.4967 1112.9 -0.0047729 136.46 0.11984 540.00 0.0018519 312.49 419.05 1.3645 1.8705 2.4967 1112.9 -0.0047729 136.46 0.11984
71.375 8446.9 undefined 314.37 422.22 1.3699 540.00 0.0018519 314.37 422.22 1.3699 1.8749 2.4991 1114.6 -0.0047789 136.46 0.11997 540.00 0.0018519 314.37 422.22 1.3699 1.8749 2.4991 1114.6 -0.0047789 136.46 0.11997
72.375 8548.7 undefined 316.24 425.39 1.3754 540.00 0.0018519 316.24 425.39 1.3754 1.8793 2.5015 1116.3 -0.0047846 136.46 0.12010 540.00 0.0018519 316.24 425.39 1.3754 1.8793 2.5015 1116.3 -0.0047846 136.46 0.12010
73.375 8650.3 undefined 318.13 428.57 1.3808 540.00 0.0018519 318.13 428.57 1.3808 1.8837 2.5040 1118.0 -0.0047902 136.45 0.12023 540.00 0.0018519 318.13 428.57 1.3808 1.8837 2.5040 1118.0 -0.0047902 136.45 0.12023
74.375 8751.9 undefined 320.01 431.76 1.3862 540.00 0.0018519 320.01 431.76 1.3862 1.8880 2.5064 1119.8 -0.0047956 136.45 0.12036 540.00 0.0018519 320.01 431.76 1.3862 1.8880 2.5064 1119.8 -0.0047956 136.45 0.12036
75.375 8853.4 undefined 321.90 434.94 1.3917 540.00 0.0018519 321.90 434.94 1.3917 1.8924 2.5089 1121.5 -0.0048009 136.45 0.12050 540.00 0.0018519 321.90 434.94 1.3917 1.8924 2.5089 1121.5 -0.0048009 136.45 0.12050
76.375 8954.8 undefined 323.80 438.13 1.3971 540.00 0.0018519 323.80 438.13 1.3971 1.8968 2.5114 1123.2 -0.0048060 136.45 0.12063 540.00 0.0018519 323.80 438.13 1.3971 1.8968 2.5114 1123.2 -0.0048060 136.45 0.12063
77.375 9056.1 undefined 325.70 441.33 1.4025 540.00 0.0018519 325.70 441.33 1.4025 1.9012 2.5139 1124.8 -0.0048110 136.45 0.12076 540.00 0.0018519 325.70 441.33 1.4025 1.9012 2.5139 1124.8 -0.0048110 136.45 0.12076
78.375 9157.4 undefined 327.60 444.52 1.4079 540.00 0.0018519 327.60 444.52 1.4079 1.9056 2.5165 1126.5 -0.0048158 136.45 0.12089 540.00 0.0018519 327.60 444.52 1.4079 1.9056 2.5165 1126.5 -0.0048158 136.45 0.12089
79.375 9258.6 undefined 329.51 447.72 1.4134 540.00 0.0018519 329.51 447.72 1.4134 1.9100 2.5190 1128.2 -0.0048205 136.44 0.12103 540.00 0.0018519 329.51 447.72 1.4134 1.9100 2.5190 1128.2 -0.0048205 136.44 0.12103
80.375 9359.6 undefined 331.42 450.92 1.4188 540.00 0.0018519 331.42 450.92 1.4188 1.9144 2.5216 1129.9 -0.0048250 136.44 0.12116 540.00 0.0018519 331.42 450.92 1.4188 1.9144 2.5216 1129.9 -0.0048250 136.44 0.12116
81.375 9460.7 undefined 333.34 454.13 1.4242 540.00 0.0018519 333.34 454.13 1.4242 1.9188 2.5242 1131.6 -0.0048294 136.44 0.12130 540.00 0.0018519 333.34 454.13 1.4242 1.9188 2.5242 1131.6 -0.0048294 136.44 0.12130
82.375 9561.6 undefined 335.26 457.34 1.4296 540.00 0.0018519 335.26 457.34 1.4296 1.9232 2.5268 1133.2 -0.0048336 136.44 0.12143 540.00 0.0018519 335.26 457.34 1.4296 1.9232 2.5268 1133.2 -0.0048336 136.44 0.12143
83.375 9662.4 undefined 337.18 460.55 1.4350 540.00 0.0018519 337.18 460.55 1.4350 1.9276 2.5294 1134.9 -0.0048377 136.44 0.12156 540.00 0.0018519 337.18 460.55 1.4350 1.9276 2.5294 1134.9 -0.0048377 136.44 0.12156
84.375 9763.2 undefined 339.11 463.77 1.4404 540.00 0.0018519 339.11 463.77 1.4404 1.9320 2.5321 1136.5 -0.0048417 136.44 0.12170 540.00 0.0018519 339.11 463.77 1.4404 1.9320 2.5321 1136.5 -0.0048417 136.44 0.12170
85.375 9863.9 undefined 341.05 466.99 1.4458 540.00 0.0018519 341.05 466.99 1.4458 1.9363 2.5347 1138.2 -0.0048455 136.44 0.12183 540.00 0.0018519 341.05 466.99 1.4458 1.9363 2.5347 1138.2 -0.0048455 136.44 0.12183
86.375 9964.5 undefined 342.98 470.21 1.4512 540.00 0.0018519 342.98 470.21 1.4512 1.9407 2.5374 1139.8 -0.0048492 136.44 0.12197 540.00 0.0018519 342.98 470.21 1.4512 1.9407 2.5374 1139.8 -0.0048492 136.44 0.12197
87.375 10065. undefined 344.93 473.44 1.4566 540.00 0.0018519 344.93 473.44 1.4566 1.9451 2.5401 1141.4 -0.0048528 136.44 0.12210 540.00 0.0018519 344.93 473.44 1.4566 1.9451 2.5401 1141.4 -0.0048528 136.44 0.12210
88.375 10166. undefined 346.87 476.67 1.4620 540.00 0.0018519 346.87 476.67 1.4620 1.9495 2.5428 1143.1 -0.0048563 136.44 0.12224 540.00 0.0018519 346.87 476.67 1.4620 1.9495 2.5428 1143.1 -0.0048563 136.44 0.12224
89.375 10266. undefined 348.83 479.90 1.4674 540.00 0.0018519 348.83 479.90 1.4674 1.9539 2.5455 1144.7 -0.0048596 136.44 0.12238 540.00 0.0018519 348.83 479.90 1.4674 1.9539 2.5455 1144.7 -0.0048596 136.44 0.12238
90.375 10366. undefined 350.78 483.14 1.4728 540.00 0.0018519 350.78 483.14 1.4728 1.9583 2.5482 1146.3 -0.0048629 136.44 0.12251 540.00 0.0018519 350.78 483.14 1.4728 1.9583 2.5482 1146.3 -0.0048629 136.44 0.12251
91.375 10466. undefined 352.74 486.38 1.4782 540.00 0.0018519 352.74 486.38 1.4782 1.9627 2.5509 1147.9 -0.0048660 136.44 0.12265 540.00 0.0018519 352.74 486.38 1.4782 1.9627 2.5509 1147.9 -0.0048660 136.44 0.12265
92.375 10567. undefined 354.71 489.62 1.4836 540.00 0.0018519 354.71 489.62 1.4836 1.9670 2.5537 1149.5 -0.0048689 136.44 0.12279 540.00 0.0018519 354.71 489.62 1.4836 1.9670 2.5537 1149.5 -0.0048689 136.44 0.12279
93.375 10667. undefined 356.68 492.87 1.4889 540.00 0.0018519 356.68 492.87 1.4889 1.9714 2.5565 1151.1 -0.0048718 136.44 0.12293 540.00 0.0018519 356.68 492.87 1.4889 1.9714 2.5565 1151.1 -0.0048718 136.44 0.12293
94.375 10767. undefined 358.65 496.12 1.4943 540.00 0.0018519 358.65 496.12 1.4943 1.9758 2.5592 1152.7 -0.0048746 136.44 0.12306 540.00 0.0018519 358.65 496.12 1.4943 1.9758 2.5592 1152.7 -0.0048746 136.44 0.12306
95.375 10867. undefined 360.63 499.37 1.4997 540.00 0.0018519 360.63 499.37 1.4997 1.9802 2.5620 1154.3 -0.0048772 136.44 0.12320 540.00 0.0018519 360.63 499.37 1.4997 1.9802 2.5620 1154.3 -0.0048772 136.44 0.12320
96.375 10966. undefined 362.61 502.63 1.5051 540.00 0.0018519 362.61 502.63 1.5051 1.9846 2.5648 1155.9 -0.0048798 136.44 0.12334 540.00 0.0018519 362.61 502.63 1.5051 1.9846 2.5648 1155.9 -0.0048798 136.44 0.12334
97.375 11066. undefined 364.60 505.89 1.5104 540.00 0.0018519 364.60 505.89 1.5104 1.9889 2.5676 1157.5 -0.0048822 136.44 0.12348 540.00 0.0018519 364.60 505.89 1.5104 1.9889 2.5676 1157.5 -0.0048822 136.44 0.12348
98.375 11166. undefined 366.59 509.15 1.5158 540.00 0.0018519 366.59 509.15 1.5158 1.9933 2.5705 1159.1 -0.0048846 136.45 0.12362 540.00 0.0018519 366.59 509.15 1.5158 1.9933 2.5705 1159.1 -0.0048846 136.45 0.12362
99.375 11265. undefined 368.58 512.42 1.5212 540.00 0.0018519 368.58 512.42 1.5212 1.9977 2.5733 1160.6 -0.0048868 136.45 0.12376 540.00 0.0018519 368.58 512.42 1.5212 1.9977 2.5733 1160.6 -0.0048868 136.45 0.12376
100.38 11365. undefined 370.58 515.69 1.5265 540.00 0.0018519 370.58 515.69 1.5265 2.0020 2.5762 1162.2 -0.0048890 136.45 0.12390 540.00 0.0018519 370.58 515.69 1.5265 2.0020 2.5762 1162.2 -0.0048890 136.45 0.12390
101.38 11464. undefined 372.59 518.97 1.5319 540.00 0.0018519 372.59 518.97 1.5319 2.0064 2.5790 1163.8 -0.0048910 136.45 0.12404 540.00 0.0018519 372.59 518.97 1.5319 2.0064 2.5790 1163.8 -0.0048910 136.45 0.12404
102.38 11564. undefined 374.60 522.24 1.5372 540.00 0.0018519 374.60 522.24 1.5372 2.0108 2.5819 1165.3 -0.0048930 136.45 0.12418 540.00 0.0018519 374.60 522.24 1.5372 2.0108 2.5819 1165.3 -0.0048930 136.45 0.12418
103.38 11663. undefined 376.61 525.52 1.5426 540.00 0.0018519 376.61 525.52 1.5426 2.0151 2.5848 1166.9 -0.0048948 136.45 0.12432 540.00 0.0018519 376.61 525.52 1.5426 2.0151 2.5848 1166.9 -0.0048948 136.45 0.12432
104.38 11762. undefined 378.63 528.81 1.5479 540.00 0.0018519 378.63 528.81 1.5479 2.0195 2.5877 1168.4 -0.0048966 136.46 0.12446 540.00 0.0018519 378.63 528.81 1.5479 2.0195 2.5877 1168.4 -0.0048966 136.46 0.12446
105.38 11861. undefined 380.65 532.10 1.5533 540.00 0.0018519 380.65 532.10 1.5533 2.0239 2.5906 1170.0 -0.0048983 136.46 0.12460 540.00 0.0018519 380.65 532.10 1.5533 2.0239 2.5906 1170.0 -0.0048983 136.46 0.12460
106.38 11960. undefined 382.68 535.39 1.5586 540.00 0.0018519 382.68 535.39 1.5586 2.0282 2.5935 1171.5 -0.0048999 136.46 0.12474 540.00 0.0018519 382.68 535.39 1.5586 2.0282 2.5935 1171.5 -0.0048999 136.46 0.12474
107.38 12059. undefined 384.71 538.68 1.5640 540.00 0.0018519 384.71 538.68 1.5640 2.0326 2.5964 1173.1 -0.0049014 136.46 0.12488 540.00 0.0018519 384.71 538.68 1.5640 2.0326 2.5964 1173.1 -0.0049014 136.46 0.12488
108.38 12158. undefined 386.74 541.98 1.5693 540.00 0.0018519 386.74 541.98 1.5693 2.0369 2.5993 1174.6 -0.0049028 136.47 0.12502 540.00 0.0018519 386.74 541.98 1.5693 2.0369 2.5993 1174.6 -0.0049028 136.47 0.12502
109.38 12257. undefined 388.78 545.28 1.5747 540.00 0.0018519 388.78 545.28 1.5747 2.0413 2.6023 1176.1 -0.0049041 136.47 0.12516 540.00 0.0018519 388.78 545.28 1.5747 2.0413 2.6023 1176.1 -0.0049041 136.47 0.12516
110.38 12356. undefined 390.82 548.58 1.5800 540.00 0.0018519 390.82 548.58 1.5800 2.0456 2.6052 1177.6 -0.0049054 136.47 0.12531 540.00 0.0018519 390.82 548.58 1.5800 2.0456 2.6052 1177.6 -0.0049054 136.47 0.12531
111.38 12455. undefined 392.87 551.89 1.5853 540.00 0.0018519 392.87 551.89 1.5853 2.0500 2.6082 1179.2 -0.0049065 136.48 0.12545 540.00 0.0018519 392.87 551.89 1.5853 2.0500 2.6082 1179.2 -0.0049065 136.48 0.12545
112.38 12553. undefined 394.92 555.20 1.5907 540.00 0.0018519 394.92 555.20 1.5907 2.0543 2.6111 1180.7 -0.0049076 136.48 0.12559 540.00 0.0018519 394.92 555.20 1.5907 2.0543 2.6111 1180.7 -0.0049076 136.48 0.12559
113.38 12652. undefined 396.98 558.52 1.5960 540.00 0.0018519 396.98 558.52 1.5960 2.0586 2.6141 1182.2 -0.0049086 136.48 0.12574 540.00 0.0018519 396.98 558.52 1.5960 2.0586 2.6141 1182.2 -0.0049086 136.48 0.12574
114.38 12750. undefined 399.04 561.84 1.6013 540.00 0.0018519 399.04 561.84 1.6013 2.0630 2.6171 1183.7 -0.0049096 136.49 0.12588 540.00 0.0018519 399.04 561.84 1.6013 2.0630 2.6171 1183.7 -0.0049096 136.49 0.12588
115.38 12849. undefined 401.11 565.16 1.6066 540.00 0.0018519 401.11 565.16 1.6066 2.0673 2.6201 1185.2 -0.0049104 136.49 0.12602 540.00 0.0018519 401.11 565.16 1.6066 2.0673 2.6201 1185.2 -0.0049104 136.49 0.12602
116.38 12947. undefined 403.17 568.48 1.6119 540.00 0.0018519 403.17 568.48 1.6119 2.0716 2.6231 1186.7 -0.0049112 136.49 0.12617 540.00 0.0018519 403.17 568.48 1.6119 2.0716 2.6231 1186.7 -0.0049112 136.49 0.12617
117.38 13045. undefined 405.25 571.81 1.6173 540.00 0.0018519 405.25 571.81 1.6173 2.0760 2.6261 1188.2 -0.0049119 136.50 0.12631 540.00 0.0018519 405.25 571.81 1.6173 2.0760 2.6261 1188.2 -0.0049119 136.50 0.12631
118.38 13143. undefined 407.33 575.14 1.6226 540.00 0.0018519 407.33 575.14 1.6226 2.0803 2.6291 1189.7 -0.0049126 136.50 0.12646 540.00 0.0018519 407.33 575.14 1.6226 2.0803 2.6291 1189.7 -0.0049126 136.50 0.12646
119.38 13241. undefined 409.41 578.48 1.6279 540.00 0.0018519 409.41 578.48 1.6279 2.0846 2.6321 1191.1 -0.0049131 136.50 0.12660 540.00 0.0018519 409.41 578.48 1.6279 2.0846 2.6321 1191.1 -0.0049131 136.50 0.12660
120.38 13339. undefined 411.50 581.81 1.6332 540.00 0.0018519 411.50 581.81 1.6332 2.0889 2.6351 1192.6 -0.0049137 136.51 0.12675 540.00 0.0018519 411.50 581.81 1.6332 2.0889 2.6351 1192.6 -0.0049137 136.51 0.12675
121.38 13437. undefined 413.59 585.16 1.6385 540.00 0.0018519 413.59 585.16 1.6385 2.0932 2.6381 1194.1 -0.0049141 136.51 0.12689 540.00 0.0018519 413.59 585.16 1.6385 2.0932 2.6381 1194.1 -0.0049141 136.51 0.12689
122.38 13535. undefined 415.68 588.50 1.6438 540.00 0.0018519 415.68 588.50 1.6438 2.0976 2.6412 1195.6 -0.0049145 136.52 0.12704 540.00 0.0018519 415.68 588.50 1.6438 2.0976 2.6412 1195.6 -0.0049145 136.52 0.12704
123.38 13633. undefined 417.78 591.85 1.6491 540.00 0.0018519 417.78 591.85 1.6491 2.1019 2.6442 1197.0 -0.0049148 136.52 0.12718 540.00 0.0018519 417.78 591.85 1.6491 2.1019 2.6442 1197.0 -0.0049148 136.52 0.12718
124.38 13731. undefined 419.89 595.20 1.6544 540.00 0.0018519 419.89 595.20 1.6544 2.1062 2.6473 1198.5 -0.0049150 136.53 0.12733 540.00 0.0018519 419.89 595.20 1.6544 2.1062 2.6473 1198.5 -0.0049150 136.53 0.12733
125.38 13828. undefined 421.99 598.56 1.6597 540.00 0.0018519 421.99 598.56 1.6597 2.1105 2.6503 1200.0 -0.0049152 136.53 0.12748 540.00 0.0018519 421.99 598.56 1.6597 2.1105 2.6503 1200.0 -0.0049152 136.53 0.12748
126.38 13926. undefined 424.11 601.91 1.6650 540.00 0.0018519 424.11 601.91 1.6650 2.1148 2.6534 1201.4 -0.0049154 136.54 0.12762 540.00 0.0018519 424.11 601.91 1.6650 2.1148 2.6534 1201.4 -0.0049154 136.54 0.12762
127.38 14023. undefined 426.22 605.28 1.6703 540.00 0.0018519 426.22 605.28 1.6703 2.1191 2.6565 1202.9 -0.0049154 136.54 0.12777 540.00 0.0018519 426.22 605.28 1.6703 2.1191 2.6565 1202.9 -0.0049154 136.54 0.12777
128.38 14121. undefined 428.35 608.64 1.6756 540.00 0.0018519 428.35 608.64 1.6756 2.1234 2.6595 1204.3 -0.0049154 136.55 0.12792 540.00 0.0018519 428.35 608.64 1.6756 2.1234 2.6595 1204.3 -0.0049154 136.55 0.12792
129.38 14218. undefined 430.47 612.01 1.6809 540.00 0.0018519 430.47 612.01 1.6809 2.1276 2.6626 1205.8 -0.0049154 136.55 0.12807 540.00 0.0018519 430.47 612.01 1.6809 2.1276 2.6626 1205.8 -0.0049154 136.55 0.12807
130.38 14315. undefined 432.60 615.38 1.6862 540.00 0.0018519 432.60 615.38 1.6862 2.1319 2.6657 1207.2 -0.0049153 136.56 0.12822 540.00 0.0018519 432.60 615.38 1.6862 2.1319 2.6657 1207.2 -0.0049153 136.56 0.12822
131.38 14413. undefined 434.73 618.76 1.6914 540.00 0.0018519 434.73 618.76 1.6914 2.1362 2.6688 1208.6 -0.0049151 136.56 0.12836 540.00 0.0018519 434.73 618.76 1.6914 2.1362 2.6688 1208.6 -0.0049151 136.56 0.12836
132.38 14510. undefined 436.87 622.14 1.6967 540.00 0.0018519 436.87 622.14 1.6967 2.1405 2.6719 1210.1 -0.0049149 136.57 0.12851 540.00 0.0018519 436.87 622.14 1.6967 2.1405 2.6719 1210.1 -0.0049149 136.57 0.12851
133.38 14607. undefined 439.02 625.52 1.7020 540.00 0.0018519 439.02 625.52 1.7020 2.1447 2.6750 1211.5 -0.0049146 136.57 0.12866 540.00 0.0018519 439.02 625.52 1.7020 2.1447 2.6750 1211.5 -0.0049146 136.57 0.12866
134.38 14704. undefined 441.16 628.90 1.7073 540.00 0.0018519 441.16 628.90 1.7073 2.1490 2.6781 1212.9 -0.0049143 136.58 0.12881 540.00 0.0018519 441.16 628.90 1.7073 2.1490 2.6781 1212.9 -0.0049143 136.58 0.12881
135.38 14801. undefined 443.31 632.29 1.7125 540.00 0.0018519 443.31 632.29 1.7125 2.1533 2.6812 1214.3 -0.0049140 136.58 0.12896 540.00 0.0018519 443.31 632.29 1.7125 2.1533 2.6812 1214.3 -0.0049140 136.58 0.12896
136.38 14898. undefined 445.47 635.68 1.7178 540.00 0.0018519 445.47 635.68 1.7178 2.1575 2.6843 1215.8 -0.0049135 136.59 0.12911 540.00 0.0018519 445.47 635.68 1.7178 2.1575 2.6843 1215.8 -0.0049135 136.59 0.12911
137.38 14994. undefined 447.63 639.08 1.7231 540.00 0.0018519 447.63 639.08 1.7231 2.1618 2.6874 1217.2 -0.0049131 136.59 0.12926 540.00 0.0018519 447.63 639.08 1.7231 2.1618 2.6874 1217.2 -0.0049131 136.59 0.12926
138.38 15091. undefined 449.79 642.48 1.7283 540.00 0.0018519 449.79 642.48 1.7283 2.1661 2.6905 1218.6 -0.0049125 136.60 0.12941 540.00 0.0018519 449.79 642.48 1.7283 2.1661 2.6905 1218.6 -0.0049125 136.60 0.12941
139.38 15188. undefined 451.96 645.88 1.7336 540.00 0.0018519 451.96 645.88 1.7336 2.1703 2.6936 1220.0 -0.0049120 136.61 0.12956 540.00 0.0018519 451.96 645.88 1.7336 2.1703 2.6936 1220.0 -0.0049120 136.61 0.12956
140.38 15284. undefined 454.13 649.29 1.7389 540.00 0.0018519 454.13 649.29 1.7389 2.1745 2.6968 1221.4 -0.0049114 136.61 0.12972 540.00 0.0018519 454.13 649.29 1.7389 2.1745 2.6968 1221.4 -0.0049114 136.61 0.12972
141.38 15381. undefined 456.31 652.69 1.7441 540.00 0.0018519 456.31 652.69 1.7441 2.1788 2.6999 1222.8 -0.0049107 136.62 0.12987 540.00 0.0018519 456.31 652.69 1.7441 2.1788 2.6999 1222.8 -0.0049107 136.62 0.12987
142.38 15477. undefined 458.49 656.11 1.7494 540.00 0.0018519 458.49 656.11 1.7494 2.1830 2.7030 1224.2 -0.0049100 136.63 0.13002 540.00 0.0018519 458.49 656.11 1.7494 2.1830 2.7030 1224.2 -0.0049100 136.63 0.13002
143.38 15574. undefined 460.68 659.52 1.7546 540.00 0.0018519 460.68 659.52 1.7546 2.1873 2.7062 1225.6 -0.0049093 136.63 0.13017 540.00 0.0018519 460.68 659.52 1.7546 2.1873 2.7062 1225.6 -0.0049093 136.63 0.13017
144.38 15670. undefined 462.87 662.94 1.7599 540.00 0.0018519 462.87 662.94 1.7599 2.1915 2.7093 1227.0 -0.0049085 136.64 0.13032 540.00 0.0018519 462.87 662.94 1.7599 2.1915 2.7093 1227.0 -0.0049085 136.64 0.13032
145.38 15766. undefined 465.06 666.36 1.7651 540.00 0.0018519 465.06 666.36 1.7651 2.1957 2.7124 1228.4 -0.0049077 136.64 0.13048 540.00 0.0018519 465.06 666.36 1.7651 2.1957 2.7124 1228.4 -0.0049077 136.64 0.13048
146.38 15862. undefined 467.26 669.79 1.7704 540.00 0.0018519 467.26 669.79 1.7704 2.1999 2.7156 1229.7 -0.0049068 136.65 0.13063 540.00 0.0018519 467.26 669.79 1.7704 2.1999 2.7156 1229.7 -0.0049068 136.65 0.13063
147.38 15958. undefined 469.46 673.22 1.7756 540.00 0.0018519 469.46 673.22 1.7756 2.2042 2.7187 1231.1 -0.0049059 136.66 0.13078 540.00 0.0018519 469.46 673.22 1.7756 2.2042 2.7187 1231.1 -0.0049059 136.66 0.13078
148.38 16054. undefined 471.67 676.65 1.7809 540.00 0.0018519 471.67 676.65 1.7809 2.2084 2.7219 1232.5 -0.0049049 136.67 0.13094 540.00 0.0018519 471.67 676.65 1.7809 2.2084 2.7219 1232.5 -0.0049049 136.67 0.13094
149.38 16150. undefined 473.88 680.08 1.7861 540.00 0.0018519 473.88 680.08 1.7861 2.2126 2.7251 1233.9 -0.0049039 136.67 0.13109 540.00 0.0018519 473.88 680.08 1.7861 2.2126 2.7251 1233.9 -0.0049039 136.67 0.13109
150.38 16246. undefined 476.09 683.52 1.7913 540.00 0.0018519 476.09 683.52 1.7913 2.2168 2.7282 1235.2 -0.0049029 136.68 0.13124 540.00 0.0018519 476.09 683.52 1.7913 2.2168 2.7282 1235.2 -0.0049029 136.68 0.13124
151.38 16342. undefined 478.31 686.96 1.7966 540.00 0.0018519 478.31 686.96 1.7966 2.2210 2.7314 1236.6 -0.0049018 136.69 0.13140 540.00 0.0018519 478.31 686.96 1.7966 2.2210 2.7314 1236.6 -0.0049018 136.69 0.13140
152.38 16438. undefined 480.53 690.41 1.8018 540.00 0.0018519 480.53 690.41 1.8018 2.2252 2.7345 1238.0 -0.0049007 136.69 0.13155 540.00 0.0018519 480.53 690.41 1.8018 2.2252 2.7345 1238.0 -0.0049007 136.69 0.13155
153.38 16533. undefined 482.76 693.86 1.8070 540.00 0.0018519 482.76 693.86 1.8070 2.2294 2.7377 1239.3 -0.0048996 136.70 0.13171 540.00 0.0018519 482.76 693.86 1.8070 2.2294 2.7377 1239.3 -0.0048996 136.70 0.13171
154.38 16629. undefined 484.99 697.31 1.8122 540.00 0.0018519 484.99 697.31 1.8122 2.2335 2.7409 1240.7 -0.0048984 136.71 0.13186 540.00 0.0018519 484.99 697.31 1.8122 2.2335 2.7409 1240.7 -0.0048984 136.71 0.13186
155.38 16724. undefined 487.23 700.77 1.8175 540.00 0.0018519 487.23 700.77 1.8175 2.2377 2.7440 1242.0 -0.0048972 136.72 0.13202 540.00 0.0018519 487.23 700.77 1.8175 2.2377 2.7440 1242.0 -0.0048972 136.72 0.13202
156.38 16820. undefined 489.47 704.22 1.8227 540.00 0.0018519 489.47 704.22 1.8227 2.2419 2.7472 1243.4 -0.0048960 136.72 0.13217 540.00 0.0018519 489.47 704.22 1.8227 2.2419 2.7472 1243.4 -0.0048960 136.72 0.13217
157.38 16915. undefined 491.71 707.69 1.8279 540.00 0.0018519 491.71 707.69 1.8279 2.2461 2.7504 1244.7 -0.0048947 136.73 0.13233 540.00 0.0018519 491.71 707.69 1.8279 2.2461 2.7504 1244.7 -0.0048947 136.73 0.13233
158.38 17011. undefined 493.96 711.15 1.8331 540.00 0.0018519 493.96 711.15 1.8331 2.2502 2.7536 1246.1 -0.0048934 136.74 0.13249 540.00 0.0018519 493.96 711.15 1.8331 2.2502 2.7536 1246.1 -0.0048934 136.74 0.13249
159.38 17106. undefined 496.21 714.62 1.8383 540.00 0.0018519 496.21 714.62 1.8383 2.2544 2.7567 1247.4 -0.0048921 136.75 0.13264 540.00 0.0018519 496.21 714.62 1.8383 2.2544 2.7567 1247.4 -0.0048921 136.75 0.13264
160.38 17201. undefined 498.47 718.09 1.8435 540.00 0.0018519 498.47 718.09 1.8435 2.2586 2.7599 1248.8 -0.0048907 136.75 0.13280 540.00 0.0018519 498.47 718.09 1.8435 2.2586 2.7599 1248.8 -0.0048907 136.75 0.13280
161.38 17296. undefined 500.73 721.57 1.8488 540.00 0.0018519 500.73 721.57 1.8488 2.2627 2.7631 1250.1 -0.0048893 136.76 0.13296 540.00 0.0018519 500.73 721.57 1.8488 2.2627 2.7631 1250.1 -0.0048893 136.76 0.13296
162.38 17391. undefined 502.99 725.04 1.8540 540.00 0.0018519 502.99 725.04 1.8540 2.2669 2.7663 1251.4 -0.0048879 136.77 0.13312 540.00 0.0018519 502.99 725.04 1.8540 2.2669 2.7663 1251.4 -0.0048879 136.77 0.13312
163.38 17486. undefined 505.26 728.53 1.8592 540.00 0.0018519 505.26 728.53 1.8592 2.2710 2.7695 1252.8 -0.0048864 136.78 0.13327 540.00 0.0018519 505.26 728.53 1.8592 2.2710 2.7695 1252.8 -0.0048864 136.78 0.13327
164.38 17581. undefined 507.53 732.01 1.8644 540.00 0.0018519 507.53 732.01 1.8644 2.2752 2.7726 1254.1 -0.0048849 136.79 0.13343 540.00 0.0018519 507.53 732.01 1.8644 2.2752 2.7726 1254.1 -0.0048849 136.79 0.13343
165.38 17676. undefined 509.81 735.50 1.8696 540.00 0.0018519 509.81 735.50 1.8696 2.2793 2.7758 1255.4 -0.0048834 136.79 0.13359 540.00 0.0018519 509.81 735.50 1.8696 2.2793 2.7758 1255.4 -0.0048834 136.79 0.13359
166.38 17771. undefined 512.09 738.99 1.8748 540.00 0.0018519 512.09 738.99 1.8748 2.2834 2.7790 1256.7 -0.0048819 136.80 0.13375 540.00 0.0018519 512.09 738.99 1.8748 2.2834 2.7790 1256.7 -0.0048819 136.80 0.13375
167.38 17865. undefined 514.38 742.49 1.8800 540.00 0.0018519 514.38 742.49 1.8800 2.2876 2.7822 1258.0 -0.0048803 136.81 0.13391 540.00 0.0018519 514.38 742.49 1.8800 2.2876 2.7822 1258.0 -0.0048803 136.81 0.13391
168.38 17960. undefined 516.67 745.98 1.8852 540.00 0.0018519 516.67 745.98 1.8852 2.2917 2.7854 1259.4 -0.0048787 136.82 0.13407 540.00 0.0018519 516.67 745.98 1.8852 2.2917 2.7854 1259.4 -0.0048787 136.82 0.13407
169.38 18055. undefined 518.96 749.48 1.8903 540.00 0.0018519 518.96 749.48 1.8903 2.2958 2.7886 1260.7 -0.0048771 136.83 0.13423 540.00 0.0018519 518.96 749.48 1.8903 2.2958 2.7886 1260.7 -0.0048771 136.83 0.13423
170.38 18149. undefined 521.26 752.99 1.8955 540.00 0.0018519 521.26 752.99 1.8955 2.2999 2.7918 1262.0 -0.0048754 136.84 0.13439 540.00 0.0018519 521.26 752.99 1.8955 2.2999 2.7918 1262.0 -0.0048754 136.84 0.13439
171.38 18244. undefined 523.56 756.50 1.9007 540.00 0.0018519 523.56 756.50 1.9007 2.3040 2.7950 1263.3 -0.0048737 136.84 0.13455 540.00 0.0018519 523.56 756.50 1.9007 2.3040 2.7950 1263.3 -0.0048737 136.84 0.13455
172.38 18338. undefined 525.87 760.01 1.9059 540.00 0.0018519 525.87 760.01 1.9059 2.3081 2.7982 1264.6 -0.0048720 136.85 0.13471 540.00 0.0018519 525.87 760.01 1.9059 2.3081 2.7982 1264.6 -0.0048720 136.85 0.13471
173.38 18432. undefined 528.18 763.52 1.9111 540.00 0.0018519 528.18 763.52 1.9111 2.3122 2.8013 1265.9 -0.0048703 136.86 0.13487 540.00 0.0018519 528.18 763.52 1.9111 2.3122 2.8013 1265.9 -0.0048703 136.86 0.13487
174.38 18526. undefined 530.49 767.04 1.9162 540.00 0.0018519 530.49 767.04 1.9162 2.3163 2.8045 1267.2 -0.0048686 136.87 0.13503 540.00 0.0018519 530.49 767.04 1.9162 2.3163 2.8045 1267.2 -0.0048686 136.87 0.13503
175.38 18621. undefined 532.81 770.56 1.9214 540.00 0.0018519 532.81 770.56 1.9214 2.3204 2.8077 1268.5 -0.0048668 136.88 0.13519 540.00 0.0018519 532.81 770.56 1.9214 2.3204 2.8077 1268.5 -0.0048668 136.88 0.13519
176.38 18715. undefined 535.13 774.08 1.9266 540.00 0.0018519 535.13 774.08 1.9266 2.3245 2.8109 1269.8 -0.0048650 136.89 0.13535 540.00 0.0018519 535.13 774.08 1.9266 2.3245 2.8109 1269.8 -0.0048650 136.89 0.13535
177.38 18809. undefined 537.46 777.61 1.9318 540.00 0.0018519 537.46 777.61 1.9318 2.3286 2.8141 1271.1 -0.0048632 136.90 0.13551 540.00 0.0018519 537.46 777.61 1.9318 2.3286 2.8141 1271.1 -0.0048632 136.90 0.13551
178.38 18903. undefined 539.79 781.14 1.9369 540.00 0.0018519 539.79 781.14 1.9369 2.3326 2.8173 1272.3 -0.0048613 136.91 0.13568 540.00 0.0018519 539.79 781.14 1.9369 2.3326 2.8173 1272.3 -0.0048613 136.91 0.13568
179.38 18997. undefined 542.13 784.68 1.9421 540.00 0.0018519 542.13 784.68 1.9421 2.3367 2.8205 1273.6 -0.0048595 136.92 0.13584 540.00 0.0018519 542.13 784.68 1.9421 2.3367 2.8205 1273.6 -0.0048595 136.92 0.13584
180.38 19090. undefined 544.46 788.21 1.9473 540.00 0.0018519 544.46 788.21 1.9473 2.3408 2.8237 1274.9 -0.0048576 136.92 0.13600 540.00 0.0018519 544.46 788.21 1.9473 2.3408 2.8237 1274.9 -0.0048576 136.92 0.13600
181.38 19184. undefined 546.81 791.75 1.9524 540.00 0.0018519 546.81 791.75 1.9524 2.3448 2.8269 1276.2 -0.0048557 136.93 0.13617 540.00 0.0018519 546.81 791.75 1.9524 2.3448 2.8269 1276.2 -0.0048557 136.93 0.13617
182.38 19278. undefined 549.15 795.30 1.9576 540.00 0.0018519 549.15 795.30 1.9576 2.3489 2.8301 1277.5 -0.0048538 136.94 0.13633 540.00 0.0018519 549.15 795.30 1.9576 2.3489 2.8301 1277.5 -0.0048538 136.94 0.13633
183.38 19372. undefined 551.50 798.84 1.9627 540.00 0.0018519 551.50 798.84 1.9627 2.3529 2.8333 1278.7 -0.0048518 136.95 0.13649 540.00 0.0018519 551.50 798.84 1.9627 2.3529 2.8333 1278.7 -0.0048518 136.95 0.13649
184.38 19465. undefined 553.86 802.39 1.9679 540.00 0.0018519 553.86 802.39 1.9679 2.3570 2.8365 1280.0 -0.0048499 136.96 0.13666 540.00 0.0018519 553.86 802.39 1.9679 2.3570 2.8365 1280.0 -0.0048499 136.96 0.13666
185.38 19559. undefined 556.22 805.95 1.9730 540.00 0.0018519 556.22 805.95 1.9730 2.3610 2.8397 1281.3 -0.0048479 136.97 0.13682 540.00 0.0018519 556.22 805.95 1.9730 2.3610 2.8397 1281.3 -0.0048479 136.97 0.13682
186.38 19652. undefined 558.58 809.50 1.9782 540.00 0.0018519 558.58 809.50 1.9782 2.3651 2.8429 1282.5 -0.0048459 136.98 0.13699 540.00 0.0018519 558.58 809.50 1.9782 2.3651 2.8429 1282.5 -0.0048459 136.98 0.13699
187.38 19746. undefined 560.95 813.06 1.9833 540.00 0.0018519 560.95 813.06 1.9833 2.3691 2.8461 1283.8 -0.0048439 136.99 0.13715 540.00 0.0018519 560.95 813.06 1.9833 2.3691 2.8461 1283.8 -0.0048439 136.99 0.13715
188.38 19839. undefined 563.32 816.62 1.9885 540.00 0.0018519 563.32 816.62 1.9885 2.3731 2.8493 1285.0 -0.0048419 137.00 0.13732 540.00 0.0018519 563.32 816.62 1.9885 2.3731 2.8493 1285.0 -0.0048419 137.00 0.13732
189.38 19932. undefined 565.69 820.19 1.9936 540.00 0.0018519 565.69 820.19 1.9936 2.3771 2.8525 1286.3 -0.0048398 137.01 0.13748 540.00 0.0018519 565.69 820.19 1.9936 2.3771 2.8525 1286.3 -0.0048398 137.01 0.13748
190.38 20025. undefined 568.07 823.76 1.9988 540.00 0.0018519 568.07 823.76 1.9988 2.3811 2.8557 1287.5 -0.0048378 137.02 0.13765 540.00 0.0018519 568.07 823.76 1.9988 2.3811 2.8557 1287.5 -0.0048378 137.02 0.13765
191.38 20119. undefined 570.46 827.33 2.0039 540.00 0.0018519 570.46 827.33 2.0039 2.3852 2.8588 1288.8 -0.0048357 137.03 0.13781 540.00 0.0018519 570.46 827.33 2.0039 2.3852 2.8588 1288.8 -0.0048357 137.03 0.13781
192.38 20212. undefined 572.84 830.91 2.0090 540.00 0.0018519 572.84 830.91 2.0090 2.3892 2.8620 1290.0 -0.0048336 137.04 0.13798 540.00 0.0018519 572.84 830.91 2.0090 2.3892 2.8620 1290.0 -0.0048336 137.04 0.13798
193.38 20305. undefined 575.24 834.49 2.0142 540.00 0.0018519 575.24 834.49 2.0142 2.3932 2.8652 1291.3 -0.0048315 137.05 0.13815 540.00 0.0018519 575.24 834.49 2.0142 2.3932 2.8652 1291.3 -0.0048315 137.05 0.13815
194.38 20398. undefined 577.63 838.07 2.0193 540.00 0.0018519 577.63 838.07 2.0193 2.3971 2.8684 1292.5 -0.0048293 137.06 0.13831 540.00 0.0018519 577.63 838.07 2.0193 2.3971 2.8684 1292.5 -0.0048293 137.06 0.13831
195.38 20490. undefined 580.03 841.65 2.0244 540.00 0.0018519 580.03 841.65 2.0244 2.4011 2.8716 1293.8 -0.0048272 137.07 0.13848 540.00 0.0018519 580.03 841.65 2.0244 2.4011 2.8716 1293.8 -0.0048272 137.07 0.13848
196.38 20583. undefined 582.43 845.24 2.0295 540.00 0.0018519 582.43 845.24 2.0295 2.4051 2.8748 1295.0 -0.0048250 137.08 0.13865 540.00 0.0018519 582.43 845.24 2.0295 2.4051 2.8748 1295.0 -0.0048250 137.08 0.13865
197.38 20676. undefined 584.84 848.83 2.0347 540.00 0.0018519 584.84 848.83 2.0347 2.4091 2.8780 1296.3 -0.0048229 137.09 0.13882 540.00 0.0018519 584.84 848.83 2.0347 2.4091 2.8780 1296.3 -0.0048229 137.09 0.13882
198.38 20769. undefined 587.25 852.43 2.0398 540.00 0.0018519 587.25 852.43 2.0398 2.4131 2.8812 1297.5 -0.0048207 137.10 0.13898 540.00 0.0018519 587.25 852.43 2.0398 2.4131 2.8812 1297.5 -0.0048207 137.10 0.13898
199.38 20861. undefined 589.67 856.02 2.0449 540.00 0.0018519 589.67 856.02 2.0449 2.4170 2.8844 1298.7 -0.0048185 137.11 0.13915 540.00 0.0018519 589.67 856.02 2.0449 2.4170 2.8844 1298.7 -0.0048185 137.11 0.13915
200.38 20954. undefined 592.09 859.63 2.0500 540.00 0.0018519 592.09 859.63 2.0500 2.4210 2.8876 1299.9 -0.0048163 137.12 0.13932 540.00 0.0018519 592.09 859.63 2.0500 2.4210 2.8876 1299.9 -0.0048163 137.12 0.13932
201.38 21046. undefined 594.51 863.23 2.0551 540.00 0.0018519 594.51 863.23 2.0551 2.4250 2.8907 1301.2 -0.0048140 137.13 0.13949 540.00 0.0018519 594.51 863.23 2.0551 2.4250 2.8907 1301.2 -0.0048140 137.13 0.13949
202.38 21139. undefined 596.93 866.84 2.0602 540.00 0.0018519 596.93 866.84 2.0602 2.4289 2.8939 1302.4 -0.0048118 137.14 0.13966 540.00 0.0018519 596.93 866.84 2.0602 2.4289 2.8939 1302.4 -0.0048118 137.14 0.13966
203.38 21231. undefined 599.37 870.45 2.0653 540.00 0.0018519 599.37 870.45 2.0653 2.4329 2.8971 1303.6 -0.0048096 137.15 0.13983 540.00 0.0018519 599.37 870.45 2.0653 2.4329 2.8971 1303.6 -0.0048096 137.15 0.13983
204.38 21324. undefined 601.80 874.06 2.0704 540.00 0.0018519 601.80 874.06 2.0704 2.4368 2.9003 1304.8 -0.0048073 137.16 0.14000 540.00 0.0018519 601.80 874.06 2.0704 2.4368 2.9003 1304.8 -0.0048073 137.16 0.14000
205.38 21416. undefined 604.24 877.68 2.0755 540.00 0.0018519 604.24 877.68 2.0755 2.4407 2.9035 1306.0 -0.0048050 137.17 0.14017 540.00 0.0018519 604.24 877.68 2.0755 2.4407 2.9035 1306.0 -0.0048050 137.17 0.14017
206.38 21508. undefined 606.68 881.30 2.0806 540.00 0.0018519 606.68 881.30 2.0806 2.4447 2.9067 1307.3 -0.0048027 137.18 0.14034 540.00 0.0018519 606.68 881.30 2.0806 2.4447 2.9067 1307.3 -0.0048027 137.18 0.14034
207.38 21600. undefined 609.13 884.92 2.0857 540.00 0.0018519 609.13 884.92 2.0857 2.4486 2.9098 1308.5 -0.0048004 137.19 0.14051 540.00 0.0018519 609.13 884.92 2.0857 2.4486 2.9098 1308.5 -0.0048004 137.19 0.14051
208.38 21692. undefined 611.58 888.55 2.0908 540.00 0.0018519 611.58 888.55 2.0908 2.4525 2.9130 1309.7 -0.0047981 137.20 0.14068 540.00 0.0018519 611.58 888.55 2.0908 2.4525 2.9130 1309.7 -0.0047981 137.20 0.14068
209.38 21784. undefined 614.03 892.18 2.0959 540.00 0.0018519 614.03 892.18 2.0959 2.4564 2.9162 1310.9 -0.0047958 137.22 0.14085 540.00 0.0018519 614.03 892.18 2.0959 2.4564 2.9162 1310.9 -0.0047958 137.22 0.14085
210.38 21876. undefined 616.49 895.81 2.1010 540.00 0.0018519 616.49 895.81 2.1010 2.4604 2.9194 1312.1 -0.0047935 137.23 0.14103 540.00 0.0018519 616.49 895.81 2.1010 2.4604 2.9194 1312.1 -0.0047935 137.23 0.14103
211.38 21968. undefined 618.95 899.44 2.1061 540.00 0.0018519 618.95 899.44 2.1061 2.4643 2.9225 1313.3 -0.0047911 137.24 0.14120 540.00 0.0018519 618.95 899.44 2.1061 2.4643 2.9225 1313.3 -0.0047911 137.24 0.14120
212.38 22060. undefined 621.42 903.08 2.1112 540.00 0.0018519 621.42 903.08 2.1112 2.4682 2.9257 1314.5 -0.0047888 137.25 0.14137 540.00 0.0018519 621.42 903.08 2.1112 2.4682 2.9257 1314.5 -0.0047888 137.25 0.14137
213.38 22152. undefined 623.89 906.72 2.1163 540.00 0.0018519 623.89 906.72 2.1163 2.4721 2.9289 1315.7 -0.0047864 137.26 0.14154 540.00 0.0018519 623.89 906.72 2.1163 2.4721 2.9289 1315.7 -0.0047864 137.26 0.14154
214.38 22243. undefined 626.36 910.37 2.1213 540.00 0.0018519 626.36 910.37 2.1213 2.4760 2.9320 1316.9 -0.0047840 137.27 0.14172 540.00 0.0018519 626.36 910.37 2.1213 2.4760 2.9320 1316.9 -0.0047840 137.27 0.14172
215.38 22335. undefined 628.84 914.02 2.1264 540.00 0.0018519 628.84 914.02 2.1264 2.4798 2.9352 1318.1 -0.0047817 137.28 0.14189 540.00 0.0018519 628.84 914.02 2.1264 2.4798 2.9352 1318.1 -0.0047817 137.28 0.14189
216.38 22427. undefined 631.32 917.67 2.1315 540.00 0.0018519 631.32 917.67 2.1315 2.4837 2.9384 1319.3 -0.0047793 137.29 0.14206 540.00 0.0018519 631.32 917.67 2.1315 2.4837 2.9384 1319.3 -0.0047793 137.29 0.14206
217.38 22518. undefined 633.81 921.32 2.1366 540.00 0.0018519 633.81 921.32 2.1366 2.4876 2.9415 1320.5 -0.0047769 137.30 0.14224 540.00 0.0018519 633.81 921.32 2.1366 2.4876 2.9415 1320.5 -0.0047769 137.30 0.14224
218.38 22610. undefined 636.30 924.98 2.1416 540.00 0.0018519 636.30 924.98 2.1416 2.4915 2.9447 1321.6 -0.0047745 137.31 0.14241 540.00 0.0018519 636.30 924.98 2.1416 2.4915 2.9447 1321.6 -0.0047745 137.31 0.14241
219.38 22701. undefined 638.79 928.64 2.1467 540.00 0.0018519 638.79 928.64 2.1467 2.4953 2.9479 1322.8 -0.0047721 137.33 0.14258 540.00 0.0018519 638.79 928.64 2.1467 2.4953 2.9479 1322.8 -0.0047721 137.33 0.14258
220.38 22792. undefined 641.29 932.30 2.1518 540.00 0.0018519 641.29 932.30 2.1518 2.4992 2.9510 1324.0 -0.0047696 137.34 0.14276 540.00 0.0018519 641.29 932.30 2.1518 2.4992 2.9510 1324.0 -0.0047696 137.34 0.14276
221.38 22884. undefined 643.79 935.97 2.1568 540.00 0.0018519 643.79 935.97 2.1568 2.5030 2.9542 1325.2 -0.0047672 137.35 0.14293 540.00 0.0018519 643.79 935.97 2.1568 2.5030 2.9542 1325.2 -0.0047672 137.35 0.14293
222.38 22975. undefined 646.30 939.64 2.1619 540.00 0.0018519 646.30 939.64 2.1619 2.5069 2.9573 1326.4 -0.0047648 137.36 0.14311 540.00 0.0018519 646.30 939.64 2.1619 2.5069 2.9573 1326.4 -0.0047648 137.36 0.14311
223.38 23066. undefined 648.81 943.31 2.1669 540.00 0.0018519 648.81 943.31 2.1669 2.5107 2.9605 1327.5 -0.0047623 137.37 0.14328 540.00 0.0018519 648.81 943.31 2.1669 2.5107 2.9605 1327.5 -0.0047623 137.37 0.14328
224.38 23157. undefined 651.32 946.99 2.1720 540.00 0.0018519 651.32 946.99 2.1720 2.5146 2.9636 1328.7 -0.0047599 137.38 0.14346 540.00 0.0018519 651.32 946.99 2.1720 2.5146 2.9636 1328.7 -0.0047599 137.38 0.14346
225.38 23248. undefined 653.83 950.67 2.1771 540.00 0.0018519 653.83 950.67 2.1771 2.5184 2.9668 1329.9 -0.0047574 137.39 0.14364 540.00 0.0018519 653.83 950.67 2.1771 2.5184 2.9668 1329.9 -0.0047574 137.39 0.14364
226.38 23339. undefined 656.35 954.35 2.1821 540.00 0.0018519 656.35 954.35 2.1821 2.5222 2.9699 1331.0 -0.0047549 137.41 0.14381 540.00 0.0018519 656.35 954.35 2.1821 2.5222 2.9699 1331.0 -0.0047549 137.41 0.14381
227.38 23430. undefined 658.88 958.03 2.1872 540.00 0.0018519 658.88 958.03 2.1872 2.5261 2.9731 1332.2 -0.0047525 137.42 0.14399 540.00 0.0018519 658.88 958.03 2.1872 2.5261 2.9731 1332.2 -0.0047525 137.42 0.14399
228.38 23521. undefined 661.41 961.72 2.1922 540.00 0.0018519 661.41 961.72 2.1922 2.5299 2.9762 1333.4 -0.0047500 137.43 0.14417 540.00 0.0018519 661.41 961.72 2.1922 2.5299 2.9762 1333.4 -0.0047500 137.43 0.14417
229.38 23612. undefined 663.94 965.41 2.1972 540.00 0.0018519 663.94 965.41 2.1972 2.5337 2.9794 1334.5 -0.0047475 137.44 0.14434 540.00 0.0018519 663.94 965.41 2.1972 2.5337 2.9794 1334.5 -0.0047475 137.44 0.14434
230.38 23702. undefined 666.47 969.11 2.2023 540.00 0.0018519 666.47 969.11 2.2023 2.5375 2.9825 1335.7 -0.0047450 137.45 0.14452 540.00 0.0018519 666.47 969.11 2.2023 2.5375 2.9825 1335.7 -0.0047450 137.45 0.14452
231.38 23793. undefined 669.01 972.80 2.2073 540.00 0.0018519 669.01 972.80 2.2073 2.5413 2.9857 1336.9 -0.0047425 137.46 0.14470 540.00 0.0018519 669.01 972.80 2.2073 2.5413 2.9857 1336.9 -0.0047425 137.46 0.14470
232.38 23884. undefined 671.56 976.51 2.2124 540.00 0.0018519 671.56 976.51 2.2124 2.5451 2.9888 1338.0 -0.0047400 137.47 0.14488 540.00 0.0018519 671.56 976.51 2.2124 2.5451 2.9888 1338.0 -0.0047400 137.47 0.14488
233.38 23974. undefined 674.10 980.21 2.2174 540.00 0.0018519 674.10 980.21 2.2174 2.5489 2.9919 1339.2 -0.0047375 137.49 0.14505 540.00 0.0018519 674.10 980.21 2.2174 2.5489 2.9919 1339.2 -0.0047375 137.49 0.14505
234.38 24065. undefined 676.65 983.91 2.2224 540.00 0.0018519 676.65 983.91 2.2224 2.5527 2.9951 1340.3 -0.0047350 137.50 0.14523 540.00 0.0018519 676.65 983.91 2.2224 2.5527 2.9951 1340.3 -0.0047350 137.50 0.14523
235.38 24155. undefined 679.21 987.62 2.2275 540.00 0.0018519 679.21 987.62 2.2275 2.5564 2.9982 1341.5 -0.0047325 137.51 0.14541 540.00 0.0018519 679.21 987.62 2.2275 2.5564 2.9982 1341.5 -0.0047325 137.51 0.14541
236.38 24246. undefined 681.77 991.34 2.2325 540.00 0.0018519 681.77 991.34 2.2325 2.5602 3.0013 1342.6 -0.0047299 137.52 0.14559 540.00 0.0018519 681.77 991.34 2.2325 2.5602 3.0013 1342.6 -0.0047299 137.52 0.14559
237.38 24336. undefined 684.33 995.05 2.2375 540.00 0.0018519 684.33 995.05 2.2375 2.5640 3.0044 1343.8 -0.0047274 137.53 0.14577 540.00 0.0018519 684.33 995.05 2.2375 2.5640 3.0044 1343.8 -0.0047274 137.53 0.14577
238.38 24426. undefined 686.90 998.77 2.2425 540.00 0.0018519 686.90 998.77 2.2425 2.5678 3.0076 1344.9 -0.0047249 137.55 0.14595 540.00 0.0018519 686.90 998.77 2.2425 2.5678 3.0076 1344.9 -0.0047249 137.55 0.14595
239.38 24516. undefined 689.47 1002.5 2.2475 540.00 0.0018519 689.47 1002.5 2.2475 2.5715 3.0107 1346.0 -0.0047223 137.56 0.14613 540.00 0.0018519 689.47 1002.5 2.2475 2.5715 3.0107 1346.0 -0.0047223 137.56 0.14613
240.38 24607. undefined 692.04 1006.2 2.2526 540.00 0.0018519 692.04 1006.2 2.2526 2.5753 3.0138 1347.2 -0.0047198 137.57 0.14631 540.00 0.0018519 692.04 1006.2 2.2526 2.5753 3.0138 1347.2 -0.0047198 137.57 0.14631
241.38 24697. undefined 694.62 1009.9 2.2576 540.00 0.0018519 694.62 1009.9 2.2576 2.5790 3.0169 1348.3 -0.0047172 137.58 0.14649 540.00 0.0018519 694.62 1009.9 2.2576 2.5790 3.0169 1348.3 -0.0047172 137.58 0.14649
242.38 24787. undefined 697.20 1013.7 2.2626 540.00 0.0018519 697.20 1013.7 2.2626 2.5828 3.0200 1349.4 -0.0047147 137.59 0.14667 540.00 0.0018519 697.20 1013.7 2.2626 2.5828 3.0200 1349.4 -0.0047147 137.59 0.14667
243.38 24877. undefined 699.78 1017.4 2.2676 540.00 0.0018519 699.78 1017.4 2.2676 2.5865 3.0232 1350.6 -0.0047121 137.61 0.14685 540.00 0.0018519 699.78 1017.4 2.2676 2.5865 3.0232 1350.6 -0.0047121 137.61 0.14685
244.38 24967. undefined 702.37 1021.1 2.2726 540.00 0.0018519 702.37 1021.1 2.2726 2.5902 3.0263 1351.7 -0.0047096 137.62 0.14704 540.00 0.0018519 702.37 1021.1 2.2726 2.5902 3.0263 1351.7 -0.0047096 137.62 0.14704
245.38 25057. undefined 704.96 1024.9 2.2776 540.00 0.0018519 704.96 1024.9 2.2776 2.5940 3.0294 1352.8 -0.0047070 137.63 0.14722 540.00 0.0018519 704.96 1024.9 2.2776 2.5940 3.0294 1352.8 -0.0047070 137.63 0.14722
246.38 25146. undefined 707.56 1028.6 2.2826 540.00 0.0018519 707.56 1028.6 2.2826 2.5977 3.0325 1354.0 -0.0047044 137.64 0.14740 540.00 0.0018519 707.56 1028.6 2.2826 2.5977 3.0325 1354.0 -0.0047044 137.64 0.14740
247.38 25236. undefined 710.16 1032.4 2.2876 540.00 0.0018519 710.16 1032.4 2.2876 2.6014 3.0356 1355.1 -0.0047019 137.66 0.14758 540.00 0.0018519 710.16 1032.4 2.2876 2.6014 3.0356 1355.1 -0.0047019 137.66 0.14758
248.38 25326. undefined 712.76 1036.1 2.2926 540.00 0.0018519 712.76 1036.1 2.2926 2.6051 3.0387 1356.2 -0.0046993 137.67 0.14777 540.00 0.0018519 712.76 1036.1 2.2926 2.6051 3.0387 1356.2 -0.0046993 137.67 0.14777
249.38 25415. undefined 715.37 1039.9 2.2976 540.00 0.0018519 715.37 1039.9 2.2976 2.6088 3.0418 1357.3 -0.0046967 137.68 0.14795 540.00 0.0018519 715.37 1039.9 2.2976 2.6088 3.0418 1357.3 -0.0046967 137.68 0.14795
250.38 25505. undefined 717.98 1043.6 2.3026 540.00 0.0018519 717.98 1043.6 2.3026 2.6125 3.0449 1358.5 -0.0046941 137.69 0.14813 540.00 0.0018519 717.98 1043.6 2.3026 2.6125 3.0449 1358.5 -0.0046941 137.69 0.14813
251.38 25595. undefined 720.59 1047.4 2.3076 540.00 0.0018519 720.59 1047.4 2.3076 2.6162 3.0480 1359.6 -0.0046915 137.70 0.14832 540.00 0.0018519 720.59 1047.4 2.3076 2.6162 3.0480 1359.6 -0.0046915 137.70 0.14832
252.38 25684. undefined 723.21 1051.1 2.3126 540.00 0.0018519 723.21 1051.1 2.3126 2.6199 3.0511 1360.7 -0.0046889 137.72 0.14850 540.00 0.0018519 723.21 1051.1 2.3126 2.6199 3.0511 1360.7 -0.0046889 137.72 0.14850
253.38 25773. undefined 725.83 1054.9 2.3175 540.00 0.0018519 725.83 1054.9 2.3175 2.6236 3.0542 1361.8 -0.0046863 137.73 0.14868 540.00 0.0018519 725.83 1054.9 2.3175 2.6236 3.0542 1361.8 -0.0046863 137.73 0.14868
254.38 25863. undefined 728.46 1058.7 2.3225 540.00 0.0018519 728.46 1058.7 2.3225 2.6273 3.0572 1362.9 -0.0046838 137.74 0.14887 540.00 0.0018519 728.46 1058.7 2.3225 2.6273 3.0572 1362.9 -0.0046838 137.74 0.14887
255.38 25952. undefined 731.09 1062.4 2.3275 540.00 0.0018519 731.09 1062.4 2.3275 2.6310 3.0603 1364.0 -0.0046812 137.75 0.14905 540.00 0.0018519 731.09 1062.4 2.3275 2.6310 3.0603 1364.0 -0.0046812 137.75 0.14905
256.38 26041. undefined 733.72 1066.2 2.3325 540.00 0.0018519 733.72 1066.2 2.3325 2.6346 3.0634 1365.1 -0.0046786 137.77 0.14924 540.00 0.0018519 733.72 1066.2 2.3325 2.6346 3.0634 1365.1 -0.0046786 137.77 0.14924
257.38 26131. undefined 736.36 1070.0 2.3375 540.00 0.0018519 736.36 1070.0 2.3375 2.6383 3.0665 1366.2 -0.0046760 137.78 0.14942 540.00 0.0018519 736.36 1070.0 2.3375 2.6383 3.0665 1366.2 -0.0046760 137.78 0.14942
258.38 26220. undefined 739.00 1073.8 2.3424 540.00 0.0018519 739.00 1073.8 2.3424 2.6420 3.0696 1367.3 -0.0046734 137.79 0.14961 540.00 0.0018519 739.00 1073.8 2.3424 2.6420 3.0696 1367.3 -0.0046734 137.79 0.14961
259.38 26309. undefined 741.64 1077.6 2.3474 540.00 0.0018519 741.64 1077.6 2.3474 2.6456 3.0726 1368.4 -0.0046708 137.80 0.14979 540.00 0.0018519 741.64 1077.6 2.3474 2.6456 3.0726 1368.4 -0.0046708 137.80 0.14979
260.38 26398. undefined 744.29 1081.3 2.3524 540.00 0.0018519 744.29 1081.3 2.3524 2.6493 3.0757 1369.5 -0.0046681 137.82 0.14998 540.00 0.0018519 744.29 1081.3 2.3524 2.6493 3.0757 1369.5 -0.0046681 137.82 0.14998
261.38 26487. undefined 746.94 1085.1 2.3573 540.00 0.0018519 746.94 1085.1 2.3573 2.6529 3.0788 1370.6 -0.0046655 137.83 0.15017 540.00 0.0018519 746.94 1085.1 2.3573 2.6529 3.0788 1370.6 -0.0046655 137.83 0.15017
262.38 26576. undefined 749.59 1088.9 2.3623 540.00 0.0018519 749.59 1088.9 2.3623 2.6565 3.0818 1371.7 -0.0046629 137.84 0.15035 540.00 0.0018519 749.59 1088.9 2.3623 2.6565 3.0818 1371.7 -0.0046629 137.84 0.15035
263.38 26665. undefined 752.25 1092.7 2.3672 540.00 0.0018519 752.25 1092.7 2.3672 2.6602 3.0849 1372.8 -0.0046603 137.86 0.15054 540.00 0.0018519 752.25 1092.7 2.3672 2.6602 3.0849 1372.8 -0.0046603 137.86 0.15054
264.38 26753. undefined 754.91 1096.5 2.3722 540.00 0.0018519 754.91 1096.5 2.3722 2.6638 3.0880 1373.9 -0.0046577 137.87 0.15073 540.00 0.0018519 754.91 1096.5 2.3722 2.6638 3.0880 1373.9 -0.0046577 137.87 0.15073
265.38 26842. undefined 757.58 1100.3 2.3772 540.00 0.0018519 757.58 1100.3 2.3772 2.6674 3.0910 1375.0 -0.0046551 137.88 0.15092 540.00 0.0018519 757.58 1100.3 2.3772 2.6674 3.0910 1375.0 -0.0046551 137.88 0.15092
266.38 26931. undefined 760.25 1104.1 2.3821 540.00 0.0018519 760.25 1104.1 2.3821 2.6711 3.0941 1376.1 -0.0046525 137.89 0.15110 540.00 0.0018519 760.25 1104.1 2.3821 2.6711 3.0941 1376.1 -0.0046525 137.89 0.15110
267.38 27019. undefined 762.92 1107.9 2.3871 540.00 0.0018519 762.92 1107.9 2.3871 2.6747 3.0971 1377.2 -0.0046499 137.91 0.15129 540.00 0.0018519 762.92 1107.9 2.3871 2.6747 3.0971 1377.2 -0.0046499 137.91 0.15129
268.38 27108. undefined 765.60 1111.7 2.3920 540.00 0.0018519 765.60 1111.7 2.3920 2.6783 3.1002 1378.3 -0.0046472 137.92 0.15148 540.00 0.0018519 765.60 1111.7 2.3920 2.6783 3.1002 1378.3 -0.0046472 137.92 0.15148
269.38 27197. undefined 768.28 1115.5 2.3970 540.00 0.0018519 768.28 1115.5 2.3970 2.6819 3.1032 1379.4 -0.0046446 137.93 0.15167 540.00 0.0018519 768.28 1115.5 2.3970 2.6819 3.1032 1379.4 -0.0046446 137.93 0.15167
270.38 27285. undefined 770.96 1119.3 2.4019 540.00 0.0018519 770.96 1119.3 2.4019 2.6855 3.1063 1380.4 -0.0046420 137.95 0.15186 540.00 0.0018519 770.96 1119.3 2.4019 2.6855 3.1063 1380.4 -0.0046420 137.95 0.15186
271.38 27373. undefined 773.65 1123.2 2.4068 540.00 0.0018519 773.65 1123.2 2.4068 2.6891 3.1093 1381.5 -0.0046394 137.96 0.15205 540.00 0.0018519 773.65 1123.2 2.4068 2.6891 3.1093 1381.5 -0.0046394 137.96 0.15205
272.38 27462. undefined 776.34 1127.0 2.4118 540.00 0.0018519 776.34 1127.0 2.4118 2.6927 3.1124 1382.6 -0.0046368 137.97 0.15224 540.00 0.0018519 776.34 1127.0 2.4118 2.6927 3.1124 1382.6 -0.0046368 137.97 0.15224
273.38 27550. undefined 779.03 1130.8 2.4167 540.00 0.0018519 779.03 1130.8 2.4167 2.6962 3.1154 1383.7 -0.0046341 137.98 0.15243 540.00 0.0018519 779.03 1130.8 2.4167 2.6962 3.1154 1383.7 -0.0046341 137.98 0.15243
274.38 27638. undefined 781.73 1134.6 2.4216 540.00 0.0018519 781.73 1134.6 2.4216 2.6998 3.1184 1384.7 -0.0046315 138.00 0.15262 540.00 0.0018519 781.73 1134.6 2.4216 2.6998 3.1184 1384.7 -0.0046315 138.00 0.15262
275.38 27727. undefined 784.43 1138.4 2.4266 540.00 0.0018519 784.43 1138.4 2.4266 2.7034 3.1215 1385.8 -0.0046289 138.01 0.15281 540.00 0.0018519 784.43 1138.4 2.4266 2.7034 3.1215 1385.8 -0.0046289 138.01 0.15281
276.38 27815. undefined 787.14 1142.3 2.4315 540.00 0.0018519 787.14 1142.3 2.4315 2.7070 3.1245 1386.9 -0.0046263 138.02 0.15300 540.00 0.0018519 787.14 1142.3 2.4315 2.7070 3.1245 1386.9 -0.0046263 138.02 0.15300
277.38 27903. undefined 789.85 1146.1 2.4364 540.00 0.0018519 789.85 1146.1 2.4364 2.7105 3.1275 1388.0 -0.0046236 138.04 0.15319 540.00 0.0018519 789.85 1146.1 2.4364 2.7105 3.1275 1388.0 -0.0046236 138.04 0.15319
278.38 27991. undefined 792.56 1150.0 2.4413 540.00 0.0018519 792.56 1150.0 2.4413 2.7141 3.1305 1389.0 -0.0046210 138.05 0.15338 540.00 0.0018519 792.56 1150.0 2.4413 2.7141 3.1305 1389.0 -0.0046210 138.05 0.15338
279.38 28079. undefined 795.28 1153.8 2.4463 540.00 0.0018519 795.28 1153.8 2.4463 2.7176 3.1335 1390.1 -0.0046184 138.06 0.15358 540.00 0.0018519 795.28 1153.8 2.4463 2.7176 3.1335 1390.1 -0.0046184 138.06 0.15358
280.38 28167. undefined 798.00 1157.6 2.4512 540.00 0.0018519 798.00 1157.6 2.4512 2.7212 3.1366 1391.2 -0.0046158 138.08 0.15377 540.00 0.0018519 798.00 1157.6 2.4512 2.7212 3.1366 1391.2 -0.0046158 138.08 0.15377
281.38 28255. undefined 800.72 1161.5 2.4561 540.00 0.0018519 800.72 1161.5 2.4561 2.7247 3.1396 1392.2 -0.0046131 138.09 0.15396 540.00 0.0018519 800.72 1161.5 2.4561 2.7247 3.1396 1392.2 -0.0046131 138.09 0.15396
282.38 28343. undefined 803.44 1165.3 2.4610 540.00 0.0018519 803.44 1165.3 2.4610 2.7283 3.1426 1393.3 -0.0046105 138.10 0.15389 540.00 0.0018519 803.44 1165.3 2.4610 2.7283 3.1426 1393.3 -0.0046105 138.10 0.15389
283.38 28430. undefined 806.17 1169.2 2.4659 540.00 0.0018519 806.17 1169.2 2.4659 2.7318 3.1456 1394.3 -0.0046079 138.12 0.15409 540.00 0.0018519 806.17 1169.2 2.4659 2.7318 3.1456 1394.3 -0.0046079 138.12 0.15409
284.38 28518. undefined 808.91 1173.0 2.4708 540.00 0.0018519 808.91 1173.0 2.4708 2.7353 3.1486 1395.4 -0.0046053 138.13 0.15428 540.00 0.0018519 808.91 1173.0 2.4708 2.7353 3.1486 1395.4 -0.0046053 138.13 0.15428
285.38 28606. undefined 811.65 1176.9 2.4757 540.00 0.0018519 811.65 1176.9 2.4757 2.7388 3.1516 1396.4 -0.0046026 138.14 0.15447 540.00 0.0018519 811.65 1176.9 2.4757 2.7388 3.1516 1396.4 -0.0046026 138.14 0.15447
286.38 28693. undefined 814.39 1180.7 2.4806 540.00 0.0018519 814.39 1180.7 2.4806 2.7424 3.1546 1397.5 -0.0046000 138.16 0.15466 540.00 0.0018519 814.39 1180.7 2.4806 2.7424 3.1546 1397.5 -0.0046000 138.16 0.15466
287.38 28781. undefined 817.13 1184.6 2.4855 540.00 0.0018519 817.13 1184.6 2.4855 2.7459 3.1576 1398.6 -0.0045974 138.17 0.15486 540.00 0.0018519 817.13 1184.6 2.4855 2.7459 3.1576 1398.6 -0.0045974 138.17 0.15486
288.38 28869. undefined 819.88 1188.5 2.4904 540.00 0.0018519 819.88 1188.5 2.4904 2.7494 3.1606 1399.6 -0.0045948 138.18 0.15505 540.00 0.0018519 819.88 1188.5 2.4904 2.7494 3.1606 1399.6 -0.0045948 138.18 0.15505
289.38 28956. undefined 822.63 1192.3 2.4953 540.00 0.0018519 822.63 1192.3 2.4953 2.7529 3.1636 1400.7 -0.0045921 138.20 0.15524 540.00 0.0018519 822.63 1192.3 2.4953 2.7529 3.1636 1400.7 -0.0045921 138.20 0.15524
290.38 29043. undefined 825.38 1196.2 2.5002 540.00 0.0018519 825.38 1196.2 2.5002 2.7564 3.1666 1401.7 -0.0045895 138.21 0.15544 540.00 0.0018519 825.38 1196.2 2.5002 2.7564 3.1666 1401.7 -0.0045895 138.21 0.15544
291.38 29131. undefined 828.14 1200.1 2.5051 540.00 0.0018519 828.14 1200.1 2.5051 2.7599 3.1696 1402.7 -0.0045869 138.22 0.15563 540.00 0.0018519 828.14 1200.1 2.5051 2.7599 3.1696 1402.7 -0.0045869 138.22 0.15563
292.38 29218. undefined 830.90 1204.0 2.5100 540.00 0.0018519 830.90 1204.0 2.5100 2.7633 3.1725 1403.8 -0.0045843 138.24 0.15583 540.00 0.0018519 830.90 1204.0 2.5100 2.7633 3.1725 1403.8 -0.0045843 138.24 0.15583
293.38 29305. undefined 833.67 1207.8 2.5149 540.00 0.0018519 833.67 1207.8 2.5149 2.7668 3.1755 1404.8 -0.0045817 138.25 0.15602 540.00 0.0018519 833.67 1207.8 2.5149 2.7668 3.1755 1404.8 -0.0045817 138.25 0.15602
294.38 29393. undefined 836.44 1211.7 2.5198 540.00 0.0018519 836.44 1211.7 2.5198 2.7703 3.1785 1405.9 -0.0045790 138.26 0.15622 540.00 0.0018519 836.44 1211.7 2.5198 2.7703 3.1785 1405.9 -0.0045790 138.26 0.15622
295.38 29480. undefined 839.21 1215.6 2.5246 540.00 0.0018519 839.21 1215.6 2.5246 2.7738 3.1815 1406.9 -0.0045764 138.28 0.15642 540.00 0.0018519 839.21 1215.6 2.5246 2.7738 3.1815 1406.9 -0.0045764 138.28 0.15642
296.38 29567. undefined 841.98 1219.5 2.5295 540.00 0.0018519 841.98 1219.5 2.5295 2.7772 3.1844 1408.0 -0.0045738 138.29 0.15661 540.00 0.0018519 841.98 1219.5 2.5295 2.7772 3.1844 1408.0 -0.0045738 138.29 0.15661
297.38 29654. undefined 844.76 1223.4 2.5344 540.00 0.0018519 844.76 1223.4 2.5344 2.7807 3.1874 1409.0 -0.0045712 138.30 0.15681 540.00 0.0018519 844.76 1223.4 2.5344 2.7807 3.1874 1409.0 -0.0045712 138.30 0.15681
298.38 29741. undefined 847.55 1227.3 2.5393 540.00 0.0018519 847.55 1227.3 2.5393 2.7842 3.1904 1410.0 -0.0045686 138.32 0.15700 540.00 0.0018519 847.55 1227.3 2.5393 2.7842 3.1904 1410.0 -0.0045686 138.32 0.15700
299.38 29828. undefined 850.33 1231.2 2.5441 540.00 0.0018519 850.33 1231.2 2.5441 2.7876 3.1933 1411.1 -0.0045660 138.33 0.15720 540.00 0.0018519 850.33 1231.2 2.5441 2.7876 3.1933 1411.1 -0.0045660 138.33 0.15720
300.38 29915. undefined 853.12 1235.1 2.5490 540.00 0.0018519 853.12 1235.1 2.5490 2.7911 3.1963 1412.1 -0.0045633 138.34 0.15740 540.00 0.0018519 853.12 1235.1 2.5490 2.7911 3.1963 1412.1 -0.0045633 138.34 0.15740