Temperature (C) Pressure (psia) Quality (l+v) Internal Energy (l+v, kJ/kg) Enthalpy (l+v, kJ/kg) Entropy (l+v, J/g*K) Density (l, kg/m3) Volume (l, m3/kg) Internal Energy (l, kJ/kg) Enthalpy (l, kJ/kg) Entropy (l, J/g*K) Cv (l, J/g*K) Cp (l, J/g*K) Sound Spd. (l, m/s) Joule-Thomson (l, F/psia) Viscosity (l, uPa*s) Therm. Cond. (l, W/m*K) Density (v, kg/m3) Volume (v, m3/kg) Internal Energy (v, kJ/kg) Enthalpy (v, kJ/kg) Entropy (v, J/g*K) Cv (v, J/g*K) Cp (v, J/g*K) Sound Spd. (v, m/s) Joule-Thomson (v, F/psia) Viscosity (v, uPa*s) Therm. Cond. (v, W/m*K)
-187.62 2.4953e-08 5.0233e-12 -196.64 -196.64 -1.3959 733.13 0.0013640 -196.64 -196.64 -1.3959 1.3553 1.9158 2136.4 -0.0077592 10960. 0.20792 1.0669e-08 9.3732e+07 350.13 366.26 5.1858 0.69067 0.87923 143.28 6.1051 2.3259 0.0017061
-186.62 3.7339e-08 7.3991e-12 -194.73 -194.73 -1.3736 732.08 0.0013660 -194.73 -194.73 -1.3736 1.3539 1.9166 2129.6 -0.0077546 10073. 0.20765 1.5780e-08 6.3371e+07 350.82 367.14 5.1200 0.69462 0.88317 144.03 5.9178 2.3534 0.0017533
-185.62 5.5322e-08 1.0792e-11 -192.81 -192.81 -1.3516 731.04 0.0013679 -192.81 -192.81 -1.3516 1.3525 1.9174 2122.9 -0.0077498 9276.1 0.20737 2.3112e-08 4.3267e+07 351.52 368.02 5.0561 0.69857 0.88713 144.77 5.7383 2.3808 0.0018007
-184.62 8.1182e-08 1.5593e-11 -190.89 -190.89 -1.3298 730.00 0.0013699 -190.89 -190.89 -1.3298 1.3513 1.9182 2116.1 -0.0077448 8557.8 0.20708 3.3533e-08 2.9821e+07 352.22 368.91 4.9939 0.70253 0.89108 145.51 5.5662 2.4083 0.0018485
-183.62 1.1803e-07 2.2324e-11 -188.97 -188.97 -1.3083 728.96 0.0013718 -188.97 -188.97 -1.3083 1.3501 1.9191 2109.3 -0.0077395 7909.8 0.20678 4.8211e-08 2.0742e+07 352.92 369.81 4.9333 0.70648 0.89504 146.24 5.4011 2.4357 0.0018965
-182.62 1.7009e-07 3.1679e-11 -187.05 -187.05 -1.2869 727.92 0.0013738 -187.05 -187.05 -1.2869 1.3490 1.9201 2102.5 -0.0077340 7324.3 0.20647 6.8704e-08 1.4555e+07 353.63 370.70 4.8744 0.71043 0.89899 146.97 5.2426 2.4632 0.0019448
-181.62 2.4299e-07 4.4571e-11 -185.13 -185.13 -1.2658 726.88 0.0013757 -185.13 -185.13 -1.2658 1.3480 1.9210 2095.7 -0.0077283 6794.5 0.20616 9.7079e-08 1.0301e+07 354.35 371.60 4.8170 0.71438 0.90294 147.69 5.0904 2.4906 0.0019934
-180.62 3.4425e-07 6.2196e-11 -183.21 -183.21 -1.2450 725.85 0.0013777 -183.21 -183.21 -1.2450 1.3470 1.9220 2088.9 -0.0077225 6314.4 0.20584 1.3605e-07 7.3504e+06 355.06 372.51 4.7612 0.71833 0.90688 148.41 4.9442 2.5181 0.0020423
-179.62 4.8378e-07 8.6100e-11 -181.29 -181.29 -1.2243 724.81 0.0013797 -181.29 -181.29 -1.2243 1.3461 1.9231 2082.0 -0.0077164 5878.8 0.20551 1.8915e-07 5.2868e+06 355.78 373.42 4.7068 0.72227 0.91082 149.13 4.8038 2.5456 0.0020915
-178.62 6.7459e-07 1.1828e-10 -179.37 -179.37 -1.2038 723.78 0.0013816 -179.37 -179.37 -1.2038 1.3453 1.9241 2075.2 -0.0077102 5482.9 0.20517 2.6096e-07 3.8320e+06 356.51 374.33 4.6538 0.72620 0.91475 149.84 4.6688 2.5731 0.0021410
-177.62 9.3358e-07 1.6127e-10 -177.44 -177.44 -1.1836 722.75 0.0013836 -177.44 -177.44 -1.1836 1.3445 1.9252 2068.4 -0.0077039 5122.6 0.20483 3.5737e-07 2.7982e+06 357.23 375.25 4.6022 0.73012 0.91867 150.54 4.5390 2.6005 0.0021907
-176.62 1.2826e-06 2.1830e-10 -175.52 -175.52 -1.1635 721.72 0.0013856 -175.52 -175.52 -1.1635 1.3437 1.9263 2061.5 -0.0076973 4794.1 0.20447 4.8588e-07 2.0581e+06 357.97 376.17 4.5519 0.73403 0.92258 151.25 4.4142 2.6280 0.0022408
-175.62 1.7496e-06 2.9344e-10 -173.59 -173.59 -1.1437 720.69 0.0013876 -173.59 -173.59 -1.1437 1.3430 1.9274 2054.7 -0.0076907 4494.3 0.20411 6.5601e-07 1.5244e+06 358.70 377.09 4.5029 0.73792 0.92648 151.95 4.2941 2.6555 0.0022912
-174.62 2.3705e-06 3.9178e-10 -171.66 -171.66 -1.1240 719.66 0.0013895 -171.66 -171.66 -1.1240 1.3423 1.9286 2047.9 -0.0076838 4220.2 0.20375 8.7976e-07 1.1367e+06 359.44 378.02 4.4551 0.74181 0.93036 152.64 4.1784 2.6830 0.0023418
-173.62 3.1903e-06 5.1965e-10 -169.73 -169.73 -1.1045 718.64 0.0013915 -169.73 -169.73 -1.1045 1.3417 1.9298 2041.0 -0.0076769 3969.3 0.20338 1.1721e-06 8.5314e+05 360.19 378.95 4.4085 0.74568 0.93423 153.33 4.0671 2.7105 0.0023928
-172.62 4.2661e-06 6.8489e-10 -167.80 -167.80 -1.0852 717.61 0.0013935 -167.80 -167.80 -1.0852 1.3411 1.9310 2034.2 -0.0076698 3739.3 0.20300 1.5518e-06 6.4441e+05 360.93 379.89 4.3631 0.74953 0.93809 154.02 3.9599 2.7379 0.0024440
-171.62 5.6692e-06 8.9711e-10 -165.87 -165.87 -1.0661 716.58 0.0013955 -165.87 -165.87 -1.0661 1.3405 1.9322 2027.3 -0.0076625 3528.0 0.20261 2.0419e-06 4.8974e+05 361.69 380.83 4.3188 0.75337 0.94193 154.71 3.8566 2.7654 0.0024955
-170.62 7.4884e-06 1.1681e-09 -163.94 -163.94 -1.0472 715.56 0.0013975 -163.94 -163.94 -1.0472 1.3400 1.9334 2020.5 -0.0076552 3333.8 0.20222 2.6708e-06 3.7442e+05 362.44 381.77 4.2755 0.75720 0.94575 155.39 3.7570 2.7929 0.0025473
-169.62 9.8334e-06 1.5121e-09 -162.00 -162.00 -1.0284 714.54 0.0013995 -162.00 -162.00 -1.0284 1.3395 1.9347 2013.6 -0.0076477 3154.9 0.20182 3.4733e-06 2.8791e+05 363.20 382.72 4.2334 0.76100 0.94956 156.07 3.6609 2.8204 0.0025994
-168.62 1.2839e-05 1.9465e-09 -160.07 -160.07 -1.0098 713.52 0.0014015 -160.07 -160.07 -1.0098 1.3390 1.9359 2006.8 -0.0076401 2989.9 0.20141 4.4917e-06 2.2263e+05 363.96 383.67 4.1922 0.76479 0.95335 156.74 3.5683 2.8479 0.0026518
-167.62 1.6672e-05 2.4919e-09 -158.13 -158.13 -0.99134 712.49 0.0014035 -158.13 -158.13 -0.99134 1.3386 1.9372 2000.0 -0.0076323 2837.5 0.20100 5.7771e-06 1.7310e+05 364.73 384.63 4.1521 0.76856 0.95712 157.41 3.4790 2.8754 0.0027045
-166.62 2.1533e-05 3.1734e-09 -156.19 -156.19 -0.97306 711.47 0.0014055 -156.19 -156.19 -0.97306 1.3382 1.9385 1993.1 -0.0076245 2696.5 0.20058 7.3914e-06 1.3529e+05 365.50 385.59 4.1129 0.77232 0.96087 158.08 3.3927 2.9029 0.0027575
-165.62 2.7666e-05 4.0203e-09 -154.25 -154.25 -0.95494 710.45 0.0014075 -154.25 -154.25 -0.95494 1.3378 1.9398 1986.3 -0.0076165 2566.0 0.20016 9.4084e-06 1.0629e+05 366.27 386.55 4.0746 0.77605 0.96460 158.75 3.3095 2.9304 0.0028108
-164.62 3.5367e-05 5.0679e-09 -152.31 -152.31 -0.93698 709.44 0.0014096 -152.31 -152.31 -0.93698 1.3375 1.9411 1979.4 -0.0076084 2444.9 0.19973 1.1916e-05 83918. 367.05 387.52 4.0372 0.77976 0.96832 159.41 3.2291 2.9579 0.0028643
-163.62 4.4989e-05 6.3575e-09 -150.37 -150.37 -0.91917 708.42 0.0014116 -150.37 -150.37 -0.91917 1.3371 1.9424 1972.6 -0.0076002 2332.3 0.19930 1.5020e-05 66577. 367.83 388.49 4.0008 0.78346 0.97201 160.07 3.1514 2.9854 0.0029182
-162.62 5.6956e-05 7.9376e-09 -148.43 -148.43 -0.90151 707.40 0.0014136 -148.43 -148.43 -0.90151 1.3368 1.9437 1965.8 -0.0075919 2227.7 0.19886 1.8844e-05 53068. 368.62 389.46 3.9651 0.78713 0.97569 160.72 3.0764 3.0129 0.0029723
-161.62 7.1773e-05 9.8649e-09 -146.48 -146.48 -0.88400 706.38 0.0014157 -146.48 -146.48 -0.88400 1.3365 1.9451 1959.0 -0.0075834 2130.2 0.19841 2.3533e-05 42494. 369.41 390.44 3.9304 0.79079 0.97935 161.38 3.0038 3.0404 0.0030268
-160.62 9.0036e-05 1.2206e-08 -144.54 -144.54 -0.86663 705.37 0.0014177 -144.54 -144.54 -0.86663 1.3363 1.9465 1952.1 -0.0075748 2039.2 0.19796 2.9258e-05 34178. 370.20 391.42 3.8964 0.79443 0.98298 162.03 2.9337 3.0679 0.0030815
-159.62 0.00011245 1.5036e-08 -142.59 -142.59 -0.84940 704.35 0.0014197 -142.59 -142.59 -0.84940 1.3360 1.9478 1945.3 -0.0075661 1954.2 0.19751 3.6221e-05 27609. 371.00 392.40 3.8632 0.79805 0.98660 162.68 2.8658 3.0955 0.0031365
-158.62 0.00013985 1.8445e-08 -140.64 -140.64 -0.83231 703.34 0.0014218 -140.64 -140.64 -0.83231 1.3358 1.9492 1938.5 -0.0075573 1874.8 0.19705 4.4652e-05 22395. 371.80 393.39 3.8307 0.80164 0.99020 163.32 2.8002 3.1230 0.0031918
-157.62 0.00017320 2.2533e-08 -138.69 -138.69 -0.81536 702.32 0.0014238 -138.69 -138.69 -0.81536 1.3356 1.9506 1931.7 -0.0075484 1800.3 0.19658 5.4822e-05 18241. 372.60 394.38 3.7990 0.80522 0.99378 163.96 2.7367 3.1505 0.0032474
-156.62 0.00021364 2.7417e-08 -136.74 -136.74 -0.79854 701.31 0.0014259 -136.74 -136.74 -0.79854 1.3354 1.9520 1924.9 -0.0075393 1730.5 0.19611 6.7040e-05 14916. 373.41 395.38 3.7680 0.80878 0.99734 164.60 2.6752 3.1780 0.0033033
-155.62 0.00026248 3.3230e-08 -134.79 -134.79 -0.78185 700.30 0.0014280 -134.79 -134.79 -0.78185 1.3352 1.9534 1918.1 -0.0075302 1664.9 0.19564 8.1666e-05 12245. 374.22 396.38 3.7377 0.81232 1.0009 165.24 2.6157 3.2055 0.0033595
-154.62 0.00032125 4.0123e-08 -132.83 -132.83 -0.76530 699.29 0.0014300 -132.83 -132.83 -0.76530 1.3350 1.9548 1911.3 -0.0075209 1603.3 0.19516 9.9109e-05 10090. 375.03 397.38 3.7081 0.81585 1.0044 165.87 2.5580 3.2330 0.0034160
-153.62 0.00039171 4.8266e-08 -130.88 -130.88 -0.74887 698.27 0.0014321 -130.88 -130.88 -0.74887 1.3349 1.9563 1904.5 -0.0075114 1545.3 0.19468 0.00011984 8344.6 375.85 398.39 3.6792 0.81935 1.0079 166.50 2.5022 3.2606 0.0034727
-152.62 0.00047590 5.7852e-08 -128.92 -128.92 -0.73256 697.26 0.0014342 -128.92 -128.92 -0.73256 1.3348 1.9577 1897.8 -0.0075019 1490.6 0.19419 0.00014439 6925.9 376.67 399.40 3.6509 0.82284 1.0114 167.13 2.4481 3.2881 0.0035298
-151.62 0.00057613 6.9100e-08 -126.96 -126.96 -0.71638 696.25 0.0014363 -126.96 -126.96 -0.71638 1.3346 1.9592 1891.0 -0.0074922 1438.9 0.19370 0.00017336 5768.4 377.49 400.41 3.6232 0.82631 1.0149 167.76 2.3957 3.3156 0.0035872
-150.62 0.00069507 8.2251e-08 -125.00 -125.00 -0.70032 695.24 0.0014384 -125.00 -125.00 -0.70032 1.3345 1.9606 1884.2 -0.0074824 1390.2 0.19320 0.00020744 4820.7 378.32 401.42 3.5962 0.82976 1.0183 168.38 2.3448 3.3431 0.0036448
-149.62 0.00083574 9.7579e-08 -123.04 -123.04 -0.68438 694.23 0.0014404 -123.04 -123.04 -0.68438 1.3345 1.9621 1877.4 -0.0074724 1344.0 0.19270 0.00024740 4042.0 379.15 402.44 3.5697 0.83319 1.0218 169.00 2.2956 3.3706 0.0037027
-148.62 0.0010016 1.1539e-07 -121.08 -121.08 -0.66855 693.22 0.0014425 -121.08 -121.08 -0.66855 1.3344 1.9636 1870.7 -0.0074623 1300.3 0.19220 0.00029412 3400.0 379.99 403.47 3.5438 0.83661 1.0252 169.62 2.2478 3.3982 0.0037610
-147.62 0.0011965 1.3601e-07 -119.11 -119.11 -0.65284 692.21 0.0014447 -119.11 -119.11 -0.65284 1.3343 1.9651 1863.9 -0.0074521 1258.9 0.19169 0.00034856 2869.0 380.83 404.49 3.5185 0.84001 1.0286 170.24 2.2014 3.4257 0.0038195
-146.62 0.0014249 1.5982e-07 -117.15 -117.15 -0.63724 691.20 0.0014468 -117.15 -117.15 -0.63724 1.3343 1.9666 1857.2 -0.0074417 1219.6 0.19117 0.00041181 2428.3 381.67 405.52 3.4938 0.84340 1.0320 170.85 2.1565 3.4532 0.0038783
-145.62 0.0016917 1.8724e-07 -115.18 -115.18 -0.62175 690.19 0.0014489 -115.18 -115.18 -0.62175 1.3343 1.9682 1850.4 -0.0074312 1182.3 0.19066 0.00048510 2061.4 382.51 406.56 3.4695 0.84677 1.0353 171.46 2.1128 3.4807 0.0039374
-144.62 0.0020026 2.1871e-07 -113.21 -113.21 -0.60637 689.18 0.0014510 -113.21 -113.21 -0.60637 1.3343 1.9697 1843.7 -0.0074206 1146.8 0.19014 0.00056976 1755.1 383.36 407.59 3.4458 0.85012 1.0387 172.07 2.0705 3.5082 0.0039967
-143.62 0.0023637 2.5473e-07 -111.24 -111.24 -0.59110 688.17 0.0014531 -111.24 -111.24 -0.59110 1.3343 1.9713 1836.9 -0.0074098 1113.0 0.18962 0.00066731 1498.6 384.21 408.63 3.4226 0.85346 1.0420 172.68 2.0294 3.5358 0.0040564
-142.62 0.0027820 2.9585e-07 -109.27 -109.27 -0.57593 687.16 0.0014553 -109.27 -109.27 -0.57593 1.3343 1.9728 1830.2 -0.0073988 1080.8 0.18909 0.00077939 1283.1 385.07 409.68 3.3999 0.85679 1.0454 173.28 1.9896 3.5633 0.0041164
-141.62 0.0032653 3.4266e-07 -107.30 -107.30 -0.56087 686.15 0.0014574 -107.30 -107.30 -0.56087 1.3343 1.9744 1823.5 -0.0073878 1050.1 0.18856 0.00090784 1101.5 385.93 410.72 3.3777 0.86011 1.0487 173.88 1.9508 3.5908 0.0041766
-140.62 0.0038222 3.9582e-07 -105.32 -105.32 -0.54591 685.14 0.0014596 -105.32 -105.32 -0.54591 1.3344 1.9760 1816.7 -0.0073765 1020.7 0.18803 0.0010547 948.16 386.79 411.77 3.3560 0.86341 1.0520 174.48 1.9133 3.6183 0.0042372
-139.62 0.0044623 4.5602e-07 -103.34 -103.34 -0.53105 684.13 0.0014617 -103.34 -103.34 -0.53105 1.3344 1.9776 1810.0 -0.0073651 992.74 0.18749 0.0012221 818.26 387.65 412.83 3.3347 0.86670 1.0553 175.08 1.8768 3.6459 0.0042980
-138.62 0.0051963 5.2404e-07 -101.37 -101.37 -0.51628 683.12 0.0014639 -101.37 -101.37 -0.51629 1.3345 1.9792 1803.3 -0.0073536 965.97 0.18695 0.0014125 707.94 388.52 413.88 3.3139 0.86998 1.0586 175.67 1.8413 3.6734 0.0043592
-137.62 0.0060358 6.0068e-07 -99.386 -99.386 -0.50162 682.11 0.0014660 -99.386 -99.386 -0.50162 1.3346 1.9808 1796.6 -0.0073419 940.35 0.18641 0.0016287 614.00 389.39 414.94 3.2935 0.87325 1.0619 176.26 1.8069 3.7009 0.0044206
-136.62 0.0069938 6.8685e-07 -97.404 -97.404 -0.48705 681.10 0.0014682 -97.404 -97.404 -0.48705 1.3347 1.9825 1789.9 -0.0073301 915.81 0.18586 0.0018733 533.80 390.26 416.00 3.2735 0.87650 1.0651 176.85 1.7734 3.7284 0.0044823
-135.62 0.0080843 7.8350e-07 -95.421 -95.421 -0.47258 680.09 0.0014704 -95.421 -95.421 -0.47258 1.3348 1.9841 1783.2 -0.0073180 892.30 0.18531 0.0021497 465.17 391.14 417.07 3.2540 0.87975 1.0684 177.44 1.7409 3.7559 0.0045443
-134.62 0.0093230 8.9166e-07 -93.436 -93.436 -0.45819 679.08 0.0014726 -93.436 -93.436 -0.45820 1.3350 1.9858 1776.5 -0.0073059 869.75 0.18476 0.0024613 406.30 392.02 418.14 3.2348 0.88299 1.0716 178.02 1.7093 3.7834 0.0046066
-133.62 0.010727 1.0124e-06 -91.449 -91.449 -0.44390 678.07 0.0014748 -91.450 -91.449 -0.44391 1.3351 1.9875 1769.8 -0.0072935 848.11 0.18421 0.0028116 355.67 392.91 419.21 3.2161 0.88622 1.0749 178.61 1.6786 3.8109 0.0046691
-132.62 0.012315 1.1470e-06 -89.461 -89.460 -0.42970 677.06 0.0014770 -89.461 -89.461 -0.42971 1.3353 1.9892 1763.1 -0.0072810 827.32 0.18365 0.0032049 312.03 393.79 420.29 3.1977 0.88944 1.0781 179.19 1.6488 3.8385 0.0047320
-131.62 0.014106 1.2965e-06 -87.471 -87.470 -0.41559 676.04 0.0014792 -87.471 -87.471 -0.41560 1.3354 1.9909 1756.4 -0.0072684 807.34 0.18309 0.0036453 274.33 394.68 421.36 3.1798 0.89266 1.0813 179.76 1.6197 3.8660 0.0047951
-130.62 0.016124 1.4624e-06 -85.479 -85.478 -0.40157 675.03 0.0014814 -85.479 -85.479 -0.40157 1.3356 1.9926 1749.7 -0.0072555 788.12 0.18253 0.0041375 241.69 395.58 422.44 3.1622 0.89586 1.0846 180.34 1.5915 3.8935 0.0048586
-129.62 0.018392 1.6461e-06 -83.485 -83.485 -0.38763 674.02 0.0014836 -83.486 -83.486 -0.38763 1.3358 1.9944 1743.0 -0.0072425 769.63 0.18196 0.0046867 213.37 396.47 423.53 3.1450 0.89906 1.0878 180.91 1.5641 3.9210 0.0049223
-128.62 0.020935 1.8490e-06 -81.490 -81.489 -0.37377 673.01 0.0014859 -81.491 -81.490 -0.37378 1.3360 1.9961 1736.3 -0.0072294 751.83 0.18140 0.0052981 188.75 397.37 424.62 3.1281 0.90226 1.0910 181.48 1.5374 3.9485 0.0049863
-127.62 0.023783 2.0728e-06 -79.493 -79.492 -0.36000 672.00 0.0014881 -79.494 -79.493 -0.36001 1.3363 1.9979 1729.6 -0.0072160 734.67 0.18083 0.0059776 167.29 398.27 425.71 3.1116 0.90545 1.0942 182.05 1.5114 3.9760 0.0050506
-126.62 0.026966 2.3190e-06 -77.494 -77.493 -0.34631 670.98 0.0014904 -77.495 -77.495 -0.34632 1.3365 1.9997 1722.9 -0.0072025 718.14 0.18025 0.0067313 148.56 399.18 426.80 3.0954 0.90863 1.0974 182.62 1.4861 4.0035 0.0051152
-125.62 0.030515 2.5895e-06 -75.493 -75.493 -0.33271 669.97 0.0014926 -75.494 -75.494 -0.33272 1.3368 2.0015 1716.2 -0.0071888 702.18 0.17968 0.0075660 132.17 400.09 427.89 3.0795 0.91181 1.1006 183.18 1.4615 4.0310 0.0051800
-124.62 0.034467 2.8861e-06 -73.491 -73.490 -0.31918 668.95 0.0014949 -73.492 -73.492 -0.31919 1.3371 2.0033 1709.5 -0.0071749 686.79 0.17910 0.0084885 117.81 401.00 428.99 3.0640 0.91499 1.1038 183.74 1.4375 4.0584 0.0052452
-123.62 0.038859 3.2106e-06 -71.486 -71.486 -0.30573 667.94 0.0014971 -71.488 -71.487 -0.30574 1.3374 2.0051 1702.8 -0.0071609 671.93 0.17852 0.0095065 105.19 401.91 430.10 3.0488 0.91816 1.1070 184.30 1.4141 4.0859 0.0053106
-122.62 0.043731 3.5651e-06 -69.480 -69.479 -0.29236 666.92 0.0014994 -69.482 -69.481 -0.29237 1.3377 2.0070 1696.2 -0.0071466 657.57 0.17794 0.010628 94.092 402.83 431.20 3.0339 0.92134 1.1102 184.86 1.3913 4.1134 0.0053764
-121.62 0.049128 3.9517e-06 -67.472 -67.471 -0.27906 665.91 0.0015017 -67.474 -67.473 -0.27907 1.3380 2.0089 1689.5 -0.0071322 643.70 0.17736 0.011861 84.309 403.75 432.31 3.0193 0.92451 1.1134 185.41 1.3691 4.1409 0.0054424
-120.62 0.055096 4.3725e-06 -65.462 -65.461 -0.26584 664.89 0.0015040 -65.464 -65.463 -0.26585 1.3384 2.0107 1682.8 -0.0071176 630.28 0.17678 0.013215 75.669 404.67 433.42 3.0050 0.92767 1.1166 185.96 1.3475 4.1683 0.0055087
-119.62 0.061684 4.8299e-06 -63.450 -63.449 -0.25269 663.87 0.0015063 -63.452 -63.452 -0.25271 1.3387 2.0126 1676.1 -0.0071028 617.30 0.17619 0.014700 68.027 405.60 434.53 2.9909 0.93084 1.1198 186.51 1.3264 4.1958 0.0055752
-118.62 0.068946 5.3261e-06 -61.436 -61.435 -0.23962 662.86 0.0015086 -61.439 -61.438 -0.23963 1.3391 2.0146 1669.4 -0.0070878 604.74 0.17560 0.016325 61.255 406.53 435.64 2.9772 0.93401 1.1231 187.06 1.3058 4.2233 0.0056421
-117.62 0.076937 5.8635e-06 -59.420 -59.419 -0.22661 661.84 0.0015109 -59.423 -59.422 -0.22663 1.3395 2.0165 1662.8 -0.0070726 592.58 0.17501 0.018101 55.245 407.46 436.76 2.9638 0.93718 1.1263 187.60 1.2857 4.2507 0.0057092
-116.62 0.085718 6.4447e-06 -57.403 -57.402 -0.21368 660.82 0.0015133 -57.406 -57.405 -0.21370 1.3400 2.0184 1656.1 -0.0070573 580.80 0.17442 0.020040 49.901 408.39 437.88 2.9506 0.94035 1.1295 188.14 1.2660 4.2782 0.0057767
-115.62 0.095353 7.0723e-06 -55.383 -55.382 -0.20082 659.80 0.0015156 -55.386 -55.385 -0.20084 1.3404 2.0204 1649.4 -0.0070417 569.38 0.17383 0.022152 45.142 409.33 439.01 2.9377 0.94352 1.1327 188.68 1.2468 4.3056 0.0058444
-114.62 0.10591 7.7489e-06 -53.361 -53.360 -0.18803 658.78 0.0015180 -53.365 -53.364 -0.18805 1.3409 2.0224 1642.7 -0.0070260 558.32 0.17323 0.024451 40.898 410.27 440.13 2.9250 0.94669 1.1360 189.22 1.2281 4.3330 0.0059123
-113.62 0.11746 8.4771e-06 -51.338 -51.336 -0.17530 657.76 0.0015203 -51.342 -51.340 -0.17533 1.3413 2.0244 1636.0 -0.0070100 547.59 0.17264 0.026949 37.107 411.21 441.26 2.9126 0.94987 1.1392 189.75 1.2097 4.3604 0.0059806
-112.62 0.13008 9.2598e-06 -49.312 -49.310 -0.16264 656.73 0.0015227 -49.316 -49.315 -0.16267 1.3418 2.0264 1629.3 -0.0069938 537.18 0.17204 0.029661 33.715 412.16 442.39 2.9005 0.95305 1.1424 190.28 1.1918 4.3879 0.0060491
-111.62 0.14384 1.0100e-05 -47.284 -47.282 -0.15005 655.71 0.0015251 -47.289 -47.287 -0.15008 1.3424 2.0285 1622.7 -0.0069774 527.08 0.17144 0.032600 30.675 413.10 443.53 2.8885 0.95623 1.1457 190.81 1.1742 4.4153 0.0061180
-110.62 0.15884 1.1000e-05 -45.254 -45.252 -0.13752 654.69 0.0015274 -45.259 -45.258 -0.13755 1.3429 2.0305 1616.0 -0.0069609 517.28 0.17084 0.035781 27.948 414.06 444.66 2.8769 0.95942 1.1490 191.34 1.1570 4.4427 0.0061871
-109.62 0.17516 1.1963e-05 -43.222 -43.220 -0.12506 653.66 0.0015298 -43.228 -43.226 -0.12509 1.3435 2.0326 1609.3 -0.0069441 507.76 0.17024 0.039220 25.497 415.01 445.80 2.8654 0.96261 1.1522 191.86 1.1402 4.4701 0.0062564
-108.62 0.19290 1.2993e-05 -41.188 -41.186 -0.11265 652.64 0.0015322 -41.194 -41.192 -0.11269 1.3441 2.0347 1602.6 -0.0069271 498.51 0.16964 0.042933 23.292 415.96 446.94 2.8542 0.96581 1.1555 192.38 1.1236 4.4974 0.0063261
-107.62 0.21215 1.4092e-05 -39.152 -39.149 -0.10032 651.61 0.0015347 -39.158 -39.156 -0.10036 1.3447 2.0369 1595.9 -0.0069098 489.52 0.16903 0.046937 21.305 416.92 448.09 2.8433 0.96901 1.1588 192.90 1.1075 4.5248 0.0063960
-106.62 0.23301 1.5262e-05 -37.114 -37.111 -0.088038 650.58 0.0015371 -37.120 -37.118 -0.088082 1.3453 2.0390 1589.2 -0.0068924 480.79 0.16843 0.051250 19.512 417.88 449.23 2.8325 0.97222 1.1621 193.41 1.0916 4.5522 0.0064662
-105.62 0.25561 1.6508e-05 -35.073 -35.070 -0.075821 649.55 0.0015395 -35.080 -35.078 -0.075868 1.3460 2.0412 1582.6 -0.0068747 472.30 0.16782 0.055891 17.892 418.85 450.38 2.8220 0.97544 1.1655 193.93 1.0760 4.5795 0.0065367
-104.62 0.28004 1.7832e-05 -33.030 -33.027 -0.063663 648.52 0.0015420 -33.038 -33.035 -0.063714 1.3467 2.0434 1575.9 -0.0068569 464.04 0.16721 0.060878 16.426 419.81 451.53 2.8116 0.97867 1.1688 194.44 1.0608 4.6069 0.0066074
-103.62 0.30643 1.9238e-05 -30.985 -30.981 -0.051564 647.49 0.0015444 -30.994 -30.991 -0.051619 1.3474 2.0456 1569.2 -0.0068387 456.00 0.16660 0.066231 15.099 420.78 452.68 2.8015 0.98191 1.1722 194.94 1.0458 4.6342 0.0066785
-102.62 0.33490 2.0728e-05 -28.938 -28.934 -0.039523 646.46 0.0015469 -28.947 -28.944 -0.039582 1.3481 2.0478 1562.5 -0.0068204 448.18 0.16600 0.071971 13.894 421.75 453.84 2.7916 0.98516 1.1755 195.44 1.0310 4.6615 0.0067498
-101.62 0.36558 2.2306e-05 -26.888 -26.884 -0.027539 645.43 0.0015494 -26.898 -26.894 -0.027602 1.3489 2.0501 1555.8 -0.0068018 440.57 0.16539 0.078120 12.801 422.73 454.99 2.7818 0.98841 1.1789 195.95 1.0166 4.6888 0.0068213
-100.62 0.39862 2.3974e-05 -24.836 -24.831 -0.015611 644.39 0.0015519 -24.847 -24.843 -0.015678 1.3497 2.0524 1549.1 -0.0067830 433.16 0.16478 0.084699 11.807 423.70 456.15 2.7723 0.99168 1.1823 196.44 1.0024 4.7161 0.0068932
-99.625 0.43414 2.5735e-05 -22.782 -22.777 -0.0037390 643.36 0.0015544 -22.794 -22.789 -0.0038103 1.3505 2.0547 1542.4 -0.0067639 425.95 0.16416 0.091731 10.901 424.68 457.31 2.7630 0.99496 1.1858 196.94 0.98838 4.7434 0.0069653
-98.625 0.47230 2.7593e-05 -20.726 -20.720 0.0080785 642.32 0.0015569 -20.738 -20.733 0.0080027 1.3514 2.0570 1535.7 -0.0067447 418.92 0.16355 0.099240 10.077 425.66 458.48 2.7538 0.99825 1.1892 197.43 0.97464 4.7707 0.0070377
-97.625 0.51325 2.9551e-05 -18.667 -18.660 0.019842 641.28 0.0015594 -18.680 -18.674 0.019762 1.3522 2.0594 1529.0 -0.0067251 412.07 0.16294 0.10725 9.3239 426.65 459.64 2.7448 1.0016 1.1927 197.92 0.96112 4.7979 0.0071103
-96.625 0.55714 3.1610e-05 -16.605 -16.598 0.031553 640.24 0.0015619 -16.620 -16.614 0.031467 1.3531 2.0618 1522.3 -0.0067053 405.39 0.16233 0.11579 8.6365 427.63 460.81 2.7360 1.0049 1.1962 198.40 0.94783 4.8251 0.0071832
-95.625 0.60416 3.3775e-05 -14.542 -14.534 0.043211 639.20 0.0015645 -14.557 -14.550 0.043120 1.3540 2.0642 1515.7 -0.0066853 398.88 0.16171 0.12488 8.0078 428.62 461.98 2.7274 1.0082 1.1997 198.88 0.93475 4.8524 0.0072564
-94.625 0.65446 3.6046e-05 -12.475 -12.467 0.054817 638.16 0.0015670 -12.491 -12.484 0.054721 1.3550 2.0667 1509.0 -0.0066650 392.53 0.16110 0.13455 7.4323 429.61 463.15 2.7189 1.0116 1.2032 199.36 0.92188 4.8796 0.0073299
-93.625 0.70822 3.8428e-05 -10.407 -10.398 0.066373 637.12 0.0015696 -10.424 -10.416 0.066271 1.3560 2.0691 1502.3 -0.0066444 386.34 0.16048 0.14482 6.9050 430.60 464.32 2.7107 1.0149 1.2068 199.83 0.90921 4.9068 0.0074036
-92.625 0.76564 4.0923e-05 -8.3355 -8.3258 0.077878 636.07 0.0015722 -8.3535 -8.3452 0.077771 1.3570 2.0716 1495.6 -0.0066236 380.31 0.15987 0.15573 6.4212 431.60 465.49 2.7025 1.0183 1.2104 200.30 0.89673 4.9340 0.0074776
-91.625 0.82689 4.3532e-05 -6.2617 -6.2513 0.089334 635.02 0.0015747 -6.2808 -6.2719 0.089220 1.3580 2.0742 1488.9 -0.0066025 374.41 0.15925 0.16731 5.9769 432.59 466.67 2.6946 1.0217 1.2140 200.77 0.88445 4.9611 0.0075518
-90.625 0.89218 4.6258e-05 -4.1854 -4.1741 0.10074 633.98 0.0015773 -4.2056 -4.1959 0.10062 1.3591 2.0767 1482.2 -0.0065811 368.66 0.15864 0.17958 5.5685 433.59 467.84 2.6868 1.0251 1.2177 201.24 0.87236 4.9883 0.0076263
-89.625 0.96172 4.9104e-05 -2.1064 -2.0943 0.11210 632.93 0.0015800 -2.1279 -2.1174 0.11197 1.3602 2.0793 1475.5 -0.0065595 363.05 0.15802 0.19258 5.1928 434.59 469.02 2.6791 1.0285 1.2213 201.70 0.86045 5.0154 0.0077011
-88.625 1.0357 5.2069e-05 -0.024833 -0.011730 0.12341 631.88 0.0015826 -0.047516 -0.036215 0.12328 1.3613 2.0819 1468.8 -0.0065375 357.56 0.15740 0.20633 4.8466 435.59 470.20 2.6717 1.0320 1.2250 202.15 0.84873 5.0425 0.0077761
-87.625 1.1144 5.5157e-05 2.0594 2.0735 0.13468 630.83 0.0015852 2.0355 2.0476 0.13454 1.3625 2.0846 1462.1 -0.0065153 352.21 0.15679 0.22087 4.5276 436.60 471.39 2.6643 1.0354 1.2288 202.61 0.83718 5.0696 0.0078514
-86.625 1.1979 5.8369e-05 4.1464 4.1615 0.14589 629.77 0.0015879 4.1211 4.1342 0.14575 1.3637 2.0873 1455.4 -0.0064928 346.98 0.15617 0.23623 4.2331 437.61 472.57 2.6571 1.0389 1.2325 203.06 0.82580 5.0967 0.0079270
-85.625 1.2866 6.1705e-05 6.2360 6.2523 0.15707 628.72 0.0015905 6.2094 6.2235 0.15691 1.3649 2.0900 1448.8 -0.0064701 341.87 0.15555 0.25245 3.9612 438.61 473.75 2.6501 1.0424 1.2363 203.50 0.81460 5.1237 0.0080028
-84.625 1.3806 6.5167e-05 8.3285 8.3459 0.16820 627.66 0.0015932 8.3004 8.3155 0.16803 1.3661 2.0927 1442.1 -0.0064470 336.87 0.15494 0.26956 3.7097 439.63 474.94 2.6432 1.0460 1.2402 203.95 0.80356 5.1508 0.0080789
-83.625 1.4803 6.8755e-05 10.424 10.442 0.17928 626.60 0.0015959 10.394 10.410 0.17911 1.3674 2.0955 1435.4 -0.0064236 331.99 0.15432 0.28760 3.4771 440.64 476.13 2.6364 1.0495 1.2440 204.38 0.79269 5.1778 0.0081553
-82.625 1.5858 7.2470e-05 12.522 12.542 0.19032 625.54 0.0015986 12.491 12.508 0.19014 1.3687 2.0983 1428.7 -0.0063999 327.22 0.15370 0.30659 3.2616 441.65 477.31 2.6298 1.0531 1.2479 204.82 0.78199 5.2048 0.0082319
-81.625 1.6975 7.6312e-05 14.623 14.644 0.20132 624.48 0.0016013 14.590 14.609 0.20113 1.3700 2.1012 1422.0 -0.0063759 322.55 0.15309 0.32659 3.0619 442.67 478.50 2.6233 1.0567 1.2519 205.25 0.77144 5.2318 0.0083088
-80.625 1.8155 8.0280e-05 16.726 16.749 0.21227 623.42 0.0016041 16.692 16.712 0.21208 1.3714 2.1041 1415.4 -0.0063516 317.99 0.15247 0.34763 2.8766 443.69 479.70 2.6169 1.0603 1.2558 205.67 0.76106 5.2587 0.0083860
-79.625 1.9402 8.4375e-05 18.833 18.858 0.22319 622.36 0.0016068 18.797 18.819 0.22299 1.3728 2.1070 1408.7 -0.0063270 313.52 0.15186 0.36974 2.7046 444.71 480.89 2.6106 1.0639 1.2598 206.10 0.75083 5.2857 0.0084634
-78.625 2.0718 8.8594e-05 20.943 20.969 0.23406 621.29 0.0016096 20.905 20.928 0.23385 1.3742 2.1099 1402.0 -0.0063021 309.15 0.15124 0.39296 2.5448 445.73 482.08 2.6045 1.0676 1.2639 206.51 0.74076 5.3126 0.0085411
-77.625 2.2107 9.2937e-05 23.055 23.083 0.24489 620.22 0.0016123 23.016 23.040 0.24468 1.3757 2.1129 1395.3 -0.0062768 304.88 0.15062 0.41735 2.3961 446.75 483.27 2.5985 1.0712 1.2680 206.93 0.73084 5.3395 0.0086190
-76.625 2.3571 9.7402e-05 25.171 25.201 0.25569 619.15 0.0016151 25.130 25.156 0.25546 1.3772 2.1159 1388.7 -0.0062512 300.69 0.15001 0.44292 2.2577 447.78 484.47 2.5926 1.0749 1.2721 207.34 0.72107 5.3664 0.0086972
-75.625 2.5113 0.00010199 27.290 27.321 0.26644 618.08 0.0016179 27.247 27.275 0.26620 1.3787 2.1190 1382.0 -0.0062253 296.59 0.14939 0.46974 2.1288 448.81 485.67 2.5869 1.0787 1.2762 207.74 0.71146 5.3933 0.0087757
-74.625 2.6736 0.00010669 29.411 29.445 0.27715 617.01 0.0016207 29.366 29.396 0.27691 1.3802 2.1221 1375.4 -0.0061990 292.58 0.14878 0.49783 2.0087 449.83 486.86 2.5812 1.0824 1.2804 208.14 0.70200 5.4201 0.0088544
-73.625 2.8444 0.00011151 31.536 31.572 0.28783 615.93 0.0016236 31.489 31.521 0.28758 1.3818 2.1252 1368.7 -0.0061724 288.65 0.14816 0.52725 1.8966 450.86 488.06 2.5757 1.0862 1.2847 208.54 0.69268 5.4469 0.0089334
-72.625 3.0240 0.00011644 33.664 33.702 0.29847 614.85 0.0016264 33.615 33.649 0.29821 1.3834 2.1284 1362.0 -0.0061454 284.81 0.14755 0.55804 1.7920 451.90 489.26 2.5703 1.0900 1.2889 208.93 0.68351 5.4737 0.0090126
-71.625 3.2127 0.00012147 35.795 35.836 0.30907 613.78 0.0016293 35.745 35.781 0.30880 1.3851 2.1316 1355.4 -0.0061181 281.03 0.14694 0.59024 1.6942 452.93 490.46 2.5650 1.0938 1.2932 209.32 0.67448 5.5005 0.0090922
-70.625 3.4108 0.00012661 37.930 37.973 0.31964 612.69 0.0016321 37.877 37.915 0.31935 1.3867 2.1349 1348.7 -0.0060904 277.34 0.14632 0.62390 1.6028 453.96 491.66 2.5598 1.0976 1.2976 209.70 0.66560 5.5273 0.0091720
-69.625 3.6187 0.00013185 40.067 40.113 0.33017 611.61 0.0016350 40.013 40.053 0.32987 1.3884 2.1382 1342.1 -0.0060624 273.72 0.14571 0.65906 1.5173 455.00 492.86 2.5547 1.1015 1.3020 210.08 0.65687 5.5540 0.0092520
-68.625 3.8367 0.00013718 42.208 42.257 0.34066 610.53 0.0016379 42.152 42.195 0.34036 1.3902 2.1415 1335.5 -0.0060339 270.17 0.14510 0.69577 1.4372 456.04 494.06 2.5497 1.1054 1.3064 210.45 0.64827 5.5807 0.0093324
-67.625 4.0652 0.00014259 44.353 44.404 0.35112 609.44 0.0016409 44.294 44.340 0.35080 1.3919 2.1449 1328.8 -0.0060051 266.69 0.14449 0.73408 1.3622 457.08 495.26 2.5448 1.1093 1.3109 210.82 0.63981 5.6074 0.0094130
-66.625 4.3046 0.00014809 46.500 46.555 0.36154 608.35 0.0016438 46.439 46.488 0.36122 1.3937 2.1483 1322.2 -0.0059760 263.28 0.14388 0.77404 1.2919 458.12 496.46 2.5400 1.1133 1.3154 211.18 0.63150 5.6341 0.0094939
-65.625 4.5551 0.00015365 48.651 48.709 0.37193 607.26 0.0016467 48.588 48.640 0.37160 1.3955 2.1518 1315.6 -0.0059464 259.93 0.14327 0.81570 1.2259 459.16 497.67 2.5353 1.1172 1.3200 211.54 0.62332 5.6608 0.0095750
-64.625 4.8173 0.00015928 50.806 50.867 0.38229 606.16 0.0016497 50.740 50.795 0.38195 1.3974 2.1553 1308.9 -0.0059164 256.65 0.14266 0.85910 1.1640 460.21 498.87 2.5307 1.1212 1.3246 211.89 0.61527 5.6874 0.0096564
-63.625 5.0915 0.00016497 52.964 53.028 0.39261 605.07 0.0016527 52.896 52.954 0.39226 1.3993 2.1588 1302.3 -0.0058861 253.42 0.14205 0.90429 1.1058 461.25 500.07 2.5262 1.1252 1.3293 212.24 0.60736 5.7140 0.0097382
-62.625 5.3781 0.00017070 55.125 55.193 0.40290 603.97 0.0016557 55.055 55.117 0.40254 1.4012 2.1624 1295.7 -0.0058553 250.26 0.14144 0.95134 1.0511 462.30 501.28 2.5218 1.1293 1.3340 212.58 0.59958 5.7406 0.0098201
-61.625 5.6774 0.00017647 57.290 57.362 0.41316 602.87 0.0016587 57.218 57.283 0.41279 1.4031 2.1660 1289.1 -0.0058241 247.16 0.14084 1.0003 0.99972 463.35 502.48 2.5175 1.1333 1.3387 212.92 0.59194 5.7672 0.0099024
-60.625 5.9899 0.00018227 59.458 59.534 0.42339 601.77 0.0016618 59.385 59.453 0.42301 1.4051 2.1697 1282.5 -0.0057925 244.12 0.14023 1.0512 0.95131 464.40 503.68 2.5133 1.1374 1.3435 213.26 0.58442 5.7938 0.0099850
-59.625 6.3160 0.00018808 61.630 61.710 0.43359 600.66 0.0016648 61.554 61.627 0.43320 1.4071 2.1734 1275.9 -0.0057605 241.13 0.13962 1.1041 0.90573 465.45 504.89 2.5091 1.1415 1.3483 213.58 0.57704 5.8203 0.010068
-58.625 6.6561 0.00019389 63.806 63.890 0.44375 599.55 0.0016679 63.728 63.805 0.44335 1.4091 2.1772 1269.3 -0.0057280 238.19 0.13902 1.1591 0.86277 466.50 506.09 2.5051 1.1457 1.3532 213.90 0.56978 5.8468 0.010151
-57.625 7.0107 0.00019969 65.986 66.074 0.45389 598.44 0.0016710 65.905 65.986 0.45348 1.4111 2.1810 1262.7 -0.0056951 235.31 0.13842 1.2161 0.82228 467.55 507.30 2.5011 1.1498 1.3581 214.22 0.56265 5.8733 0.010234
-56.625 7.3801 0.00020546 68.169 68.262 0.46399 597.33 0.0016741 68.086 68.172 0.46358 1.4132 2.1848 1256.1 -0.0056617 232.48 0.13781 1.2754 0.78408 468.60 508.50 2.4972 1.1540 1.3631 214.53 0.55564 5.8998 0.010318
-55.625 7.7648 0.00021119 70.356 70.454 0.47407 596.22 0.0016772 70.271 70.361 0.47364 1.4153 2.1887 1249.5 -0.0056279 229.69 0.13721 1.3369 0.74802 469.66 509.71 2.4934 1.1582 1.3681 214.84 0.54875 5.9263 0.010402
-54.625 8.1652 0.00021687 72.546 72.650 0.48412 595.10 0.0016804 72.460 72.554 0.48368 1.4174 2.1927 1242.9 -0.0055937 226.96 0.13661 1.4006 0.71396 470.72 510.91 2.4897 1.1624 1.3731 215.14 0.54199 5.9527 0.010486
-53.625 8.5819 0.00022247 74.741 74.849 0.49414 593.98 0.0016836 74.652 74.752 0.49369 1.4196 2.1967 1236.3 -0.0055589 224.27 0.13601 1.4667 0.68178 471.77 512.11 2.4860 1.1667 1.3782 215.43 0.53535 5.9792 0.010571
-52.625 9.0151 0.00022798 76.939 77.053 0.50413 592.86 0.0016867 76.849 76.954 0.50368 1.4218 2.2007 1229.8 -0.0055237 221.63 0.13541 1.5353 0.65136 472.83 513.32 2.4824 1.1710 1.3834 215.72 0.52882 6.0056 0.010656
-51.625 9.4655 0.00023339 79.141 79.261 0.51409 591.73 0.0016900 79.049 79.159 0.51363 1.4240 2.2048 1223.2 -0.0054880 219.04 0.13482 1.6062 0.62258 473.89 514.52 2.4789 1.1752 1.3886 216.00 0.52241 6.0320 0.010741
-50.625 9.9335 0.00023866 81.347 81.473 0.52403 590.60 0.0016932 81.253 81.369 0.52356 1.4262 2.2089 1216.6 -0.0054519 216.48 0.13422 1.6797 0.59534 474.95 515.73 2.4755 1.1796 1.3938 216.28 0.51612 6.0584 0.010827
-49.625 10.419 0.00024378 83.557 83.689 0.53394 589.47 0.0016964 83.462 83.584 0.53347 1.4285 2.2131 1210.1 -0.0054152 213.98 0.13363 1.7558 0.56954 476.01 516.93 2.4722 1.1839 1.3991 216.55 0.50994 6.0848 0.010913
-48.625 10.924 0.00024873 85.771 85.910 0.54382 588.34 0.0016997 85.674 85.802 0.54334 1.4308 2.2173 1203.5 -0.0053780 211.51 0.13303 1.8345 0.54510 477.07 518.13 2.4689 1.1883 1.4044 216.82 0.50387 6.1112 0.010999
-47.625 11.448 0.00025348 87.990 88.134 0.55368 587.20 0.0017030 87.891 88.025 0.55319 1.4331 2.2216 1196.9 -0.0053403 209.08 0.13244 1.9159 0.52194 478.14 519.33 2.4657 1.1927 1.4098 217.08 0.49792 6.1375 0.011085
-46.625 11.991 0.00025801 90.212 90.363 0.56351 586.06 0.0017063 90.111 90.252 0.56302 1.4354 2.2259 1190.4 -0.0053020 206.69 0.13185 2.0001 0.49997 479.20 520.53 2.4625 1.1971 1.4153 217.33 0.49207 6.1639 0.011172
-45.625 12.554 0.00026230 92.438 92.597 0.57332 584.92 0.0017096 92.336 92.484 0.57282 1.4378 2.2303 1183.8 -0.0052633 204.34 0.13126 2.0872 0.47912 480.27 521.74 2.4594 1.2015 1.4207 217.58 0.48633 6.1902 0.011259
-44.625 13.137 0.00026631 94.668 94.834 0.58310 583.77 0.0017130 94.565 94.720 0.58260 1.4402 2.2347 1177.3 -0.0052240 202.03 0.13067 2.1771 0.45933 481.33 522.94 2.4564 1.2060 1.4263 217.82 0.48069 6.2165 0.011347
-43.625 13.741 0.00027003 96.903 97.077 0.59285 582.62 0.0017164 96.799 96.961 0.59235 1.4426 2.2392 1170.7 -0.0051841 199.75 0.13008 2.2700 0.44053 482.40 524.14 2.4535 1.2104 1.4319 218.05 0.47516 6.2429 0.011435
-42.625 14.367 0.00027341 99.141 99.323 0.60259 581.47 0.0017198 99.036 99.207 0.60208 1.4450 2.2437 1164.2 -0.0051437 197.51 0.12949 2.3659 0.42267 483.46 525.33 2.4506 1.2149 1.4375 218.28 0.46973 6.2692 0.011523
-41.625 15.015 0.00027643 101.38 101.57 0.61229 580.32 0.0017232 101.28 101.46 0.61179 1.4475 2.2483 1157.7 -0.0051027 195.30 0.12891 2.4649 0.40569 484.53 526.53 2.4478 1.2195 1.4432 218.50 0.46440 6.2955 0.011612
-40.625 15.686 0.00027906 103.63 103.83 0.62198 579.16 0.0017266 103.52 103.71 0.62147 1.4500 2.2529 1151.1 -0.0050611 193.13 0.12832 2.5671 0.38954 485.60 527.73 2.4450 1.2240 1.4489 218.72 0.45917 6.3218 0.011701
-39.625 16.380 0.00028126 105.88 106.09 0.63164 578.00 0.0017301 105.78 105.97 0.63113 1.4525 2.2576 1144.6 -0.0050189 190.99 0.12774 2.6725 0.37418 486.67 528.93 2.4423 1.2286 1.4547 218.93 0.45403 6.3481 0.011790
-38.625 17.097 0.00028299 108.14 108.36 0.64128 576.83 0.0017336 108.03 108.24 0.64077 1.4550 2.2623 1138.0 -0.0049761 188.88 0.12716 2.7813 0.35955 487.74 530.12 2.4397 1.2332 1.4606 219.13 0.44900 6.3744 0.011880
-37.625 17.838 0.00028423 110.40 110.62 0.65090 575.66 0.0017371 110.29 110.51 0.65039 1.4576 2.2671 1131.5 -0.0049327 186.81 0.12658 2.8934 0.34562 488.81 531.32 2.4371 1.2378 1.4665 219.33 0.44405 6.4007 0.011970
-36.625 18.604 0.00028493 112.66 112.90 0.66049 574.49 0.0017407 112.56 112.78 0.65999 1.4602 2.2719 1125.0 -0.0048887 184.76 0.12600 3.0089 0.33235 489.88 532.51 2.4346 1.2424 1.4724 219.52 0.43920 6.4270 0.012060
-35.625 19.395 0.00028504 114.93 115.18 0.67006 573.32 0.0017442 114.83 115.06 0.66956 1.4628 2.2768 1118.5 -0.0048440 182.75 0.12542 3.1280 0.31969 490.95 533.70 2.4321 1.2471 1.4784 219.70 0.43444 6.4533 0.012151
-34.625 20.212 0.00028454 117.21 117.46 0.67962 572.14 0.0017478 117.10 117.34 0.67912 1.4654 2.2818 1111.9 -0.0047987 180.76 0.12485 3.2506 0.30763 492.02 534.89 2.4297 1.2517 1.4845 219.88 0.42977 6.4797 0.012243
-33.625 21.056 0.00028337 119.48 119.75 0.68915 570.96 0.0017514 119.38 119.63 0.68865 1.4681 2.2868 1105.4 -0.0047527 178.80 0.12427 3.3770 0.29612 493.09 536.08 2.4273 1.2564 1.4906 220.05 0.42519 6.5060 0.012334
-32.625 21.926 0.00028149 121.77 122.04 0.69866 569.77 0.0017551 121.66 121.93 0.69817 1.4708 2.2918 1098.9 -0.0047061 176.87 0.12370 3.5071 0.28514 494.17 537.27 2.4250 1.2611 1.4968 220.21 0.42070 6.5323 0.012426
-31.625 22.823 0.00027885 124.05 124.34 0.70814 568.58 0.0017588 123.95 124.23 0.70767 1.4735 2.2970 1092.3 -0.0046587 174.97 0.12313 3.6410 0.27465 495.24 538.46 2.4227 1.2659 1.5031 220.36 0.41629 6.5587 0.012519
-30.625 23.749 0.00027540 126.34 126.65 0.71761 567.39 0.0017625 126.24 126.53 0.71714 1.4762 2.3021 1085.8 -0.0046107 173.09 0.12256 3.7787 0.26464 496.31 539.64 2.4205 1.2706 1.5094 220.51 0.41196 6.5850 0.012612
-29.625 24.703 0.00027109 128.64 128.95 0.72706 566.19 0.0017662 128.54 128.84 0.72660 1.4790 2.3074 1079.3 -0.0045619 171.24 0.12200 3.9205 0.25507 497.38 540.83 2.4184 1.2754 1.5157 220.65 0.40772 6.6114 0.012706
-28.625 25.687 0.00026587 130.94 131.27 0.73649 564.99 0.0017699 130.84 131.16 0.73604 1.4818 2.3126 1072.8 -0.0045124 169.42 0.12143 4.0663 0.24592 498.46 542.01 2.4162 1.2802 1.5222 220.79 0.40356 6.6378 0.012800
-27.625 26.700 0.00025968 133.25 133.59 0.74590 563.78 0.0017737 133.15 133.48 0.74547 1.4846 2.3180 1066.2 -0.0044621 167.62 0.12087 4.2163 0.23717 499.53 543.19 2.4142 1.2850 1.5286 220.91 0.39947 6.6642 0.012894
-26.625 27.743 0.00025245 135.56 135.91 0.75529 562.57 0.0017775 135.47 135.81 0.75487 1.4874 2.3234 1059.7 -0.0044111 165.84 0.12031 4.3705 0.22881 500.60 544.37 2.4122 1.2899 1.5352 221.03 0.39547 6.6906 0.012989
-25.625 28.817 0.00024414 137.87 138.24 0.76466 561.36 0.0017814 137.78 138.14 0.76426 1.4902 2.3289 1053.2 -0.0043593 164.09 0.11975 4.5290 0.22080 501.68 545.55 2.4102 1.2947 1.5418 221.14 0.39154 6.7171 0.013084
-24.625 29.923 0.00023467 140.19 140.57 0.77401 560.14 0.0017853 140.11 140.48 0.77363 1.4931 2.3344 1046.7 -0.0043067 162.36 0.11919 4.6918 0.21314 502.75 546.72 2.4083 1.2996 1.5485 221.25 0.38768 6.7436 0.013180
-23.625 31.061 0.00022398 142.52 142.91 0.78335 558.92 0.0017892 142.44 142.82 0.78298 1.4960 2.3400 1040.1 -0.0042533 160.65 0.11863 4.8592 0.20580 503.82 547.90 2.4064 1.3045 1.5552 221.35 0.38391 6.7701 0.013277
-22.625 32.232 0.00021200 144.85 145.25 0.79266 557.69 0.0017931 144.77 145.17 0.79232 1.4990 2.3457 1033.6 -0.0041990 158.97 0.11807 5.0311 0.19877 504.90 549.07 2.4045 1.3095 1.5621 221.44 0.38020 6.7967 0.013374
-21.625 33.435 0.00019866 147.18 147.60 0.80196 556.46 0.0017971 147.11 147.52 0.80164 1.5019 2.3514 1027.1 -0.0041439 157.30 0.11752 5.2076 0.19203 505.97 550.24 2.4027 1.3144 1.5690 221.52 0.37656 6.8232 0.013471
-20.625 34.673 0.00018389 149.52 149.96 0.81124 555.23 0.0018011 149.45 149.88 0.81095 1.5049 2.3572 1020.6 -0.0040879 155.66 0.11697 5.3889 0.18557 507.04 551.40 2.4010 1.3194 1.5759 221.59 0.37300 6.8499 0.013569
-19.625 35.946 0.00016760 151.86 152.32 0.82051 553.99 0.0018051 151.80 152.25 0.82024 1.5079 2.3630 1014.0 -0.0040311 154.04 0.11642 5.5750 0.17937 508.11 552.57 2.3992 1.3244 1.5829 221.66 0.36950 6.8765 0.013668
-18.625 37.253 0.00014972 154.21 154.68 0.82975 552.74 0.0018092 154.16 154.62 0.82952 1.5109 2.3689 1007.5 -0.0039733 152.44 0.11587 5.7660 0.17343 509.19 553.73 2.3976 1.3294 1.5901 221.72 0.36608 6.9032 0.013767
-17.625 38.596 0.00013016 156.57 157.05 0.83899 551.49 0.0018133 156.52 157.00 0.83878 1.5140 2.3749 1001.0 -0.0039145 150.86 0.11532 5.9621 0.16773 510.26 554.89 2.3959 1.3345 1.5972 221.77 0.36272 6.9300 0.013867
-16.625 39.976 0.00010884 158.93 159.43 0.84820 550.24 0.0018174 158.89 159.39 0.84803 1.5171 2.3810 994.44 -0.0038549 149.29 0.11478 6.1632 0.16225 511.33 556.05 2.3943 1.3395 1.6045 221.81 0.35942 6.9568 0.013968
-15.625 41.392 8.5666e-05 161.29 161.81 0.85740 548.98 0.0018216 161.26 161.78 0.85726 1.5202 2.3871 987.91 -0.0037942 147.75 0.11423 6.3696 0.15700 512.40 557.20 2.3927 1.3446 1.6119 221.85 0.35619 6.9836 0.014069
-14.625 42.846 6.0541e-05 163.66 164.20 0.86658 547.71 0.0018258 163.64 164.18 0.86649 1.5233 2.3933 981.37 -0.0037325 146.22 0.11369 6.5812 0.15195 513.47 558.36 2.3912 1.3497 1.6193 221.87 0.35302 7.0105 0.014170
-13.625 44.338 3.3369e-05 166.03 166.59 0.87574 546.44 0.0018300 166.02 166.58 0.87569 1.5264 2.3996 974.83 -0.0036698 144.72 0.11315 6.7983 0.14710 514.54 559.51 2.3897 1.3549 1.6268 221.89 0.34992 7.0375 0.014273
-12.625 45.870 4.0483e-06 168.41 168.99 0.88489 545.17 0.0018343 168.41 168.99 0.88489 1.5296 2.4059 968.29 -0.0036061 143.23 0.11261 7.0208 0.14243 515.61 560.65 2.3883 1.3600 1.6344 221.90 0.34688 7.0646 0.014376
-11.625 143.07 undefined 170.06 171.87 0.89119 545.00 0.0018349 170.06 171.87 0.89119 1.5332 2.4052 969.88 -0.0036290 143.00 0.11263 545.00 0.0018349 170.06 171.87 0.89119 1.5332 2.4052 969.88 -0.0036290 143.00 0.11263
-10.625 254.81 undefined 171.59 174.81 0.89705 545.00 0.0018349 171.59 174.81 0.89705 1.5369 2.4035 972.68 -0.0036645 142.97 0.11274 545.00 0.0018349 171.59 174.81 0.89705 1.5369 2.4035 972.68 -0.0036645 142.97 0.11274
-9.6250 366.48 undefined 173.13 177.77 0.90290 545.00 0.0018349 173.13 177.77 0.90290 1.5406 2.4019 975.45 -0.0036991 142.94 0.11285 545.00 0.0018349 173.13 177.77 0.90290 1.5406 2.4019 975.45 -0.0036991 142.94 0.11285
-8.6250 478.08 undefined 174.67 180.72 0.90875 545.00 0.0018349 174.67 180.72 0.90875 1.5444 2.4004 978.20 -0.0037330 142.91 0.11296 545.00 0.0018349 174.67 180.72 0.90875 1.5444 2.4004 978.20 -0.0037330 142.91 0.11296
-7.6250 589.62 undefined 176.22 183.68 0.91458 545.00 0.0018349 176.22 183.68 0.91458 1.5481 2.3991 980.93 -0.0037660 142.88 0.11307 545.00 0.0018349 176.22 183.68 0.91458 1.5481 2.3991 980.93 -0.0037660 142.88 0.11307
-6.6250 701.10 undefined 177.77 186.64 0.92041 545.00 0.0018349 177.77 186.64 0.92041 1.5519 2.3978 983.63 -0.0037982 142.85 0.11318 545.00 0.0018349 177.77 186.64 0.92041 1.5519 2.3978 983.63 -0.0037982 142.85 0.11318
-5.6250 812.50 undefined 179.32 189.60 0.92622 545.00 0.0018349 179.32 189.60 0.92622 1.5557 2.3967 986.31 -0.0038297 142.83 0.11329 545.00 0.0018349 179.32 189.60 0.92622 1.5557 2.3967 986.31 -0.0038297 142.83 0.11329
-4.6250 923.83 undefined 180.88 192.57 0.93204 545.00 0.0018349 180.88 192.57 0.93204 1.5594 2.3956 988.97 -0.0038604 142.80 0.11340 545.00 0.0018349 180.88 192.57 0.93204 1.5594 2.3956 988.97 -0.0038604 142.80 0.11340
-3.6250 1035.1 undefined 182.44 195.54 0.93784 545.00 0.0018349 182.44 195.54 0.93784 1.5633 2.3947 991.60 -0.0038905 142.77 0.11351 545.00 0.0018349 182.44 195.54 0.93784 1.5633 2.3947 991.60 -0.0038905 142.77 0.11351
-2.6250 1146.3 undefined 184.01 198.51 0.94364 545.00 0.0018349 184.01 198.51 0.94364 1.5671 2.3939 994.21 -0.0039198 142.74 0.11362 545.00 0.0018349 184.01 198.51 0.94364 1.5671 2.3939 994.21 -0.0039198 142.74 0.11362
-1.6250 1257.4 undefined 185.58 201.48 0.94943 545.00 0.0018349 185.58 201.48 0.94943 1.5709 2.3931 996.80 -0.0039485 142.72 0.11373 545.00 0.0018349 185.58 201.48 0.94943 1.5709 2.3931 996.80 -0.0039485 142.72 0.11373
-0.62500 1368.5 undefined 187.15 204.46 0.95521 545.00 0.0018349 187.15 204.46 0.95521 1.5748 2.3925 999.36 -0.0039764 142.69 0.11384 545.00 0.0018349 187.15 204.46 0.95521 1.5748 2.3925 999.36 -0.0039764 142.69 0.11384
0.37500 1479.4 undefined 188.73 207.44 0.96098 545.00 0.0018349 188.73 207.44 0.96098 1.5786 2.3919 1001.9 -0.0040038 142.66 0.11395 545.00 0.0018349 188.73 207.44 0.96098 1.5786 2.3919 1001.9 -0.0040038 142.66 0.11395
1.3750 1590.3 undefined 190.31 210.43 0.96675 545.00 0.0018349 190.31 210.43 0.96675 1.5825 2.3914 1004.4 -0.0040305 142.64 0.11407 545.00 0.0018349 190.31 210.43 0.96675 1.5825 2.3914 1004.4 -0.0040305 142.64 0.11407
2.3750 1701.2 undefined 191.89 213.41 0.97251 545.00 0.0018349 191.89 213.41 0.97251 1.5864 2.3910 1006.9 -0.0040566 142.61 0.11418 545.00 0.0018349 191.89 213.41 0.97251 1.5864 2.3910 1006.9 -0.0040566 142.61 0.11418
3.3750 1811.9 undefined 193.48 216.40 0.97827 545.00 0.0018349 193.48 216.40 0.97827 1.5903 2.3907 1009.4 -0.0040821 142.59 0.11429 545.00 0.0018349 193.48 216.40 0.97827 1.5903 2.3907 1009.4 -0.0040821 142.59 0.11429
4.3750 1922.6 undefined 195.07 219.39 0.98401 545.00 0.0018349 195.07 219.39 0.98401 1.5942 2.3905 1011.9 -0.0041070 142.56 0.11440 545.00 0.0018349 195.07 219.39 0.98401 1.5942 2.3905 1011.9 -0.0041070 142.56 0.11440
5.3750 2033.2 undefined 196.67 222.39 0.98975 545.00 0.0018349 196.67 222.39 0.98975 1.5982 2.3903 1014.3 -0.0041313 142.54 0.11452 545.00 0.0018349 196.67 222.39 0.98975 1.5982 2.3903 1014.3 -0.0041313 142.54 0.11452
6.3750 2143.7 undefined 198.27 225.39 0.99549 545.00 0.0018349 198.27 225.39 0.99549 1.6021 2.3902 1016.7 -0.0041551 142.51 0.11463 545.00 0.0018349 198.27 225.39 0.99549 1.6021 2.3902 1016.7 -0.0041551 142.51 0.11463
7.3750 2254.2 undefined 199.87 228.39 1.0012 545.00 0.0018349 199.87 228.39 1.0012 1.6061 2.3902 1019.2 -0.0041784 142.49 0.11474 545.00 0.0018349 199.87 228.39 1.0012 1.6061 2.3902 1019.2 -0.0041784 142.49 0.11474
8.3750 2364.5 undefined 201.48 231.39 1.0069 545.00 0.0018349 201.48 231.39 1.0069 1.6101 2.3903 1021.5 -0.0042011 142.47 0.11486 545.00 0.0018349 201.48 231.39 1.0069 1.6101 2.3903 1021.5 -0.0042011 142.47 0.11486
9.3750 2474.8 undefined 203.09 234.40 1.0127 545.00 0.0018349 203.09 234.40 1.0127 1.6141 2.3905 1023.9 -0.0042233 142.45 0.11497 545.00 0.0018349 203.09 234.40 1.0127 1.6141 2.3905 1023.9 -0.0042233 142.45 0.11497
10.375 2585.0 undefined 204.71 237.41 1.0184 545.00 0.0018349 204.71 237.41 1.0184 1.6181 2.3907 1026.3 -0.0042449 142.42 0.11509 545.00 0.0018349 204.71 237.41 1.0184 1.6181 2.3907 1026.3 -0.0042449 142.42 0.11509
11.375 2695.2 undefined 206.33 240.42 1.0241 545.00 0.0018349 206.33 240.42 1.0241 1.6221 2.3910 1028.6 -0.0042661 142.40 0.11520 545.00 0.0018349 206.33 240.42 1.0241 1.6221 2.3910 1028.6 -0.0042661 142.40 0.11520
12.375 2805.2 undefined 207.95 243.44 1.0298 545.00 0.0018349 207.95 243.44 1.0298 1.6261 2.3913 1030.9 -0.0042868 142.38 0.11532 545.00 0.0018349 207.95 243.44 1.0298 1.6261 2.3913 1030.9 -0.0042868 142.38 0.11532
13.375 2915.2 undefined 209.58 246.46 1.0355 545.00 0.0018349 209.58 246.46 1.0355 1.6302 2.3917 1033.2 -0.0043071 142.36 0.11543 545.00 0.0018349 209.58 246.46 1.0355 1.6302 2.3917 1033.2 -0.0043071 142.36 0.11543
14.375 3025.1 undefined 211.21 249.48 1.0411 545.00 0.0018349 211.21 249.48 1.0411 1.6342 2.3922 1035.5 -0.0043268 142.34 0.11555 545.00 0.0018349 211.21 249.48 1.0411 1.6342 2.3922 1035.5 -0.0043268 142.34 0.11555
15.375 3134.9 undefined 212.85 252.51 1.0468 545.00 0.0018349 212.85 252.51 1.0468 1.6383 2.3927 1037.7 -0.0043461 142.32 0.11567 545.00 0.0018349 212.85 252.51 1.0468 1.6383 2.3927 1037.7 -0.0043461 142.32 0.11567
16.375 3244.6 undefined 214.49 255.54 1.0525 545.00 0.0018349 214.49 255.54 1.0525 1.6423 2.3933 1040.0 -0.0043650 142.30 0.11578 545.00 0.0018349 214.49 255.54 1.0525 1.6423 2.3933 1040.0 -0.0043650 142.30 0.11578
17.375 3354.2 undefined 216.13 258.57 1.0582 545.00 0.0018349 216.13 258.57 1.0582 1.6464 2.3940 1042.2 -0.0043835 142.28 0.11590 545.00 0.0018349 216.13 258.57 1.0582 1.6464 2.3940 1042.2 -0.0043835 142.28 0.11590
18.375 3463.8 undefined 217.78 261.60 1.0638 545.00 0.0018349 217.78 261.60 1.0638 1.6505 2.3947 1044.4 -0.0044015 142.26 0.11602 545.00 0.0018349 217.78 261.60 1.0638 1.6505 2.3947 1044.4 -0.0044015 142.26 0.11602
19.375 3573.2 undefined 219.43 264.64 1.0695 545.00 0.0018349 219.43 264.64 1.0695 1.6547 2.3954 1046.6 -0.0044191 142.24 0.11613 545.00 0.0018349 219.43 264.64 1.0695 1.6547 2.3954 1046.6 -0.0044191 142.24 0.11613
20.375 3682.6 undefined 221.09 267.68 1.0752 545.00 0.0018349 221.09 267.68 1.0752 1.6588 2.3963 1048.8 -0.0044363 142.22 0.11625 545.00 0.0018349 221.09 267.68 1.0752 1.6588 2.3963 1048.8 -0.0044363 142.22 0.11625
21.375 3791.9 undefined 222.75 270.72 1.0808 545.00 0.0018349 222.75 270.72 1.0808 1.6629 2.3971 1051.0 -0.0044531 142.20 0.11637 545.00 0.0018349 222.75 270.72 1.0808 1.6629 2.3971 1051.0 -0.0044531 142.20 0.11637
22.375 3901.1 undefined 224.42 273.77 1.0864 545.00 0.0018349 224.42 273.77 1.0864 1.6671 2.3981 1053.2 -0.0044695 142.18 0.11649 545.00 0.0018349 224.42 273.77 1.0864 1.6671 2.3981 1053.2 -0.0044695 142.18 0.11649
23.375 4010.2 undefined 226.09 276.82 1.0921 545.00 0.0018349 226.09 276.82 1.0921 1.6712 2.3990 1055.3 -0.0044855 142.17 0.11660 545.00 0.0018349 226.09 276.82 1.0921 1.6712 2.3990 1055.3 -0.0044855 142.17 0.11660
24.375 4119.3 undefined 227.76 279.87 1.0977 545.00 0.0018349 227.76 279.87 1.0977 1.6754 2.4001 1057.4 -0.0045012 142.15 0.11672 545.00 0.0018349 227.76 279.87 1.0977 1.6754 2.4001 1057.4 -0.0045012 142.15 0.11672
25.375 4228.2 undefined 229.44 282.93 1.1033 545.00 0.0018349 229.44 282.93 1.1033 1.6795 2.4012 1059.6 -0.0045165 142.13 0.11684 545.00 0.0018349 229.44 282.93 1.1033 1.6795 2.4012 1059.6 -0.0045165 142.13 0.11684
26.375 4337.1 undefined 231.12 285.99 1.1090 545.00 0.0018349 231.12 285.99 1.1090 1.6837 2.4023 1061.7 -0.0045314 142.11 0.11696 545.00 0.0018349 231.12 285.99 1.1090 1.6837 2.4023 1061.7 -0.0045314 142.11 0.11696
27.375 4445.8 undefined 232.80 289.05 1.1146 545.00 0.0018349 232.80 289.05 1.1146 1.6879 2.4035 1063.8 -0.0045460 142.10 0.11708 545.00 0.0018349 232.80 289.05 1.1146 1.6879 2.4035 1063.8 -0.0045460 142.10 0.11708
28.375 4554.5 undefined 234.49 292.11 1.1202 545.00 0.0018349 234.49 292.11 1.1202 1.6921 2.4047 1065.8 -0.0045603 142.08 0.11720 545.00 0.0018349 234.49 292.11 1.1202 1.6921 2.4047 1065.8 -0.0045603 142.08 0.11720
29.375 4663.1 undefined 236.19 295.18 1.1258 545.00 0.0018349 236.19 295.18 1.1258 1.6963 2.4059 1067.9 -0.0045742 142.07 0.11733 545.00 0.0018349 236.19 295.18 1.1258 1.6963 2.4059 1067.9 -0.0045742 142.07 0.11733
30.375 4771.6 undefined 237.89 298.25 1.1314 545.00 0.0018349 237.89 298.25 1.1314 1.7005 2.4073 1069.9 -0.0045878 142.05 0.11745 545.00 0.0018349 237.89 298.25 1.1314 1.7005 2.4073 1069.9 -0.0045878 142.05 0.11745
31.375 4880.1 undefined 239.59 301.33 1.1370 545.00 0.0018349 239.59 301.33 1.1370 1.7048 2.4086 1072.0 -0.0046010 142.03 0.11757 545.00 0.0018349 239.59 301.33 1.1370 1.7048 2.4086 1072.0 -0.0046010 142.03 0.11757
32.375 4988.4 undefined 241.30 304.40 1.1426 545.00 0.0018349 241.30 304.40 1.1426 1.7090 2.4100 1074.0 -0.0046140 142.02 0.11769 545.00 0.0018349 241.30 304.40 1.1426 1.7090 2.4100 1074.0 -0.0046140 142.02 0.11769
33.375 5096.6 undefined 243.01 307.48 1.1482 545.00 0.0018349 243.01 307.48 1.1482 1.7133 2.4114 1076.0 -0.0046266 142.00 0.11781 545.00 0.0018349 243.01 307.48 1.1482 1.7133 2.4114 1076.0 -0.0046266 142.00 0.11781
34.375 5204.8 undefined 244.72 310.57 1.1538 545.00 0.0018349 244.72 310.57 1.1538 1.7175 2.4129 1078.0 -0.0046390 141.99 0.11794 545.00 0.0018349 244.72 310.57 1.1538 1.7175 2.4129 1078.0 -0.0046390 141.99 0.11794
35.375 5312.9 undefined 246.44 313.65 1.1594 545.00 0.0018349 246.44 313.65 1.1594 1.7218 2.4144 1080.0 -0.0046510 141.98 0.11806 545.00 0.0018349 246.44 313.65 1.1594 1.7218 2.4144 1080.0 -0.0046510 141.98 0.11806
36.375 5420.8 undefined 248.17 316.74 1.1650 545.00 0.0018349 248.17 316.74 1.1650 1.7260 2.4160 1082.0 -0.0046628 141.96 0.11818 545.00 0.0018349 248.17 316.74 1.1650 1.7260 2.4160 1082.0 -0.0046628 141.96 0.11818
37.375 5528.7 undefined 249.89 319.84 1.1705 545.00 0.0018349 249.89 319.84 1.1705 1.7303 2.4176 1084.0 -0.0046742 141.95 0.11831 545.00 0.0018349 249.89 319.84 1.1705 1.7303 2.4176 1084.0 -0.0046742 141.95 0.11831
38.375 5636.5 undefined 251.63 322.93 1.1761 545.00 0.0018349 251.63 322.93 1.1761 1.7346 2.4192 1086.0 -0.0046854 141.93 0.11843 545.00 0.0018349 251.63 322.93 1.1761 1.7346 2.4192 1086.0 -0.0046854 141.93 0.11843
39.375 5744.2 undefined 253.36 326.03 1.1817 545.00 0.0018349 253.36 326.03 1.1817 1.7389 2.4209 1087.9 -0.0046963 141.92 0.11855 545.00 0.0018349 253.36 326.03 1.1817 1.7389 2.4209 1087.9 -0.0046963 141.92 0.11855
40.375 5851.9 undefined 255.10 329.14 1.1872 545.00 0.0018349 255.10 329.14 1.1872 1.7432 2.4226 1089.9 -0.0047069 141.91 0.11868 545.00 0.0018349 255.10 329.14 1.1872 1.7432 2.4226 1089.9 -0.0047069 141.91 0.11868
41.375 5959.4 undefined 256.85 332.24 1.1928 545.00 0.0018349 256.85 332.24 1.1928 1.7475 2.4243 1091.8 -0.0047173 141.90 0.11880 545.00 0.0018349 256.85 332.24 1.1928 1.7475 2.4243 1091.8 -0.0047173 141.90 0.11880
42.375 6066.8 undefined 258.60 335.35 1.1983 545.00 0.0018349 258.60 335.35 1.1983 1.7518 2.4261 1093.7 -0.0047274 141.88 0.11893 545.00 0.0018349 258.60 335.35 1.1983 1.7518 2.4261 1093.7 -0.0047274 141.88 0.11893
43.375 6174.2 undefined 260.35 338.46 1.2039 545.00 0.0018349 260.35 338.46 1.2039 1.7561 2.4279 1095.6 -0.0047373 141.87 0.11905 545.00 0.0018349 260.35 338.46 1.2039 1.7561 2.4279 1095.6 -0.0047373 141.87 0.11905
44.375 6281.5 undefined 262.11 341.58 1.2094 545.00 0.0018349 262.11 341.58 1.2094 1.7604 2.4298 1097.5 -0.0047469 141.86 0.11918 545.00 0.0018349 262.11 341.58 1.2094 1.7604 2.4298 1097.5 -0.0047469 141.86 0.11918
45.375 6388.6 undefined 263.87 344.70 1.2150 545.00 0.0018349 263.87 344.70 1.2150 1.7647 2.4317 1099.4 -0.0047562 141.85 0.11931 545.00 0.0018349 263.87 344.70 1.2150 1.7647 2.4317 1099.4 -0.0047562 141.85 0.11931
46.375 6495.7 undefined 265.64 347.82 1.2205 545.00 0.0018349 265.64 347.82 1.2205 1.7690 2.4336 1101.3 -0.0047654 141.84 0.11943 545.00 0.0018349 265.64 347.82 1.2205 1.7690 2.4336 1101.3 -0.0047654 141.84 0.11943
47.375 6602.7 undefined 267.41 350.94 1.2260 545.00 0.0018349 267.41 350.94 1.2260 1.7734 2.4355 1103.2 -0.0047742 141.83 0.11956 545.00 0.0018349 267.41 350.94 1.2260 1.7734 2.4355 1103.2 -0.0047742 141.83 0.11956
48.375 6709.6 undefined 269.19 354.07 1.2316 545.00 0.0018349 269.19 354.07 1.2316 1.7777 2.4375 1105.1 -0.0047829 141.82 0.11968 545.00 0.0018349 269.19 354.07 1.2316 1.7777 2.4375 1105.1 -0.0047829 141.82 0.11968
49.375 6816.4 undefined 270.97 357.20 1.2371 545.00 0.0018349 270.97 357.20 1.2371 1.7820 2.4395 1106.9 -0.0047913 141.81 0.11981 545.00 0.0018349 270.97 357.20 1.2371 1.7820 2.4395 1106.9 -0.0047913 141.81 0.11981
50.375 6923.2 undefined 272.75 360.34 1.2426 545.00 0.0018349 272.75 360.34 1.2426 1.7864 2.4415 1108.8 -0.0047995 141.80 0.11994 545.00 0.0018349 272.75 360.34 1.2426 1.7864 2.4415 1108.8 -0.0047995 141.80 0.11994
51.375 7029.8 undefined 274.54 363.47 1.2481 545.00 0.0018349 274.54 363.47 1.2481 1.7907 2.4436 1110.6 -0.0048075 141.79 0.12007 545.00 0.0018349 274.54 363.47 1.2481 1.7907 2.4436 1110.6 -0.0048075 141.79 0.12007
52.375 7136.3 undefined 276.33 366.61 1.2537 545.00 0.0018349 276.33 366.61 1.2537 1.7951 2.4456 1112.5 -0.0048153 141.78 0.12020 545.00 0.0018349 276.33 366.61 1.2537 1.7951 2.4456 1112.5 -0.0048153 141.78 0.12020
53.375 7242.8 undefined 278.13 369.76 1.2592 545.00 0.0018349 278.13 369.76 1.2592 1.7994 2.4478 1114.3 -0.0048229 141.77 0.12032 545.00 0.0018349 278.13 369.76 1.2592 1.7994 2.4478 1114.3 -0.0048229 141.77 0.12032
54.375 7349.2 undefined 279.93 372.91 1.2647 545.00 0.0018349 279.93 372.91 1.2647 1.8038 2.4499 1116.1 -0.0048302 141.76 0.12045 545.00 0.0018349 279.93 372.91 1.2647 1.8038 2.4499 1116.1 -0.0048302 141.76 0.12045
55.375 7455.5 undefined 281.74 376.06 1.2702 545.00 0.0018349 281.74 376.06 1.2702 1.8082 2.4521 1117.9 -0.0048374 141.75 0.12058 545.00 0.0018349 281.74 376.06 1.2702 1.8082 2.4521 1117.9 -0.0048374 141.75 0.12058
56.375 7561.6 undefined 283.55 379.21 1.2757 545.00 0.0018349 283.55 379.21 1.2757 1.8125 2.4543 1119.7 -0.0048443 141.74 0.12071 545.00 0.0018349 283.55 379.21 1.2757 1.8125 2.4543 1119.7 -0.0048443 141.74 0.12071
57.375 7667.7 undefined 285.36 382.37 1.2812 545.00 0.0018349 285.36 382.37 1.2812 1.8169 2.4565 1121.5 -0.0048511 141.73 0.12084 545.00 0.0018349 285.36 382.37 1.2812 1.8169 2.4565 1121.5 -0.0048511 141.73 0.12084
58.375 7773.8 undefined 287.18 385.53 1.2867 545.00 0.0018349 287.18 385.53 1.2867 1.8213 2.4587 1123.3 -0.0048576 141.72 0.12097 545.00 0.0018349 287.18 385.53 1.2867 1.8213 2.4587 1123.3 -0.0048576 141.72 0.12097
59.375 7879.7 undefined 289.01 388.69 1.2922 545.00 0.0018349 289.01 388.69 1.2922 1.8256 2.4610 1125.1 -0.0048640 141.71 0.12110 545.00 0.0018349 289.01 388.69 1.2922 1.8256 2.4610 1125.1 -0.0048640 141.71 0.12110
60.375 7985.5 undefined 290.83 391.86 1.2977 545.00 0.0018349 290.83 391.86 1.2977 1.8300 2.4633 1126.9 -0.0048702 141.71 0.12123 545.00 0.0018349 290.83 391.86 1.2977 1.8300 2.4633 1126.9 -0.0048702 141.71 0.12123
61.375 8091.3 undefined 292.67 395.03 1.3032 545.00 0.0018349 292.67 395.03 1.3032 1.8344 2.4656 1128.6 -0.0048762 141.70 0.12136 545.00 0.0018349 292.67 395.03 1.3032 1.8344 2.4656 1128.6 -0.0048762 141.70 0.12136
62.375 8196.9 undefined 294.50 398.20 1.3086 545.00 0.0018349 294.50 398.20 1.3086 1.8388 2.4679 1130.4 -0.0048821 141.69 0.12149 545.00 0.0018349 294.50 398.20 1.3086 1.8388 2.4679 1130.4 -0.0048821 141.69 0.12149
63.375 8302.5 undefined 296.34 401.38 1.3141 545.00 0.0018349 296.34 401.38 1.3141 1.8431 2.4703 1132.1 -0.0048877 141.68 0.12162 545.00 0.0018349 296.34 401.38 1.3141 1.8431 2.4703 1132.1 -0.0048877 141.68 0.12162
64.375 8408.0 undefined 298.19 404.56 1.3196 545.00 0.0018349 298.19 404.56 1.3196 1.8475 2.4727 1133.9 -0.0048932 141.68 0.12175 545.00 0.0018349 298.19 404.56 1.3196 1.8475 2.4727 1133.9 -0.0048932 141.68 0.12175
65.375 8513.4 undefined 300.04 407.74 1.3251 545.00 0.0018349 300.04 407.74 1.3251 1.8519 2.4751 1135.6 -0.0048986 141.67 0.12189 545.00 0.0018349 300.04 407.74 1.3251 1.8519 2.4751 1135.6 -0.0048986 141.67 0.12189
66.375 8618.7 undefined 301.89 410.93 1.3305 545.00 0.0018349 301.89 410.93 1.3305 1.8563 2.4775 1137.4 -0.0049037 141.66 0.12202 545.00 0.0018349 301.89 410.93 1.3305 1.8563 2.4775 1137.4 -0.0049037 141.66 0.12202
67.375 8723.9 undefined 303.75 414.12 1.3360 545.00 0.0018349 303.75 414.12 1.3360 1.8607 2.4800 1139.1 -0.0049087 141.66 0.12215 545.00 0.0018349 303.75 414.12 1.3360 1.8607 2.4800 1139.1 -0.0049087 141.66 0.12215
68.375 8829.0 undefined 305.61 417.31 1.3415 545.00 0.0018349 305.61 417.31 1.3415 1.8651 2.4824 1140.8 -0.0049136 141.65 0.12228 545.00 0.0018349 305.61 417.31 1.3415 1.8651 2.4824 1140.8 -0.0049136 141.65 0.12228
69.375 8934.1 undefined 307.48 420.51 1.3469 545.00 0.0018349 307.48 420.51 1.3469 1.8695 2.4849 1142.5 -0.0049183 141.64 0.12242 545.00 0.0018349 307.48 420.51 1.3469 1.8695 2.4849 1142.5 -0.0049183 141.64 0.12242
70.375 9039.0 undefined 309.35 423.70 1.3524 545.00 0.0018349 309.35 423.70 1.3524 1.8739 2.4874 1144.2 -0.0049228 141.64 0.12255 545.00 0.0018349 309.35 423.70 1.3524 1.8739 2.4874 1144.2 -0.0049228 141.64 0.12255
71.375 9143.9 undefined 311.23 426.91 1.3578 545.00 0.0018349 311.23 426.91 1.3578 1.8783 2.4899 1145.9 -0.0049272 141.63 0.12268 545.00 0.0018349 311.23 426.91 1.3578 1.8783 2.4899 1145.9 -0.0049272 141.63 0.12268
72.375 9248.7 undefined 313.11 430.11 1.3633 545.00 0.0018349 313.11 430.11 1.3633 1.8827 2.4925 1147.6 -0.0049314 141.63 0.12282 545.00 0.0018349 313.11 430.11 1.3633 1.8827 2.4925 1147.6 -0.0049314 141.63 0.12282
73.375 9353.4 undefined 314.99 433.32 1.3687 545.00 0.0018349 314.99 433.32 1.3687 1.8870 2.4950 1149.3 -0.0049355 141.62 0.12295 545.00 0.0018349 314.99 433.32 1.3687 1.8870 2.4950 1149.3 -0.0049355 141.62 0.12295
74.375 9458.0 undefined 316.88 436.54 1.3742 545.00 0.0018349 316.88 436.54 1.3742 1.8914 2.4976 1151.0 -0.0049395 141.62 0.12309 545.00 0.0018349 316.88 436.54 1.3742 1.8914 2.4976 1151.0 -0.0049395 141.62 0.12309
75.375 9562.5 undefined 318.78 439.75 1.3796 545.00 0.0018349 318.78 439.75 1.3796 1.8958 2.5002 1152.7 -0.0049433 141.61 0.12322 545.00 0.0018349 318.78 439.75 1.3796 1.8958 2.5002 1152.7 -0.0049433 141.61 0.12322
76.375 9666.9 undefined 320.68 442.97 1.3850 545.00 0.0018349 320.68 442.97 1.3850 1.9002 2.5028 1154.3 -0.0049470 141.61 0.12336 545.00 0.0018349 320.68 442.97 1.3850 1.9002 2.5028 1154.3 -0.0049470 141.61 0.12336
77.375 9771.3 undefined 322.58 446.19 1.3905 545.00 0.0018349 322.58 446.19 1.3905 1.9046 2.5055 1156.0 -0.0049505 141.60 0.12349 545.00 0.0018349 322.58 446.19 1.3905 1.9046 2.5055 1156.0 -0.0049505 141.60 0.12349
78.375 9875.6 undefined 324.48 449.42 1.3959 545.00 0.0018349 324.48 449.42 1.3959 1.9090 2.5081 1157.7 -0.0049539 141.60 0.12363 545.00 0.0018349 324.48 449.42 1.3959 1.9090 2.5081 1157.7 -0.0049539 141.60 0.12363
79.375 9979.7 undefined 326.40 452.65 1.4013 545.00 0.0018349 326.40 452.65 1.4013 1.9134 2.5108 1159.3 -0.0049572 141.60 0.12376 545.00 0.0018349 326.40 452.65 1.4013 1.9134 2.5108 1159.3 -0.0049572 141.60 0.12376
80.375 10084. undefined 328.31 455.88 1.4068 545.00 0.0018349 328.31 455.88 1.4068 1.9178 2.5134 1161.0 -0.0049604 141.59 0.12390 545.00 0.0018349 328.31 455.88 1.4068 1.9178 2.5134 1161.0 -0.0049604 141.59 0.12390
81.375 10188. undefined 330.23 459.12 1.4122 545.00 0.0018349 330.23 459.12 1.4122 1.9222 2.5161 1162.6 -0.0049634 141.59 0.12403 545.00 0.0018349 330.23 459.12 1.4122 1.9222 2.5161 1162.6 -0.0049634 141.59 0.12403
82.375 10292. undefined 332.16 462.36 1.4176 545.00 0.0018349 332.16 462.36 1.4176 1.9266 2.5188 1164.2 -0.0049663 141.58 0.12417 545.00 0.0018349 332.16 462.36 1.4176 1.9266 2.5188 1164.2 -0.0049663 141.58 0.12417
83.375 10396. undefined 334.08 465.60 1.4230 545.00 0.0018349 334.08 465.60 1.4230 1.9310 2.5216 1165.9 -0.0049691 141.58 0.12431 545.00 0.0018349 334.08 465.60 1.4230 1.9310 2.5216 1165.9 -0.0049691 141.58 0.12431
84.375 10499. undefined 336.02 468.84 1.4284 545.00 0.0018349 336.02 468.84 1.4284 1.9354 2.5243 1167.5 -0.0049718 141.58 0.12445 545.00 0.0018349 336.02 468.84 1.4284 1.9354 2.5243 1167.5 -0.0049718 141.58 0.12445
85.375 10603. undefined 337.96 472.09 1.4339 545.00 0.0018349 337.96 472.09 1.4339 1.9398 2.5271 1169.1 -0.0049743 141.58 0.12458 545.00 0.0018349 337.96 472.09 1.4339 1.9398 2.5271 1169.1 -0.0049743 141.58 0.12458
86.375 10707. undefined 339.90 475.35 1.4393 545.00 0.0018349 339.90 475.35 1.4393 1.9442 2.5298 1170.7 -0.0049768 141.57 0.12472 545.00 0.0018349 339.90 475.35 1.4393 1.9442 2.5298 1170.7 -0.0049768 141.57 0.12472
87.375 10810. undefined 341.84 478.60 1.4447 545.00 0.0018349 341.84 478.60 1.4447 1.9486 2.5326 1172.3 -0.0049791 141.57 0.12486 545.00 0.0018349 341.84 478.60 1.4447 1.9486 2.5326 1172.3 -0.0049791 141.57 0.12486
88.375 10914. undefined 343.79 481.86 1.4501 545.00 0.0018349 343.79 481.86 1.4501 1.9530 2.5354 1173.9 -0.0049814 141.57 0.12500 545.00 0.0018349 343.79 481.86 1.4501 1.9530 2.5354 1173.9 -0.0049814 141.57 0.12500
89.375 11017. undefined 345.75 485.12 1.4555 545.00 0.0018349 345.75 485.12 1.4555 1.9573 2.5382 1175.5 -0.0049835 141.57 0.12514 545.00 0.0018349 345.75 485.12 1.4555 1.9573 2.5382 1175.5 -0.0049835 141.57 0.12514
90.375 11120. undefined 347.71 488.39 1.4609 545.00 0.0018349 347.71 488.39 1.4609 1.9617 2.5410 1177.1 -0.0049855 141.56 0.12528 545.00 0.0018349 347.71 488.39 1.4609 1.9617 2.5410 1177.1 -0.0049855 141.56 0.12528
91.375 11223. undefined 349.67 491.66 1.4663 545.00 0.0018349 349.67 491.66 1.4663 1.9661 2.5438 1178.7 -0.0049874 141.56 0.12542 545.00 0.0018349 349.67 491.66 1.4663 1.9661 2.5438 1178.7 -0.0049874 141.56 0.12542
92.375 11326. undefined 351.64 494.93 1.4717 545.00 0.0018349 351.64 494.93 1.4717 1.9705 2.5467 1180.3 -0.0049893 141.56 0.12556 545.00 0.0018349 351.64 494.93 1.4717 1.9705 2.5467 1180.3 -0.0049893 141.56 0.12556
93.375 11429. undefined 353.61 498.21 1.4771 545.00 0.0018349 353.61 498.21 1.4771 1.9749 2.5495 1181.9 -0.0049910 141.56 0.12570 545.00 0.0018349 353.61 498.21 1.4771 1.9749 2.5495 1181.9 -0.0049910 141.56 0.12570
94.375 11532. undefined 355.59 501.48 1.4824 545.00 0.0018349 355.59 501.48 1.4824 1.9793 2.5524 1183.5 -0.0049926 141.56 0.12584 545.00 0.0018349 355.59 501.48 1.4824 1.9793 2.5524 1183.5 -0.0049926 141.56 0.12584
95.375 11635. undefined 357.57 504.77 1.4878 545.00 0.0018349 357.57 504.77 1.4878 1.9836 2.5553 1185.0 -0.0049941 141.55 0.12598 545.00 0.0018349 357.57 504.77 1.4878 1.9836 2.5553 1185.0 -0.0049941 141.55 0.12598
96.375 11738. undefined 359.56 508.05 1.4932 545.00 0.0018349 359.56 508.05 1.4932 1.9880 2.5582 1186.6 -0.0049956 141.55 0.12612 545.00 0.0018349 359.56 508.05 1.4932 1.9880 2.5582 1186.6 -0.0049956 141.55 0.12612
97.375 11840. undefined 361.55 511.34 1.4986 545.00 0.0018349 361.55 511.34 1.4986 1.9924 2.5611 1188.1 -0.0049969 141.55 0.12626 545.00 0.0018349 361.55 511.34 1.4986 1.9924 2.5611 1188.1 -0.0049969 141.55 0.12626
98.375 11943. undefined 363.54 514.63 1.5040 545.00 0.0018349 363.54 514.63 1.5040 1.9968 2.5640 1189.7 -0.0049982 141.55 0.12640 545.00 0.0018349 363.54 514.63 1.5040 1.9968 2.5640 1189.7 -0.0049982 141.55 0.12640
99.375 12046. undefined 365.54 517.93 1.5093 545.00 0.0018349 365.54 517.93 1.5093 2.0011 2.5669 1191.3 -0.0049993 141.55 0.12654 545.00 0.0018349 365.54 517.93 1.5093 2.0011 2.5669 1191.3 -0.0049993 141.55 0.12654
100.38 12148. undefined 367.55 521.23 1.5147 545.00 0.0018349 367.55 521.23 1.5147 2.0055 2.5698 1192.8 -0.0050004 141.55 0.12668 545.00 0.0018349 367.55 521.23 1.5147 2.0055 2.5698 1192.8 -0.0050004 141.55 0.12668
101.38 12250. undefined 369.55 524.53 1.5201 545.00 0.0018349 369.55 524.53 1.5201 2.0099 2.5728 1194.3 -0.0050014 141.55 0.12683 545.00 0.0018349 369.55 524.53 1.5201 2.0099 2.5728 1194.3 -0.0050014 141.55 0.12683
102.38 12353. undefined 371.57 527.84 1.5254 545.00 0.0018349 371.57 527.84 1.5254 2.0143 2.5757 1195.9 -0.0050023 141.55 0.12697 545.00 0.0018349 371.57 527.84 1.5254 2.0143 2.5757 1195.9 -0.0050023 141.55 0.12697
103.38 12455. undefined 373.58 531.15 1.5308 545.00 0.0018349 373.58 531.15 1.5308 2.0186 2.5787 1197.4 -0.0050031 141.55 0.12711 545.00 0.0018349 373.58 531.15 1.5308 2.0186 2.5787 1197.4 -0.0050031 141.55 0.12711
104.38 12557. undefined 375.60 534.46 1.5362 545.00 0.0018349 375.60 534.46 1.5362 2.0230 2.5816 1198.9 -0.0050039 141.55 0.12726 545.00 0.0018349 375.60 534.46 1.5362 2.0230 2.5816 1198.9 -0.0050039 141.55 0.12726
105.38 12659. undefined 377.63 537.77 1.5415 545.00 0.0018349 377.63 537.77 1.5415 2.0273 2.5846 1200.5 -0.0050046 141.55 0.12740 545.00 0.0018349 377.63 537.77 1.5415 2.0273 2.5846 1200.5 -0.0050046 141.55 0.12740
106.38 12761. undefined 379.66 541.09 1.5469 545.00 0.0018349 379.66 541.09 1.5469 2.0317 2.5876 1202.0 -0.0050052 141.55 0.12754 545.00 0.0018349 379.66 541.09 1.5469 2.0317 2.5876 1202.0 -0.0050052 141.55 0.12754
107.38 12863. undefined 381.69 544.41 1.5522 545.00 0.0018349 381.69 544.41 1.5522 2.0361 2.5906 1203.5 -0.0050057 141.55 0.12769 545.00 0.0018349 381.69 544.41 1.5522 2.0361 2.5906 1203.5 -0.0050057 141.55 0.12769
108.38 12964. undefined 383.73 547.74 1.5576 545.00 0.0018349 383.73 547.74 1.5576 2.0404 2.5936 1205.0 -0.0050061 141.55 0.12783 545.00 0.0018349 383.73 547.74 1.5576 2.0404 2.5936 1205.0 -0.0050061 141.55 0.12783
109.38 13066. undefined 385.77 551.07 1.5629 545.00 0.0018349 385.77 551.07 1.5629 2.0448 2.5966 1206.5 -0.0050065 141.55 0.12798 545.00 0.0018349 385.77 551.07 1.5629 2.0448 2.5966 1206.5 -0.0050065 141.55 0.12798
110.38 13168. undefined 387.82 554.40 1.5683 545.00 0.0018349 387.82 554.40 1.5683 2.0491 2.5996 1208.0 -0.0050068 141.55 0.12812 545.00 0.0018349 387.82 554.40 1.5683 2.0491 2.5996 1208.0 -0.0050068 141.55 0.12812
111.38 13269. undefined 389.87 557.74 1.5736 545.00 0.0018349 389.87 557.74 1.5736 2.0535 2.6026 1209.5 -0.0050070 141.55 0.12827 545.00 0.0018349 389.87 557.74 1.5736 2.0535 2.6026 1209.5 -0.0050070 141.55 0.12827
112.38 13371. undefined 391.93 561.08 1.5789 545.00 0.0018349 391.93 561.08 1.5789 2.0578 2.6057 1211.0 -0.0050072 141.55 0.12841 545.00 0.0018349 391.93 561.08 1.5789 2.0578 2.6057 1211.0 -0.0050072 141.55 0.12841
113.38 13472. undefined 393.99 564.42 1.5843 545.00 0.0018349 393.99 564.42 1.5843 2.0621 2.6087 1212.5 -0.0050073 141.56 0.12856 545.00 0.0018349 393.99 564.42 1.5843 2.0621 2.6087 1212.5 -0.0050073 141.56 0.12856
114.38 13573. undefined 396.05 567.76 1.5896 545.00 0.0018349 396.05 567.76 1.5896 2.0665 2.6117 1214.0 -0.0050073 141.56 0.12870 545.00 0.0018349 396.05 567.76 1.5896 2.0665 2.6117 1214.0 -0.0050073 141.56 0.12870
115.38 13675. undefined 398.12 571.11 1.5949 545.00 0.0018349 398.12 571.11 1.5949 2.0708 2.6148 1215.5 -0.0050073 141.56 0.12885 545.00 0.0018349 398.12 571.11 1.5949 2.0708 2.6148 1215.5 -0.0050073 141.56 0.12885
116.38 13776. undefined 400.19 574.47 1.6003 545.00 0.0018349 400.19 574.47 1.6003 2.0751 2.6179 1216.9 -0.0050072 141.56 0.12900 545.00 0.0018349 400.19 574.47 1.6003 2.0751 2.6179 1216.9 -0.0050072 141.56 0.12900
117.38 13877. undefined 402.27 577.82 1.6056 545.00 0.0018349 402.27 577.82 1.6056 2.0795 2.6209 1218.4 -0.0050071 141.56 0.12914 545.00 0.0018349 402.27 577.82 1.6056 2.0795 2.6209 1218.4 -0.0050071 141.56 0.12914
118.38 13978. undefined 404.35 581.18 1.6109 545.00 0.0018349 404.35 581.18 1.6109 2.0838 2.6240 1219.9 -0.0050068 141.56 0.12929 545.00 0.0018349 404.35 581.18 1.6109 2.0838 2.6240 1219.9 -0.0050068 141.56 0.12929
119.38 14079. undefined 406.44 584.54 1.6162 545.00 0.0018349 406.44 584.54 1.6162 2.0881 2.6271 1221.3 -0.0050066 141.57 0.12944 545.00 0.0018349 406.44 584.54 1.6162 2.0881 2.6271 1221.3 -0.0050066 141.57 0.12944
120.38 14179. undefined 408.53 587.91 1.6216 545.00 0.0018349 408.53 587.91 1.6216 2.0924 2.6302 1222.8 -0.0050062 141.57 0.12959 545.00 0.0018349 408.53 587.91 1.6216 2.0924 2.6302 1222.8 -0.0050062 141.57 0.12959
121.38 14280. undefined 410.62 591.28 1.6269 545.00 0.0018349 410.62 591.28 1.6269 2.0967 2.6333 1224.3 -0.0050058 141.57 0.12974 545.00 0.0018349 410.62 591.28 1.6269 2.0967 2.6333 1224.3 -0.0050058 141.57 0.12974
122.38 14381. undefined 412.72 594.65 1.6322 545.00 0.0018349 412.72 594.65 1.6322 2.1011 2.6363 1225.7 -0.0050054 141.57 0.12988 545.00 0.0018349 412.72 594.65 1.6322 2.1011 2.6363 1225.7 -0.0050054 141.57 0.12988
123.38 14481. undefined 414.82 598.03 1.6375 545.00 0.0018349 414.82 598.03 1.6375 2.1054 2.6395 1227.2 -0.0050049 141.58 0.13003 545.00 0.0018349 414.82 598.03 1.6375 2.1054 2.6395 1227.2 -0.0050049 141.58 0.13003
124.38 14582. undefined 416.93 601.41 1.6428 545.00 0.0018349 416.93 601.41 1.6428 2.1097 2.6426 1228.6 -0.0050043 141.58 0.13018 545.00 0.0018349 416.93 601.41 1.6428 2.1097 2.6426 1228.6 -0.0050043 141.58 0.13018
125.38 14682. undefined 419.04 604.79 1.6481 545.00 0.0018349 419.04 604.79 1.6481 2.1140 2.6457 1230.0 -0.0050037 141.58 0.13033 545.00 0.0018349 419.04 604.79 1.6481 2.1140 2.6457 1230.0 -0.0050037 141.58 0.13033
126.38 14783. undefined 421.16 608.17 1.6534 545.00 0.0018349 421.16 608.17 1.6534 2.1183 2.6488 1231.5 -0.0050030 141.58 0.13048 545.00 0.0018349 421.16 608.17 1.6534 2.1183 2.6488 1231.5 -0.0050030 141.58 0.13048
127.38 14883. undefined 423.28 611.56 1.6587 545.00 0.0018349 423.28 611.56 1.6587 2.1226 2.6519 1232.9 -0.0050023 141.59 0.13063 545.00 0.0018349 423.28 611.56 1.6587 2.1226 2.6519 1232.9 -0.0050023 141.59 0.13063
128.38 14983. undefined 425.40 614.95 1.6640 545.00 0.0018349 425.40 614.95 1.6640 2.1269 2.6550 1234.3 -0.0050016 141.59 0.13078 545.00 0.0018349 425.40 614.95 1.6640 2.1269 2.6550 1234.3 -0.0050016 141.59 0.13078
129.38 15083. undefined 427.53 618.35 1.6693 545.00 0.0018349 427.53 618.35 1.6693 2.1312 2.6582 1235.8 -0.0050008 141.59 0.13093 545.00 0.0018349 427.53 618.35 1.6693 2.1312 2.6582 1235.8 -0.0050008 141.59 0.13093
130.38 15183. undefined 429.67 621.75 1.6746 545.00 0.0018349 429.67 621.75 1.6746 2.1354 2.6613 1237.2 -0.0049999 141.60 0.13108 545.00 0.0018349 429.67 621.75 1.6746 2.1354 2.6613 1237.2 -0.0049999 141.60 0.13108
131.38 15283. undefined 431.80 625.15 1.6799 545.00 0.0018349 431.80 625.15 1.6799 2.1397 2.6645 1238.6 -0.0049990 141.60 0.13123 545.00 0.0018349 431.80 625.15 1.6799 2.1397 2.6645 1238.6 -0.0049990 141.60 0.13123
132.38 15383. undefined 433.95 628.56 1.6852 545.00 0.0018349 433.95 628.56 1.6852 2.1440 2.6676 1240.0 -0.0049980 141.60 0.13138 545.00 0.0018349 433.95 628.56 1.6852 2.1440 2.6676 1240.0 -0.0049980 141.60 0.13138
133.38 15483. undefined 436.09 631.97 1.6905 545.00 0.0018349 436.09 631.97 1.6905 2.1483 2.6707 1241.4 -0.0049970 141.61 0.13154 545.00 0.0018349 436.09 631.97 1.6905 2.1483 2.6707 1241.4 -0.0049970 141.61 0.13154
134.38 15583. undefined 438.24 635.38 1.6958 545.00 0.0018349 438.24 635.38 1.6958 2.1525 2.6739 1242.8 -0.0049960 141.61 0.13169 545.00 0.0018349 438.24 635.38 1.6958 2.1525 2.6739 1242.8 -0.0049960 141.61 0.13169
135.38 15682. undefined 440.40 638.79 1.7010 545.00 0.0018349 440.40 638.79 1.7010 2.1568 2.6771 1244.3 -0.0049949 141.62 0.13184 545.00 0.0018349 440.40 638.79 1.7010 2.1568 2.6771 1244.3 -0.0049949 141.62 0.13184
136.38 15782. undefined 442.56 642.21 1.7063 545.00 0.0018349 442.56 642.21 1.7063 2.1611 2.6802 1245.7 -0.0049938 141.62 0.13199 545.00 0.0018349 442.56 642.21 1.7063 2.1611 2.6802 1245.7 -0.0049938 141.62 0.13199
137.38 15881. undefined 444.72 645.63 1.7116 545.00 0.0018349 444.72 645.63 1.7116 2.1653 2.6834 1247.1 -0.0049926 141.62 0.13215 545.00 0.0018349 444.72 645.63 1.7116 2.1653 2.6834 1247.1 -0.0049926 141.62 0.13215
138.38 15981. undefined 446.89 649.06 1.7169 545.00 0.0018349 446.89 649.06 1.7169 2.1696 2.6866 1248.4 -0.0049914 141.63 0.13230 545.00 0.0018349 446.89 649.06 1.7169 2.1696 2.6866 1248.4 -0.0049914 141.63 0.13230
139.38 16080. undefined 449.06 652.49 1.7221 545.00 0.0018349 449.06 652.49 1.7221 2.1738 2.6897 1249.8 -0.0049901 141.63 0.13245 545.00 0.0018349 449.06 652.49 1.7221 2.1738 2.6897 1249.8 -0.0049901 141.63 0.13245
140.38 16180. undefined 451.23 655.92 1.7274 545.00 0.0018349 451.23 655.92 1.7274 2.1781 2.6929 1251.2 -0.0049888 141.64 0.13261 545.00 0.0018349 451.23 655.92 1.7274 2.1781 2.6929 1251.2 -0.0049888 141.64 0.13261
141.38 16279. undefined 453.41 659.36 1.7327 545.00 0.0018349 453.41 659.36 1.7327 2.1823 2.6961 1252.6 -0.0049875 141.64 0.13276 545.00 0.0018349 453.41 659.36 1.7327 2.1823 2.6961 1252.6 -0.0049875 141.64 0.13276
142.38 16378. undefined 455.60 662.79 1.7379 545.00 0.0018349 455.60 662.79 1.7379 2.1866 2.6993 1254.0 -0.0049862 141.65 0.13292 545.00 0.0018349 455.60 662.79 1.7379 2.1866 2.6993 1254.0 -0.0049862 141.65 0.13292
143.38 16477. undefined 457.79 666.24 1.7432 545.00 0.0018349 457.79 666.24 1.7432 2.1908 2.7024 1255.4 -0.0049847 141.65 0.13307 545.00 0.0018349 457.79 666.24 1.7432 2.1908 2.7024 1255.4 -0.0049847 141.65 0.13307
144.38 16576. undefined 459.98 669.68 1.7484 545.00 0.0018349 459.98 669.68 1.7484 2.1950 2.7056 1256.7 -0.0049833 141.66 0.13322 545.00 0.0018349 459.98 669.68 1.7484 2.1950 2.7056 1256.7 -0.0049833 141.66 0.13322
145.38 16675. undefined 462.18 673.13 1.7537 545.00 0.0018349 462.18 673.13 1.7537 2.1992 2.7088 1258.1 -0.0049818 141.66 0.13338 545.00 0.0018349 462.18 673.13 1.7537 2.1992 2.7088 1258.1 -0.0049818 141.66 0.13338
146.38 16774. undefined 464.38 676.58 1.7590 545.00 0.0018349 464.38 676.58 1.7590 2.2035 2.7120 1259.5 -0.0049803 141.67 0.13354 545.00 0.0018349 464.38 676.58 1.7590 2.2035 2.7120 1259.5 -0.0049803 141.67 0.13354
147.38 16872. undefined 466.58 680.04 1.7642 545.00 0.0018349 466.58 680.04 1.7642 2.2077 2.7152 1260.8 -0.0049788 141.67 0.13369 545.00 0.0018349 466.58 680.04 1.7642 2.2077 2.7152 1260.8 -0.0049788 141.67 0.13369
148.38 16971. undefined 468.79 683.49 1.7695 545.00 0.0018349 468.79 683.49 1.7695 2.2119 2.7184 1262.2 -0.0049772 141.68 0.13385 545.00 0.0018349 468.79 683.49 1.7695 2.2119 2.7184 1262.2 -0.0049772 141.68 0.13385
149.38 17070. undefined 471.01 686.96 1.7747 545.00 0.0018349 471.01 686.96 1.7747 2.2161 2.7216 1263.6 -0.0049756 141.68 0.13400 545.00 0.0018349 471.01 686.96 1.7747 2.2161 2.7216 1263.6 -0.0049756 141.68 0.13400
150.38 17168. undefined 473.23 690.42 1.7799 545.00 0.0018349 473.23 690.42 1.7799 2.2203 2.7248 1264.9 -0.0049739 141.69 0.13416 545.00 0.0018349 473.23 690.42 1.7799 2.2203 2.7248 1264.9 -0.0049739 141.69 0.13416
151.38 17267. undefined 475.45 693.89 1.7852 545.00 0.0018349 475.45 693.89 1.7852 2.2245 2.7280 1266.3 -0.0049723 141.69 0.13432 545.00 0.0018349 475.45 693.89 1.7852 2.2245 2.7280 1266.3 -0.0049723 141.69 0.13432
152.38 17365. undefined 477.68 697.36 1.7904 545.00 0.0018349 477.68 697.36 1.7904 2.2287 2.7312 1267.6 -0.0049706 141.70 0.13447 545.00 0.0018349 477.68 697.36 1.7904 2.2287 2.7312 1267.6 -0.0049706 141.70 0.13447
153.38 17463. undefined 479.91 700.84 1.7957 545.00 0.0018349 479.91 700.84 1.7957 2.2329 2.7344 1269.0 -0.0049688 141.70 0.13463 545.00 0.0018349 479.91 700.84 1.7957 2.2329 2.7344 1269.0 -0.0049688 141.70 0.13463
154.38 17562. undefined 482.14 704.31 1.8009 545.00 0.0018349 482.14 704.31 1.8009 2.2371 2.7376 1270.3 -0.0049671 141.71 0.13479 545.00 0.0018349 482.14 704.31 1.8009 2.2371 2.7376 1270.3 -0.0049671 141.71 0.13479
155.38 17660. undefined 484.38 707.79 1.8061 545.00 0.0018349 484.38 707.79 1.8061 2.2413 2.7409 1271.7 -0.0049653 141.71 0.13495 545.00 0.0018349 484.38 707.79 1.8061 2.2413 2.7409 1271.7 -0.0049653 141.71 0.13495
156.38 17758. undefined 486.62 711.28 1.8114 545.00 0.0018349 486.62 711.28 1.8114 2.2454 2.7441 1273.0 -0.0049635 141.72 0.13511 545.00 0.0018349 486.62 711.28 1.8114 2.2454 2.7441 1273.0 -0.0049635 141.72 0.13511
157.38 17856. undefined 488.87 714.77 1.8166 545.00 0.0018349 488.87 714.77 1.8166 2.2496 2.7473 1274.3 -0.0049616 141.73 0.13527 545.00 0.0018349 488.87 714.77 1.8166 2.2496 2.7473 1274.3 -0.0049616 141.73 0.13527
158.38 17954. undefined 491.12 718.26 1.8218 545.00 0.0018349 491.12 718.26 1.8218 2.2538 2.7505 1275.7 -0.0049597 141.73 0.13542 545.00 0.0018349 491.12 718.26 1.8218 2.2538 2.7505 1275.7 -0.0049597 141.73 0.13542
159.38 18052. undefined 493.38 721.75 1.8270 545.00 0.0018349 493.38 721.75 1.8270 2.2580 2.7537 1277.0 -0.0049578 141.74 0.13558 545.00 0.0018349 493.38 721.75 1.8270 2.2580 2.7537 1277.0 -0.0049578 141.74 0.13558
160.38 18150. undefined 495.64 725.25 1.8323 545.00 0.0018349 495.64 725.25 1.8323 2.2621 2.7569 1278.3 -0.0049559 141.75 0.13574 545.00 0.0018349 495.64 725.25 1.8323 2.2621 2.7569 1278.3 -0.0049559 141.75 0.13574
161.38 18247. undefined 497.90 728.75 1.8375 545.00 0.0018349 497.90 728.75 1.8375 2.2663 2.7602 1279.6 -0.0049540 141.75 0.13590 545.00 0.0018349 497.90 728.75 1.8375 2.2663 2.7602 1279.6 -0.0049540 141.75 0.13590
162.38 18345. undefined 500.17 732.25 1.8427 545.00 0.0018349 500.17 732.25 1.8427 2.2704 2.7634 1280.9 -0.0049520 141.76 0.13606 545.00 0.0018349 500.17 732.25 1.8427 2.2704 2.7634 1280.9 -0.0049520 141.76 0.13606
163.38 18443. undefined 502.44 735.76 1.8479 545.00 0.0018349 502.44 735.76 1.8479 2.2746 2.7666 1282.3 -0.0049500 141.76 0.13622 545.00 0.0018349 502.44 735.76 1.8479 2.2746 2.7666 1282.3 -0.0049500 141.76 0.13622
164.38 18540. undefined 504.72 739.27 1.8531 545.00 0.0018349 504.72 739.27 1.8531 2.2787 2.7698 1283.6 -0.0049480 141.77 0.13639 545.00 0.0018349 504.72 739.27 1.8531 2.2787 2.7698 1283.6 -0.0049480 141.77 0.13639
165.38 18638. undefined 507.00 742.79 1.8583 545.00 0.0018349 507.00 742.79 1.8583 2.2828 2.7730 1284.9 -0.0049459 141.78 0.13655 545.00 0.0018349 507.00 742.79 1.8583 2.2828 2.7730 1284.9 -0.0049459 141.78 0.13655
166.38 18735. undefined 509.29 746.30 1.8635 545.00 0.0018349 509.29 746.30 1.8635 2.2870 2.7763 1286.2 -0.0049438 141.78 0.13671 545.00 0.0018349 509.29 746.30 1.8635 2.2870 2.7763 1286.2 -0.0049438 141.78 0.13671
167.38 18832. undefined 511.58 749.82 1.8687 545.00 0.0018349 511.58 749.82 1.8687 2.2911 2.7795 1287.5 -0.0049417 141.79 0.13687 545.00 0.0018349 511.58 749.82 1.8687 2.2911 2.7795 1287.5 -0.0049417 141.79 0.13687
168.38 18930. undefined 513.87 753.35 1.8739 545.00 0.0018349 513.87 753.35 1.8739 2.2952 2.7827 1288.8 -0.0049396 141.80 0.13703 545.00 0.0018349 513.87 753.35 1.8739 2.2952 2.7827 1288.8 -0.0049396 141.80 0.13703
169.38 19027. undefined 516.17 756.87 1.8791 545.00 0.0018349 516.17 756.87 1.8791 2.2993 2.7859 1290.1 -0.0049375 141.81 0.13719 545.00 0.0018349 516.17 756.87 1.8791 2.2993 2.7859 1290.1 -0.0049375 141.81 0.13719
170.38 19124. undefined 518.47 760.40 1.8843 545.00 0.0018349 518.47 760.40 1.8843 2.3035 2.7892 1291.4 -0.0049353 141.81 0.13736 545.00 0.0018349 518.47 760.40 1.8843 2.3035 2.7892 1291.4 -0.0049353 141.81 0.13736
171.38 19221. undefined 520.77 763.94 1.8895 545.00 0.0018349 520.77 763.94 1.8895 2.3076 2.7924 1292.7 -0.0049332 141.82 0.13752 545.00 0.0018349 520.77 763.94 1.8895 2.3076 2.7924 1292.7 -0.0049332 141.82 0.13752
172.38 19318. undefined 523.08 767.47 1.8947 545.00 0.0018349 523.08 767.47 1.8947 2.3117 2.7956 1294.0 -0.0049310 141.83 0.13768 545.00 0.0018349 523.08 767.47 1.8947 2.3117 2.7956 1294.0 -0.0049310 141.83 0.13768
173.38 19415. undefined 525.40 771.01 1.8999 545.00 0.0018349 525.40 771.01 1.8999 2.3158 2.7989 1295.3 -0.0049288 141.83 0.13785 545.00 0.0018349 525.40 771.01 1.8999 2.3158 2.7989 1295.3 -0.0049288 141.83 0.13785
174.38 19512. undefined 527.71 774.56 1.9051 545.00 0.0018349 527.71 774.56 1.9051 2.3199 2.8021 1296.5 -0.0049265 141.84 0.13801 545.00 0.0018349 527.71 774.56 1.9051 2.3199 2.8021 1296.5 -0.0049265 141.84 0.13801
175.38 19609. undefined 530.04 778.10 1.9102 545.00 0.0018349 530.04 778.10 1.9102 2.3240 2.8053 1297.8 -0.0049243 141.85 0.13817 545.00 0.0018349 530.04 778.10 1.9102 2.3240 2.8053 1297.8 -0.0049243 141.85 0.13817
176.38 19705. undefined 532.36 781.65 1.9154 545.00 0.0018349 532.36 781.65 1.9154 2.3280 2.8085 1299.1 -0.0049220 141.86 0.13834 545.00 0.0018349 532.36 781.65 1.9154 2.3280 2.8085 1299.1 -0.0049220 141.86 0.13834
177.38 19802. undefined 534.69 785.20 1.9206 545.00 0.0018349 534.69 785.20 1.9206 2.3321 2.8118 1300.4 -0.0049197 141.86 0.13850 545.00 0.0018349 534.69 785.20 1.9206 2.3321 2.8118 1300.4 -0.0049197 141.86 0.13850
178.38 19898. undefined 537.03 788.76 1.9258 545.00 0.0018349 537.03 788.76 1.9258 2.3362 2.8150 1301.6 -0.0049174 141.87 0.13867 545.00 0.0018349 537.03 788.76 1.9258 2.3362 2.8150 1301.6 -0.0049174 141.87 0.13867
179.38 19995. undefined 539.36 792.32 1.9310 545.00 0.0018349 539.36 792.32 1.9310 2.3403 2.8182 1302.9 -0.0049151 141.88 0.13883 545.00 0.0018349 539.36 792.32 1.9310 2.3403 2.8182 1302.9 -0.0049151 141.88 0.13883
180.38 20091. undefined 541.71 795.88 1.9361 545.00 0.0018349 541.71 795.88 1.9361 2.3443 2.8215 1304.2 -0.0049127 141.89 0.13900 545.00 0.0018349 541.71 795.88 1.9361 2.3443 2.8215 1304.2 -0.0049127 141.89 0.13900
181.38 20188. undefined 544.05 799.45 1.9413 545.00 0.0018349 544.05 799.45 1.9413 2.3484 2.8247 1305.4 -0.0049104 141.90 0.13916 545.00 0.0018349 544.05 799.45 1.9413 2.3484 2.8247 1305.4 -0.0049104 141.90 0.13916
182.38 20284. undefined 546.40 803.01 1.9465 545.00 0.0018349 546.40 803.01 1.9465 2.3524 2.8279 1306.7 -0.0049080 141.90 0.13933 545.00 0.0018349 546.40 803.01 1.9465 2.3524 2.8279 1306.7 -0.0049080 141.90 0.13933
183.38 20380. undefined 548.76 806.59 1.9516 545.00 0.0018349 548.76 806.59 1.9516 2.3565 2.8311 1308.0 -0.0049056 141.91 0.13950 545.00 0.0018349 548.76 806.59 1.9516 2.3565 2.8311 1308.0 -0.0049056 141.91 0.13950
184.38 20476. undefined 551.12 810.16 1.9568 545.00 0.0018349 551.12 810.16 1.9568 2.3605 2.8344 1309.2 -0.0049032 141.92 0.13966 545.00 0.0018349 551.12 810.16 1.9568 2.3605 2.8344 1309.2 -0.0049032 141.92 0.13966
185.38 20572. undefined 553.48 813.74 1.9619 545.00 0.0018349 553.48 813.74 1.9619 2.3646 2.8376 1310.5 -0.0049008 141.93 0.13983 545.00 0.0018349 553.48 813.74 1.9619 2.3646 2.8376 1310.5 -0.0049008 141.93 0.13983
186.38 20668. undefined 555.85 817.32 1.9671 545.00 0.0018349 555.85 817.32 1.9671 2.3686 2.8408 1311.7 -0.0048984 141.94 0.14000 545.00 0.0018349 555.85 817.32 1.9671 2.3686 2.8408 1311.7 -0.0048984 141.94 0.14000
187.38 20764. undefined 558.22 820.90 1.9722 545.00 0.0018349 558.22 820.90 1.9722 2.3726 2.8441 1313.0 -0.0048959 141.94 0.14016 545.00 0.0018349 558.22 820.90 1.9722 2.3726 2.8441 1313.0 -0.0048959 141.94 0.14016
188.38 20860. undefined 560.59 824.49 1.9774 545.00 0.0018349 560.59 824.49 1.9774 2.3767 2.8473 1314.2 -0.0048935 141.95 0.14033 545.00 0.0018349 560.59 824.49 1.9774 2.3767 2.8473 1314.2 -0.0048935 141.95 0.14033
189.38 20956. undefined 562.97 828.08 1.9825 545.00 0.0018349 562.97 828.08 1.9825 2.3807 2.8505 1315.5 -0.0048910 141.96 0.14050 545.00 0.0018349 562.97 828.08 1.9825 2.3807 2.8505 1315.5 -0.0048910 141.96 0.14050
190.38 21052. undefined 565.35 831.68 1.9877 545.00 0.0018349 565.35 831.68 1.9877 2.3847 2.8537 1316.7 -0.0048885 141.97 0.14067 545.00 0.0018349 565.35 831.68 1.9877 2.3847 2.8537 1316.7 -0.0048885 141.97 0.14067
191.38 21147. undefined 567.74 835.27 1.9928 545.00 0.0018349 567.74 835.27 1.9928 2.3887 2.8569 1318.0 -0.0048860 141.98 0.14084 545.00 0.0018349 567.74 835.27 1.9928 2.3887 2.8569 1318.0 -0.0048860 141.98 0.14084
192.38 21243. undefined 570.13 838.87 1.9980 545.00 0.0018349 570.13 838.87 1.9980 2.3927 2.8602 1319.2 -0.0048835 141.99 0.14101 545.00 0.0018349 570.13 838.87 1.9980 2.3927 2.8602 1319.2 -0.0048835 141.99 0.14101
193.38 21339. undefined 572.52 842.48 2.0031 545.00 0.0018349 572.52 842.48 2.0031 2.3967 2.8634 1320.4 -0.0048810 142.00 0.14118 545.00 0.0018349 572.52 842.48 2.0031 2.3967 2.8634 1320.4 -0.0048810 142.00 0.14118
194.38 21434. undefined 574.92 846.08 2.0082 545.00 0.0018349 574.92 846.08 2.0082 2.4007 2.8666 1321.7 -0.0048785 142.01 0.14134 545.00 0.0018349 574.92 846.08 2.0082 2.4007 2.8666 1321.7 -0.0048785 142.01 0.14134
195.38 21529. undefined 577.33 849.69 2.0134 545.00 0.0018349 577.33 849.69 2.0134 2.4047 2.8698 1322.9 -0.0048759 142.01 0.14151 545.00 0.0018349 577.33 849.69 2.0134 2.4047 2.8698 1322.9 -0.0048759 142.01 0.14151
196.38 21625. undefined 579.73 853.31 2.0185 545.00 0.0018349 579.73 853.31 2.0185 2.4087 2.8730 1324.1 -0.0048734 142.02 0.14168 545.00 0.0018349 579.73 853.31 2.0185 2.4087 2.8730 1324.1 -0.0048734 142.02 0.14168
197.38 21720. undefined 582.14 856.92 2.0236 545.00 0.0018349 582.14 856.92 2.0236 2.4127 2.8763 1325.3 -0.0048708 142.03 0.14186 545.00 0.0018349 582.14 856.92 2.0236 2.4127 2.8763 1325.3 -0.0048708 142.03 0.14186
198.38 21815. undefined 584.56 860.54 2.0288 545.00 0.0018349 584.56 860.54 2.0288 2.4166 2.8795 1326.6 -0.0048682 142.04 0.14203 545.00 0.0018349 584.56 860.54 2.0288 2.4166 2.8795 1326.6 -0.0048682 142.04 0.14203
199.38 21910. undefined 586.98 864.16 2.0339 545.00 0.0018349 586.98 864.16 2.0339 2.4206 2.8827 1327.8 -0.0048656 142.05 0.14220 545.00 0.0018349 586.98 864.16 2.0339 2.4206 2.8827 1327.8 -0.0048656 142.05 0.14220
200.38 22006. undefined 589.40 867.79 2.0390 545.00 0.0018349 589.40 867.79 2.0390 2.4246 2.8859 1329.0 -0.0048630 142.06 0.14237 545.00 0.0018349 589.40 867.79 2.0390 2.4246 2.8859 1329.0 -0.0048630 142.06 0.14237
201.38 22101. undefined 591.83 871.42 2.0441 545.00 0.0018349 591.83 871.42 2.0441 2.4285 2.8891 1330.2 -0.0048604 142.07 0.14254 545.00 0.0018349 591.83 871.42 2.0441 2.4285 2.8891 1330.2 -0.0048604 142.07 0.14254
202.38 22195. undefined 594.26 875.05 2.0493 545.00 0.0018349 594.26 875.05 2.0493 2.4325 2.8923 1331.4 -0.0048578 142.08 0.14271 545.00 0.0018349 594.26 875.05 2.0493 2.4325 2.8923 1331.4 -0.0048578 142.08 0.14271
203.38 22290. undefined 596.69 878.68 2.0544 545.00 0.0018349 596.69 878.68 2.0544 2.4364 2.8955 1332.6 -0.0048552 142.09 0.14288 545.00 0.0018349 596.69 878.68 2.0544 2.4364 2.8955 1332.6 -0.0048552 142.09 0.14288
204.38 22385. undefined 599.13 882.32 2.0595 545.00 0.0018349 599.13 882.32 2.0595 2.4404 2.8988 1333.8 -0.0048525 142.10 0.14306 545.00 0.0018349 599.13 882.32 2.0595 2.4404 2.8988 1333.8 -0.0048525 142.10 0.14306
205.38 22480. undefined 601.57 885.96 2.0646 545.00 0.0018349 601.57 885.96 2.0646 2.4443 2.9020 1335.0 -0.0048499 142.11 0.14323 545.00 0.0018349 601.57 885.96 2.0646 2.4443 2.9020 1335.0 -0.0048499 142.11 0.14323
206.38 22575. undefined 604.02 889.61 2.0697 545.00 0.0018349 604.02 889.61 2.0697 2.4482 2.9052 1336.3 -0.0048472 142.12 0.14340 545.00 0.0018349 604.02 889.61 2.0697 2.4482 2.9052 1336.3 -0.0048472 142.12 0.14340
207.38 22669. undefined 606.47 893.25 2.0748 545.00 0.0018349 606.47 893.25 2.0748 2.4522 2.9084 1337.5 -0.0048446 142.12 0.14358 545.00 0.0018349 606.47 893.25 2.0748 2.4522 2.9084 1337.5 -0.0048446 142.12 0.14358
208.38 22764. undefined 608.92 896.90 2.0799 545.00 0.0018349 608.92 896.90 2.0799 2.4561 2.9116 1338.7 -0.0048419 142.13 0.14375 545.00 0.0018349 608.92 896.90 2.0799 2.4561 2.9116 1338.7 -0.0048419 142.13 0.14375
209.38 22858. undefined 611.38 900.56 2.0850 545.00 0.0018349 611.38 900.56 2.0850 2.4600 2.9148 1339.8 -0.0048392 142.14 0.14392 545.00 0.0018349 611.38 900.56 2.0850 2.4600 2.9148 1339.8 -0.0048392 142.14 0.14392
210.38 22953. undefined 613.84 904.21 2.0901 545.00 0.0018349 613.84 904.21 2.0901 2.4639 2.9180 1341.0 -0.0048366 142.15 0.14410 545.00 0.0018349 613.84 904.21 2.0901 2.4639 2.9180 1341.0 -0.0048366 142.15 0.14410
211.38 23047. undefined 616.31 907.87 2.0952 545.00 0.0018349 616.31 907.87 2.0952 2.4678 2.9212 1342.2 -0.0048339 142.16 0.14427 545.00 0.0018349 616.31 907.87 2.0952 2.4678 2.9212 1342.2 -0.0048339 142.16 0.14427
212.38 23141. undefined 618.78 911.54 2.1003 545.00 0.0018349 618.78 911.54 2.1003 2.4717 2.9244 1343.4 -0.0048312 142.17 0.14445 545.00 0.0018349 618.78 911.54 2.1003 2.4717 2.9244 1343.4 -0.0048312 142.17 0.14445
213.38 23236. undefined 621.25 915.20 2.1054 545.00 0.0018349 621.25 915.20 2.1054 2.4756 2.9276 1344.6 -0.0048285 142.18 0.14462 545.00 0.0018349 621.25 915.20 2.1054 2.4756 2.9276 1344.6 -0.0048285 142.18 0.14462
214.38 23330. undefined 623.73 918.87 2.1105 545.00 0.0018349 623.73 918.87 2.1105 2.4795 2.9308 1345.8 -0.0048258 142.19 0.14480 545.00 0.0018349 623.73 918.87 2.1105 2.4795 2.9308 1345.8 -0.0048258 142.19 0.14480
215.38 23424. undefined 626.21 922.54 2.1155 545.00 0.0018349 626.21 922.54 2.1155 2.4834 2.9340 1347.0 -0.0048230 142.20 0.14497 545.00 0.0018349 626.21 922.54 2.1155 2.4834 2.9340 1347.0 -0.0048230 142.20 0.14497
216.38 23518. undefined 628.70 926.22 2.1206 545.00 0.0018349 628.70 926.22 2.1206 2.4873 2.9371 1348.2 -0.0048203 142.21 0.14515 545.00 0.0018349 628.70 926.22 2.1206 2.4873 2.9371 1348.2 -0.0048203 142.21 0.14515
217.38 23612. undefined 631.18 929.90 2.1257 545.00 0.0018349 631.18 929.90 2.1257 2.4911 2.9403 1349.3 -0.0048176 142.22 0.14533 545.00 0.0018349 631.18 929.90 2.1257 2.4911 2.9403 1349.3 -0.0048176 142.22 0.14533
218.38 23706. undefined 633.68 933.58 2.1308 545.00 0.0018349 633.68 933.58 2.1308 2.4950 2.9435 1350.5 -0.0048148 142.23 0.14550 545.00 0.0018349 633.68 933.58 2.1308 2.4950 2.9435 1350.5 -0.0048148 142.23 0.14550
219.38 23800. undefined 636.17 937.26 2.1359 545.00 0.0018349 636.17 937.26 2.1359 2.4989 2.9467 1351.7 -0.0048121 142.24 0.14568 545.00 0.0018349 636.17 937.26 2.1359 2.4989 2.9467 1351.7 -0.0048121 142.24 0.14568
220.38 23893. undefined 638.68 940.95 2.1409 545.00 0.0018349 638.68 940.95 2.1409 2.5027 2.9499 1352.9 -0.0048094 142.25 0.14586 545.00 0.0018349 638.68 940.95 2.1409 2.5027 2.9499 1352.9 -0.0048094 142.25 0.14586
221.38 23987. undefined 641.18 944.64 2.1460 545.00 0.0018349 641.18 944.64 2.1460 2.5066 2.9531 1354.0 -0.0048066 142.26 0.14603 545.00 0.0018349 641.18 944.64 2.1460 2.5066 2.9531 1354.0 -0.0048066 142.26 0.14603
222.38 24081. undefined 643.69 948.33 2.1511 545.00 0.0018349 643.69 948.33 2.1511 2.5104 2.9563 1355.2 -0.0048038 142.27 0.14621 545.00 0.0018349 643.69 948.33 2.1511 2.5104 2.9563 1355.2 -0.0048038 142.27 0.14621
223.38 24174. undefined 646.20 952.03 2.1561 545.00 0.0018349 646.20 952.03 2.1561 2.5143 2.9594 1356.4 -0.0048011 142.28 0.14639 545.00 0.0018349 646.20 952.03 2.1561 2.5143 2.9594 1356.4 -0.0048011 142.28 0.14639
224.38 24268. undefined 648.72 955.73 2.1612 545.00 0.0018349 648.72 955.73 2.1612 2.5181 2.9626 1357.5 -0.0047983 142.29 0.14657 545.00 0.0018349 648.72 955.73 2.1612 2.5181 2.9626 1357.5 -0.0047983 142.29 0.14657
225.38 24361. undefined 651.24 959.43 2.1663 545.00 0.0018349 651.24 959.43 2.1663 2.5220 2.9658 1358.7 -0.0047955 142.31 0.14675 545.00 0.0018349 651.24 959.43 2.1663 2.5220 2.9658 1358.7 -0.0047955 142.31 0.14675
226.38 24455. undefined 653.76 963.14 2.1713 545.00 0.0018349 653.76 963.14 2.1713 2.5258 2.9689 1359.8 -0.0047928 142.32 0.14693 545.00 0.0018349 653.76 963.14 2.1713 2.5258 2.9689 1359.8 -0.0047928 142.32 0.14693
227.38 24548. undefined 656.29 966.85 2.1764 545.00 0.0018349 656.29 966.85 2.1764 2.5296 2.9721 1361.0 -0.0047900 142.33 0.14710 545.00 0.0018349 656.29 966.85 2.1764 2.5296 2.9721 1361.0 -0.0047900 142.33 0.14710
228.38 24642. undefined 658.82 970.56 2.1814 545.00 0.0018349 658.82 970.56 2.1814 2.5334 2.9753 1362.2 -0.0047872 142.34 0.14728 545.00 0.0018349 658.82 970.56 2.1814 2.5334 2.9753 1362.2 -0.0047872 142.34 0.14728
229.38 24735. undefined 661.36 974.27 2.1865 545.00 0.0018349 661.36 974.27 2.1865 2.5372 2.9784 1363.3 -0.0047844 142.35 0.14746 545.00 0.0018349 661.36 974.27 2.1865 2.5372 2.9784 1363.3 -0.0047844 142.35 0.14746
230.38 24828. undefined 663.89 977.99 2.1915 545.00 0.0018349 663.89 977.99 2.1915 2.5410 2.9816 1364.5 -0.0047816 142.36 0.14764 545.00 0.0018349 663.89 977.99 2.1915 2.5410 2.9816 1364.5 -0.0047816 142.36 0.14764
231.38 24921. undefined 666.44 981.71 2.1966 545.00 0.0018349 666.44 981.71 2.1966 2.5448 2.9848 1365.6 -0.0047788 142.37 0.14782 545.00 0.0018349 666.44 981.71 2.1966 2.5448 2.9848 1365.6 -0.0047788 142.37 0.14782
232.38 25014. undefined 668.98 985.44 2.2016 545.00 0.0018349 668.98 985.44 2.2016 2.5486 2.9879 1366.8 -0.0047760 142.38 0.14800 545.00 0.0018349 668.98 985.44 2.2016 2.5486 2.9879 1366.8 -0.0047760 142.38 0.14800
233.38 25107. undefined 671.53 989.16 2.2066 545.00 0.0018349 671.53 989.16 2.2066 2.5524 2.9911 1367.9 -0.0047732 142.39 0.14819 545.00 0.0018349 671.53 989.16 2.2066 2.5524 2.9911 1367.9 -0.0047732 142.39 0.14819
234.38 25200. undefined 674.09 992.89 2.2117 545.00 0.0018349 674.09 992.89 2.2117 2.5562 2.9942 1369.0 -0.0047704 142.40 0.14837 545.00 0.0018349 674.09 992.89 2.2117 2.5562 2.9942 1369.0 -0.0047704 142.40 0.14837
235.38 25293. undefined 676.65 996.62 2.2167 545.00 0.0018349 676.65 996.62 2.2167 2.5600 2.9974 1370.2 -0.0047676 142.41 0.14855 545.00 0.0018349 676.65 996.62 2.2167 2.5600 2.9974 1370.2 -0.0047676 142.41 0.14855
236.38 25386. undefined 679.21 1000.4 2.2218 545.00 0.0018349 679.21 1000.4 2.2218 2.5638 3.0005 1371.3 -0.0047648 142.42 0.14873 545.00 0.0018349 679.21 1000.4 2.2218 2.5638 3.0005 1371.3 -0.0047648 142.42 0.14873
237.38 25478. undefined 681.77 1004.1 2.2268 545.00 0.0018349 681.77 1004.1 2.2268 2.5675 3.0037 1372.5 -0.0047620 142.43 0.14891 545.00 0.0018349 681.77 1004.1 2.2268 2.5675 3.0037 1372.5 -0.0047620 142.43 0.14891
238.38 25571. undefined 684.34 1007.8 2.2318 545.00 0.0018349 684.34 1007.8 2.2318 2.5713 3.0068 1373.6 -0.0047592 142.44 0.14909 545.00 0.0018349 684.34 1007.8 2.2318 2.5713 3.0068 1373.6 -0.0047592 142.44 0.14909
239.38 25664. undefined 686.92 1011.6 2.2368 545.00 0.0018349 686.92 1011.6 2.2368 2.5751 3.0100 1374.7 -0.0047564 142.46 0.14928 545.00 0.0018349 686.92 1011.6 2.2368 2.5751 3.0100 1374.7 -0.0047564 142.46 0.14928
240.38 25756. undefined 689.49 1015.3 2.2419 545.00 0.0018349 689.49 1015.3 2.2419 2.5788 3.0131 1375.8 -0.0047535 142.47 0.14946 545.00 0.0018349 689.49 1015.3 2.2419 2.5788 3.0131 1375.8 -0.0047535 142.47 0.14946
241.38 25849. undefined 692.07 1019.1 2.2469 545.00 0.0018349 692.07 1019.1 2.2469 2.5826 3.0162 1377.0 -0.0047507 142.48 0.14964 545.00 0.0018349 692.07 1019.1 2.2469 2.5826 3.0162 1377.0 -0.0047507 142.48 0.14964
242.38 25941. undefined 694.66 1022.8 2.2519 545.00 0.0018349 694.66 1022.8 2.2519 2.5863 3.0194 1378.1 -0.0047479 142.49 0.14983 545.00 0.0018349 694.66 1022.8 2.2519 2.5863 3.0194 1378.1 -0.0047479 142.49 0.14983
243.38 26033. undefined 697.25 1026.6 2.2569 545.00 0.0018349 697.25 1026.6 2.2569 2.5901 3.0225 1379.2 -0.0047451 142.50 0.15001 545.00 0.0018349 697.25 1026.6 2.2569 2.5901 3.0225 1379.2 -0.0047451 142.50 0.15001
244.38 26126. undefined 699.84 1030.4 2.2619 545.00 0.0018349 699.84 1030.4 2.2619 2.5938 3.0256 1380.3 -0.0047422 142.51 0.15020 545.00 0.0018349 699.84 1030.4 2.2619 2.5938 3.0256 1380.3 -0.0047422 142.51 0.15020
245.38 26218. undefined 702.44 1034.1 2.2669 545.00 0.0018349 702.44 1034.1 2.2669 2.5975 3.0288 1381.5 -0.0047394 142.52 0.15038 545.00 0.0018349 702.44 1034.1 2.2669 2.5975 3.0288 1381.5 -0.0047394 142.52 0.15038
246.38 26310. undefined 705.03 1037.9 2.2719 545.00 0.0018349 705.03 1037.9 2.2719 2.6012 3.0319 1382.6 -0.0047366 142.53 0.15056 545.00 0.0018349 705.03 1037.9 2.2719 2.6012 3.0319 1382.6 -0.0047366 142.53 0.15056
247.38 26402. undefined 707.64 1041.7 2.2770 545.00 0.0018349 707.64 1041.7 2.2770 2.6050 3.0350 1383.7 -0.0047337 142.55 0.15075 545.00 0.0018349 707.64 1041.7 2.2770 2.6050 3.0350 1383.7 -0.0047337 142.55 0.15075
248.38 26494. undefined 710.24 1045.4 2.2820 545.00 0.0018349 710.24 1045.4 2.2820 2.6087 3.0381 1384.8 -0.0047309 142.56 0.15094 545.00 0.0018349 710.24 1045.4 2.2820 2.6087 3.0381 1384.8 -0.0047309 142.56 0.15094
249.38 26586. undefined 712.85 1049.2 2.2870 545.00 0.0018349 712.85 1049.2 2.2870 2.6124 3.0413 1385.9 -0.0047281 142.57 0.15112 545.00 0.0018349 712.85 1049.2 2.2870 2.6124 3.0413 1385.9 -0.0047281 142.57 0.15112
250.38 26678. undefined 715.47 1053.0 2.2920 545.00 0.0018349 715.47 1053.0 2.2920 2.6161 3.0444 1387.0 -0.0047252 142.58 0.15131 545.00 0.0018349 715.47 1053.0 2.2920 2.6161 3.0444 1387.0 -0.0047252 142.58 0.15131
251.38 26770. undefined 718.09 1056.8 2.2969 545.00 0.0018349 718.09 1056.8 2.2969 2.6198 3.0475 1388.2 -0.0047224 142.59 0.15149 545.00 0.0018349 718.09 1056.8 2.2969 2.6198 3.0475 1388.2 -0.0047224 142.59 0.15149
252.38 26862. undefined 720.71 1060.5 2.3019 545.00 0.0018349 720.71 1060.5 2.3019 2.6235 3.0506 1389.3 -0.0047196 142.60 0.15168 545.00 0.0018349 720.71 1060.5 2.3019 2.6235 3.0506 1389.3 -0.0047196 142.60 0.15168
253.38 26954. undefined 723.33 1064.3 2.3069 545.00 0.0018349 723.33 1064.3 2.3069 2.6271 3.0537 1390.4 -0.0047167 142.61 0.15187 545.00 0.0018349 723.33 1064.3 2.3069 2.6271 3.0537 1390.4 -0.0047167 142.61 0.15187
254.38 27046. undefined 725.96 1068.1 2.3119 545.00 0.0018349 725.96 1068.1 2.3119 2.6308 3.0568 1391.5 -0.0047139 142.63 0.15205 545.00 0.0018349 725.96 1068.1 2.3119 2.6308 3.0568 1391.5 -0.0047139 142.63 0.15205
255.38 27137. undefined 728.60 1071.9 2.3169 545.00 0.0018349 728.60 1071.9 2.3169 2.6345 3.0599 1392.6 -0.0047110 142.64 0.15224 545.00 0.0018349 728.60 1071.9 2.3169 2.6345 3.0599 1392.6 -0.0047110 142.64 0.15224
256.38 27229. undefined 731.23 1075.7 2.3219 545.00 0.0018349 731.23 1075.7 2.3219 2.6382 3.0630 1393.7 -0.0047082 142.65 0.15243 545.00 0.0018349 731.23 1075.7 2.3219 2.6382 3.0630 1393.7 -0.0047082 142.65 0.15243
257.38 27320. undefined 733.87 1079.5 2.3269 545.00 0.0018349 733.87 1079.5 2.3269 2.6418 3.0661 1394.8 -0.0047053 142.66 0.15262 545.00 0.0018349 733.87 1079.5 2.3269 2.6418 3.0661 1394.8 -0.0047053 142.66 0.15262
258.38 27412. undefined 736.52 1083.3 2.3319 545.00 0.0018349 736.52 1083.3 2.3319 2.6455 3.0692 1395.9 -0.0047025 142.67 0.15280 545.00 0.0018349 736.52 1083.3 2.3319 2.6455 3.0692 1395.9 -0.0047025 142.67 0.15280
259.38 27503. undefined 739.16 1087.1 2.3368 545.00 0.0018349 739.16 1087.1 2.3368 2.6492 3.0723 1397.0 -0.0046997 142.68 0.15299 545.00 0.0018349 739.16 1087.1 2.3368 2.6492 3.0723 1397.0 -0.0046997 142.68 0.15299
260.38 27595. undefined 741.81 1090.9 2.3418 545.00 0.0018349 741.81 1090.9 2.3418 2.6528 3.0754 1398.0 -0.0046968 142.70 0.15318 545.00 0.0018349 741.81 1090.9 2.3418 2.6528 3.0754 1398.0 -0.0046968 142.70 0.15318
261.38 27686. undefined 744.47 1094.7 2.3468 545.00 0.0018349 744.47 1094.7 2.3468 2.6564 3.0785 1399.1 -0.0046940 142.71 0.15337 545.00 0.0018349 744.47 1094.7 2.3468 2.6564 3.0785 1399.1 -0.0046940 142.71 0.15337
262.38 27777. undefined 747.13 1098.5 2.3517 545.00 0.0018349 747.13 1098.5 2.3517 2.6601 3.0815 1400.2 -0.0046911 142.72 0.15356 545.00 0.0018349 747.13 1098.5 2.3517 2.6601 3.0815 1400.2 -0.0046911 142.72 0.15356
263.38 27869. undefined 749.79 1102.4 2.3567 545.00 0.0018349 749.79 1102.4 2.3567 2.6637 3.0846 1401.3 -0.0046883 142.73 0.15375 545.00 0.0018349 749.79 1102.4 2.3567 2.6637 3.0846 1401.3 -0.0046883 142.73 0.15375
264.38 27960. undefined 752.45 1106.2 2.3617 545.00 0.0018349 752.45 1106.2 2.3617 2.6673 3.0877 1402.4 -0.0046855 142.74 0.15394 545.00 0.0018349 752.45 1106.2 2.3617 2.6673 3.0877 1402.4 -0.0046855 142.74 0.15394
265.38 28051. undefined 755.12 1110.0 2.3666 545.00 0.0018349 755.12 1110.0 2.3666 2.6710 3.0908 1403.5 -0.0046826 142.76 0.15413 545.00 0.0018349 755.12 1110.0 2.3666 2.6710 3.0908 1403.5 -0.0046826 142.76 0.15413
266.38 28142. undefined 757.80 1113.8 2.3716 545.00 0.0018349 757.80 1113.8 2.3716 2.6746 3.0938 1404.6 -0.0046798 142.77 0.15432 545.00 0.0018349 757.80 1113.8 2.3716 2.6746 3.0938 1404.6 -0.0046798 142.77 0.15432
267.38 28233. undefined 760.47 1117.6 2.3765 545.00 0.0018349 760.47 1117.6 2.3765 2.6782 3.0969 1405.6 -0.0046769 142.78 0.15451 545.00 0.0018349 760.47 1117.6 2.3765 2.6782 3.0969 1405.6 -0.0046769 142.78 0.15451
268.38 28324. undefined 763.15 1121.5 2.3815 545.00 0.0018349 763.15 1121.5 2.3815 2.6818 3.1000 1406.7 -0.0046741 142.79 0.15470 545.00 0.0018349 763.15 1121.5 2.3815 2.6818 3.1000 1406.7 -0.0046741 142.79 0.15470
269.38 28415. undefined 765.84 1125.3 2.3864 545.00 0.0018349 765.84 1125.3 2.3864 2.6854 3.1030 1407.8 -0.0046712 142.80 0.15489 545.00 0.0018349 765.84 1125.3 2.3864 2.6854 3.1030 1407.8 -0.0046712 142.80 0.15489
270.38 28505. undefined 768.52 1129.1 2.3914 545.00 0.0018349 768.52 1129.1 2.3914 2.6890 3.1061 1408.9 -0.0046684 142.82 0.15509 545.00 0.0018349 768.52 1129.1 2.3914 2.6890 3.1061 1408.9 -0.0046684 142.82 0.15509
271.38 28596. undefined 771.21 1133.0 2.3963 545.00 0.0018349 771.21 1133.0 2.3963 2.6926 3.1092 1409.9 -0.0046656 142.83 0.15528 545.00 0.0018349 771.21 1133.0 2.3963 2.6926 3.1092 1409.9 -0.0046656 142.83 0.15528
272.38 28687. undefined 773.91 1136.8 2.4013 545.00 0.0018349 773.91 1136.8 2.4013 2.6962 3.1122 1411.0 -0.0046627 142.84 0.15547 545.00 0.0018349 773.91 1136.8 2.4013 2.6962 3.1122 1411.0 -0.0046627 142.84 0.15547
273.38 28777. undefined 776.61 1140.7 2.4062 545.00 0.0018349 776.61 1140.7 2.4062 2.6998 3.1153 1412.1 -0.0046599 142.85 0.15566 545.00 0.0018349 776.61 1140.7 2.4062 2.6998 3.1153 1412.1 -0.0046599 142.85 0.15566
274.38 28868. undefined 779.31 1144.5 2.4112 545.00 0.0018349 779.31 1144.5 2.4112 2.7033 3.1183 1413.2 -0.0046571 142.87 0.15586 545.00 0.0018349 779.31 1144.5 2.4112 2.7033 3.1183 1413.2 -0.0046571 142.87 0.15586
275.38 28958. undefined 782.01 1148.4 2.4161 545.00 0.0018349 782.01 1148.4 2.4161 2.7069 3.1214 1414.2 -0.0046542 142.88 0.15605 545.00 0.0018349 782.01 1148.4 2.4161 2.7069 3.1214 1414.2 -0.0046542 142.88 0.15605
276.38 29049. undefined 784.72 1152.2 2.4210 545.00 0.0018349 784.72 1152.2 2.4210 2.7105 3.1244 1415.3 -0.0046514 142.89 0.15624 545.00 0.0018349 784.72 1152.2 2.4210 2.7105 3.1244 1415.3 -0.0046514 142.89 0.15624
277.38 29139. undefined 787.43 1156.1 2.4260 545.00 0.0018349 787.43 1156.1 2.4260 2.7140 3.1274 1416.3 -0.0046486 142.90 0.15644 545.00 0.0018349 787.43 1156.1 2.4260 2.7140 3.1274 1416.3 -0.0046486 142.90 0.15644
278.38 29230. undefined 790.15 1159.9 2.4309 545.00 0.0018349 790.15 1159.9 2.4309 2.7176 3.1305 1417.4 -0.0046457 142.91 0.15663 545.00 0.0018349 790.15 1159.9 2.4309 2.7176 3.1305 1417.4 -0.0046457 142.91 0.15663
279.38 29320. undefined 792.87 1163.8 2.4358 545.00 0.0018349 792.87 1163.8 2.4358 2.7212 3.1335 1418.5 -0.0046429 142.93 0.15683 545.00 0.0018349 792.87 1163.8 2.4358 2.7212 3.1335 1418.5 -0.0046429 142.93 0.15683
280.38 29410. undefined 795.59 1167.7 2.4407 545.00 0.0018349 795.59 1167.7 2.4407 2.7247 3.1366 1419.5 -0.0046401 142.94 0.15702 545.00 0.0018349 795.59 1167.7 2.4407 2.7247 3.1366 1419.5 -0.0046401 142.94 0.15702
281.38 29500. undefined 798.32 1171.5 2.4457 545.00 0.0018349 798.32 1171.5 2.4457 2.7282 3.1396 1420.6 -0.0046372 142.95 0.15722 545.00 0.0018349 798.32 1171.5 2.4457 2.7282 3.1396 1420.6 -0.0046372 142.95 0.15722
282.38 29591. undefined 801.05 1175.4 2.4506 545.00 0.0018349 801.05 1175.4 2.4506 2.7318 3.1426 1421.6 -0.0046344 142.96 0.15716 545.00 0.0018349 801.05 1175.4 2.4506 2.7318 3.1426 1421.6 -0.0046344 142.96 0.15716
283.38 29681. undefined 803.78 1179.3 2.4555 545.00 0.0018349 803.78 1179.3 2.4555 2.7353 3.1456 1422.7 -0.0046316 142.98 0.15735 545.00 0.0018349 803.78 1179.3 2.4555 2.7353 3.1456 1422.7 -0.0046316 142.98 0.15735
284.38 29771. undefined 806.52 1183.1 2.4604 545.00 0.0018349 806.52 1183.1 2.4604 2.7388 3.1486 1423.7 -0.0046288 142.99 0.15755 545.00 0.0018349 806.52 1183.1 2.4604 2.7388 3.1486 1423.7 -0.0046288 142.99 0.15755
285.38 29861. undefined 809.26 1187.0 2.4653 545.00 0.0018349 809.26 1187.0 2.4653 2.7424 3.1517 1424.8 -0.0046260 143.00 0.15774 545.00 0.0018349 809.26 1187.0 2.4653 2.7424 3.1517 1424.8 -0.0046260 143.00 0.15774
286.38 29951. undefined 812.00 1190.9 2.4702 545.00 0.0018349 812.00 1190.9 2.4702 2.7459 3.1547 1425.8 -0.0046231 143.01 0.15794 545.00 0.0018349 812.00 1190.9 2.4702 2.7459 3.1547 1425.8 -0.0046231 143.01 0.15794
287.38 30040. undefined 814.75 1194.8 2.4751 545.00 0.0018349 814.75 1194.8 2.4751 2.7494 3.1577 1426.9 -0.0046203 143.03 0.15813 545.00 0.0018349 814.75 1194.8 2.4751 2.7494 3.1577 1426.9 -0.0046203 143.03 0.15813
288.38 30130. undefined 817.50 1198.7 2.4800 545.00 0.0018349 817.50 1198.7 2.4800 2.7529 3.1607 1427.9 -0.0046175 143.04 0.15833 545.00 0.0018349 817.50 1198.7 2.4800 2.7529 3.1607 1427.9 -0.0046175 143.04 0.15833
289.38 30220. undefined 820.26 1202.6 2.4849 545.00 0.0018349 820.26 1202.6 2.4849 2.7564 3.1637 1429.0 -0.0046147 143.05 0.15853 545.00 0.0018349 820.26 1202.6 2.4849 2.7564 3.1637 1429.0 -0.0046147 143.05 0.15853
290.38 30310. undefined 823.02 1206.5 2.4898 545.00 0.0018349 823.02 1206.5 2.4898 2.7599 3.1667 1430.0 -0.0046119 143.06 0.15872 545.00 0.0018349 823.02 1206.5 2.4898 2.7599 3.1667 1430.0 -0.0046119 143.06 0.15872
291.38 30399. undefined 825.78 1210.4 2.4947 545.00 0.0018349 825.78 1210.4 2.4947 2.7634 3.1697 1431.0 -0.0046091 143.08 0.15892 545.00 0.0018349 825.78 1210.4 2.4947 2.7634 3.1697 1431.0 -0.0046091 143.08 0.15892
292.38 30489. undefined 828.54 1214.3 2.4996 545.00 0.0018349 828.54 1214.3 2.4996 2.7669 3.1727 1432.1 -0.0046063 143.09 0.15912 545.00 0.0018349 828.54 1214.3 2.4996 2.7669 3.1727 1432.1 -0.0046063 143.09 0.15912
293.38 30578. undefined 831.31 1218.2 2.5045 545.00 0.0018349 831.31 1218.2 2.5045 2.7703 3.1757 1433.1 -0.0046035 143.10 0.15932 545.00 0.0018349 831.31 1218.2 2.5045 2.7703 3.1757 1433.1 -0.0046035 143.10 0.15932
294.38 30668. undefined 834.08 1222.1 2.5094 545.00 0.0018349 834.08 1222.1 2.5094 2.7738 3.1787 1434.1 -0.0046006 143.12 0.15951 545.00 0.0018349 834.08 1222.1 2.5094 2.7738 3.1787 1434.1 -0.0046006 143.12 0.15951
295.38 30757. undefined 836.86 1226.0 2.5143 545.00 0.0018349 836.86 1226.0 2.5143 2.7773 3.1817 1435.2 -0.0045978 143.13 0.15971 545.00 0.0018349 836.86 1226.0 2.5143 2.7773 3.1817 1435.2 -0.0045978 143.13 0.15971
296.38 30847. undefined 839.64 1229.9 2.5192 545.00 0.0018349 839.64 1229.9 2.5192 2.7808 3.1847 1436.2 -0.0045950 143.14 0.15991 545.00 0.0018349 839.64 1229.9 2.5192 2.7808 3.1847 1436.2 -0.0045950 143.14 0.15991
297.38 30936. undefined 842.42 1233.8 2.5241 545.00 0.0018349 842.42 1233.8 2.5241 2.7842 3.1876 1437.2 -0.0045923 143.15 0.16011 545.00 0.0018349 842.42 1233.8 2.5241 2.7842 3.1876 1437.2 -0.0045923 143.15 0.16011
298.38 31025. undefined 845.21 1237.7 2.5289 545.00 0.0018349 845.21 1237.7 2.5289 2.7877 3.1906 1438.3 -0.0045895 143.17 0.16031 545.00 0.0018349 845.21 1237.7 2.5289 2.7877 3.1906 1438.3 -0.0045895 143.17 0.16031
299.38 31114. undefined 848.00 1241.6 2.5338 545.00 0.0018349 848.00 1241.6 2.5338 2.7911 3.1936 1439.3 -0.0045867 143.18 0.16051 545.00 0.0018349 848.00 1241.6 2.5338 2.7911 3.1936 1439.3 -0.0045867 143.18 0.16051
300.38 31203. undefined 850.79 1245.5 2.5387 545.00 0.0018349 850.79 1245.5 2.5387 2.7946 3.1966 1440.3 -0.0045839 143.19 0.16071 545.00 0.0018349 850.79 1245.5 2.5387 2.7946 3.1966 1440.3 -0.0045839 143.19 0.16071