Temperature (C) Pressure (psia) Quality (l+v) Internal Energy (l+v, kJ/kg) Enthalpy (l+v, kJ/kg) Entropy (l+v, J/g*K) Density (l, kg/m3) Volume (l, m3/kg) Internal Energy (l, kJ/kg) Enthalpy (l, kJ/kg) Entropy (l, J/g*K) Cv (l, J/g*K) Cp (l, J/g*K) Sound Spd. (l, m/s) Joule-Thomson (l, F/psia) Viscosity (l, uPa*s) Therm. Cond. (l, W/m*K) Density (v, kg/m3) Volume (v, m3/kg) Internal Energy (v, kJ/kg) Enthalpy (v, kJ/kg) Entropy (v, J/g*K) Cv (v, J/g*K) Cp (v, J/g*K) Sound Spd. (v, m/s) Joule-Thomson (v, F/psia) Viscosity (v, uPa*s) Therm. Cond. (v, W/m*K)
-187.62 2.4953e-08 4.8453e-12 -196.64 -196.64 -1.3959 733.13 0.0013640 -196.64 -196.64 -1.3959 1.3553 1.9158 2136.4 -0.0077592 10960. 0.20792 1.0669e-08 9.3732e+07 350.13 366.26 5.1858 0.69067 0.87923 143.28 6.1051 2.3259 0.0017061
-186.62 3.7339e-08 7.1359e-12 -194.73 -194.73 -1.3736 732.08 0.0013660 -194.73 -194.73 -1.3736 1.3539 1.9166 2129.6 -0.0077546 10073. 0.20765 1.5780e-08 6.3371e+07 350.82 367.14 5.1200 0.69462 0.88317 144.03 5.9178 2.3534 0.0017533
-185.62 5.5322e-08 1.0407e-11 -192.81 -192.81 -1.3516 731.04 0.0013679 -192.81 -192.81 -1.3516 1.3525 1.9174 2122.9 -0.0077498 9276.1 0.20737 2.3112e-08 4.3267e+07 351.52 368.02 5.0561 0.69857 0.88713 144.77 5.7383 2.3808 0.0018007
-184.62 8.1182e-08 1.5033e-11 -190.89 -190.89 -1.3298 730.00 0.0013699 -190.89 -190.89 -1.3298 1.3513 1.9182 2116.1 -0.0077448 8557.8 0.20708 3.3533e-08 2.9821e+07 352.22 368.91 4.9939 0.70253 0.89108 145.51 5.5662 2.4083 0.0018485
-183.62 1.1803e-07 2.1519e-11 -188.97 -188.97 -1.3083 728.96 0.0013718 -188.97 -188.97 -1.3083 1.3501 1.9191 2109.3 -0.0077395 7909.8 0.20678 4.8211e-08 2.0742e+07 352.92 369.81 4.9333 0.70648 0.89504 146.24 5.4011 2.4357 0.0018965
-182.62 1.7009e-07 3.0532e-11 -187.05 -187.05 -1.2869 727.92 0.0013738 -187.05 -187.05 -1.2869 1.3490 1.9201 2102.5 -0.0077340 7324.3 0.20647 6.8704e-08 1.4555e+07 353.63 370.70 4.8744 0.71043 0.89899 146.97 5.2426 2.4632 0.0019448
-181.62 2.4299e-07 4.2952e-11 -185.13 -185.13 -1.2658 726.88 0.0013757 -185.13 -185.13 -1.2658 1.3480 1.9210 2095.7 -0.0077283 6794.5 0.20616 9.7079e-08 1.0301e+07 354.35 371.60 4.8170 0.71438 0.90294 147.69 5.0904 2.4906 0.0019934
-180.62 3.4425e-07 5.9927e-11 -183.21 -183.21 -1.2450 725.85 0.0013777 -183.21 -183.21 -1.2450 1.3470 1.9220 2088.9 -0.0077225 6314.4 0.20584 1.3605e-07 7.3504e+06 355.06 372.51 4.7612 0.71833 0.90688 148.41 4.9442 2.5181 0.0020423
-179.62 4.8378e-07 8.2945e-11 -181.29 -181.29 -1.2243 724.81 0.0013797 -181.29 -181.29 -1.2243 1.3461 1.9231 2082.0 -0.0077164 5878.8 0.20551 1.8915e-07 5.2868e+06 355.78 373.42 4.7068 0.72227 0.91082 149.13 4.8038 2.5456 0.0020915
-178.62 6.7459e-07 1.1392e-10 -179.37 -179.37 -1.2038 723.78 0.0013816 -179.37 -179.37 -1.2038 1.3453 1.9241 2075.2 -0.0077102 5482.9 0.20517 2.6096e-07 3.8320e+06 356.51 374.33 4.6538 0.72620 0.91475 149.84 4.6688 2.5731 0.0021410
-177.62 9.3358e-07 1.5530e-10 -177.44 -177.44 -1.1836 722.75 0.0013836 -177.44 -177.44 -1.1836 1.3445 1.9252 2068.4 -0.0077039 5122.6 0.20483 3.5737e-07 2.7982e+06 357.23 375.25 4.6022 0.73012 0.91867 150.54 4.5390 2.6005 0.0021907
-176.62 1.2826e-06 2.1019e-10 -175.52 -175.52 -1.1635 721.72 0.0013856 -175.52 -175.52 -1.1635 1.3437 1.9263 2061.5 -0.0076973 4794.1 0.20447 4.8588e-07 2.0581e+06 357.97 376.17 4.5519 0.73403 0.92258 151.25 4.4142 2.6280 0.0022408
-175.62 1.7496e-06 2.8249e-10 -173.59 -173.59 -1.1437 720.69 0.0013876 -173.59 -173.59 -1.1437 1.3430 1.9274 2054.7 -0.0076907 4494.3 0.20411 6.5601e-07 1.5244e+06 358.70 377.09 4.5029 0.73792 0.92648 151.95 4.2941 2.6555 0.0022912
-174.62 2.3705e-06 3.7710e-10 -171.66 -171.66 -1.1240 719.66 0.0013895 -171.66 -171.66 -1.1240 1.3423 1.9286 2047.9 -0.0076838 4220.2 0.20375 8.7976e-07 1.1367e+06 359.44 378.02 4.4551 0.74181 0.93036 152.64 4.1784 2.6830 0.0023418
-173.62 3.1903e-06 5.0010e-10 -169.73 -169.73 -1.1045 718.64 0.0013915 -169.73 -169.73 -1.1045 1.3417 1.9298 2041.0 -0.0076769 3969.3 0.20338 1.1721e-06 8.5314e+05 360.19 378.95 4.4085 0.74568 0.93423 153.33 4.0671 2.7105 0.0023928
-172.62 4.2661e-06 6.5900e-10 -167.80 -167.80 -1.0852 717.61 0.0013935 -167.80 -167.80 -1.0852 1.3411 1.9310 2034.2 -0.0076698 3739.3 0.20300 1.5518e-06 6.4441e+05 360.93 379.89 4.3631 0.74953 0.93809 154.02 3.9599 2.7379 0.0024440
-171.62 5.6692e-06 8.6305e-10 -165.87 -165.87 -1.0661 716.58 0.0013955 -165.87 -165.87 -1.0661 1.3405 1.9322 2027.3 -0.0076625 3528.0 0.20261 2.0419e-06 4.8974e+05 361.69 380.83 4.3188 0.75337 0.94193 154.71 3.8566 2.7654 0.0024955
-170.62 7.4884e-06 1.1235e-09 -163.94 -163.94 -1.0472 715.56 0.0013975 -163.94 -163.94 -1.0472 1.3400 1.9334 2020.5 -0.0076552 3333.8 0.20222 2.6708e-06 3.7442e+05 362.44 381.77 4.2755 0.75720 0.94575 155.39 3.7570 2.7929 0.0025473
-169.62 9.8334e-06 1.4542e-09 -162.00 -162.00 -1.0284 714.54 0.0013995 -162.00 -162.00 -1.0284 1.3395 1.9347 2013.6 -0.0076477 3154.9 0.20182 3.4733e-06 2.8791e+05 363.20 382.72 4.2334 0.76100 0.94956 156.07 3.6609 2.8204 0.0025994
-168.62 1.2839e-05 1.8715e-09 -160.07 -160.07 -1.0098 713.52 0.0014015 -160.07 -160.07 -1.0098 1.3390 1.9359 2006.8 -0.0076401 2989.9 0.20141 4.4917e-06 2.2263e+05 363.96 383.67 4.1922 0.76479 0.95335 156.74 3.5683 2.8479 0.0026518
-167.62 1.6672e-05 2.3956e-09 -158.13 -158.13 -0.99134 712.49 0.0014035 -158.13 -158.13 -0.99134 1.3386 1.9372 2000.0 -0.0076323 2837.5 0.20100 5.7771e-06 1.7310e+05 364.73 384.63 4.1521 0.76856 0.95712 157.41 3.4790 2.8754 0.0027045
-166.62 2.1533e-05 3.0501e-09 -156.19 -156.19 -0.97306 711.47 0.0014055 -156.19 -156.19 -0.97306 1.3382 1.9385 1993.1 -0.0076245 2696.5 0.20058 7.3914e-06 1.3529e+05 365.50 385.59 4.1129 0.77232 0.96087 158.08 3.3927 2.9029 0.0027575
-165.62 2.7666e-05 3.8634e-09 -154.25 -154.25 -0.95494 710.45 0.0014075 -154.25 -154.25 -0.95494 1.3378 1.9398 1986.3 -0.0076165 2566.0 0.20016 9.4084e-06 1.0629e+05 366.27 386.55 4.0746 0.77605 0.96460 158.75 3.3095 2.9304 0.0028108
-164.62 3.5367e-05 4.8692e-09 -152.31 -152.31 -0.93698 709.44 0.0014096 -152.31 -152.31 -0.93698 1.3375 1.9411 1979.4 -0.0076084 2444.9 0.19973 1.1916e-05 83918. 367.05 387.52 4.0372 0.77976 0.96832 159.41 3.2291 2.9579 0.0028643
-163.62 4.4989e-05 6.1070e-09 -150.37 -150.37 -0.91917 708.42 0.0014116 -150.37 -150.37 -0.91917 1.3371 1.9424 1972.6 -0.0076002 2332.3 0.19930 1.5020e-05 66577. 367.83 388.49 4.0008 0.78346 0.97201 160.07 3.1514 2.9854 0.0029182
-162.62 5.6956e-05 7.6233e-09 -148.43 -148.43 -0.90151 707.40 0.0014136 -148.43 -148.43 -0.90151 1.3368 1.9437 1965.8 -0.0075919 2227.7 0.19886 1.8844e-05 53068. 368.62 389.46 3.9651 0.78713 0.97569 160.72 3.0764 3.0129 0.0029723
-161.62 7.1773e-05 9.4724e-09 -146.48 -146.48 -0.88400 706.38 0.0014157 -146.48 -146.48 -0.88400 1.3365 1.9451 1959.0 -0.0075834 2130.2 0.19841 2.3533e-05 42494. 369.41 390.44 3.9304 0.79079 0.97935 161.38 3.0038 3.0404 0.0030268
-160.62 9.0036e-05 1.1718e-08 -144.54 -144.54 -0.86663 705.37 0.0014177 -144.54 -144.54 -0.86663 1.3363 1.9465 1952.1 -0.0075748 2039.2 0.19796 2.9258e-05 34178. 370.20 391.42 3.8964 0.79443 0.98298 162.03 2.9337 3.0679 0.0030815
-159.62 0.00011245 1.4432e-08 -142.59 -142.59 -0.84940 704.35 0.0014197 -142.59 -142.59 -0.84940 1.3360 1.9478 1945.3 -0.0075661 1954.2 0.19751 3.6221e-05 27609. 371.00 392.40 3.8632 0.79805 0.98660 162.68 2.8658 3.0955 0.0031365
-158.62 0.00013985 1.7700e-08 -140.64 -140.64 -0.83231 703.34 0.0014218 -140.64 -140.64 -0.83231 1.3358 1.9492 1938.5 -0.0075573 1874.8 0.19705 4.4652e-05 22395. 371.80 393.39 3.8307 0.80164 0.99020 163.32 2.8002 3.1230 0.0031918
-157.62 0.00017320 2.1618e-08 -138.69 -138.69 -0.81536 702.32 0.0014238 -138.69 -138.69 -0.81536 1.3356 1.9506 1931.7 -0.0075484 1800.3 0.19658 5.4822e-05 18241. 372.60 394.38 3.7990 0.80522 0.99378 163.96 2.7367 3.1505 0.0032474
-156.62 0.00021364 2.6299e-08 -136.74 -136.74 -0.79854 701.31 0.0014259 -136.74 -136.74 -0.79854 1.3354 1.9520 1924.9 -0.0075393 1730.5 0.19611 6.7040e-05 14916. 373.41 395.38 3.7680 0.80878 0.99734 164.60 2.6752 3.1780 0.0033033
-155.62 0.00026248 3.1868e-08 -134.79 -134.79 -0.78185 700.30 0.0014280 -134.79 -134.79 -0.78185 1.3352 1.9534 1918.1 -0.0075302 1664.9 0.19564 8.1666e-05 12245. 374.22 396.38 3.7377 0.81232 1.0009 165.24 2.6157 3.2055 0.0033595
-154.62 0.00032125 3.8469e-08 -132.83 -132.83 -0.76530 699.29 0.0014300 -132.83 -132.83 -0.76530 1.3350 1.9548 1911.3 -0.0075209 1603.3 0.19516 9.9109e-05 10090. 375.03 397.38 3.7081 0.81585 1.0044 165.87 2.5580 3.2330 0.0034160
-153.62 0.00039171 4.6267e-08 -130.88 -130.88 -0.74887 698.27 0.0014321 -130.88 -130.88 -0.74887 1.3349 1.9563 1904.5 -0.0075114 1545.3 0.19468 0.00011984 8344.6 375.85 398.39 3.6792 0.81935 1.0079 166.50 2.5022 3.2606 0.0034727
-152.62 0.00047590 5.5444e-08 -128.92 -128.92 -0.73256 697.26 0.0014342 -128.92 -128.92 -0.73256 1.3348 1.9577 1897.8 -0.0075019 1490.6 0.19419 0.00014439 6925.9 376.67 399.40 3.6509 0.82284 1.0114 167.13 2.4481 3.2881 0.0035298
-151.62 0.00057613 6.6208e-08 -126.96 -126.96 -0.71638 696.25 0.0014363 -126.96 -126.96 -0.71638 1.3346 1.9592 1891.0 -0.0074922 1438.9 0.19370 0.00017336 5768.4 377.49 400.41 3.6232 0.82631 1.0149 167.76 2.3957 3.3156 0.0035872
-150.62 0.00069507 7.8791e-08 -125.00 -125.00 -0.70032 695.24 0.0014384 -125.00 -125.00 -0.70032 1.3345 1.9606 1884.2 -0.0074824 1390.2 0.19320 0.00020744 4820.7 378.32 401.42 3.5962 0.82976 1.0183 168.38 2.3448 3.3431 0.0036448
-149.62 0.00083574 9.3452e-08 -123.04 -123.04 -0.68438 694.23 0.0014404 -123.04 -123.04 -0.68438 1.3345 1.9621 1877.4 -0.0074724 1344.0 0.19270 0.00024740 4042.0 379.15 402.44 3.5697 0.83319 1.0218 169.00 2.2956 3.3706 0.0037027
-148.62 0.0010016 1.1048e-07 -121.08 -121.08 -0.66855 693.22 0.0014425 -121.08 -121.08 -0.66855 1.3344 1.9636 1870.7 -0.0074623 1300.3 0.19220 0.00029412 3400.0 379.99 403.47 3.5438 0.83661 1.0252 169.62 2.2478 3.3982 0.0037610
-147.62 0.0011965 1.3020e-07 -119.11 -119.11 -0.65284 692.21 0.0014447 -119.11 -119.11 -0.65284 1.3343 1.9651 1863.9 -0.0074521 1258.9 0.19169 0.00034856 2869.0 380.83 404.49 3.5185 0.84001 1.0286 170.24 2.2014 3.4257 0.0038195
-146.62 0.0014249 1.5295e-07 -117.15 -117.15 -0.63724 691.20 0.0014468 -117.15 -117.15 -0.63724 1.3343 1.9666 1857.2 -0.0074417 1219.6 0.19117 0.00041181 2428.3 381.67 405.52 3.4938 0.84340 1.0320 170.85 2.1565 3.4532 0.0038783
-145.62 0.0016917 1.7915e-07 -115.18 -115.18 -0.62175 690.19 0.0014489 -115.18 -115.18 -0.62175 1.3343 1.9682 1850.4 -0.0074312 1182.3 0.19066 0.00048510 2061.4 382.51 406.56 3.4695 0.84677 1.0353 171.46 2.1128 3.4807 0.0039374
-144.62 0.0020026 2.0920e-07 -113.21 -113.21 -0.60637 689.18 0.0014510 -113.21 -113.21 -0.60637 1.3343 1.9697 1843.7 -0.0074206 1146.8 0.19014 0.00056976 1755.1 383.36 407.59 3.4458 0.85012 1.0387 172.07 2.0705 3.5082 0.0039967
-143.62 0.0023637 2.4360e-07 -111.24 -111.24 -0.59110 688.17 0.0014531 -111.24 -111.24 -0.59110 1.3343 1.9713 1836.9 -0.0074098 1113.0 0.18962 0.00066731 1498.6 384.21 408.63 3.4226 0.85346 1.0420 172.68 2.0294 3.5358 0.0040564
-142.62 0.0027820 2.8285e-07 -109.27 -109.27 -0.57593 687.16 0.0014553 -109.27 -109.27 -0.57593 1.3343 1.9728 1830.2 -0.0073988 1080.8 0.18909 0.00077939 1283.1 385.07 409.68 3.3999 0.85679 1.0454 173.28 1.9896 3.5633 0.0041164
-141.62 0.0032653 3.2752e-07 -107.30 -107.30 -0.56087 686.15 0.0014574 -107.30 -107.30 -0.56087 1.3343 1.9744 1823.5 -0.0073878 1050.1 0.18856 0.00090784 1101.5 385.93 410.72 3.3777 0.86011 1.0487 173.88 1.9508 3.5908 0.0041766
-140.62 0.0038222 3.7823e-07 -105.32 -105.32 -0.54591 685.14 0.0014596 -105.32 -105.32 -0.54591 1.3344 1.9760 1816.7 -0.0073765 1020.7 0.18803 0.0010547 948.16 386.79 411.77 3.3560 0.86341 1.0520 174.48 1.9133 3.6183 0.0042372
-139.62 0.0044623 4.3564e-07 -103.34 -103.34 -0.53105 684.13 0.0014617 -103.34 -103.34 -0.53105 1.3344 1.9776 1810.0 -0.0073651 992.74 0.18749 0.0012221 818.26 387.65 412.83 3.3347 0.86670 1.0553 175.08 1.8768 3.6459 0.0042980
-138.62 0.0051963 5.0047e-07 -101.37 -101.37 -0.51628 683.12 0.0014639 -101.37 -101.37 -0.51629 1.3345 1.9792 1803.3 -0.0073536 965.97 0.18695 0.0014125 707.94 388.52 413.88 3.3139 0.86998 1.0586 175.67 1.8413 3.6734 0.0043592
-137.62 0.0060358 5.7352e-07 -99.386 -99.386 -0.50162 682.11 0.0014660 -99.386 -99.386 -0.50162 1.3346 1.9808 1796.6 -0.0073419 940.35 0.18641 0.0016287 614.00 389.39 414.94 3.2935 0.87325 1.0619 176.26 1.8069 3.7009 0.0044206
-136.62 0.0069938 6.5561e-07 -97.404 -97.404 -0.48705 681.10 0.0014682 -97.404 -97.404 -0.48705 1.3347 1.9825 1789.9 -0.0073301 915.81 0.18586 0.0018733 533.80 390.26 416.00 3.2735 0.87650 1.0651 176.85 1.7734 3.7284 0.0044823
-135.62 0.0080843 7.4765e-07 -95.421 -95.421 -0.47258 680.09 0.0014704 -95.421 -95.421 -0.47258 1.3348 1.9841 1783.2 -0.0073180 892.30 0.18531 0.0021497 465.17 391.14 417.07 3.2540 0.87975 1.0684 177.44 1.7409 3.7559 0.0045443
-134.62 0.0093230 8.5060e-07 -93.436 -93.436 -0.45819 679.08 0.0014726 -93.436 -93.436 -0.45820 1.3350 1.9858 1776.5 -0.0073059 869.75 0.18476 0.0024613 406.30 392.02 418.14 3.2348 0.88299 1.0716 178.02 1.7093 3.7834 0.0046066
-133.62 0.010727 9.6552e-07 -91.449 -91.449 -0.44390 678.07 0.0014748 -91.450 -91.449 -0.44391 1.3351 1.9875 1769.8 -0.0072935 848.11 0.18421 0.0028116 355.67 392.91 419.21 3.2161 0.88622 1.0749 178.61 1.6786 3.8109 0.0046691
-132.62 0.012315 1.0935e-06 -89.461 -89.461 -0.42970 677.06 0.0014770 -89.461 -89.461 -0.42971 1.3353 1.9892 1763.1 -0.0072810 827.32 0.18365 0.0032049 312.03 393.79 420.29 3.1977 0.88944 1.0781 179.19 1.6488 3.8385 0.0047320
-131.62 0.014106 1.2357e-06 -87.471 -87.470 -0.41559 676.04 0.0014792 -87.471 -87.471 -0.41560 1.3354 1.9909 1756.4 -0.0072684 807.34 0.18309 0.0036453 274.33 394.68 421.36 3.1798 0.89266 1.0813 179.76 1.6197 3.8660 0.0047951
-130.62 0.016124 1.3934e-06 -85.479 -85.479 -0.40157 675.03 0.0014814 -85.479 -85.479 -0.40157 1.3356 1.9926 1749.7 -0.0072555 788.12 0.18253 0.0041375 241.69 395.58 422.44 3.1622 0.89586 1.0846 180.34 1.5915 3.8935 0.0048586
-129.62 0.018392 1.5679e-06 -83.485 -83.485 -0.38763 674.02 0.0014836 -83.486 -83.486 -0.38763 1.3358 1.9944 1743.0 -0.0072425 769.63 0.18196 0.0046867 213.37 396.47 423.53 3.1450 0.89906 1.0878 180.91 1.5641 3.9210 0.0049223
-128.62 0.020935 1.7607e-06 -81.490 -81.490 -0.37377 673.01 0.0014859 -81.491 -81.490 -0.37378 1.3360 1.9961 1736.3 -0.0072294 751.83 0.18140 0.0052981 188.75 397.37 424.62 3.1281 0.90226 1.0910 181.48 1.5374 3.9485 0.0049863
-127.62 0.023783 1.9731e-06 -79.493 -79.492 -0.36000 672.00 0.0014881 -79.494 -79.493 -0.36001 1.3363 1.9979 1729.6 -0.0072160 734.67 0.18083 0.0059776 167.29 398.27 425.71 3.1116 0.90545 1.0942 182.05 1.5114 3.9760 0.0050506
-126.62 0.026966 2.2068e-06 -77.494 -77.493 -0.34632 670.98 0.0014904 -77.495 -77.495 -0.34632 1.3365 1.9997 1722.9 -0.0072025 718.14 0.18025 0.0067313 148.56 399.18 426.80 3.0954 0.90863 1.0974 182.62 1.4861 4.0035 0.0051152
-125.62 0.030515 2.4633e-06 -75.493 -75.493 -0.33271 669.97 0.0014926 -75.494 -75.494 -0.33272 1.3368 2.0015 1716.2 -0.0071888 702.18 0.17968 0.0075660 132.17 400.09 427.89 3.0795 0.91181 1.1006 183.18 1.4615 4.0310 0.0051800
-124.62 0.034467 2.7445e-06 -73.491 -73.490 -0.31918 668.95 0.0014949 -73.492 -73.492 -0.31919 1.3371 2.0033 1709.5 -0.0071749 686.79 0.17910 0.0084885 117.81 401.00 428.99 3.0640 0.91499 1.1038 183.74 1.4375 4.0584 0.0052452
-123.62 0.038859 3.0520e-06 -71.486 -71.486 -0.30573 667.94 0.0014971 -71.488 -71.487 -0.30574 1.3374 2.0051 1702.8 -0.0071609 671.93 0.17852 0.0095065 105.19 401.91 430.10 3.0488 0.91816 1.1070 184.30 1.4141 4.0859 0.0053106
-122.62 0.043731 3.3878e-06 -69.480 -69.479 -0.29236 666.92 0.0014994 -69.482 -69.481 -0.29237 1.3377 2.0070 1696.2 -0.0071466 657.57 0.17794 0.010628 94.092 402.83 431.20 3.0339 0.92134 1.1102 184.86 1.3913 4.1134 0.0053764
-121.62 0.049128 3.7538e-06 -67.472 -67.471 -0.27906 665.91 0.0015017 -67.474 -67.473 -0.27907 1.3380 2.0089 1689.5 -0.0071322 643.70 0.17736 0.011861 84.309 403.75 432.31 3.0193 0.92451 1.1134 185.41 1.3691 4.1409 0.0054424
-120.62 0.055096 4.1521e-06 -65.462 -65.461 -0.26584 664.89 0.0015040 -65.464 -65.463 -0.26585 1.3384 2.0107 1682.8 -0.0071176 630.28 0.17678 0.013215 75.669 404.67 433.42 3.0050 0.92767 1.1166 185.96 1.3475 4.1683 0.0055087
-119.62 0.061684 4.5846e-06 -63.450 -63.449 -0.25269 663.87 0.0015063 -63.452 -63.452 -0.25271 1.3387 2.0126 1676.1 -0.0071028 617.30 0.17619 0.014700 68.027 405.60 434.53 2.9909 0.93084 1.1198 186.51 1.3264 4.1958 0.0055752
-118.62 0.068946 5.0537e-06 -61.436 -61.435 -0.23962 662.86 0.0015086 -61.439 -61.438 -0.23963 1.3391 2.0146 1669.4 -0.0070878 604.74 0.17560 0.016325 61.255 406.53 435.64 2.9772 0.93401 1.1231 187.06 1.3058 4.2233 0.0056421
-117.62 0.076937 5.5616e-06 -59.421 -59.420 -0.22661 661.84 0.0015109 -59.423 -59.422 -0.22663 1.3395 2.0165 1662.8 -0.0070726 592.58 0.17501 0.018101 55.245 407.46 436.76 2.9638 0.93718 1.1263 187.60 1.2857 4.2507 0.0057092
-116.62 0.085718 6.1105e-06 -57.403 -57.402 -0.21368 660.82 0.0015133 -57.406 -57.405 -0.21370 1.3400 2.0184 1656.1 -0.0070573 580.80 0.17442 0.020040 49.901 408.39 437.88 2.9506 0.94035 1.1295 188.14 1.2660 4.2782 0.0057767
-115.62 0.095353 6.7028e-06 -55.383 -55.382 -0.20082 659.80 0.0015156 -55.386 -55.385 -0.20084 1.3404 2.0204 1649.4 -0.0070417 569.38 0.17383 0.022152 45.142 409.33 439.01 2.9377 0.94352 1.1327 188.68 1.2468 4.3056 0.0058444
-114.62 0.10591 7.3410e-06 -53.362 -53.360 -0.18803 658.78 0.0015180 -53.365 -53.364 -0.18805 1.3409 2.0224 1642.7 -0.0070260 558.32 0.17323 0.024451 40.898 410.27 440.13 2.9250 0.94669 1.1360 189.22 1.2281 4.3330 0.0059123
-113.62 0.11746 8.0276e-06 -51.338 -51.336 -0.17530 657.76 0.0015203 -51.342 -51.340 -0.17533 1.3413 2.0244 1636.0 -0.0070100 547.59 0.17264 0.026949 37.107 411.21 441.26 2.9126 0.94987 1.1392 189.75 1.2097 4.3604 0.0059806
-112.62 0.13008 8.7651e-06 -49.312 -49.310 -0.16264 656.73 0.0015227 -49.316 -49.315 -0.16267 1.3418 2.0264 1629.3 -0.0069938 537.18 0.17204 0.029661 33.715 412.16 442.39 2.9005 0.95305 1.1424 190.28 1.1918 4.3879 0.0060491
-111.62 0.14384 9.5561e-06 -47.284 -47.283 -0.15005 655.71 0.0015251 -47.289 -47.287 -0.15008 1.3424 2.0285 1622.7 -0.0069774 527.08 0.17144 0.032600 30.675 413.10 443.53 2.8885 0.95623 1.1457 190.81 1.1742 4.4153 0.0061180
-110.62 0.15884 1.0403e-05 -45.254 -45.253 -0.13752 654.69 0.0015274 -45.259 -45.258 -0.13755 1.3429 2.0305 1616.0 -0.0069609 517.28 0.17084 0.035781 27.948 414.06 444.66 2.8769 0.95942 1.1490 191.34 1.1570 4.4427 0.0061871
-109.62 0.17516 1.1309e-05 -43.223 -43.220 -0.12506 653.66 0.0015298 -43.228 -43.226 -0.12509 1.3435 2.0326 1609.3 -0.0069441 507.76 0.17024 0.039220 25.497 415.01 445.80 2.8654 0.96261 1.1522 191.86 1.1402 4.4701 0.0062564
-108.62 0.19290 1.2277e-05 -41.188 -41.186 -0.11266 652.64 0.0015322 -41.194 -41.192 -0.11269 1.3441 2.0347 1602.6 -0.0069271 498.51 0.16964 0.042933 23.292 415.96 446.94 2.8542 0.96581 1.1555 192.38 1.1236 4.4974 0.0063261
-107.62 0.21215 1.3309e-05 -39.152 -39.150 -0.10032 651.61 0.0015347 -39.158 -39.156 -0.10036 1.3447 2.0369 1595.9 -0.0069098 489.52 0.16903 0.046937 21.305 416.92 448.09 2.8433 0.96901 1.1588 192.90 1.1075 4.5248 0.0063960
-106.62 0.23301 1.4407e-05 -37.114 -37.111 -0.088040 650.58 0.0015371 -37.120 -37.118 -0.088082 1.3453 2.0390 1589.2 -0.0068924 480.79 0.16843 0.051250 19.512 417.88 449.23 2.8325 0.97222 1.1621 193.41 1.0916 4.5522 0.0064662
-105.62 0.25561 1.5576e-05 -35.073 -35.070 -0.075823 649.55 0.0015395 -35.080 -35.078 -0.075868 1.3460 2.0412 1582.6 -0.0068747 472.30 0.16782 0.055891 17.892 418.85 450.38 2.8220 0.97544 1.1655 193.93 1.0760 4.5795 0.0065367
-104.62 0.28004 1.6817e-05 -33.031 -33.027 -0.063666 648.52 0.0015420 -33.038 -33.035 -0.063714 1.3467 2.0434 1575.9 -0.0068569 464.04 0.16721 0.060878 16.426 419.81 451.53 2.8116 0.97867 1.1688 194.44 1.0608 4.6069 0.0066074
-103.62 0.30643 1.8133e-05 -30.986 -30.982 -0.051567 647.49 0.0015444 -30.994 -30.991 -0.051619 1.3474 2.0456 1569.2 -0.0068387 456.00 0.16660 0.066231 15.099 420.78 452.68 2.8015 0.98191 1.1722 194.94 1.0458 4.6342 0.0066785
-102.62 0.33490 1.9527e-05 -28.938 -28.934 -0.039526 646.46 0.0015469 -28.947 -28.944 -0.039582 1.3481 2.0478 1562.5 -0.0068204 448.18 0.16600 0.071971 13.894 421.75 453.84 2.7916 0.98516 1.1755 195.44 1.0310 4.6615 0.0067498
-101.62 0.36558 2.1002e-05 -26.889 -26.884 -0.027543 645.43 0.0015494 -26.898 -26.894 -0.027602 1.3489 2.0501 1555.8 -0.0068018 440.57 0.16539 0.078120 12.801 422.73 454.99 2.7818 0.98841 1.1789 195.95 1.0166 4.6888 0.0068213
-100.62 0.39862 2.2561e-05 -24.837 -24.832 -0.015615 644.39 0.0015519 -24.847 -24.843 -0.015678 1.3497 2.0524 1549.1 -0.0067830 433.16 0.16478 0.084699 11.807 423.70 456.15 2.7723 0.99168 1.1823 196.44 1.0024 4.7161 0.0068932
-99.625 0.43414 2.4205e-05 -22.783 -22.778 -0.0037433 643.36 0.0015544 -22.794 -22.789 -0.0038103 1.3505 2.0547 1542.4 -0.0067639 425.95 0.16416 0.091731 10.901 424.68 457.31 2.7630 0.99496 1.1858 196.94 0.98838 4.7434 0.0069653
-98.625 0.47230 2.5938e-05 -20.726 -20.721 0.0080740 642.32 0.0015569 -20.738 -20.733 0.0080027 1.3514 2.0570 1535.7 -0.0067447 418.92 0.16355 0.099240 10.077 425.66 458.48 2.7538 0.99825 1.1892 197.43 0.97464 4.7707 0.0070377
-97.625 0.51325 2.7761e-05 -18.668 -18.661 0.019837 641.28 0.0015594 -18.680 -18.674 0.019762 1.3522 2.0594 1529.0 -0.0067251 412.07 0.16294 0.10725 9.3239 426.65 459.64 2.7448 1.0016 1.1927 197.92 0.96112 4.7979 0.0071103
-96.625 0.55714 2.9678e-05 -16.606 -16.599 0.031547 640.24 0.0015619 -16.620 -16.614 0.031467 1.3531 2.0618 1522.3 -0.0067053 405.39 0.16233 0.11579 8.6365 427.63 460.81 2.7360 1.0049 1.1962 198.40 0.94783 4.8251 0.0071832
-95.625 0.60416 3.1691e-05 -14.543 -14.535 0.043205 639.20 0.0015645 -14.557 -14.550 0.043120 1.3540 2.0642 1515.7 -0.0066853 398.88 0.16171 0.12488 8.0078 428.62 461.98 2.7274 1.0082 1.1997 198.88 0.93475 4.8524 0.0072564
-94.625 0.65446 3.3802e-05 -12.476 -12.468 0.054811 638.16 0.0015670 -12.491 -12.484 0.054721 1.3550 2.0667 1509.0 -0.0066650 392.53 0.16110 0.13455 7.4323 429.61 463.15 2.7189 1.0116 1.2032 199.36 0.92188 4.8796 0.0073299
-93.625 0.70822 3.6012e-05 -10.408 -10.399 0.066366 637.12 0.0015696 -10.424 -10.416 0.066271 1.3560 2.0691 1502.3 -0.0066444 386.34 0.16048 0.14482 6.9050 430.60 464.32 2.7107 1.0149 1.2068 199.83 0.90921 4.9068 0.0074036
-92.625 0.76564 3.8325e-05 -8.3367 -8.3271 0.077871 636.07 0.0015722 -8.3535 -8.3452 0.077771 1.3570 2.0716 1495.6 -0.0066236 380.31 0.15987 0.15573 6.4212 431.60 465.49 2.7025 1.0183 1.2104 200.30 0.89673 4.9340 0.0074776
-91.625 0.82689 4.0741e-05 -6.2630 -6.2526 0.089326 635.02 0.0015747 -6.2808 -6.2719 0.089220 1.3580 2.0742 1488.9 -0.0066025 374.41 0.15925 0.16731 5.9769 432.59 466.67 2.6946 1.0217 1.2140 200.77 0.88445 4.9611 0.0075518
-90.625 0.89218 4.3262e-05 -4.1867 -4.1755 0.10073 633.98 0.0015773 -4.2056 -4.1959 0.10062 1.3591 2.0767 1482.2 -0.0065811 368.66 0.15864 0.17958 5.5685 433.59 467.84 2.6868 1.0251 1.2177 201.24 0.87236 4.9883 0.0076263
-89.625 0.96172 4.5890e-05 -2.1078 -2.0958 0.11209 632.93 0.0015800 -2.1279 -2.1174 0.11197 1.3602 2.0793 1475.5 -0.0065595 363.05 0.15802 0.19258 5.1928 434.59 469.02 2.6791 1.0285 1.2213 201.70 0.86045 5.0154 0.0077011
-88.625 1.0357 4.8626e-05 -0.026333 -0.013349 0.12340 631.88 0.0015826 -0.047516 -0.036215 0.12328 1.3613 2.0819 1468.8 -0.0065375 357.56 0.15740 0.20633 4.8466 435.59 470.20 2.6717 1.0320 1.2250 202.15 0.84873 5.0425 0.0077761
-87.625 1.1144 5.1472e-05 2.0578 2.0718 0.13467 630.83 0.0015852 2.0355 2.0476 0.13454 1.3625 2.0846 1462.1 -0.0065153 352.21 0.15679 0.22087 4.5276 436.60 471.39 2.6643 1.0354 1.2288 202.61 0.83718 5.0696 0.0078514
-86.625 1.1979 5.4427e-05 4.1447 4.1597 0.14588 629.77 0.0015879 4.1211 4.1342 0.14575 1.3637 2.0873 1455.4 -0.0064928 346.98 0.15617 0.23623 4.2331 437.61 472.57 2.6571 1.0389 1.2325 203.06 0.82580 5.0967 0.0079270
-85.625 1.2866 5.7492e-05 6.2342 6.2503 0.15706 628.72 0.0015905 6.2094 6.2235 0.15691 1.3649 2.0900 1448.8 -0.0064701 341.87 0.15555 0.25245 3.9612 438.61 473.75 2.6501 1.0424 1.2363 203.50 0.81460 5.1237 0.0080028
-84.625 1.3806 6.0669e-05 8.3265 8.3438 0.16819 627.66 0.0015932 8.3004 8.3155 0.16803 1.3661 2.0927 1442.1 -0.0064470 336.87 0.15494 0.26956 3.7097 439.63 474.94 2.6432 1.0460 1.2402 203.95 0.80356 5.1508 0.0080789
-83.625 1.4803 6.3956e-05 10.422 10.440 0.17927 626.60 0.0015959 10.394 10.410 0.17911 1.3674 2.0955 1435.4 -0.0064236 331.99 0.15432 0.28760 3.4771 440.64 476.13 2.6364 1.0495 1.2440 204.38 0.79269 5.1778 0.0081553
-82.625 1.5858 6.7354e-05 12.520 12.539 0.19031 625.54 0.0015986 12.491 12.508 0.19014 1.3687 2.0983 1428.7 -0.0063999 327.22 0.15370 0.30659 3.2616 441.65 477.31 2.6298 1.0531 1.2479 204.82 0.78199 5.2048 0.0082319
-81.625 1.6975 7.0861e-05 14.620 14.642 0.20131 624.48 0.0016013 14.590 14.609 0.20113 1.3700 2.1012 1422.0 -0.0063759 322.55 0.15309 0.32659 3.0619 442.67 478.50 2.6233 1.0567 1.2519 205.25 0.77144 5.2318 0.0083088
-80.625 1.8155 7.4479e-05 16.724 16.747 0.21226 623.42 0.0016041 16.692 16.712 0.21208 1.3714 2.1041 1415.4 -0.0063516 317.99 0.15247 0.34763 2.8766 443.69 479.70 2.6169 1.0603 1.2558 205.67 0.76106 5.2587 0.0083860
-79.625 1.9402 7.8204e-05 18.830 18.855 0.22317 622.36 0.0016068 18.797 18.819 0.22299 1.3728 2.1070 1408.7 -0.0063270 313.52 0.15186 0.36974 2.7046 444.71 480.89 2.6106 1.0639 1.2598 206.10 0.75083 5.2857 0.0084634
-78.625 2.0718 8.2035e-05 20.940 20.966 0.23405 621.29 0.0016096 20.905 20.928 0.23385 1.3742 2.1099 1402.0 -0.0063021 309.15 0.15124 0.39296 2.5448 445.73 482.08 2.6045 1.0676 1.2639 206.51 0.74076 5.3126 0.0085411
-77.625 2.2107 8.5971e-05 23.052 23.080 0.24488 620.22 0.0016123 23.016 23.040 0.24468 1.3757 2.1129 1395.3 -0.0062768 304.88 0.15062 0.41735 2.3961 446.75 483.27 2.5985 1.0712 1.2680 206.93 0.73084 5.3395 0.0086190
-76.625 2.3571 9.0009e-05 25.168 25.197 0.25567 619.15 0.0016151 25.130 25.156 0.25546 1.3772 2.1159 1388.7 -0.0062512 300.69 0.15001 0.44292 2.2577 447.78 484.47 2.5926 1.0749 1.2721 207.34 0.72107 5.3664 0.0086972
-75.625 2.5113 9.4146e-05 27.286 27.318 0.26642 618.08 0.0016179 27.247 27.275 0.26620 1.3787 2.1190 1382.0 -0.0062253 296.59 0.14939 0.46974 2.1288 448.81 485.67 2.5869 1.0787 1.2762 207.74 0.71146 5.3933 0.0087757
-74.625 2.6736 9.8380e-05 29.408 29.441 0.27714 617.01 0.0016207 29.366 29.396 0.27691 1.3802 2.1221 1375.4 -0.0061990 292.58 0.14878 0.49783 2.0087 449.83 486.86 2.5812 1.0824 1.2804 208.14 0.70200 5.4201 0.0088544
-73.625 2.8444 0.00010271 31.532 31.568 0.28781 615.93 0.0016236 31.489 31.521 0.28758 1.3818 2.1252 1368.7 -0.0061724 288.65 0.14816 0.52725 1.8966 450.86 488.06 2.5757 1.0862 1.2847 208.54 0.69268 5.4469 0.0089334
-72.625 3.0240 0.00010712 33.660 33.698 0.29845 614.85 0.0016264 33.615 33.649 0.29821 1.3834 2.1284 1362.0 -0.0061454 284.81 0.14755 0.55804 1.7920 451.90 489.26 2.5703 1.0900 1.2889 208.93 0.68351 5.4737 0.0090126
-71.625 3.2127 0.00011162 35.791 35.831 0.30905 613.78 0.0016293 35.745 35.781 0.30880 1.3851 2.1316 1355.4 -0.0061181 281.03 0.14694 0.59024 1.6942 452.93 490.46 2.5650 1.0938 1.2932 209.32 0.67448 5.5005 0.0090922
-70.625 3.4108 0.00011619 37.925 37.968 0.31961 612.69 0.0016321 37.877 37.915 0.31935 1.3867 2.1349 1348.7 -0.0060904 277.34 0.14632 0.62390 1.6028 453.96 491.66 2.5598 1.0976 1.2976 209.70 0.66560 5.5273 0.0091720
-69.625 3.6187 0.00012084 40.063 40.108 0.33014 611.61 0.0016350 40.013 40.053 0.32987 1.3884 2.1382 1342.1 -0.0060624 273.72 0.14571 0.65906 1.5173 455.00 492.86 2.5547 1.1015 1.3020 210.08 0.65687 5.5540 0.0092520
-68.625 3.8367 0.00012556 42.203 42.252 0.34063 610.53 0.0016379 42.152 42.195 0.34036 1.3902 2.1415 1335.5 -0.0060339 270.17 0.14510 0.69577 1.4372 456.04 494.06 2.5497 1.1054 1.3064 210.45 0.64827 5.5807 0.0093324
-67.625 4.0652 0.00013033 44.347 44.398 0.35109 609.44 0.0016409 44.294 44.340 0.35080 1.3919 2.1449 1328.8 -0.0060051 266.69 0.14449 0.73408 1.3622 457.08 495.26 2.5448 1.1093 1.3109 210.82 0.63981 5.6074 0.0094130
-66.625 4.3046 0.00013516 46.495 46.549 0.36151 608.35 0.0016438 46.439 46.488 0.36122 1.3937 2.1483 1322.2 -0.0059760 263.28 0.14388 0.77404 1.2919 458.12 496.46 2.5400 1.1133 1.3154 211.18 0.63150 5.6341 0.0094939
-65.625 4.5551 0.00014003 48.646 48.703 0.37190 607.26 0.0016467 48.588 48.640 0.37160 1.3955 2.1518 1315.6 -0.0059464 259.93 0.14327 0.81570 1.2259 459.16 497.67 2.5353 1.1172 1.3200 211.54 0.62332 5.6608 0.0095750
-64.625 4.8173 0.00014493 50.800 50.860 0.38226 606.16 0.0016497 50.740 50.795 0.38195 1.3974 2.1553 1308.9 -0.0059164 256.65 0.14266 0.85910 1.1640 460.21 498.87 2.5307 1.1212 1.3246 211.89 0.61527 5.6874 0.0096564
-63.625 5.0915 0.00014986 52.957 53.021 0.39258 605.07 0.0016527 52.896 52.954 0.39226 1.3993 2.1588 1302.3 -0.0058861 253.42 0.14205 0.90429 1.1058 461.25 500.07 2.5262 1.1252 1.3293 212.24 0.60736 5.7140 0.0097382
-62.625 5.3781 0.00015481 55.118 55.186 0.40287 603.97 0.0016557 55.055 55.117 0.40254 1.4012 2.1624 1295.7 -0.0058553 250.26 0.14144 0.95134 1.0511 462.30 501.28 2.5218 1.1293 1.3340 212.58 0.59958 5.7406 0.0098201
-61.625 5.6774 0.00015976 57.283 57.354 0.41313 602.87 0.0016587 57.218 57.283 0.41279 1.4031 2.1660 1289.1 -0.0058241 247.16 0.14084 1.0003 0.99972 463.35 502.48 2.5175 1.1333 1.3387 212.92 0.59194 5.7672 0.0099024
-60.625 5.9899 0.00016470 59.451 59.526 0.42335 601.77 0.0016618 59.385 59.453 0.42301 1.4051 2.1697 1282.5 -0.0057925 244.12 0.14023 1.0512 0.95131 464.40 503.68 2.5133 1.1374 1.3435 213.26 0.58442 5.7938 0.0099850
-59.625 6.3160 0.00016963 61.623 61.702 0.43355 600.66 0.0016648 61.554 61.627 0.43320 1.4071 2.1734 1275.9 -0.0057605 241.13 0.13962 1.1041 0.90573 465.45 504.89 2.5091 1.1415 1.3483 213.58 0.57704 5.8203 0.010068
-58.625 6.6561 0.00017452 63.798 63.882 0.44371 599.55 0.0016679 63.728 63.805 0.44335 1.4091 2.1772 1269.3 -0.0057280 238.19 0.13902 1.1591 0.86277 466.50 506.09 2.5051 1.1457 1.3532 213.90 0.56978 5.8468 0.010151
-57.625 7.0107 0.00017936 65.977 66.065 0.45385 598.44 0.0016710 65.905 65.986 0.45348 1.4111 2.1810 1262.7 -0.0056951 235.31 0.13842 1.2161 0.82228 467.55 507.30 2.5011 1.1498 1.3581 214.22 0.56265 5.8733 0.010234
-56.625 7.3801 0.00018414 68.160 68.253 0.46395 597.33 0.0016741 68.086 68.172 0.46358 1.4132 2.1848 1256.1 -0.0056617 232.48 0.13781 1.2754 0.78408 468.60 508.50 2.4972 1.1540 1.3631 214.53 0.55564 5.8998 0.010318
-55.625 7.7648 0.00018884 70.347 70.444 0.47403 596.22 0.0016772 70.271 70.361 0.47364 1.4153 2.1887 1249.5 -0.0056279 229.69 0.13721 1.3369 0.74802 469.66 509.71 2.4934 1.1582 1.3681 214.84 0.54875 5.9263 0.010402
-54.625 8.1652 0.00019345 72.537 72.639 0.48407 595.10 0.0016804 72.460 72.554 0.48368 1.4174 2.1927 1242.9 -0.0055937 226.96 0.13661 1.4006 0.71396 470.72 510.91 2.4897 1.1624 1.3731 215.14 0.54199 5.9527 0.010486
-53.625 8.5819 0.00019794 74.731 74.839 0.49409 593.98 0.0016836 74.652 74.752 0.49369 1.4196 2.1967 1236.3 -0.0055589 224.27 0.13601 1.4667 0.68178 471.77 512.11 2.4860 1.1667 1.3782 215.43 0.53535 5.9792 0.010571
-52.625 9.0151 0.00020231 76.929 77.042 0.50408 592.86 0.0016867 76.849 76.954 0.50368 1.4218 2.2007 1229.8 -0.0055237 221.63 0.13541 1.5353 0.65136 472.83 513.32 2.4824 1.1710 1.3834 215.72 0.52882 6.0056 0.010656
-51.625 9.4655 0.00020652 79.131 79.249 0.51404 591.73 0.0016900 79.049 79.159 0.51363 1.4240 2.2048 1223.2 -0.0054880 219.04 0.13482 1.6062 0.62258 473.89 514.52 2.4789 1.1752 1.3886 216.00 0.52241 6.0320 0.010741
-50.625 9.9335 0.00021056 81.336 81.461 0.52397 590.60 0.0016932 81.253 81.369 0.52356 1.4262 2.2089 1216.6 -0.0054519 216.48 0.13422 1.6797 0.59534 474.95 515.73 2.4755 1.1796 1.3938 216.28 0.51612 6.0584 0.010827
-49.625 10.419 0.00021440 83.546 83.676 0.53388 589.47 0.0016964 83.462 83.584 0.53347 1.4285 2.2131 1210.1 -0.0054152 213.98 0.13363 1.7558 0.56954 476.01 516.93 2.4722 1.1839 1.3991 216.55 0.50994 6.0848 0.010913
-48.625 10.924 0.00021803 85.759 85.896 0.54376 588.34 0.0016997 85.674 85.802 0.54334 1.4308 2.2173 1203.5 -0.0053780 211.51 0.13303 1.8345 0.54510 477.07 518.13 2.4689 1.1883 1.4044 216.82 0.50387 6.1112 0.010999
-47.625 11.448 0.00022142 87.977 88.121 0.55362 587.20 0.0017030 87.891 88.025 0.55319 1.4331 2.2216 1196.9 -0.0053403 209.08 0.13244 1.9159 0.52194 478.14 519.33 2.4657 1.1927 1.4098 217.08 0.49792 6.1375 0.011085
-46.625 11.991 0.00022454 90.199 90.349 0.56345 586.06 0.0017063 90.111 90.252 0.56302 1.4354 2.2259 1190.4 -0.0053020 206.69 0.13185 2.0001 0.49997 479.20 520.53 2.4625 1.1971 1.4153 217.33 0.49207 6.1639 0.011172
-45.625 12.554 0.00022736 92.424 92.582 0.57325 584.92 0.0017096 92.336 92.484 0.57282 1.4378 2.2303 1183.8 -0.0052633 204.34 0.13126 2.0872 0.47912 480.27 521.74 2.4594 1.2015 1.4207 217.58 0.48633 6.1902 0.011259
-44.625 13.137 0.00022986 94.654 94.819 0.58303 583.77 0.0017130 94.565 94.720 0.58260 1.4402 2.2347 1177.3 -0.0052240 202.03 0.13067 2.1771 0.45933 481.33 522.94 2.4564 1.2060 1.4263 217.82 0.48069 6.2165 0.011347
-43.625 13.741 0.00023201 96.888 97.060 0.59278 582.62 0.0017164 96.799 96.961 0.59235 1.4426 2.2392 1170.7 -0.0051841 199.75 0.13008 2.2700 0.44053 482.40 524.14 2.4535 1.2104 1.4319 218.05 0.47516 6.2429 0.011435
-42.625 14.367 0.00023378 99.126 99.306 0.60251 581.47 0.0017198 99.036 99.207 0.60208 1.4450 2.2437 1164.2 -0.0051437 197.51 0.12949 2.3659 0.42267 483.46 525.33 2.4506 1.2149 1.4375 218.28 0.46973 6.2692 0.011523
-41.625 15.015 0.00023514 101.37 101.56 0.61222 580.32 0.0017232 101.28 101.46 0.61179 1.4475 2.2483 1157.7 -0.0051027 195.30 0.12891 2.4649 0.40569 484.53 526.53 2.4478 1.2195 1.4432 218.50 0.46440 6.2955 0.011612
-40.625 15.686 0.00023605 103.62 103.81 0.62190 579.16 0.0017266 103.52 103.71 0.62147 1.4500 2.2529 1151.1 -0.0050611 193.13 0.12832 2.5671 0.38954 485.60 527.73 2.4450 1.2240 1.4489 218.72 0.45917 6.3218 0.011701
-39.625 16.380 0.00023647 105.87 106.07 0.63156 578.00 0.0017301 105.78 105.97 0.63113 1.4525 2.2576 1144.6 -0.0050189 190.99 0.12774 2.6725 0.37418 486.67 528.93 2.4423 1.2286 1.4547 218.93 0.45403 6.3481 0.011790
-38.625 17.097 0.00023638 108.12 108.34 0.64120 576.83 0.0017336 108.03 108.24 0.64077 1.4550 2.2623 1138.0 -0.0049761 188.88 0.12716 2.7813 0.35955 487.74 530.12 2.4397 1.2332 1.4606 219.13 0.44900 6.3744 0.011880
-37.625 17.838 0.00023572 110.38 110.60 0.65081 575.66 0.0017371 110.29 110.51 0.65039 1.4576 2.2671 1131.5 -0.0049327 186.81 0.12658 2.8934 0.34562 488.81 531.32 2.4371 1.2378 1.4665 219.33 0.44405 6.4007 0.011970
-36.625 18.604 0.00023447 112.64 112.88 0.66040 574.49 0.0017407 112.56 112.78 0.65999 1.4602 2.2719 1125.0 -0.0048887 184.76 0.12600 3.0089 0.33235 489.88 532.51 2.4346 1.2424 1.4724 219.52 0.43920 6.4270 0.012060
-35.625 19.395 0.00023258 114.91 115.16 0.66997 573.32 0.0017442 114.83 115.06 0.66956 1.4628 2.2768 1118.5 -0.0048440 182.75 0.12542 3.1280 0.31969 490.95 533.70 2.4321 1.2471 1.4784 219.70 0.43444 6.4533 0.012151
-34.625 20.212 0.00023001 117.19 117.44 0.67952 572.14 0.0017478 117.10 117.34 0.67912 1.4654 2.2818 1111.9 -0.0047987 180.76 0.12485 3.2506 0.30763 492.02 534.89 2.4297 1.2517 1.4845 219.88 0.42977 6.4797 0.012243
-33.625 21.056 0.00022671 119.46 119.73 0.68905 570.96 0.0017514 119.38 119.63 0.68865 1.4681 2.2868 1105.4 -0.0047527 178.80 0.12427 3.3770 0.29612 493.09 536.08 2.4273 1.2564 1.4906 220.05 0.42519 6.5060 0.012334
-32.625 21.926 0.00022263 121.74 122.02 0.69855 569.77 0.0017551 121.66 121.93 0.69817 1.4708 2.2918 1098.9 -0.0047061 176.87 0.12370 3.5071 0.28514 494.17 537.27 2.4250 1.2611 1.4968 220.21 0.42070 6.5323 0.012426
-31.625 22.823 0.00021773 124.03 124.32 0.70804 568.58 0.0017588 123.95 124.23 0.70767 1.4735 2.2970 1092.3 -0.0046587 174.97 0.12313 3.6410 0.27465 495.24 538.46 2.4227 1.2659 1.5031 220.36 0.41629 6.5587 0.012519
-30.625 23.749 0.00021195 126.32 126.62 0.71750 567.39 0.0017625 126.24 126.53 0.71714 1.4762 2.3021 1085.8 -0.0046107 173.09 0.12256 3.7787 0.26464 496.31 539.64 2.4205 1.2706 1.5094 220.51 0.41196 6.5850 0.012612
-29.625 24.703 0.00020524 128.62 128.93 0.72695 566.19 0.0017662 128.54 128.84 0.72660 1.4790 2.3074 1079.3 -0.0045619 171.24 0.12200 3.9205 0.25507 497.38 540.83 2.4184 1.2754 1.5157 220.65 0.40772 6.6114 0.012706
-28.625 25.687 0.00019755 130.92 131.24 0.73637 564.99 0.0017699 130.84 131.16 0.73604 1.4818 2.3126 1072.8 -0.0045124 169.42 0.12143 4.0663 0.24592 498.46 542.01 2.4162 1.2802 1.5222 220.79 0.40356 6.6378 0.012800
-27.625 26.700 0.00018882 133.22 133.56 0.74578 563.78 0.0017737 133.15 133.48 0.74547 1.4846 2.3180 1066.2 -0.0044621 167.62 0.12087 4.2163 0.23717 499.53 543.19 2.4142 1.2850 1.5286 220.91 0.39947 6.6642 0.012894
-26.625 27.743 0.00017898 135.53 135.88 0.75517 562.57 0.0017775 135.47 135.81 0.75487 1.4874 2.3234 1059.7 -0.0044111 165.84 0.12031 4.3705 0.22881 500.60 544.37 2.4122 1.2899 1.5352 221.03 0.39547 6.6906 0.012989
-25.625 28.817 0.00016798 137.84 138.21 0.76453 561.36 0.0017814 137.78 138.14 0.76426 1.4902 2.3289 1053.2 -0.0043593 164.09 0.11975 4.5290 0.22080 501.68 545.55 2.4102 1.2947 1.5418 221.14 0.39154 6.7171 0.013084
-24.625 29.923 0.00015574 140.16 140.54 0.77388 560.14 0.0017853 140.11 140.48 0.77363 1.4931 2.3344 1046.7 -0.0043067 162.36 0.11919 4.6918 0.21314 502.75 546.72 2.4083 1.2996 1.5485 221.25 0.38768 6.7436 0.013180
-23.625 31.061 0.00014221 142.49 142.88 0.78321 558.92 0.0017892 142.44 142.82 0.78298 1.4960 2.3400 1040.1 -0.0042533 160.65 0.11863 4.8592 0.20580 503.82 547.90 2.4064 1.3045 1.5552 221.35 0.38391 6.7701 0.013277
-22.625 32.232 0.00012731 144.82 145.22 0.79253 557.69 0.0017931 144.77 145.17 0.79232 1.4990 2.3457 1033.6 -0.0041990 158.97 0.11807 5.0311 0.19877 504.90 549.07 2.4045 1.3095 1.5621 221.44 0.38020 6.7967 0.013374
-21.625 33.435 0.00011097 147.15 147.57 0.80182 556.46 0.0017971 147.11 147.52 0.80164 1.5019 2.3514 1027.1 -0.0041439 157.30 0.11752 5.2076 0.19203 505.97 550.24 2.4027 1.3144 1.5690 221.52 0.37656 6.8232 0.013471
-20.625 34.673 9.3115e-05 149.49 149.92 0.81110 555.23 0.0018011 149.45 149.88 0.81095 1.5049 2.3572 1020.6 -0.0040879 155.66 0.11697 5.3889 0.18557 507.04 551.40 2.4010 1.3194 1.5759 221.59 0.37300 6.8499 0.013569
-19.625 35.946 7.3659e-05 151.83 152.28 0.82036 553.99 0.0018051 151.80 152.25 0.82024 1.5079 2.3630 1014.0 -0.0040311 154.04 0.11642 5.5750 0.17937 508.11 552.57 2.3992 1.3244 1.5829 221.66 0.36950 6.8765 0.013668
-18.625 37.253 5.2525e-05 154.18 154.65 0.82960 552.74 0.0018092 154.16 154.62 0.82952 1.5109 2.3689 1007.5 -0.0039733 152.44 0.11587 5.7660 0.17343 509.19 553.73 2.3976 1.3294 1.5901 221.72 0.36608 6.9032 0.013767
-17.625 38.596 2.9625e-05 156.53 157.01 0.83883 551.49 0.0018133 156.52 157.00 0.83878 1.5140 2.3749 1001.0 -0.0039145 150.86 0.11532 5.9621 0.16773 510.26 554.89 2.3959 1.3345 1.5972 221.77 0.36272 6.9300 0.013867
-16.625 39.976 4.8710e-06 158.89 159.39 0.84804 550.24 0.0018174 158.89 159.39 0.84803 1.5171 2.3810 994.44 -0.0038549 149.29 0.11478 6.1632 0.16225 511.33 556.05 2.3943 1.3395 1.6045 221.81 0.35942 6.9568 0.013968
-15.625 134.43 undefined 160.57 162.25 0.85457 550.00 0.0018182 160.57 162.25 0.85457 1.5206 2.3808 995.49 -0.0038708 148.97 0.11476 550.00 0.0018182 160.57 162.25 0.85457 1.5206 2.3808 995.49 -0.0038708 148.97 0.11476
-14.625 250.39 undefined 162.09 165.23 0.86047 550.00 0.0018182 162.09 165.23 0.86047 1.5243 2.3792 998.28 -0.0039037 148.93 0.11487 550.00 0.0018182 162.09 165.23 0.86047 1.5243 2.3792 998.28 -0.0039037 148.93 0.11487
-13.625 366.26 undefined 163.61 168.21 0.86636 550.00 0.0018182 163.61 168.21 0.86636 1.5280 2.3778 1001.0 -0.0039359 148.89 0.11498 550.00 0.0018182 163.61 168.21 0.86636 1.5280 2.3778 1001.0 -0.0039359 148.89 0.11498
-12.625 482.06 undefined 165.14 171.19 0.87224 550.00 0.0018182 165.14 171.19 0.87224 1.5317 2.3765 1003.8 -0.0039672 148.85 0.11509 550.00 0.0018182 165.14 171.19 0.87224 1.5317 2.3765 1003.8 -0.0039672 148.85 0.11509
-11.625 597.77 undefined 166.68 174.17 0.87812 550.00 0.0018182 166.68 174.17 0.87812 1.5354 2.3753 1006.5 -0.0039978 148.81 0.11520 550.00 0.0018182 166.68 174.17 0.87812 1.5354 2.3753 1006.5 -0.0039978 148.81 0.11520
-10.625 713.41 undefined 168.22 177.16 0.88398 550.00 0.0018182 168.22 177.16 0.88398 1.5391 2.3741 1009.2 -0.0040277 148.78 0.11532 550.00 0.0018182 168.22 177.16 0.88398 1.5391 2.3741 1009.2 -0.0040277 148.78 0.11532
-9.6250 828.97 undefined 169.76 180.15 0.88984 550.00 0.0018182 169.76 180.15 0.88984 1.5429 2.3731 1011.8 -0.0040569 148.74 0.11543 550.00 0.0018182 169.76 180.15 0.88984 1.5429 2.3731 1011.8 -0.0040569 148.74 0.11543
-8.6250 944.45 undefined 171.30 183.14 0.89569 550.00 0.0018182 171.30 183.14 0.89569 1.5466 2.3722 1014.5 -0.0040854 148.70 0.11554 550.00 0.0018182 171.30 183.14 0.89569 1.5466 2.3722 1014.5 -0.0040854 148.70 0.11554
-7.6250 1059.8 undefined 172.85 186.14 0.90153 550.00 0.0018182 172.85 186.14 0.90153 1.5504 2.3714 1017.1 -0.0041132 148.67 0.11565 550.00 0.0018182 172.85 186.14 0.90153 1.5504 2.3714 1017.1 -0.0041132 148.67 0.11565
-6.6250 1175.2 undefined 174.40 189.13 0.90737 550.00 0.0018182 174.40 189.13 0.90737 1.5542 2.3707 1019.7 -0.0041403 148.63 0.11576 550.00 0.0018182 174.40 189.13 0.90737 1.5542 2.3707 1019.7 -0.0041403 148.63 0.11576
-5.6250 1290.4 undefined 175.96 192.13 0.91320 550.00 0.0018182 175.96 192.13 0.91320 1.5580 2.3700 1022.3 -0.0041668 148.60 0.11588 550.00 0.0018182 175.96 192.13 0.91320 1.5580 2.3700 1022.3 -0.0041668 148.60 0.11588
-4.6250 1405.5 undefined 177.52 195.14 0.91902 550.00 0.0018182 177.52 195.14 0.91902 1.5618 2.3695 1024.8 -0.0041927 148.56 0.11599 550.00 0.0018182 177.52 195.14 0.91902 1.5618 2.3695 1024.8 -0.0041927 148.56 0.11599
-3.6250 1520.6 undefined 179.08 198.14 0.92483 550.00 0.0018182 179.08 198.14 0.92483 1.5657 2.3690 1027.3 -0.0042180 148.53 0.11610 550.00 0.0018182 179.08 198.14 0.92483 1.5657 2.3690 1027.3 -0.0042180 148.53 0.11610
-2.6250 1635.6 undefined 180.65 201.15 0.93064 550.00 0.0018182 180.65 201.15 0.93064 1.5695 2.3687 1029.9 -0.0042427 148.50 0.11622 550.00 0.0018182 180.65 201.15 0.93064 1.5695 2.3687 1029.9 -0.0042427 148.50 0.11622
-1.6250 1750.5 undefined 182.22 204.16 0.93643 550.00 0.0018182 182.22 204.16 0.93643 1.5734 2.3684 1032.3 -0.0042668 148.46 0.11633 550.00 0.0018182 182.22 204.16 0.93643 1.5734 2.3684 1032.3 -0.0042668 148.46 0.11633
-0.62500 1865.3 undefined 183.80 207.18 0.94222 550.00 0.0018182 183.80 207.18 0.94222 1.5773 2.3682 1034.8 -0.0042904 148.43 0.11644 550.00 0.0018182 183.80 207.18 0.94222 1.5773 2.3682 1034.8 -0.0042904 148.43 0.11644
0.37500 1980.0 undefined 185.38 210.20 0.94801 550.00 0.0018182 185.38 210.20 0.94801 1.5812 2.3680 1037.3 -0.0043134 148.40 0.11656 550.00 0.0018182 185.38 210.20 0.94801 1.5812 2.3680 1037.3 -0.0043134 148.40 0.11656
1.3750 2094.6 undefined 186.96 213.22 0.95379 550.00 0.0018182 186.96 213.22 0.95379 1.5851 2.3680 1039.7 -0.0043358 148.37 0.11667 550.00 0.0018182 186.96 213.22 0.95379 1.5851 2.3680 1039.7 -0.0043358 148.37 0.11667
2.3750 2209.2 undefined 188.55 216.24 0.95956 550.00 0.0018182 188.55 216.24 0.95956 1.5890 2.3680 1042.1 -0.0043577 148.34 0.11679 550.00 0.0018182 188.55 216.24 0.95956 1.5890 2.3680 1042.1 -0.0043577 148.34 0.11679
3.3750 2323.7 undefined 190.14 219.27 0.96532 550.00 0.0018182 190.14 219.27 0.96532 1.5929 2.3681 1044.5 -0.0043792 148.31 0.11690 550.00 0.0018182 190.14 219.27 0.96532 1.5929 2.3681 1044.5 -0.0043792 148.31 0.11690
4.3750 2438.0 undefined 191.73 222.29 0.97108 550.00 0.0018182 191.73 222.29 0.97108 1.5969 2.3682 1046.9 -0.0044001 148.28 0.11702 550.00 0.0018182 191.73 222.29 0.97108 1.5969 2.3682 1046.9 -0.0044001 148.28 0.11702
5.3750 2552.3 undefined 193.33 225.33 0.97683 550.00 0.0018182 193.33 225.33 0.97683 1.6009 2.3684 1049.2 -0.0044205 148.25 0.11714 550.00 0.0018182 193.33 225.33 0.97683 1.6009 2.3684 1049.2 -0.0044205 148.25 0.11714
6.3750 2666.5 undefined 194.93 228.36 0.98257 550.00 0.0018182 194.93 228.36 0.98257 1.6048 2.3687 1051.6 -0.0044404 148.22 0.11725 550.00 0.0018182 194.93 228.36 0.98257 1.6048 2.3687 1051.6 -0.0044404 148.22 0.11725
7.3750 2780.6 undefined 196.54 231.40 0.98831 550.00 0.0018182 196.54 231.40 0.98831 1.6088 2.3691 1053.9 -0.0044599 148.19 0.11737 550.00 0.0018182 196.54 231.40 0.98831 1.6088 2.3691 1053.9 -0.0044599 148.19 0.11737
8.3750 2894.6 undefined 198.15 234.44 0.99404 550.00 0.0018182 198.15 234.44 0.99404 1.6128 2.3695 1056.2 -0.0044789 148.16 0.11749 550.00 0.0018182 198.15 234.44 0.99404 1.6128 2.3695 1056.2 -0.0044789 148.16 0.11749
9.3750 3008.5 undefined 199.77 237.48 0.99977 550.00 0.0018182 199.77 237.48 0.99977 1.6169 2.3700 1058.5 -0.0044975 148.13 0.11760 550.00 0.0018182 199.77 237.48 0.99977 1.6169 2.3700 1058.5 -0.0044975 148.13 0.11760
10.375 3122.3 undefined 201.38 240.53 1.0055 550.00 0.0018182 201.38 240.53 1.0055 1.6209 2.3706 1060.8 -0.0045156 148.10 0.11772 550.00 0.0018182 201.38 240.53 1.0055 1.6209 2.3706 1060.8 -0.0045156 148.10 0.11772
11.375 3236.1 undefined 203.01 243.57 1.0112 550.00 0.0018182 203.01 243.57 1.0112 1.6249 2.3712 1063.0 -0.0045333 148.08 0.11784 550.00 0.0018182 203.01 243.57 1.0112 1.6249 2.3712 1063.0 -0.0045333 148.08 0.11784
12.375 3349.7 undefined 204.63 246.63 1.0169 550.00 0.0018182 204.63 246.63 1.0169 1.6290 2.3718 1065.3 -0.0045506 148.05 0.11796 550.00 0.0018182 204.63 246.63 1.0169 1.6290 2.3718 1065.3 -0.0045506 148.05 0.11796
13.375 3463.3 undefined 206.27 249.68 1.0226 550.00 0.0018182 206.27 249.68 1.0226 1.6330 2.3726 1067.5 -0.0045675 148.02 0.11807 550.00 0.0018182 206.27 249.68 1.0226 1.6330 2.3726 1067.5 -0.0045675 148.02 0.11807
14.375 3576.7 undefined 207.90 252.74 1.0283 550.00 0.0018182 207.90 252.74 1.0283 1.6371 2.3733 1069.7 -0.0045840 148.00 0.11819 550.00 0.0018182 207.90 252.74 1.0283 1.6371 2.3733 1069.7 -0.0045840 148.00 0.11819
15.375 3690.1 undefined 209.54 255.80 1.0340 550.00 0.0018182 209.54 255.80 1.0340 1.6412 2.3742 1071.9 -0.0046001 147.97 0.11831 550.00 0.0018182 209.54 255.80 1.0340 1.6412 2.3742 1071.9 -0.0046001 147.97 0.11831
16.375 3803.3 undefined 211.18 258.86 1.0397 550.00 0.0018182 211.18 258.86 1.0397 1.6453 2.3751 1074.1 -0.0046158 147.95 0.11843 550.00 0.0018182 211.18 258.86 1.0397 1.6453 2.3751 1074.1 -0.0046158 147.95 0.11843
17.375 3916.5 undefined 212.83 261.93 1.0454 550.00 0.0018182 212.83 261.93 1.0454 1.6494 2.3760 1076.3 -0.0046311 147.92 0.11855 550.00 0.0018182 212.83 261.93 1.0454 1.6494 2.3760 1076.3 -0.0046311 147.92 0.11855
18.375 4029.6 undefined 214.48 265.00 1.0510 550.00 0.0018182 214.48 265.00 1.0510 1.6536 2.3770 1078.4 -0.0046460 147.90 0.11867 550.00 0.0018182 214.48 265.00 1.0510 1.6536 2.3770 1078.4 -0.0046460 147.90 0.11867
19.375 4142.6 undefined 216.14 268.07 1.0567 550.00 0.0018182 216.14 268.07 1.0567 1.6577 2.3780 1080.5 -0.0046606 147.87 0.11879 550.00 0.0018182 216.14 268.07 1.0567 1.6577 2.3780 1080.5 -0.0046606 147.87 0.11879
20.375 4255.4 undefined 217.80 271.14 1.0624 550.00 0.0018182 217.80 271.14 1.0624 1.6618 2.3791 1082.7 -0.0046749 147.85 0.11892 550.00 0.0018182 217.80 271.14 1.0624 1.6618 2.3791 1082.7 -0.0046749 147.85 0.11892
21.375 4368.2 undefined 219.46 274.22 1.0680 550.00 0.0018182 219.46 274.22 1.0680 1.6660 2.3803 1084.8 -0.0046888 147.83 0.11904 550.00 0.0018182 219.46 274.22 1.0680 1.6660 2.3803 1084.8 -0.0046888 147.83 0.11904
22.375 4480.9 undefined 221.13 277.30 1.0737 550.00 0.0018182 221.13 277.30 1.0737 1.6701 2.3815 1086.9 -0.0047023 147.80 0.11916 550.00 0.0018182 221.13 277.30 1.0737 1.6701 2.3815 1086.9 -0.0047023 147.80 0.11916
23.375 4593.5 undefined 222.80 280.39 1.0793 550.00 0.0018182 222.80 280.39 1.0793 1.6743 2.3827 1089.0 -0.0047155 147.78 0.11928 550.00 0.0018182 222.80 280.39 1.0793 1.6743 2.3827 1089.0 -0.0047155 147.78 0.11928
24.375 4706.0 undefined 224.48 283.47 1.0850 550.00 0.0018182 224.48 283.47 1.0850 1.6785 2.3840 1091.0 -0.0047284 147.76 0.11940 550.00 0.0018182 224.48 283.47 1.0850 1.6785 2.3840 1091.0 -0.0047284 147.76 0.11940
25.375 4818.4 undefined 226.16 286.56 1.0906 550.00 0.0018182 226.16 286.56 1.0906 1.6827 2.3853 1093.1 -0.0047410 147.74 0.11953 550.00 0.0018182 226.16 286.56 1.0906 1.6827 2.3853 1093.1 -0.0047410 147.74 0.11953
26.375 4930.7 undefined 227.84 289.65 1.0963 550.00 0.0018182 227.84 289.65 1.0963 1.6869 2.3867 1095.1 -0.0047533 147.72 0.11965 550.00 0.0018182 227.84 289.65 1.0963 1.6869 2.3867 1095.1 -0.0047533 147.72 0.11965
27.375 5042.9 undefined 229.53 292.75 1.1019 550.00 0.0018182 229.53 292.75 1.1019 1.6911 2.3881 1097.2 -0.0047652 147.70 0.11977 550.00 0.0018182 229.53 292.75 1.1019 1.6911 2.3881 1097.2 -0.0047652 147.70 0.11977
28.375 5155.0 undefined 231.23 295.85 1.1075 550.00 0.0018182 231.23 295.85 1.1075 1.6953 2.3895 1099.2 -0.0047769 147.67 0.11990 550.00 0.0018182 231.23 295.85 1.1075 1.6953 2.3895 1099.2 -0.0047769 147.67 0.11990
29.375 5267.1 undefined 232.92 298.95 1.1131 550.00 0.0018182 232.92 298.95 1.1131 1.6996 2.3910 1101.2 -0.0047883 147.65 0.12002 550.00 0.0018182 232.92 298.95 1.1131 1.6996 2.3910 1101.2 -0.0047883 147.65 0.12002
30.375 5379.0 undefined 234.62 302.05 1.1187 550.00 0.0018182 234.62 302.05 1.1187 1.7038 2.3925 1103.2 -0.0047994 147.63 0.12015 550.00 0.0018182 234.62 302.05 1.1187 1.7038 2.3925 1103.2 -0.0047994 147.63 0.12015
31.375 5490.8 undefined 236.33 305.16 1.1244 550.00 0.0018182 236.33 305.16 1.1244 1.7080 2.3941 1105.2 -0.0048102 147.61 0.12027 550.00 0.0018182 236.33 305.16 1.1244 1.7080 2.3941 1105.2 -0.0048102 147.61 0.12027
32.375 5602.5 undefined 238.04 308.27 1.1300 550.00 0.0018182 238.04 308.27 1.1300 1.7123 2.3957 1107.2 -0.0048207 147.60 0.12040 550.00 0.0018182 238.04 308.27 1.1300 1.7123 2.3957 1107.2 -0.0048207 147.60 0.12040
33.375 5714.2 undefined 239.75 311.39 1.1356 550.00 0.0018182 239.75 311.39 1.1356 1.7165 2.3974 1109.1 -0.0048309 147.58 0.12052 550.00 0.0018182 239.75 311.39 1.1356 1.7165 2.3974 1109.1 -0.0048309 147.58 0.12052
34.375 5825.7 undefined 241.47 314.50 1.1412 550.00 0.0018182 241.47 314.50 1.1412 1.7208 2.3990 1111.1 -0.0048409 147.56 0.12065 550.00 0.0018182 241.47 314.50 1.1412 1.7208 2.3990 1111.1 -0.0048409 147.56 0.12065
35.375 5937.1 undefined 243.20 317.62 1.1468 550.00 0.0018182 243.20 317.62 1.1468 1.7251 2.4008 1113.1 -0.0048506 147.54 0.12077 550.00 0.0018182 243.20 317.62 1.1468 1.7251 2.4008 1113.1 -0.0048506 147.54 0.12077
36.375 6048.5 undefined 244.92 320.75 1.1523 550.00 0.0018182 244.92 320.75 1.1523 1.7294 2.4025 1115.0 -0.0048601 147.52 0.12090 550.00 0.0018182 244.92 320.75 1.1523 1.7294 2.4025 1115.0 -0.0048601 147.52 0.12090
37.375 6159.7 undefined 246.66 323.87 1.1579 550.00 0.0018182 246.66 323.87 1.1579 1.7336 2.4043 1116.9 -0.0048693 147.50 0.12102 550.00 0.0018182 246.66 323.87 1.1579 1.7336 2.4043 1116.9 -0.0048693 147.50 0.12102
38.375 6270.8 undefined 248.39 327.00 1.1635 550.00 0.0018182 248.39 327.00 1.1635 1.7379 2.4061 1118.8 -0.0048783 147.49 0.12115 550.00 0.0018182 248.39 327.00 1.1635 1.7379 2.4061 1118.8 -0.0048783 147.49 0.12115
39.375 6381.9 undefined 250.13 330.13 1.1691 550.00 0.0018182 250.13 330.13 1.1691 1.7422 2.4080 1120.7 -0.0048870 147.47 0.12128 550.00 0.0018182 250.13 330.13 1.1691 1.7422 2.4080 1120.7 -0.0048870 147.47 0.12128
40.375 6492.8 undefined 251.88 333.27 1.1747 550.00 0.0018182 251.88 333.27 1.1747 1.7465 2.4099 1122.6 -0.0048955 147.45 0.12141 550.00 0.0018182 251.88 333.27 1.1747 1.7465 2.4099 1122.6 -0.0048955 147.45 0.12141
41.375 6603.7 undefined 253.62 336.41 1.1802 550.00 0.0018182 253.62 336.41 1.1802 1.7508 2.4118 1124.5 -0.0049037 147.44 0.12153 550.00 0.0018182 253.62 336.41 1.1802 1.7508 2.4118 1124.5 -0.0049037 147.44 0.12153
42.375 6714.4 undefined 255.38 339.55 1.1858 550.00 0.0018182 255.38 339.55 1.1858 1.7552 2.4138 1126.4 -0.0049118 147.42 0.12166 550.00 0.0018182 255.38 339.55 1.1858 1.7552 2.4138 1126.4 -0.0049118 147.42 0.12166
43.375 6825.1 undefined 257.13 342.69 1.1914 550.00 0.0018182 257.13 342.69 1.1914 1.7595 2.4157 1128.3 -0.0049196 147.40 0.12179 550.00 0.0018182 257.13 342.69 1.1914 1.7595 2.4157 1128.3 -0.0049196 147.40 0.12179
44.375 6935.6 undefined 258.90 345.84 1.1969 550.00 0.0018182 258.90 345.84 1.1969 1.7638 2.4177 1130.2 -0.0049272 147.39 0.12192 550.00 0.0018182 258.90 345.84 1.1969 1.7638 2.4177 1130.2 -0.0049272 147.39 0.12192
45.375 7046.1 undefined 260.66 348.99 1.2025 550.00 0.0018182 260.66 348.99 1.2025 1.7681 2.4198 1132.0 -0.0049345 147.37 0.12205 550.00 0.0018182 260.66 348.99 1.2025 1.7681 2.4198 1132.0 -0.0049345 147.37 0.12205
46.375 7156.4 undefined 262.43 352.14 1.2080 550.00 0.0018182 262.43 352.14 1.2080 1.7725 2.4219 1133.9 -0.0049417 147.36 0.12218 550.00 0.0018182 262.43 352.14 1.2080 1.7725 2.4219 1133.9 -0.0049417 147.36 0.12218
47.375 7266.7 undefined 264.21 355.30 1.2136 550.00 0.0018182 264.21 355.30 1.2136 1.7768 2.4240 1135.7 -0.0049486 147.34 0.12230 550.00 0.0018182 264.21 355.30 1.2136 1.7768 2.4240 1135.7 -0.0049486 147.34 0.12230
48.375 7376.9 undefined 265.99 358.46 1.2191 550.00 0.0018182 265.99 358.46 1.2191 1.7811 2.4261 1137.5 -0.0049554 147.33 0.12243 550.00 0.0018182 265.99 358.46 1.2191 1.7811 2.4261 1137.5 -0.0049554 147.33 0.12243
49.375 7486.9 undefined 267.77 361.62 1.2246 550.00 0.0018182 267.77 361.62 1.2246 1.7855 2.4282 1139.3 -0.0049619 147.31 0.12256 550.00 0.0018182 267.77 361.62 1.2246 1.7855 2.4282 1139.3 -0.0049619 147.31 0.12256
50.375 7596.9 undefined 269.56 364.79 1.2302 550.00 0.0018182 269.56 364.79 1.2302 1.7898 2.4304 1141.2 -0.0049683 147.30 0.12269 550.00 0.0018182 269.56 364.79 1.2302 1.7898 2.4304 1141.2 -0.0049683 147.30 0.12269
51.375 7706.8 undefined 271.35 367.96 1.2357 550.00 0.0018182 271.35 367.96 1.2357 1.7942 2.4326 1143.0 -0.0049744 147.29 0.12282 550.00 0.0018182 271.35 367.96 1.2357 1.7942 2.4326 1143.0 -0.0049744 147.29 0.12282
52.375 7816.6 undefined 273.15 371.13 1.2412 550.00 0.0018182 273.15 371.13 1.2412 1.7986 2.4349 1144.8 -0.0049804 147.27 0.12296 550.00 0.0018182 273.15 371.13 1.2412 1.7986 2.4349 1144.8 -0.0049804 147.27 0.12296
53.375 7926.2 undefined 274.95 374.31 1.2468 550.00 0.0018182 274.95 374.31 1.2468 1.8029 2.4371 1146.6 -0.0049862 147.26 0.12309 550.00 0.0018182 274.95 374.31 1.2468 1.8029 2.4371 1146.6 -0.0049862 147.26 0.12309
54.375 8035.8 undefined 276.75 377.49 1.2523 550.00 0.0018182 276.75 377.49 1.2523 1.8073 2.4394 1148.3 -0.0049918 147.25 0.12322 550.00 0.0018182 276.75 377.49 1.2523 1.8073 2.4394 1148.3 -0.0049918 147.25 0.12322
55.375 8145.3 undefined 278.56 380.67 1.2578 550.00 0.0018182 278.56 380.67 1.2578 1.8117 2.4417 1150.1 -0.0049972 147.23 0.12335 550.00 0.0018182 278.56 380.67 1.2578 1.8117 2.4417 1150.1 -0.0049972 147.23 0.12335
56.375 8254.7 undefined 280.37 383.85 1.2633 550.00 0.0018182 280.37 383.85 1.2633 1.8160 2.4441 1151.9 -0.0050025 147.22 0.12348 550.00 0.0018182 280.37 383.85 1.2633 1.8160 2.4441 1151.9 -0.0050025 147.22 0.12348
57.375 8364.0 undefined 282.19 387.04 1.2688 550.00 0.0018182 282.19 387.04 1.2688 1.8204 2.4464 1153.6 -0.0050076 147.21 0.12361 550.00 0.0018182 282.19 387.04 1.2688 1.8204 2.4464 1153.6 -0.0050076 147.21 0.12361
58.375 8473.2 undefined 284.02 390.23 1.2743 550.00 0.0018182 284.02 390.23 1.2743 1.8248 2.4488 1155.4 -0.0050125 147.20 0.12375 550.00 0.0018182 284.02 390.23 1.2743 1.8248 2.4488 1155.4 -0.0050125 147.20 0.12375
59.375 8582.3 undefined 285.84 393.43 1.2798 550.00 0.0018182 285.84 393.43 1.2798 1.8292 2.4512 1157.1 -0.0050172 147.19 0.12388 550.00 0.0018182 285.84 393.43 1.2798 1.8292 2.4512 1157.1 -0.0050172 147.19 0.12388
60.375 8691.3 undefined 287.67 396.63 1.2853 550.00 0.0018182 287.67 396.63 1.2853 1.8335 2.4536 1158.9 -0.0050218 147.18 0.12401 550.00 0.0018182 287.67 396.63 1.2853 1.8335 2.4536 1158.9 -0.0050218 147.18 0.12401
61.375 8800.2 undefined 289.51 399.83 1.2908 550.00 0.0018182 289.51 399.83 1.2908 1.8379 2.4561 1160.6 -0.0050262 147.16 0.12415 550.00 0.0018182 289.51 399.83 1.2908 1.8379 2.4561 1160.6 -0.0050262 147.16 0.12415
62.375 8909.1 undefined 291.35 403.03 1.2963 550.00 0.0018182 291.35 403.03 1.2963 1.8423 2.4585 1162.3 -0.0050305 147.15 0.12428 550.00 0.0018182 291.35 403.03 1.2963 1.8423 2.4585 1162.3 -0.0050305 147.15 0.12428
63.375 9017.8 undefined 293.19 406.24 1.3018 550.00 0.0018182 293.19 406.24 1.3018 1.8467 2.4610 1164.1 -0.0050346 147.14 0.12441 550.00 0.0018182 293.19 406.24 1.3018 1.8467 2.4610 1164.1 -0.0050346 147.14 0.12441
64.375 9126.4 undefined 295.04 409.45 1.3073 550.00 0.0018182 295.04 409.45 1.3073 1.8511 2.4635 1165.8 -0.0050386 147.13 0.12455 550.00 0.0018182 295.04 409.45 1.3073 1.8511 2.4635 1165.8 -0.0050386 147.13 0.12455
65.375 9235.0 undefined 296.90 412.66 1.3128 550.00 0.0018182 296.90 412.66 1.3128 1.8555 2.4660 1167.5 -0.0050424 147.12 0.12468 550.00 0.0018182 296.90 412.66 1.3128 1.8555 2.4660 1167.5 -0.0050424 147.12 0.12468
66.375 9343.4 undefined 298.75 415.88 1.3182 550.00 0.0018182 298.75 415.88 1.3182 1.8599 2.4686 1169.2 -0.0050461 147.11 0.12482 550.00 0.0018182 298.75 415.88 1.3182 1.8599 2.4686 1169.2 -0.0050461 147.11 0.12482
67.375 9451.8 undefined 300.62 419.10 1.3237 550.00 0.0018182 300.62 419.10 1.3237 1.8642 2.4711 1170.9 -0.0050496 147.10 0.12495 550.00 0.0018182 300.62 419.10 1.3237 1.8642 2.4711 1170.9 -0.0050496 147.10 0.12495
68.375 9560.0 undefined 302.48 422.33 1.3292 550.00 0.0018182 302.48 422.33 1.3292 1.8686 2.4737 1172.6 -0.0050530 147.09 0.12509 550.00 0.0018182 302.48 422.33 1.3292 1.8686 2.4737 1172.6 -0.0050530 147.09 0.12509
69.375 9668.2 undefined 304.35 425.55 1.3347 550.00 0.0018182 304.35 425.55 1.3347 1.8730 2.4763 1174.3 -0.0050563 147.08 0.12522 550.00 0.0018182 304.35 425.55 1.3347 1.8730 2.4763 1174.3 -0.0050563 147.08 0.12522
70.375 9776.2 undefined 306.23 428.78 1.3401 550.00 0.0018182 306.23 428.78 1.3401 1.8774 2.4789 1175.9 -0.0050594 147.08 0.12536 550.00 0.0018182 306.23 428.78 1.3401 1.8774 2.4789 1175.9 -0.0050594 147.08 0.12536
71.375 9884.2 undefined 308.11 432.02 1.3456 550.00 0.0018182 308.11 432.02 1.3456 1.8818 2.4816 1177.6 -0.0050624 147.07 0.12550 550.00 0.0018182 308.11 432.02 1.3456 1.8818 2.4816 1177.6 -0.0050624 147.07 0.12550
72.375 9992.1 undefined 309.99 435.25 1.3511 550.00 0.0018182 309.99 435.25 1.3511 1.8862 2.4842 1179.3 -0.0050652 147.06 0.12563 550.00 0.0018182 309.99 435.25 1.3511 1.8862 2.4842 1179.3 -0.0050652 147.06 0.12563
73.375 10100. undefined 311.88 438.49 1.3565 550.00 0.0018182 311.88 438.49 1.3565 1.8906 2.4869 1180.9 -0.0050680 147.05 0.12577 550.00 0.0018182 311.88 438.49 1.3565 1.8906 2.4869 1180.9 -0.0050680 147.05 0.12577
74.375 10208. undefined 313.77 441.73 1.3620 550.00 0.0018182 313.77 441.73 1.3620 1.8950 2.4896 1182.6 -0.0050706 147.04 0.12591 550.00 0.0018182 313.77 441.73 1.3620 1.8950 2.4896 1182.6 -0.0050706 147.04 0.12591
75.375 10315. undefined 315.67 444.98 1.3674 550.00 0.0018182 315.67 444.98 1.3674 1.8994 2.4923 1184.2 -0.0050731 147.03 0.12604 550.00 0.0018182 315.67 444.98 1.3674 1.8994 2.4923 1184.2 -0.0050731 147.03 0.12604
76.375 10423. undefined 317.57 448.23 1.3729 550.00 0.0018182 317.57 448.23 1.3729 1.9038 2.4950 1185.9 -0.0050755 147.03 0.12618 550.00 0.0018182 317.57 448.23 1.3729 1.9038 2.4950 1185.9 -0.0050755 147.03 0.12618
77.375 10530. undefined 319.48 451.48 1.3783 550.00 0.0018182 319.48 451.48 1.3783 1.9082 2.4977 1187.5 -0.0050777 147.02 0.12632 550.00 0.0018182 319.48 451.48 1.3783 1.9082 2.4977 1187.5 -0.0050777 147.02 0.12632
78.375 10637. undefined 321.39 454.74 1.3838 550.00 0.0018182 321.39 454.74 1.3838 1.9126 2.5004 1189.1 -0.0050799 147.01 0.12646 550.00 0.0018182 321.39 454.74 1.3838 1.9126 2.5004 1189.1 -0.0050799 147.01 0.12646
79.375 10745. undefined 323.30 458.00 1.3892 550.00 0.0018182 323.30 458.00 1.3892 1.9170 2.5032 1190.8 -0.0050819 147.00 0.12660 550.00 0.0018182 323.30 458.00 1.3892 1.9170 2.5032 1190.8 -0.0050819 147.00 0.12660
80.375 10852. undefined 325.22 461.26 1.3946 550.00 0.0018182 325.22 461.26 1.3946 1.9214 2.5060 1192.4 -0.0050838 147.00 0.12674 550.00 0.0018182 325.22 461.26 1.3946 1.9214 2.5060 1192.4 -0.0050838 147.00 0.12674
81.375 10959. undefined 327.15 464.53 1.4001 550.00 0.0018182 327.15 464.53 1.4001 1.9258 2.5088 1194.0 -0.0050856 146.99 0.12688 550.00 0.0018182 327.15 464.53 1.4001 1.9258 2.5088 1194.0 -0.0050856 146.99 0.12688
82.375 11066. undefined 329.07 467.79 1.4055 550.00 0.0018182 329.07 467.79 1.4055 1.9302 2.5116 1195.6 -0.0050873 146.99 0.12701 550.00 0.0018182 329.07 467.79 1.4055 1.9302 2.5116 1195.6 -0.0050873 146.99 0.12701
83.375 11173. undefined 331.01 471.07 1.4109 550.00 0.0018182 331.01 471.07 1.4109 1.9346 2.5144 1197.2 -0.0050889 146.98 0.12715 550.00 0.0018182 331.01 471.07 1.4109 1.9346 2.5144 1197.2 -0.0050889 146.98 0.12715
84.375 11280. undefined 332.94 474.34 1.4163 550.00 0.0018182 332.94 474.34 1.4163 1.9390 2.5172 1198.8 -0.0050904 146.97 0.12729 550.00 0.0018182 332.94 474.34 1.4163 1.9390 2.5172 1198.8 -0.0050904 146.97 0.12729
85.375 11386. undefined 334.88 477.62 1.4218 550.00 0.0018182 334.88 477.62 1.4218 1.9434 2.5200 1200.4 -0.0050918 146.97 0.12744 550.00 0.0018182 334.88 477.62 1.4218 1.9434 2.5200 1200.4 -0.0050918 146.97 0.12744
86.375 11493. undefined 336.83 480.90 1.4272 550.00 0.0018182 336.83 480.90 1.4272 1.9478 2.5229 1202.0 -0.0050931 146.96 0.12758 550.00 0.0018182 336.83 480.90 1.4272 1.9478 2.5229 1202.0 -0.0050931 146.96 0.12758
87.375 11599. undefined 338.78 484.19 1.4326 550.00 0.0018182 338.78 484.19 1.4326 1.9522 2.5258 1203.6 -0.0050943 146.96 0.12772 550.00 0.0018182 338.78 484.19 1.4326 1.9522 2.5258 1203.6 -0.0050943 146.96 0.12772
88.375 11706. undefined 340.73 487.48 1.4380 550.00 0.0018182 340.73 487.48 1.4380 1.9566 2.5286 1205.2 -0.0050955 146.95 0.12786 550.00 0.0018182 340.73 487.48 1.4380 1.9566 2.5286 1205.2 -0.0050955 146.95 0.12786
89.375 11812. undefined 342.69 490.77 1.4434 550.00 0.0018182 342.69 490.77 1.4434 1.9609 2.5315 1206.7 -0.0050965 146.95 0.12800 550.00 0.0018182 342.69 490.77 1.4434 1.9609 2.5315 1206.7 -0.0050965 146.95 0.12800
90.375 11918. undefined 344.66 494.06 1.4488 550.00 0.0018182 344.66 494.06 1.4488 1.9653 2.5344 1208.3 -0.0050974 146.94 0.12814 550.00 0.0018182 344.66 494.06 1.4488 1.9653 2.5344 1208.3 -0.0050974 146.94 0.12814
91.375 12024. undefined 346.62 497.36 1.4542 550.00 0.0018182 346.62 497.36 1.4542 1.9697 2.5373 1209.9 -0.0050982 146.94 0.12828 550.00 0.0018182 346.62 497.36 1.4542 1.9697 2.5373 1209.9 -0.0050982 146.94 0.12828
92.375 12131. undefined 348.60 500.66 1.4596 550.00 0.0018182 348.60 500.66 1.4596 1.9741 2.5403 1211.4 -0.0050990 146.93 0.12843 550.00 0.0018182 348.60 500.66 1.4596 1.9741 2.5403 1211.4 -0.0050990 146.93 0.12843
93.375 12237. undefined 350.57 503.97 1.4650 550.00 0.0018182 350.57 503.97 1.4650 1.9785 2.5432 1213.0 -0.0050996 146.93 0.12857 550.00 0.0018182 350.57 503.97 1.4650 1.9785 2.5432 1213.0 -0.0050996 146.93 0.12857
94.375 12342. undefined 352.55 507.28 1.4704 550.00 0.0018182 352.55 507.28 1.4704 1.9829 2.5461 1214.5 -0.0051002 146.92 0.12871 550.00 0.0018182 352.55 507.28 1.4704 1.9829 2.5461 1214.5 -0.0051002 146.92 0.12871
95.375 12448. undefined 354.54 510.59 1.4758 550.00 0.0018182 354.54 510.59 1.4758 1.9873 2.5491 1216.1 -0.0051007 146.92 0.12886 550.00 0.0018182 354.54 510.59 1.4758 1.9873 2.5491 1216.1 -0.0051007 146.92 0.12886
96.375 12554. undefined 356.53 513.90 1.4812 550.00 0.0018182 356.53 513.90 1.4812 1.9916 2.5521 1217.6 -0.0051011 146.92 0.12900 550.00 0.0018182 356.53 513.90 1.4812 1.9916 2.5521 1217.6 -0.0051011 146.92 0.12900
97.375 12660. undefined 358.52 517.22 1.4866 550.00 0.0018182 358.52 517.22 1.4866 1.9960 2.5550 1219.2 -0.0051015 146.91 0.12914 550.00 0.0018182 358.52 517.22 1.4866 1.9960 2.5550 1219.2 -0.0051015 146.91 0.12914
98.375 12765. undefined 360.52 520.54 1.4920 550.00 0.0018182 360.52 520.54 1.4920 2.0004 2.5580 1220.7 -0.0051017 146.91 0.12929 550.00 0.0018182 360.52 520.54 1.4920 2.0004 2.5580 1220.7 -0.0051017 146.91 0.12929
99.375 12871. undefined 362.52 523.87 1.4974 550.00 0.0018182 362.52 523.87 1.4974 2.0048 2.5610 1222.2 -0.0051019 146.91 0.12943 550.00 0.0018182 362.52 523.87 1.4974 2.0048 2.5610 1222.2 -0.0051019 146.91 0.12943
100.38 12976. undefined 364.53 527.19 1.5028 550.00 0.0018182 364.53 527.19 1.5028 2.0091 2.5640 1223.7 -0.0051020 146.90 0.12958 550.00 0.0018182 364.53 527.19 1.5028 2.0091 2.5640 1223.7 -0.0051020 146.90 0.12958
101.38 13081. undefined 366.54 530.52 1.5081 550.00 0.0018182 366.54 530.52 1.5081 2.0135 2.5670 1225.3 -0.0051021 146.90 0.12972 550.00 0.0018182 366.54 530.52 1.5081 2.0135 2.5670 1225.3 -0.0051021 146.90 0.12972
102.38 13186. undefined 368.56 533.86 1.5135 550.00 0.0018182 368.56 533.86 1.5135 2.0179 2.5700 1226.8 -0.0051020 146.90 0.12987 550.00 0.0018182 368.56 533.86 1.5135 2.0179 2.5700 1226.8 -0.0051020 146.90 0.12987
103.38 13291. undefined 370.58 537.20 1.5189 550.00 0.0018182 370.58 537.20 1.5189 2.0222 2.5731 1228.3 -0.0051019 146.89 0.13001 550.00 0.0018182 370.58 537.20 1.5189 2.0222 2.5731 1228.3 -0.0051019 146.89 0.13001
104.38 13397. undefined 372.60 540.54 1.5243 550.00 0.0018182 372.60 540.54 1.5243 2.0266 2.5761 1229.8 -0.0051018 146.89 0.13016 550.00 0.0018182 372.60 540.54 1.5243 2.0266 2.5761 1229.8 -0.0051018 146.89 0.13016
105.38 13501. undefined 374.63 543.88 1.5296 550.00 0.0018182 374.63 543.88 1.5296 2.0310 2.5791 1231.3 -0.0051015 146.89 0.13031 550.00 0.0018182 374.63 543.88 1.5296 2.0310 2.5791 1231.3 -0.0051015 146.89 0.13031
106.38 13606. undefined 376.66 547.23 1.5350 550.00 0.0018182 376.66 547.23 1.5350 2.0353 2.5822 1232.8 -0.0051012 146.89 0.13045 550.00 0.0018182 376.66 547.23 1.5350 2.0353 2.5822 1232.8 -0.0051012 146.89 0.13045
107.38 13711. undefined 378.70 550.58 1.5403 550.00 0.0018182 378.70 550.58 1.5403 2.0397 2.5853 1234.3 -0.0051008 146.89 0.13060 550.00 0.0018182 378.70 550.58 1.5403 2.0397 2.5853 1234.3 -0.0051008 146.89 0.13060
108.38 13816. undefined 380.74 553.93 1.5457 550.00 0.0018182 380.74 553.93 1.5457 2.0440 2.5883 1235.8 -0.0051004 146.88 0.13075 550.00 0.0018182 380.74 553.93 1.5457 2.0440 2.5883 1235.8 -0.0051004 146.88 0.13075
109.38 13920. undefined 382.79 557.29 1.5511 550.00 0.0018182 382.79 557.29 1.5511 2.0484 2.5914 1237.3 -0.0050999 146.88 0.13089 550.00 0.0018182 382.79 557.29 1.5511 2.0484 2.5914 1237.3 -0.0050999 146.88 0.13089
110.38 14025. undefined 384.84 560.65 1.5564 550.00 0.0018182 384.84 560.65 1.5564 2.0527 2.5945 1238.7 -0.0050993 146.88 0.13104 550.00 0.0018182 384.84 560.65 1.5564 2.0527 2.5945 1238.7 -0.0050993 146.88 0.13104
111.38 14129. undefined 386.89 564.02 1.5618 550.00 0.0018182 386.89 564.02 1.5618 2.0571 2.5976 1240.2 -0.0050987 146.88 0.13119 550.00 0.0018182 386.89 564.02 1.5618 2.0571 2.5976 1240.2 -0.0050987 146.88 0.13119
112.38 14234. undefined 388.95 567.38 1.5671 550.00 0.0018182 388.95 567.38 1.5671 2.0614 2.6007 1241.7 -0.0050980 146.88 0.13134 550.00 0.0018182 388.95 567.38 1.5671 2.0614 2.6007 1241.7 -0.0050980 146.88 0.13134
113.38 14338. undefined 391.02 570.75 1.5725 550.00 0.0018182 391.02 570.75 1.5725 2.0658 2.6038 1243.2 -0.0050973 146.88 0.13149 550.00 0.0018182 391.02 570.75 1.5725 2.0658 2.6038 1243.2 -0.0050973 146.88 0.13149
114.38 14442. undefined 393.08 574.13 1.5778 550.00 0.0018182 393.08 574.13 1.5778 2.0701 2.6069 1244.6 -0.0050965 146.88 0.13164 550.00 0.0018182 393.08 574.13 1.5778 2.0701 2.6069 1244.6 -0.0050965 146.88 0.13164
115.38 14546. undefined 395.16 577.50 1.5831 550.00 0.0018182 395.16 577.50 1.5831 2.0744 2.6100 1246.1 -0.0050957 146.88 0.13178 550.00 0.0018182 395.16 577.50 1.5831 2.0744 2.6100 1246.1 -0.0050957 146.88 0.13178
116.38 14650. undefined 397.23 580.89 1.5885 550.00 0.0018182 397.23 580.89 1.5885 2.0788 2.6131 1247.5 -0.0050947 146.88 0.13193 550.00 0.0018182 397.23 580.89 1.5885 2.0788 2.6131 1247.5 -0.0050947 146.88 0.13193
117.38 14754. undefined 399.31 584.27 1.5938 550.00 0.0018182 399.31 584.27 1.5938 2.0831 2.6162 1249.0 -0.0050938 146.88 0.13208 550.00 0.0018182 399.31 584.27 1.5938 2.0831 2.6162 1249.0 -0.0050938 146.88 0.13208
118.38 14858. undefined 401.40 587.66 1.5992 550.00 0.0018182 401.40 587.66 1.5992 2.0874 2.6194 1250.5 -0.0050928 146.87 0.13223 550.00 0.0018182 401.40 587.66 1.5992 2.0874 2.6194 1250.5 -0.0050928 146.87 0.13223
119.38 14962. undefined 403.49 591.05 1.6045 550.00 0.0018182 403.49 591.05 1.6045 2.0918 2.6225 1251.9 -0.0050917 146.87 0.13238 550.00 0.0018182 403.49 591.05 1.6045 2.0918 2.6225 1251.9 -0.0050917 146.87 0.13238
120.38 15065. undefined 405.58 594.44 1.6098 550.00 0.0018182 405.58 594.44 1.6098 2.0961 2.6256 1253.3 -0.0050906 146.87 0.13253 550.00 0.0018182 405.58 594.44 1.6098 2.0961 2.6256 1253.3 -0.0050906 146.87 0.13253
121.38 15169. undefined 407.68 597.84 1.6151 550.00 0.0018182 407.68 597.84 1.6151 2.1004 2.6288 1254.8 -0.0050895 146.87 0.13269 550.00 0.0018182 407.68 597.84 1.6151 2.1004 2.6288 1254.8 -0.0050895 146.87 0.13269
122.38 15272. undefined 409.78 601.24 1.6205 550.00 0.0018182 409.78 601.24 1.6205 2.1047 2.6319 1256.2 -0.0050883 146.88 0.13284 550.00 0.0018182 409.78 601.24 1.6205 2.1047 2.6319 1256.2 -0.0050883 146.88 0.13284
123.38 15376. undefined 411.89 604.64 1.6258 550.00 0.0018182 411.89 604.64 1.6258 2.1090 2.6351 1257.6 -0.0050870 146.88 0.13299 550.00 0.0018182 411.89 604.64 1.6258 2.1090 2.6351 1257.6 -0.0050870 146.88 0.13299
124.38 15479. undefined 414.00 608.05 1.6311 550.00 0.0018182 414.00 608.05 1.6311 2.1133 2.6383 1259.1 -0.0050857 146.88 0.13314 550.00 0.0018182 414.00 608.05 1.6311 2.1133 2.6383 1259.1 -0.0050857 146.88 0.13314
125.38 15582. undefined 416.12 611.46 1.6364 550.00 0.0018182 416.12 611.46 1.6364 2.1176 2.6414 1260.5 -0.0050844 146.88 0.13329 550.00 0.0018182 416.12 611.46 1.6364 2.1176 2.6414 1260.5 -0.0050844 146.88 0.13329
126.38 15686. undefined 418.24 614.87 1.6417 550.00 0.0018182 418.24 614.87 1.6417 2.1219 2.6446 1261.9 -0.0050830 146.88 0.13345 550.00 0.0018182 418.24 614.87 1.6417 2.1219 2.6446 1261.9 -0.0050830 146.88 0.13345
127.38 15789. undefined 420.36 618.29 1.6470 550.00 0.0018182 420.36 618.29 1.6470 2.1262 2.6478 1263.3 -0.0050815 146.88 0.13360 550.00 0.0018182 420.36 618.29 1.6470 2.1262 2.6478 1263.3 -0.0050815 146.88 0.13360
128.38 15892. undefined 422.49 621.71 1.6523 550.00 0.0018182 422.49 621.71 1.6523 2.1305 2.6510 1264.7 -0.0050801 146.88 0.13375 550.00 0.0018182 422.49 621.71 1.6523 2.1305 2.6510 1264.7 -0.0050801 146.88 0.13375
129.38 15995. undefined 424.62 625.13 1.6576 550.00 0.0018182 424.62 625.13 1.6576 2.1348 2.6541 1266.2 -0.0050786 146.88 0.13390 550.00 0.0018182 424.62 625.13 1.6576 2.1348 2.6541 1266.2 -0.0050786 146.88 0.13390
130.38 16097. undefined 426.76 628.55 1.6629 550.00 0.0018182 426.76 628.55 1.6629 2.1391 2.6573 1267.6 -0.0050770 146.88 0.13406 550.00 0.0018182 426.76 628.55 1.6629 2.1391 2.6573 1267.6 -0.0050770 146.88 0.13406
131.38 16200. undefined 428.90 631.98 1.6682 550.00 0.0018182 428.90 631.98 1.6682 2.1434 2.6605 1269.0 -0.0050754 146.88 0.13421 550.00 0.0018182 428.90 631.98 1.6682 2.1434 2.6605 1269.0 -0.0050754 146.88 0.13421
132.38 16303. undefined 431.05 635.42 1.6735 550.00 0.0018182 431.05 635.42 1.6735 2.1476 2.6637 1270.4 -0.0050738 146.89 0.13437 550.00 0.0018182 431.05 635.42 1.6735 2.1476 2.6637 1270.4 -0.0050738 146.89 0.13437
133.38 16405. undefined 433.20 638.85 1.6788 550.00 0.0018182 433.20 638.85 1.6788 2.1519 2.6669 1271.8 -0.0050721 146.89 0.13452 550.00 0.0018182 433.20 638.85 1.6788 2.1519 2.6669 1271.8 -0.0050721 146.89 0.13452
134.38 16508. undefined 435.35 642.29 1.6841 550.00 0.0018182 435.35 642.29 1.6841 2.1562 2.6701 1273.1 -0.0050704 146.89 0.13468 550.00 0.0018182 435.35 642.29 1.6841 2.1562 2.6701 1273.1 -0.0050704 146.89 0.13468
135.38 16610. undefined 437.51 645.74 1.6894 550.00 0.0018182 437.51 645.74 1.6894 2.1605 2.6733 1274.5 -0.0050686 146.89 0.13483 550.00 0.0018182 437.51 645.74 1.6894 2.1605 2.6733 1274.5 -0.0050686 146.89 0.13483
136.38 16713. undefined 439.67 649.18 1.6947 550.00 0.0018182 439.67 649.18 1.6947 2.1647 2.6765 1275.9 -0.0050669 146.89 0.13499 550.00 0.0018182 439.67 649.18 1.6947 2.1647 2.6765 1275.9 -0.0050669 146.89 0.13499
137.38 16815. undefined 441.84 652.63 1.7000 550.00 0.0018182 441.84 652.63 1.7000 2.1690 2.6797 1277.3 -0.0050651 146.90 0.13514 550.00 0.0018182 441.84 652.63 1.7000 2.1690 2.6797 1277.3 -0.0050651 146.90 0.13514
138.38 16917. undefined 444.01 656.08 1.7053 550.00 0.0018182 444.01 656.08 1.7053 2.1732 2.6830 1278.7 -0.0050632 146.90 0.13530 550.00 0.0018182 444.01 656.08 1.7053 2.1732 2.6830 1278.7 -0.0050632 146.90 0.13530
139.38 17019. undefined 446.18 659.54 1.7106 550.00 0.0018182 446.18 659.54 1.7106 2.1775 2.6862 1280.1 -0.0050613 146.90 0.13545 550.00 0.0018182 446.18 659.54 1.7106 2.1775 2.6862 1280.1 -0.0050613 146.90 0.13545
140.38 17122. undefined 448.36 663.00 1.7158 550.00 0.0018182 448.36 663.00 1.7158 2.1817 2.6894 1281.4 -0.0050594 146.90 0.13561 550.00 0.0018182 448.36 663.00 1.7158 2.1817 2.6894 1281.4 -0.0050594 146.90 0.13561
141.38 17223. undefined 450.55 666.46 1.7211 550.00 0.0018182 450.55 666.46 1.7211 2.1860 2.6926 1282.8 -0.0050575 146.90 0.13577 550.00 0.0018182 450.55 666.46 1.7211 2.1860 2.6926 1282.8 -0.0050575 146.90 0.13577
142.38 17325. undefined 452.73 669.92 1.7264 550.00 0.0018182 452.73 669.92 1.7264 2.1902 2.6958 1284.2 -0.0050555 146.91 0.13592 550.00 0.0018182 452.73 669.92 1.7264 2.1902 2.6958 1284.2 -0.0050555 146.91 0.13592
143.38 17427. undefined 454.93 673.39 1.7316 550.00 0.0018182 454.93 673.39 1.7316 2.1944 2.6991 1285.5 -0.0050535 146.91 0.13608 550.00 0.0018182 454.93 673.39 1.7316 2.1944 2.6991 1285.5 -0.0050535 146.91 0.13608
144.38 17529. undefined 457.12 676.87 1.7369 550.00 0.0018182 457.12 676.87 1.7369 2.1987 2.7023 1286.9 -0.0050514 146.91 0.13624 550.00 0.0018182 457.12 676.87 1.7369 2.1987 2.7023 1286.9 -0.0050514 146.91 0.13624
145.38 17631. undefined 459.32 680.34 1.7422 550.00 0.0018182 459.32 680.34 1.7422 2.2029 2.7055 1288.2 -0.0050494 146.92 0.13640 550.00 0.0018182 459.32 680.34 1.7422 2.2029 2.7055 1288.2 -0.0050494 146.92 0.13640
146.38 17732. undefined 461.53 683.82 1.7474 550.00 0.0018182 461.53 683.82 1.7474 2.2071 2.7088 1289.6 -0.0050473 146.92 0.13656 550.00 0.0018182 461.53 683.82 1.7474 2.2071 2.7088 1289.6 -0.0050473 146.92 0.13656
147.38 17834. undefined 463.74 687.30 1.7527 550.00 0.0018182 463.74 687.30 1.7527 2.2113 2.7120 1290.9 -0.0050451 146.92 0.13671 550.00 0.0018182 463.74 687.30 1.7527 2.2113 2.7120 1290.9 -0.0050451 146.92 0.13671
148.38 17935. undefined 465.95 690.79 1.7580 550.00 0.0018182 465.95 690.79 1.7580 2.2156 2.7153 1292.3 -0.0050430 146.93 0.13687 550.00 0.0018182 465.95 690.79 1.7580 2.2156 2.7153 1292.3 -0.0050430 146.93 0.13687
149.38 18036. undefined 468.17 694.27 1.7632 550.00 0.0018182 468.17 694.27 1.7632 2.2198 2.7185 1293.6 -0.0050408 146.93 0.13703 550.00 0.0018182 468.17 694.27 1.7632 2.2198 2.7185 1293.6 -0.0050408 146.93 0.13703
150.38 18138. undefined 470.39 697.76 1.7685 550.00 0.0018182 470.39 697.76 1.7685 2.2240 2.7217 1295.0 -0.0050386 146.93 0.13719 550.00 0.0018182 470.39 697.76 1.7685 2.2240 2.7217 1295.0 -0.0050386 146.93 0.13719
151.38 18239. undefined 472.62 701.26 1.7737 550.00 0.0018182 472.62 701.26 1.7737 2.2282 2.7250 1296.3 -0.0050364 146.94 0.13735 550.00 0.0018182 472.62 701.26 1.7737 2.2282 2.7250 1296.3 -0.0050364 146.94 0.13735
152.38 18340. undefined 474.85 704.76 1.7790 550.00 0.0018182 474.85 704.76 1.7790 2.2324 2.7282 1297.6 -0.0050341 146.94 0.13751 550.00 0.0018182 474.85 704.76 1.7790 2.2324 2.7282 1297.6 -0.0050341 146.94 0.13751
153.38 18441. undefined 477.08 708.26 1.7842 550.00 0.0018182 477.08 708.26 1.7842 2.2366 2.7315 1299.0 -0.0050318 146.95 0.13767 550.00 0.0018182 477.08 708.26 1.7842 2.2366 2.7315 1299.0 -0.0050318 146.95 0.13767
154.38 18542. undefined 479.32 711.76 1.7894 550.00 0.0018182 479.32 711.76 1.7894 2.2407 2.7347 1300.3 -0.0050295 146.95 0.13783 550.00 0.0018182 479.32 711.76 1.7894 2.2407 2.7347 1300.3 -0.0050295 146.95 0.13783
155.38 18643. undefined 481.56 715.27 1.7947 550.00 0.0018182 481.56 715.27 1.7947 2.2449 2.7380 1301.6 -0.0050272 146.95 0.13799 550.00 0.0018182 481.56 715.27 1.7947 2.2449 2.7380 1301.6 -0.0050272 146.95 0.13799
156.38 18744. undefined 483.81 718.78 1.7999 550.00 0.0018182 483.81 718.78 1.7999 2.2491 2.7412 1302.9 -0.0050248 146.96 0.13815 550.00 0.0018182 483.81 718.78 1.7999 2.2491 2.7412 1302.9 -0.0050248 146.96 0.13815
157.38 18844. undefined 486.06 722.30 1.8052 550.00 0.0018182 486.06 722.30 1.8052 2.2533 2.7445 1304.3 -0.0050225 146.96 0.13832 550.00 0.0018182 486.06 722.30 1.8052 2.2533 2.7445 1304.3 -0.0050225 146.96 0.13832
158.38 18945. undefined 488.32 725.81 1.8104 550.00 0.0018182 488.32 725.81 1.8104 2.2574 2.7477 1305.6 -0.0050201 146.97 0.13848 550.00 0.0018182 488.32 725.81 1.8104 2.2574 2.7477 1305.6 -0.0050201 146.97 0.13848
159.38 19046. undefined 490.58 729.33 1.8156 550.00 0.0018182 490.58 729.33 1.8156 2.2616 2.7510 1306.9 -0.0050176 146.97 0.13864 550.00 0.0018182 490.58 729.33 1.8156 2.2616 2.7510 1306.9 -0.0050176 146.97 0.13864
160.38 19146. undefined 492.84 732.86 1.8209 550.00 0.0018182 492.84 732.86 1.8209 2.2658 2.7543 1308.2 -0.0050152 146.98 0.13880 550.00 0.0018182 492.84 732.86 1.8209 2.2658 2.7543 1308.2 -0.0050152 146.98 0.13880
161.38 19247. undefined 495.11 736.38 1.8261 550.00 0.0018182 495.11 736.38 1.8261 2.2699 2.7575 1309.5 -0.0050127 146.98 0.13896 550.00 0.0018182 495.11 736.38 1.8261 2.2699 2.7575 1309.5 -0.0050127 146.98 0.13896
162.38 19347. undefined 497.38 739.91 1.8313 550.00 0.0018182 497.38 739.91 1.8313 2.2741 2.7608 1310.8 -0.0050103 146.99 0.13913 550.00 0.0018182 497.38 739.91 1.8313 2.2741 2.7608 1310.8 -0.0050103 146.99 0.13913
163.38 19447. undefined 499.66 743.45 1.8365 550.00 0.0018182 499.66 743.45 1.8365 2.2782 2.7640 1312.1 -0.0050078 146.99 0.13929 550.00 0.0018182 499.66 743.45 1.8365 2.2782 2.7640 1312.1 -0.0050078 146.99 0.13929
164.38 19548. undefined 501.94 746.98 1.8417 550.00 0.0018182 501.94 746.98 1.8417 2.2824 2.7673 1313.4 -0.0050052 147.00 0.13945 550.00 0.0018182 501.94 746.98 1.8417 2.2824 2.7673 1313.4 -0.0050052 147.00 0.13945
165.38 19648. undefined 504.22 750.52 1.8470 550.00 0.0018182 504.22 750.52 1.8470 2.2865 2.7706 1314.7 -0.0050027 147.00 0.13962 550.00 0.0018182 504.22 750.52 1.8470 2.2865 2.7706 1314.7 -0.0050027 147.00 0.13962
166.38 19748. undefined 506.51 754.07 1.8522 550.00 0.0018182 506.51 754.07 1.8522 2.2906 2.7738 1316.0 -0.0050002 147.01 0.13978 550.00 0.0018182 506.51 754.07 1.8522 2.2906 2.7738 1316.0 -0.0050002 147.01 0.13978
167.38 19848. undefined 508.80 757.61 1.8574 550.00 0.0018182 508.80 757.61 1.8574 2.2948 2.7771 1317.3 -0.0049976 147.01 0.13995 550.00 0.0018182 508.80 757.61 1.8574 2.2948 2.7771 1317.3 -0.0049976 147.01 0.13995
168.38 19948. undefined 511.10 761.16 1.8626 550.00 0.0018182 511.10 761.16 1.8626 2.2989 2.7803 1318.6 -0.0049950 147.02 0.14011 550.00 0.0018182 511.10 761.16 1.8626 2.2989 2.7803 1318.6 -0.0049950 147.02 0.14011
169.38 20047. undefined 513.40 764.71 1.8678 550.00 0.0018182 513.40 764.71 1.8678 2.3030 2.7836 1319.9 -0.0049924 147.02 0.14028 550.00 0.0018182 513.40 764.71 1.8678 2.3030 2.7836 1319.9 -0.0049924 147.02 0.14028
170.38 20147. undefined 515.71 768.27 1.8730 550.00 0.0018182 515.71 768.27 1.8730 2.3071 2.7869 1321.1 -0.0049898 147.03 0.14044 550.00 0.0018182 515.71 768.27 1.8730 2.3071 2.7869 1321.1 -0.0049898 147.03 0.14044
171.38 20247. undefined 518.01 771.83 1.8782 550.00 0.0018182 518.01 771.83 1.8782 2.3112 2.7901 1322.4 -0.0049871 147.03 0.14061 550.00 0.0018182 518.01 771.83 1.8782 2.3112 2.7901 1322.4 -0.0049871 147.03 0.14061
172.38 20347. undefined 520.33 775.39 1.8834 550.00 0.0018182 520.33 775.39 1.8834 2.3153 2.7934 1323.7 -0.0049845 147.04 0.14077 550.00 0.0018182 520.33 775.39 1.8834 2.3153 2.7934 1323.7 -0.0049845 147.04 0.14077
173.38 20446. undefined 522.65 778.96 1.8886 550.00 0.0018182 522.65 778.96 1.8886 2.3194 2.7966 1325.0 -0.0049818 147.04 0.14094 550.00 0.0018182 522.65 778.96 1.8886 2.3194 2.7966 1325.0 -0.0049818 147.04 0.14094
174.38 20546. undefined 524.97 782.52 1.8938 550.00 0.0018182 524.97 782.52 1.8938 2.3235 2.7999 1326.2 -0.0049791 147.05 0.14111 550.00 0.0018182 524.97 782.52 1.8938 2.3235 2.7999 1326.2 -0.0049791 147.05 0.14111
175.38 20645. undefined 527.29 786.10 1.8990 550.00 0.0018182 527.29 786.10 1.8990 2.3276 2.8032 1327.5 -0.0049764 147.06 0.14127 550.00 0.0018182 527.29 786.10 1.8990 2.3276 2.8032 1327.5 -0.0049764 147.06 0.14127
176.38 20744. undefined 529.62 789.67 1.9042 550.00 0.0018182 529.62 789.67 1.9042 2.3317 2.8064 1328.8 -0.0049737 147.06 0.14144 550.00 0.0018182 529.62 789.67 1.9042 2.3317 2.8064 1328.8 -0.0049737 147.06 0.14144
177.38 20844. undefined 531.96 793.25 1.9093 550.00 0.0018182 531.96 793.25 1.9093 2.3358 2.8097 1330.0 -0.0049710 147.07 0.14161 550.00 0.0018182 531.96 793.25 1.9093 2.3358 2.8097 1330.0 -0.0049710 147.07 0.14161
178.38 20943. undefined 534.29 796.83 1.9145 550.00 0.0018182 534.29 796.83 1.9145 2.3399 2.8129 1331.3 -0.0049683 147.07 0.14178 550.00 0.0018182 534.29 796.83 1.9145 2.3399 2.8129 1331.3 -0.0049683 147.07 0.14178
179.38 21042. undefined 536.64 800.41 1.9197 550.00 0.0018182 536.64 800.41 1.9197 2.3439 2.8162 1332.6 -0.0049655 147.08 0.14194 550.00 0.0018182 536.64 800.41 1.9197 2.3439 2.8162 1332.6 -0.0049655 147.08 0.14194
180.38 21141. undefined 538.98 804.00 1.9249 550.00 0.0018182 538.98 804.00 1.9249 2.3480 2.8195 1333.8 -0.0049627 147.09 0.14211 550.00 0.0018182 538.98 804.00 1.9249 2.3480 2.8195 1333.8 -0.0049627 147.09 0.14211
181.38 21240. undefined 541.33 807.59 1.9301 550.00 0.0018182 541.33 807.59 1.9301 2.3520 2.8227 1335.1 -0.0049600 147.09 0.14228 550.00 0.0018182 541.33 807.59 1.9301 2.3520 2.8227 1335.1 -0.0049600 147.09 0.14228
182.38 21339. undefined 543.69 811.19 1.9352 550.00 0.0018182 543.69 811.19 1.9352 2.3561 2.8260 1336.3 -0.0049572 147.10 0.14245 550.00 0.0018182 543.69 811.19 1.9352 2.3561 2.8260 1336.3 -0.0049572 147.10 0.14245
183.38 21438. undefined 546.04 814.78 1.9404 550.00 0.0018182 546.04 814.78 1.9404 2.3602 2.8292 1337.6 -0.0049544 147.11 0.14262 550.00 0.0018182 546.04 814.78 1.9404 2.3602 2.8292 1337.6 -0.0049544 147.11 0.14262
184.38 21536. undefined 548.41 818.38 1.9456 550.00 0.0018182 548.41 818.38 1.9456 2.3642 2.8325 1338.8 -0.0049516 147.11 0.14279 550.00 0.0018182 548.41 818.38 1.9456 2.3642 2.8325 1338.8 -0.0049516 147.11 0.14279
185.38 21635. undefined 550.77 821.99 1.9507 550.00 0.0018182 550.77 821.99 1.9507 2.3682 2.8358 1340.1 -0.0049487 147.12 0.14296 550.00 0.0018182 550.77 821.99 1.9507 2.3682 2.8358 1340.1 -0.0049487 147.12 0.14296
186.38 21734. undefined 553.14 825.59 1.9559 550.00 0.0018182 553.14 825.59 1.9559 2.3723 2.8390 1341.3 -0.0049459 147.13 0.14313 550.00 0.0018182 553.14 825.59 1.9559 2.3723 2.8390 1341.3 -0.0049459 147.13 0.14313
187.38 21832. undefined 555.52 829.20 1.9611 550.00 0.0018182 555.52 829.20 1.9611 2.3763 2.8423 1342.5 -0.0049431 147.13 0.14330 550.00 0.0018182 555.52 829.20 1.9611 2.3763 2.8423 1342.5 -0.0049431 147.13 0.14330
188.38 21931. undefined 557.90 832.81 1.9662 550.00 0.0018182 557.90 832.81 1.9662 2.3803 2.8455 1343.8 -0.0049402 147.14 0.14347 550.00 0.0018182 557.90 832.81 1.9662 2.3803 2.8455 1343.8 -0.0049402 147.14 0.14347
189.38 22029. undefined 560.28 836.43 1.9714 550.00 0.0018182 560.28 836.43 1.9714 2.3843 2.8488 1345.0 -0.0049374 147.15 0.14364 550.00 0.0018182 560.28 836.43 1.9714 2.3843 2.8488 1345.0 -0.0049374 147.15 0.14364
190.38 22127. undefined 562.66 840.05 1.9765 550.00 0.0018182 562.66 840.05 1.9765 2.3884 2.8520 1346.2 -0.0049345 147.16 0.14381 550.00 0.0018182 562.66 840.05 1.9765 2.3884 2.8520 1346.2 -0.0049345 147.16 0.14381
191.38 22226. undefined 565.05 843.67 1.9817 550.00 0.0018182 565.05 843.67 1.9817 2.3924 2.8553 1347.5 -0.0049316 147.16 0.14398 550.00 0.0018182 565.05 843.67 1.9817 2.3924 2.8553 1347.5 -0.0049316 147.16 0.14398
192.38 22324. undefined 567.45 847.30 1.9868 550.00 0.0018182 567.45 847.30 1.9868 2.3964 2.8585 1348.7 -0.0049287 147.17 0.14415 550.00 0.0018182 567.45 847.30 1.9868 2.3964 2.8585 1348.7 -0.0049287 147.17 0.14415
193.38 22422. undefined 569.85 850.93 1.9920 550.00 0.0018182 569.85 850.93 1.9920 2.4004 2.8618 1349.9 -0.0049258 147.18 0.14432 550.00 0.0018182 569.85 850.93 1.9920 2.4004 2.8618 1349.9 -0.0049258 147.18 0.14432
194.38 22520. undefined 572.25 854.56 1.9971 550.00 0.0018182 572.25 854.56 1.9971 2.4044 2.8650 1351.1 -0.0049229 147.19 0.14450 550.00 0.0018182 572.25 854.56 1.9971 2.4044 2.8650 1351.1 -0.0049229 147.19 0.14450
195.38 22618. undefined 574.66 858.19 2.0023 550.00 0.0018182 574.66 858.19 2.0023 2.4084 2.8683 1352.3 -0.0049200 147.19 0.14467 550.00 0.0018182 574.66 858.19 2.0023 2.4084 2.8683 1352.3 -0.0049200 147.19 0.14467
196.38 22716. undefined 577.07 861.83 2.0074 550.00 0.0018182 577.07 861.83 2.0074 2.4123 2.8715 1353.6 -0.0049171 147.20 0.14484 550.00 0.0018182 577.07 861.83 2.0074 2.4123 2.8715 1353.6 -0.0049171 147.20 0.14484
197.38 22814. undefined 579.48 865.47 2.0125 550.00 0.0018182 579.48 865.47 2.0125 2.4163 2.8748 1354.8 -0.0049141 147.21 0.14502 550.00 0.0018182 579.48 865.47 2.0125 2.4163 2.8748 1354.8 -0.0049141 147.21 0.14502
198.38 22911. undefined 581.90 869.11 2.0177 550.00 0.0018182 581.90 869.11 2.0177 2.4203 2.8780 1356.0 -0.0049112 147.22 0.14519 550.00 0.0018182 581.90 869.11 2.0177 2.4203 2.8780 1356.0 -0.0049112 147.22 0.14519
199.38 23009. undefined 584.32 872.76 2.0228 550.00 0.0018182 584.32 872.76 2.0228 2.4243 2.8813 1357.2 -0.0049083 147.22 0.14536 550.00 0.0018182 584.32 872.76 2.0228 2.4243 2.8813 1357.2 -0.0049083 147.22 0.14536
200.38 23107. undefined 586.75 876.41 2.0279 550.00 0.0018182 586.75 876.41 2.0279 2.4282 2.8845 1358.4 -0.0049053 147.23 0.14554 550.00 0.0018182 586.75 876.41 2.0279 2.4282 2.8845 1358.4 -0.0049053 147.23 0.14554
201.38 23204. undefined 589.18 880.06 2.0331 550.00 0.0018182 589.18 880.06 2.0331 2.4322 2.8877 1359.6 -0.0049023 147.24 0.14571 550.00 0.0018182 589.18 880.06 2.0331 2.4322 2.8877 1359.6 -0.0049023 147.24 0.14571
202.38 23302. undefined 591.61 883.72 2.0382 550.00 0.0018182 591.61 883.72 2.0382 2.4361 2.8910 1360.8 -0.0048994 147.25 0.14589 550.00 0.0018182 591.61 883.72 2.0382 2.4361 2.8910 1360.8 -0.0048994 147.25 0.14589
203.38 23399. undefined 594.05 887.38 2.0433 550.00 0.0018182 594.05 887.38 2.0433 2.4401 2.8942 1362.0 -0.0048964 147.26 0.14606 550.00 0.0018182 594.05 887.38 2.0433 2.4401 2.8942 1362.0 -0.0048964 147.26 0.14606
204.38 23496. undefined 596.49 891.04 2.0484 550.00 0.0018182 596.49 891.04 2.0484 2.4440 2.8974 1363.2 -0.0048934 147.26 0.14624 550.00 0.0018182 596.49 891.04 2.0484 2.4440 2.8974 1363.2 -0.0048934 147.26 0.14624
205.38 23594. undefined 598.94 894.71 2.0535 550.00 0.0018182 598.94 894.71 2.0535 2.4480 2.9007 1364.4 -0.0048904 147.27 0.14641 550.00 0.0018182 598.94 894.71 2.0535 2.4480 2.9007 1364.4 -0.0048904 147.27 0.14641
206.38 23691. undefined 601.39 898.38 2.0587 550.00 0.0018182 601.39 898.38 2.0587 2.4519 2.9039 1365.6 -0.0048875 147.28 0.14659 550.00 0.0018182 601.39 898.38 2.0587 2.4519 2.9039 1365.6 -0.0048875 147.28 0.14659
207.38 23788. undefined 603.84 902.05 2.0638 550.00 0.0018182 603.84 902.05 2.0638 2.4558 2.9071 1366.8 -0.0048845 147.29 0.14676 550.00 0.0018182 603.84 902.05 2.0638 2.4558 2.9071 1366.8 -0.0048845 147.29 0.14676
208.38 23885. undefined 606.30 905.72 2.0689 550.00 0.0018182 606.30 905.72 2.0689 2.4597 2.9104 1368.0 -0.0048815 147.30 0.14694 550.00 0.0018182 606.30 905.72 2.0689 2.4597 2.9104 1368.0 -0.0048815 147.30 0.14694
209.38 23982. undefined 608.76 909.40 2.0740 550.00 0.0018182 608.76 909.40 2.0740 2.4637 2.9136 1369.2 -0.0048785 147.30 0.14712 550.00 0.0018182 608.76 909.40 2.0740 2.4637 2.9136 1369.2 -0.0048785 147.30 0.14712
210.38 24079. undefined 611.23 913.08 2.0791 550.00 0.0018182 611.23 913.08 2.0791 2.4676 2.9168 1370.3 -0.0048754 147.31 0.14729 550.00 0.0018182 611.23 913.08 2.0791 2.4676 2.9168 1370.3 -0.0048754 147.31 0.14729
211.38 24176. undefined 613.70 916.77 2.0842 550.00 0.0018182 613.70 916.77 2.0842 2.4715 2.9200 1371.5 -0.0048724 147.32 0.14747 550.00 0.0018182 613.70 916.77 2.0842 2.4715 2.9200 1371.5 -0.0048724 147.32 0.14747
212.38 24273. undefined 616.17 920.45 2.0893 550.00 0.0018182 616.17 920.45 2.0893 2.4754 2.9233 1372.7 -0.0048694 147.33 0.14765 550.00 0.0018182 616.17 920.45 2.0893 2.4754 2.9233 1372.7 -0.0048694 147.33 0.14765
213.38 24370. undefined 618.65 924.14 2.0944 550.00 0.0018182 618.65 924.14 2.0944 2.4793 2.9265 1373.9 -0.0048664 147.34 0.14783 550.00 0.0018182 618.65 924.14 2.0944 2.4793 2.9265 1373.9 -0.0048664 147.34 0.14783
214.38 24466. undefined 621.13 927.84 2.0995 550.00 0.0018182 621.13 927.84 2.0995 2.4832 2.9297 1375.0 -0.0048634 147.35 0.14800 550.00 0.0018182 621.13 927.84 2.0995 2.4832 2.9297 1375.0 -0.0048634 147.35 0.14800
215.38 24563. undefined 623.61 931.53 2.1046 550.00 0.0018182 623.61 931.53 2.1046 2.4870 2.9329 1376.2 -0.0048603 147.36 0.14818 550.00 0.0018182 623.61 931.53 2.1046 2.4870 2.9329 1376.2 -0.0048603 147.36 0.14818
216.38 24659. undefined 626.10 935.23 2.1097 550.00 0.0018182 626.10 935.23 2.1097 2.4909 2.9361 1377.4 -0.0048573 147.37 0.14836 550.00 0.0018182 626.10 935.23 2.1097 2.4909 2.9361 1377.4 -0.0048573 147.37 0.14836
217.38 24756. undefined 628.59 938.93 2.1148 550.00 0.0018182 628.59 938.93 2.1148 2.4948 2.9393 1378.6 -0.0048543 147.37 0.14854 550.00 0.0018182 628.59 938.93 2.1148 2.4948 2.9393 1378.6 -0.0048543 147.37 0.14854
218.38 24852. undefined 631.09 942.64 2.1198 550.00 0.0018182 631.09 942.64 2.1198 2.4987 2.9425 1379.7 -0.0048512 147.38 0.14872 550.00 0.0018182 631.09 942.64 2.1198 2.4987 2.9425 1379.7 -0.0048512 147.38 0.14872
219.38 24949. undefined 633.59 946.35 2.1249 550.00 0.0018182 633.59 946.35 2.1249 2.5025 2.9457 1380.9 -0.0048482 147.39 0.14890 550.00 0.0018182 633.59 946.35 2.1249 2.5025 2.9457 1380.9 -0.0048482 147.39 0.14890
220.38 25045. undefined 636.10 950.06 2.1300 550.00 0.0018182 636.10 950.06 2.1300 2.5064 2.9490 1382.1 -0.0048451 147.40 0.14908 550.00 0.0018182 636.10 950.06 2.1300 2.5064 2.9490 1382.1 -0.0048451 147.40 0.14908
221.38 25141. undefined 638.61 953.77 2.1351 550.00 0.0018182 638.61 953.77 2.1351 2.5102 2.9522 1383.2 -0.0048421 147.41 0.14926 550.00 0.0018182 638.61 953.77 2.1351 2.5102 2.9522 1383.2 -0.0048421 147.41 0.14926
222.38 25237. undefined 641.12 957.49 2.1402 550.00 0.0018182 641.12 957.49 2.1402 2.5141 2.9554 1384.4 -0.0048390 147.42 0.14944 550.00 0.0018182 641.12 957.49 2.1402 2.5141 2.9554 1384.4 -0.0048390 147.42 0.14944
223.38 25333. undefined 643.63 961.21 2.1452 550.00 0.0018182 643.63 961.21 2.1452 2.5179 2.9586 1385.5 -0.0048360 147.43 0.14962 550.00 0.0018182 643.63 961.21 2.1452 2.5179 2.9586 1385.5 -0.0048360 147.43 0.14962
224.38 25429. undefined 646.15 964.93 2.1503 550.00 0.0018182 646.15 964.93 2.1503 2.5218 2.9617 1386.7 -0.0048329 147.44 0.14980 550.00 0.0018182 646.15 964.93 2.1503 2.5218 2.9617 1386.7 -0.0048329 147.44 0.14980
225.38 25525. undefined 648.68 968.66 2.1554 550.00 0.0018182 648.68 968.66 2.1554 2.5256 2.9649 1387.8 -0.0048299 147.45 0.14998 550.00 0.0018182 648.68 968.66 2.1554 2.5256 2.9649 1387.8 -0.0048299 147.45 0.14998
226.38 25621. undefined 651.20 972.39 2.1604 550.00 0.0018182 651.20 972.39 2.1604 2.5294 2.9681 1389.0 -0.0048268 147.46 0.15017 550.00 0.0018182 651.20 972.39 2.1604 2.5294 2.9681 1389.0 -0.0048268 147.46 0.15017
227.38 25717. undefined 653.74 976.12 2.1655 550.00 0.0018182 653.74 976.12 2.1655 2.5333 2.9713 1390.1 -0.0048237 147.47 0.15035 550.00 0.0018182 653.74 976.12 2.1655 2.5333 2.9713 1390.1 -0.0048237 147.47 0.15035
228.38 25813. undefined 656.27 979.86 2.1706 550.00 0.0018182 656.27 979.86 2.1706 2.5371 2.9745 1391.3 -0.0048207 147.48 0.15053 550.00 0.0018182 656.27 979.86 2.1706 2.5371 2.9745 1391.3 -0.0048207 147.48 0.15053
229.38 25909. undefined 658.81 983.60 2.1756 550.00 0.0018182 658.81 983.60 2.1756 2.5409 2.9777 1392.4 -0.0048176 147.48 0.15071 550.00 0.0018182 658.81 983.60 2.1756 2.5409 2.9777 1392.4 -0.0048176 147.48 0.15071
230.38 26004. undefined 661.35 987.34 2.1807 550.00 0.0018182 661.35 987.34 2.1807 2.5447 2.9809 1393.6 -0.0048145 147.49 0.15090 550.00 0.0018182 661.35 987.34 2.1807 2.5447 2.9809 1393.6 -0.0048145 147.49 0.15090
231.38 26100. undefined 663.90 991.08 2.1857 550.00 0.0018182 663.90 991.08 2.1857 2.5485 2.9841 1394.7 -0.0048115 147.50 0.15108 550.00 0.0018182 663.90 991.08 2.1857 2.5485 2.9841 1394.7 -0.0048115 147.50 0.15108
232.38 26195. undefined 666.45 994.83 2.1908 550.00 0.0018182 666.45 994.83 2.1908 2.5523 2.9872 1395.8 -0.0048084 147.51 0.15126 550.00 0.0018182 666.45 994.83 2.1908 2.5523 2.9872 1395.8 -0.0048084 147.51 0.15126
233.38 26291. undefined 669.00 998.58 2.1958 550.00 0.0018182 669.00 998.58 2.1958 2.5561 2.9904 1397.0 -0.0048053 147.52 0.15145 550.00 0.0018182 669.00 998.58 2.1958 2.5561 2.9904 1397.0 -0.0048053 147.52 0.15145
234.38 26386. undefined 671.56 1002.3 2.2009 550.00 0.0018182 671.56 1002.3 2.2009 2.5599 2.9936 1398.1 -0.0048023 147.53 0.15163 550.00 0.0018182 671.56 1002.3 2.2009 2.5599 2.9936 1398.1 -0.0048023 147.53 0.15163
235.38 26481. undefined 674.12 1006.1 2.2059 550.00 0.0018182 674.12 1006.1 2.2059 2.5636 2.9968 1399.2 -0.0047992 147.54 0.15181 550.00 0.0018182 674.12 1006.1 2.2059 2.5636 2.9968 1399.2 -0.0047992 147.54 0.15181
236.38 26577. undefined 676.69 1009.9 2.2109 550.00 0.0018182 676.69 1009.9 2.2109 2.5674 2.9999 1400.4 -0.0047961 147.55 0.15200 550.00 0.0018182 676.69 1009.9 2.2109 2.5674 2.9999 1400.4 -0.0047961 147.55 0.15200
237.38 26672. undefined 679.26 1013.6 2.2160 550.00 0.0018182 679.26 1013.6 2.2160 2.5712 3.0031 1401.5 -0.0047930 147.56 0.15218 550.00 0.0018182 679.26 1013.6 2.2160 2.5712 3.0031 1401.5 -0.0047930 147.56 0.15218
238.38 26767. undefined 681.83 1017.4 2.2210 550.00 0.0018182 681.83 1017.4 2.2210 2.5750 3.0063 1402.6 -0.0047900 147.57 0.15237 550.00 0.0018182 681.83 1017.4 2.2210 2.5750 3.0063 1402.6 -0.0047900 147.57 0.15237
239.38 26862. undefined 684.41 1021.1 2.2260 550.00 0.0018182 684.41 1021.1 2.2260 2.5787 3.0094 1403.7 -0.0047869 147.58 0.15255 550.00 0.0018182 684.41 1021.1 2.2260 2.5787 3.0094 1403.7 -0.0047869 147.58 0.15255
240.38 26957. undefined 686.99 1024.9 2.2311 550.00 0.0018182 686.99 1024.9 2.2311 2.5825 3.0126 1404.9 -0.0047838 147.59 0.15274 550.00 0.0018182 686.99 1024.9 2.2311 2.5825 3.0126 1404.9 -0.0047838 147.59 0.15274
241.38 27052. undefined 689.57 1028.7 2.2361 550.00 0.0018182 689.57 1028.7 2.2361 2.5862 3.0157 1406.0 -0.0047807 147.60 0.15293 550.00 0.0018182 689.57 1028.7 2.2361 2.5862 3.0157 1406.0 -0.0047807 147.60 0.15293
242.38 27147. undefined 692.16 1032.5 2.2411 550.00 0.0018182 692.16 1032.5 2.2411 2.5900 3.0189 1407.1 -0.0047777 147.61 0.15311 550.00 0.0018182 692.16 1032.5 2.2411 2.5900 3.0189 1407.1 -0.0047777 147.61 0.15311
243.38 27242. undefined 694.75 1036.3 2.2462 550.00 0.0018182 694.75 1036.3 2.2462 2.5937 3.0220 1408.2 -0.0047746 147.62 0.15330 550.00 0.0018182 694.75 1036.3 2.2462 2.5937 3.0220 1408.2 -0.0047746 147.62 0.15330
244.38 27336. undefined 697.35 1040.0 2.2512 550.00 0.0018182 697.35 1040.0 2.2512 2.5974 3.0252 1409.3 -0.0047715 147.63 0.15349 550.00 0.0018182 697.35 1040.0 2.2512 2.5974 3.0252 1409.3 -0.0047715 147.63 0.15349
245.38 27431. undefined 699.95 1043.8 2.2562 550.00 0.0018182 699.95 1043.8 2.2562 2.6012 3.0283 1410.4 -0.0047684 147.64 0.15367 550.00 0.0018182 699.95 1043.8 2.2562 2.6012 3.0283 1410.4 -0.0047684 147.64 0.15367
246.38 27526. undefined 702.55 1047.6 2.2612 550.00 0.0018182 702.55 1047.6 2.2612 2.6049 3.0315 1411.5 -0.0047654 147.65 0.15386 550.00 0.0018182 702.55 1047.6 2.2612 2.6049 3.0315 1411.5 -0.0047654 147.65 0.15386
247.38 27620. undefined 705.16 1051.4 2.2662 550.00 0.0018182 705.16 1051.4 2.2662 2.6086 3.0346 1412.7 -0.0047623 147.66 0.15405 550.00 0.0018182 705.16 1051.4 2.2662 2.6086 3.0346 1412.7 -0.0047623 147.66 0.15405
248.38 27715. undefined 707.77 1055.2 2.2712 550.00 0.0018182 707.77 1055.2 2.2712 2.6123 3.0378 1413.8 -0.0047592 147.67 0.15424 550.00 0.0018182 707.77 1055.2 2.2712 2.6123 3.0378 1413.8 -0.0047592 147.67 0.15424
249.38 27809. undefined 710.38 1059.0 2.2762 550.00 0.0018182 710.38 1059.0 2.2762 2.6160 3.0409 1414.9 -0.0047561 147.69 0.15442 550.00 0.0018182 710.38 1059.0 2.2762 2.6160 3.0409 1414.9 -0.0047561 147.69 0.15442
250.38 27903. undefined 713.00 1062.8 2.2812 550.00 0.0018182 713.00 1062.8 2.2812 2.6197 3.0440 1416.0 -0.0047531 147.70 0.15461 550.00 0.0018182 713.00 1062.8 2.2812 2.6197 3.0440 1416.0 -0.0047531 147.70 0.15461
251.38 27998. undefined 715.62 1066.6 2.2862 550.00 0.0018182 715.62 1066.6 2.2862 2.6234 3.0471 1417.1 -0.0047500 147.71 0.15480 550.00 0.0018182 715.62 1066.6 2.2862 2.6234 3.0471 1417.1 -0.0047500 147.71 0.15480
252.38 28092. undefined 718.25 1070.4 2.2912 550.00 0.0018182 718.25 1070.4 2.2912 2.6271 3.0503 1418.2 -0.0047469 147.72 0.15499 550.00 0.0018182 718.25 1070.4 2.2912 2.6271 3.0503 1418.2 -0.0047469 147.72 0.15499
253.38 28186. undefined 720.88 1074.2 2.2962 550.00 0.0018182 720.88 1074.2 2.2962 2.6308 3.0534 1419.3 -0.0047439 147.73 0.15518 550.00 0.0018182 720.88 1074.2 2.2962 2.6308 3.0534 1419.3 -0.0047439 147.73 0.15518
254.38 28280. undefined 723.51 1078.0 2.3012 550.00 0.0018182 723.51 1078.0 2.3012 2.6345 3.0565 1420.4 -0.0047408 147.74 0.15537 550.00 0.0018182 723.51 1078.0 2.3012 2.6345 3.0565 1420.4 -0.0047408 147.74 0.15537
255.38 28374. undefined 726.14 1081.8 2.3062 550.00 0.0018182 726.14 1081.8 2.3062 2.6381 3.0596 1421.5 -0.0047377 147.75 0.15556 550.00 0.0018182 726.14 1081.8 2.3062 2.6381 3.0596 1421.5 -0.0047377 147.75 0.15556
256.38 28468. undefined 728.78 1085.7 2.3112 550.00 0.0018182 728.78 1085.7 2.3112 2.6418 3.0628 1422.5 -0.0047346 147.76 0.15575 550.00 0.0018182 728.78 1085.7 2.3112 2.6418 3.0628 1422.5 -0.0047346 147.76 0.15575
257.38 28562. undefined 731.43 1089.5 2.3162 550.00 0.0018182 731.43 1089.5 2.3162 2.6455 3.0659 1423.6 -0.0047316 147.77 0.15594 550.00 0.0018182 731.43 1089.5 2.3162 2.6455 3.0659 1423.6 -0.0047316 147.77 0.15594
258.38 28656. undefined 734.08 1093.3 2.3212 550.00 0.0018182 734.08 1093.3 2.3212 2.6491 3.0690 1424.7 -0.0047285 147.78 0.15613 550.00 0.0018182 734.08 1093.3 2.3212 2.6491 3.0690 1424.7 -0.0047285 147.78 0.15613
259.38 28750. undefined 736.73 1097.1 2.3262 550.00 0.0018182 736.73 1097.1 2.3262 2.6528 3.0721 1425.8 -0.0047255 147.79 0.15632 550.00 0.0018182 736.73 1097.1 2.3262 2.6528 3.0721 1425.8 -0.0047255 147.79 0.15632
260.38 28844. undefined 739.38 1101.0 2.3312 550.00 0.0018182 739.38 1101.0 2.3312 2.6564 3.0752 1426.9 -0.0047224 147.80 0.15652 550.00 0.0018182 739.38 1101.0 2.3312 2.6564 3.0752 1426.9 -0.0047224 147.80 0.15652
261.38 28937. undefined 742.04 1104.8 2.3361 550.00 0.0018182 742.04 1104.8 2.3361 2.6601 3.0783 1428.0 -0.0047193 147.81 0.15671 550.00 0.0018182 742.04 1104.8 2.3361 2.6601 3.0783 1428.0 -0.0047193 147.81 0.15671
262.38 29031. undefined 744.70 1108.6 2.3411 550.00 0.0018182 744.70 1108.6 2.3411 2.6637 3.0814 1429.1 -0.0047163 147.82 0.15690 550.00 0.0018182 744.70 1108.6 2.3411 2.6637 3.0814 1429.1 -0.0047163 147.82 0.15690
263.38 29125. undefined 747.37 1112.5 2.3461 550.00 0.0018182 747.37 1112.5 2.3461 2.6673 3.0845 1430.1 -0.0047132 147.84 0.15709 550.00 0.0018182 747.37 1112.5 2.3461 2.6673 3.0845 1430.1 -0.0047132 147.84 0.15709
264.38 29218. undefined 750.04 1116.3 2.3511 550.00 0.0018182 750.04 1116.3 2.3511 2.6710 3.0876 1431.2 -0.0047102 147.85 0.15729 550.00 0.0018182 750.04 1116.3 2.3511 2.6710 3.0876 1431.2 -0.0047102 147.85 0.15729
265.38 29312. undefined 752.71 1120.2 2.3560 550.00 0.0018182 752.71 1120.2 2.3560 2.6746 3.0907 1432.3 -0.0047071 147.86 0.15748 550.00 0.0018182 752.71 1120.2 2.3560 2.6746 3.0907 1432.3 -0.0047071 147.86 0.15748
266.38 29405. undefined 755.39 1124.0 2.3610 550.00 0.0018182 755.39 1124.0 2.3610 2.6782 3.0938 1433.4 -0.0047041 147.87 0.15767 550.00 0.0018182 755.39 1124.0 2.3610 2.6782 3.0938 1433.4 -0.0047041 147.87 0.15767
267.38 29498. undefined 758.07 1127.9 2.3660 550.00 0.0018182 758.07 1127.9 2.3660 2.6818 3.0968 1434.4 -0.0047010 147.88 0.15787 550.00 0.0018182 758.07 1127.9 2.3660 2.6818 3.0968 1434.4 -0.0047010 147.88 0.15787
268.38 29592. undefined 760.75 1131.7 2.3709 550.00 0.0018182 760.75 1131.7 2.3709 2.6854 3.0999 1435.5 -0.0046980 147.89 0.15806 550.00 0.0018182 760.75 1131.7 2.3709 2.6854 3.0999 1435.5 -0.0046980 147.89 0.15806
269.38 29685. undefined 763.44 1135.6 2.3759 550.00 0.0018182 763.44 1135.6 2.3759 2.6890 3.1030 1436.6 -0.0046949 147.90 0.15825 550.00 0.0018182 763.44 1135.6 2.3759 2.6890 3.1030 1436.6 -0.0046949 147.90 0.15825
270.38 29778. undefined 766.13 1139.4 2.3808 550.00 0.0018182 766.13 1139.4 2.3808 2.6926 3.1061 1437.6 -0.0046919 147.91 0.15845 550.00 0.0018182 766.13 1139.4 2.3808 2.6926 3.1061 1437.6 -0.0046919 147.91 0.15845
271.38 29871. undefined 768.82 1143.3 2.3858 550.00 0.0018182 768.82 1143.3 2.3858 2.6962 3.1091 1438.7 -0.0046888 147.92 0.15864 550.00 0.0018182 768.82 1143.3 2.3858 2.6962 3.1091 1438.7 -0.0046888 147.92 0.15864
272.38 29964. undefined 771.52 1147.1 2.3907 550.00 0.0018182 771.52 1147.1 2.3907 2.6998 3.1122 1439.8 -0.0046858 147.94 0.15884 550.00 0.0018182 771.52 1147.1 2.3907 2.6998 3.1122 1439.8 -0.0046858 147.94 0.15884
273.38 30057. undefined 774.22 1151.0 2.3957 550.00 0.0018182 774.22 1151.0 2.3957 2.7034 3.1153 1440.8 -0.0046828 147.95 0.15903 550.00 0.0018182 774.22 1151.0 2.3957 2.7034 3.1153 1440.8 -0.0046828 147.95 0.15903
274.38 30150. undefined 776.93 1154.9 2.4006 550.00 0.0018182 776.93 1154.9 2.4006 2.7070 3.1183 1441.9 -0.0046797 147.96 0.15923 550.00 0.0018182 776.93 1154.9 2.4006 2.7070 3.1183 1441.9 -0.0046797 147.96 0.15923
275.38 30243. undefined 779.63 1158.8 2.4056 550.00 0.0018182 779.63 1158.8 2.4056 2.7105 3.1214 1442.9 -0.0046767 147.97 0.15943 550.00 0.0018182 779.63 1158.8 2.4056 2.7105 3.1214 1442.9 -0.0046767 147.97 0.15943
276.38 30336. undefined 782.35 1162.6 2.4105 550.00 0.0018182 782.35 1162.6 2.4105 2.7141 3.1245 1444.0 -0.0046737 147.98 0.15962 550.00 0.0018182 782.35 1162.6 2.4105 2.7141 3.1245 1444.0 -0.0046737 147.98 0.15962
277.38 30428. undefined 785.06 1166.5 2.4154 550.00 0.0018182 785.06 1166.5 2.4154 2.7177 3.1275 1445.1 -0.0046707 147.99 0.15982 550.00 0.0018182 785.06 1166.5 2.4154 2.7177 3.1275 1445.1 -0.0046707 147.99 0.15982
278.38 30521. undefined 787.78 1170.4 2.4204 550.00 0.0018182 787.78 1170.4 2.4204 2.7212 3.1306 1446.1 -0.0046676 148.00 0.16001 550.00 0.0018182 787.78 1170.4 2.4204 2.7212 3.1306 1446.1 -0.0046676 148.00 0.16001
279.38 30614. undefined 790.51 1174.3 2.4253 550.00 0.0018182 790.51 1174.3 2.4253 2.7248 3.1336 1447.2 -0.0046646 148.02 0.16021 550.00 0.0018182 790.51 1174.3 2.4253 2.7248 3.1336 1447.2 -0.0046646 148.02 0.16021
280.38 30706. undefined 793.23 1178.2 2.4302 550.00 0.0018182 793.23 1178.2 2.4302 2.7283 3.1367 1448.2 -0.0046616 148.03 0.16041 550.00 0.0018182 793.23 1178.2 2.4302 2.7283 3.1367 1448.2 -0.0046616 148.03 0.16041
281.38 30799. undefined 795.96 1182.1 2.4352 550.00 0.0018182 795.96 1182.1 2.4352 2.7318 3.1397 1449.3 -0.0046586 148.04 0.16061 550.00 0.0018182 795.96 1182.1 2.4352 2.7318 3.1397 1449.3 -0.0046586 148.04 0.16061
282.38 30891. undefined 798.70 1185.9 2.4401 550.00 0.0018182 798.70 1185.9 2.4401 2.7354 3.1427 1450.3 -0.0046556 148.05 0.16056 550.00 0.0018182 798.70 1185.9 2.4401 2.7354 3.1427 1450.3 -0.0046556 148.05 0.16056
283.38 30984. undefined 801.43 1189.8 2.4450 550.00 0.0018182 801.43 1189.8 2.4450 2.7389 3.1458 1451.4 -0.0046526 148.06 0.16076 550.00 0.0018182 801.43 1189.8 2.4450 2.7389 3.1458 1451.4 -0.0046526 148.06 0.16076
284.38 31076. undefined 804.17 1193.7 2.4499 550.00 0.0018182 804.17 1193.7 2.4499 2.7424 3.1488 1452.4 -0.0046496 148.07 0.16095 550.00 0.0018182 804.17 1193.7 2.4499 2.7424 3.1488 1452.4 -0.0046496 148.07 0.16095
285.38 31168. undefined 806.92 1197.6 2.4549 550.00 0.0018182 806.92 1197.6 2.4549 2.7460 3.1518 1453.4 -0.0046466 148.09 0.16115 550.00 0.0018182 806.92 1197.6 2.4549 2.7460 3.1518 1453.4 -0.0046466 148.09 0.16115
286.38 31260. undefined 809.67 1201.5 2.4598 550.00 0.0018182 809.67 1201.5 2.4598 2.7495 3.1549 1454.5 -0.0046436 148.10 0.16135 550.00 0.0018182 809.67 1201.5 2.4598 2.7495 3.1549 1454.5 -0.0046436 148.10 0.16135
287.38 31353. undefined 812.42 1205.5 2.4647 550.00 0.0018182 812.42 1205.5 2.4647 2.7530 3.1579 1455.5 -0.0046406 148.11 0.16155 550.00 0.0018182 812.42 1205.5 2.4647 2.7530 3.1579 1455.5 -0.0046406 148.11 0.16155
288.38 31445. undefined 815.17 1209.4 2.4696 550.00 0.0018182 815.17 1209.4 2.4696 2.7565 3.1609 1456.6 -0.0046376 148.12 0.16175 550.00 0.0018182 815.17 1209.4 2.4696 2.7565 3.1609 1456.6 -0.0046376 148.12 0.16175
289.38 31537. undefined 817.93 1213.3 2.4745 550.00 0.0018182 817.93 1213.3 2.4745 2.7600 3.1639 1457.6 -0.0046346 148.13 0.16195 550.00 0.0018182 817.93 1213.3 2.4745 2.7600 3.1639 1457.6 -0.0046346 148.13 0.16195
290.38 31629. undefined 820.69 1217.2 2.4794 550.00 0.0018182 820.69 1217.2 2.4794 2.7635 3.1670 1458.6 -0.0046316 148.14 0.16215 550.00 0.0018182 820.69 1217.2 2.4794 2.7635 3.1670 1458.6 -0.0046316 148.14 0.16215
291.38 31721. undefined 823.46 1221.1 2.4843 550.00 0.0018182 823.46 1221.1 2.4843 2.7670 3.1700 1459.7 -0.0046286 148.16 0.16235 550.00 0.0018182 823.46 1221.1 2.4843 2.7670 3.1700 1459.7 -0.0046286 148.16 0.16235
292.38 31813. undefined 826.23 1225.0 2.4892 550.00 0.0018182 826.23 1225.0 2.4892 2.7705 3.1730 1460.7 -0.0046256 148.17 0.16255 550.00 0.0018182 826.23 1225.0 2.4892 2.7705 3.1730 1460.7 -0.0046256 148.17 0.16255
293.38 31904. undefined 829.00 1228.9 2.4941 550.00 0.0018182 829.00 1228.9 2.4941 2.7739 3.1760 1461.7 -0.0046227 148.18 0.16275 550.00 0.0018182 829.00 1228.9 2.4941 2.7739 3.1760 1461.7 -0.0046227 148.18 0.16275
294.38 31996. undefined 831.77 1232.9 2.4990 550.00 0.0018182 831.77 1232.9 2.4990 2.7774 3.1790 1462.7 -0.0046197 148.19 0.16295 550.00 0.0018182 831.77 1232.9 2.4990 2.7774 3.1790 1462.7 -0.0046197 148.19 0.16295
295.38 32088. undefined 834.55 1236.8 2.5039 550.00 0.0018182 834.55 1236.8 2.5039 2.7809 3.1820 1463.8 -0.0046167 148.20 0.16315 550.00 0.0018182 834.55 1236.8 2.5039 2.7809 3.1820 1463.8 -0.0046167 148.20 0.16315
296.38 32180. undefined 837.34 1240.7 2.5088 550.00 0.0018182 837.34 1240.7 2.5088 2.7843 3.1850 1464.8 -0.0046137 148.22 0.16335 550.00 0.0018182 837.34 1240.7 2.5088 2.7843 3.1850 1464.8 -0.0046137 148.22 0.16335
297.38 32271. undefined 840.12 1244.7 2.5137 550.00 0.0018182 840.12 1244.7 2.5137 2.7878 3.1880 1465.8 -0.0046108 148.23 0.16355 550.00 0.0018182 840.12 1244.7 2.5137 2.7878 3.1880 1465.8 -0.0046108 148.23 0.16355
298.38 32363. undefined 842.91 1248.6 2.5186 550.00 0.0018182 842.91 1248.6 2.5186 2.7913 3.1910 1466.8 -0.0046078 148.24 0.16376 550.00 0.0018182 842.91 1248.6 2.5186 2.7913 3.1910 1466.8 -0.0046078 148.24 0.16376
299.38 32454. undefined 845.70 1252.5 2.5234 550.00 0.0018182 845.70 1252.5 2.5234 2.7947 3.1939 1467.9 -0.0046049 148.25 0.16396 550.00 0.0018182 845.70 1252.5 2.5234 2.7947 3.1939 1467.9 -0.0046049 148.25 0.16396
300.38 32546. undefined 848.50 1256.5 2.5283 550.00 0.0018182 848.50 1256.5 2.5283 2.7982 3.1969 1468.9 -0.0046019 148.26 0.16416 550.00 0.0018182 848.50 1256.5 2.5283 2.7982 3.1969 1468.9 -0.0046019 148.26 0.16416