Temperature (C) Pressure (psia) Quality (l+v) Internal Energy (l+v, kJ/kg) Enthalpy (l+v, kJ/kg) Entropy (l+v, J/g*K) Density (l, kg/m3) Volume (l, m3/kg) Internal Energy (l, kJ/kg) Enthalpy (l, kJ/kg) Entropy (l, J/g*K) Cv (l, J/g*K) Cp (l, J/g*K) Sound Spd. (l, m/s) Joule-Thomson (l, F/psia) Viscosity (l, uPa*s) Therm. Cond. (l, W/m*K) Density (v, kg/m3) Volume (v, m3/kg) Internal Energy (v, kJ/kg) Enthalpy (v, kJ/kg) Entropy (v, J/g*K) Cv (v, J/g*K) Cp (v, J/g*K) Sound Spd. (v, m/s) Joule-Thomson (v, F/psia) Viscosity (v, uPa*s) Therm. Cond. (v, W/m*K)
-187.62 2.4953e-08 4.4989e-12 -196.64 -196.64 -1.3959 733.13 0.0013640 -196.64 -196.64 -1.3959 1.3553 1.9158 2136.4 -0.0077592 10960. 0.20792 1.0669e-08 9.3732e+07 350.13 366.26 5.1858 0.69067 0.87923 143.28 6.1051 2.3259 0.0017061
-186.62 3.7339e-08 6.6236e-12 -194.73 -194.73 -1.3736 732.08 0.0013660 -194.73 -194.73 -1.3736 1.3539 1.9166 2129.6 -0.0077546 10073. 0.20765 1.5780e-08 6.3371e+07 350.82 367.14 5.1200 0.69462 0.88317 144.03 5.9178 2.3534 0.0017533
-185.62 5.5322e-08 9.6563e-12 -192.81 -192.81 -1.3516 731.04 0.0013679 -192.81 -192.81 -1.3516 1.3525 1.9174 2122.9 -0.0077498 9276.1 0.20737 2.3112e-08 4.3267e+07 351.52 368.02 5.0561 0.69857 0.88713 144.77 5.7383 2.3808 0.0018007
-184.62 8.1182e-08 1.3945e-11 -190.89 -190.89 -1.3298 730.00 0.0013699 -190.89 -190.89 -1.3298 1.3513 1.9182 2116.1 -0.0077448 8557.8 0.20708 3.3533e-08 2.9821e+07 352.22 368.91 4.9939 0.70253 0.89108 145.51 5.5662 2.4083 0.0018485
-183.62 1.1803e-07 1.9954e-11 -188.97 -188.97 -1.3083 728.96 0.0013718 -188.97 -188.97 -1.3083 1.3501 1.9191 2109.3 -0.0077395 7909.8 0.20678 4.8211e-08 2.0742e+07 352.92 369.81 4.9333 0.70648 0.89504 146.24 5.4011 2.4357 0.0018965
-182.62 1.7009e-07 2.8302e-11 -187.05 -187.05 -1.2869 727.92 0.0013738 -187.05 -187.05 -1.2869 1.3490 1.9201 2102.5 -0.0077340 7324.3 0.20647 6.8704e-08 1.4555e+07 353.63 370.70 4.8744 0.71043 0.89899 146.97 5.2426 2.4632 0.0019448
-181.62 2.4299e-07 3.9800e-11 -185.13 -185.13 -1.2658 726.88 0.0013757 -185.13 -185.13 -1.2658 1.3480 1.9210 2095.7 -0.0077283 6794.5 0.20616 9.7079e-08 1.0301e+07 354.35 371.60 4.8170 0.71438 0.90294 147.69 5.0904 2.4906 0.0019934
-180.62 3.4425e-07 5.5510e-11 -183.21 -183.21 -1.2450 725.85 0.0013777 -183.21 -183.21 -1.2450 1.3470 1.9220 2088.9 -0.0077225 6314.4 0.20584 1.3605e-07 7.3504e+06 355.06 372.51 4.7612 0.71833 0.90688 148.41 4.9442 2.5181 0.0020423
-179.62 4.8378e-07 7.6804e-11 -181.29 -181.29 -1.2243 724.81 0.0013797 -181.29 -181.29 -1.2243 1.3461 1.9231 2082.0 -0.0077164 5878.8 0.20551 1.8915e-07 5.2868e+06 355.78 373.42 4.7068 0.72227 0.91082 149.13 4.8038 2.5456 0.0020915
-178.62 6.7459e-07 1.0545e-10 -179.37 -179.37 -1.2038 723.78 0.0013816 -179.37 -179.37 -1.2038 1.3453 1.9241 2075.2 -0.0077102 5482.9 0.20517 2.6096e-07 3.8320e+06 356.51 374.33 4.6538 0.72620 0.91475 149.84 4.6688 2.5731 0.0021410
-177.62 9.3358e-07 1.4370e-10 -177.44 -177.44 -1.1836 722.75 0.0013836 -177.44 -177.44 -1.1836 1.3445 1.9252 2068.4 -0.0077039 5122.6 0.20483 3.5737e-07 2.7982e+06 357.23 375.25 4.6022 0.73012 0.91867 150.54 4.5390 2.6005 0.0021907
-176.62 1.2826e-06 1.9442e-10 -175.52 -175.52 -1.1635 721.72 0.0013856 -175.52 -175.52 -1.1635 1.3437 1.9263 2061.5 -0.0076973 4794.1 0.20447 4.8588e-07 2.0581e+06 357.97 376.17 4.5519 0.73403 0.92258 151.25 4.4142 2.6280 0.0022408
-175.62 1.7496e-06 2.6120e-10 -173.59 -173.59 -1.1437 720.69 0.0013876 -173.59 -173.59 -1.1437 1.3430 1.9274 2054.7 -0.0076907 4494.3 0.20411 6.5601e-07 1.5244e+06 358.70 377.09 4.5029 0.73792 0.92648 151.95 4.2941 2.6555 0.0022912
-174.62 2.3705e-06 3.4854e-10 -171.66 -171.66 -1.1240 719.66 0.0013895 -171.66 -171.66 -1.1240 1.3423 1.9286 2047.9 -0.0076838 4220.2 0.20375 8.7976e-07 1.1367e+06 359.44 378.02 4.4551 0.74181 0.93036 152.64 4.1784 2.6830 0.0023418
-173.62 3.1903e-06 4.6204e-10 -169.73 -169.73 -1.1045 718.64 0.0013915 -169.73 -169.73 -1.1045 1.3417 1.9298 2041.0 -0.0076769 3969.3 0.20338 1.1721e-06 8.5314e+05 360.19 378.95 4.4085 0.74568 0.93423 153.33 4.0671 2.7105 0.0023928
-172.62 4.2661e-06 6.0862e-10 -167.80 -167.80 -1.0852 717.61 0.0013935 -167.80 -167.80 -1.0852 1.3411 1.9310 2034.2 -0.0076698 3739.3 0.20300 1.5518e-06 6.4441e+05 360.93 379.89 4.3631 0.74953 0.93809 154.02 3.9599 2.7379 0.0024440
-171.62 5.6692e-06 7.9676e-10 -165.87 -165.87 -1.0661 716.58 0.0013955 -165.87 -165.87 -1.0661 1.3405 1.9322 2027.3 -0.0076625 3528.0 0.20261 2.0419e-06 4.8974e+05 361.69 380.83 4.3188 0.75337 0.94193 154.71 3.8566 2.7654 0.0024955
-170.62 7.4884e-06 1.0368e-09 -163.94 -163.94 -1.0472 715.56 0.0013975 -163.94 -163.94 -1.0472 1.3400 1.9334 2020.5 -0.0076552 3333.8 0.20222 2.6708e-06 3.7442e+05 362.44 381.77 4.2755 0.75720 0.94575 155.39 3.7570 2.7929 0.0025473
-169.62 9.8334e-06 1.3414e-09 -162.00 -162.00 -1.0284 714.54 0.0013995 -162.00 -162.00 -1.0284 1.3395 1.9347 2013.6 -0.0076477 3154.9 0.20182 3.4733e-06 2.8791e+05 363.20 382.72 4.2334 0.76100 0.94956 156.07 3.6609 2.8204 0.0025994
-168.62 1.2839e-05 1.7257e-09 -160.07 -160.07 -1.0098 713.52 0.0014015 -160.07 -160.07 -1.0098 1.3390 1.9359 2006.8 -0.0076401 2989.9 0.20141 4.4917e-06 2.2263e+05 363.96 383.67 4.1922 0.76479 0.95335 156.74 3.5683 2.8479 0.0026518
-167.62 1.6672e-05 2.2080e-09 -158.13 -158.13 -0.99134 712.49 0.0014035 -158.13 -158.13 -0.99134 1.3386 1.9372 2000.0 -0.0076323 2837.5 0.20100 5.7771e-06 1.7310e+05 364.73 384.63 4.1521 0.76856 0.95712 157.41 3.4790 2.8754 0.0027045
-166.62 2.1533e-05 2.8101e-09 -156.19 -156.19 -0.97306 711.47 0.0014055 -156.19 -156.19 -0.97306 1.3382 1.9385 1993.1 -0.0076245 2696.5 0.20058 7.3914e-06 1.3529e+05 365.50 385.59 4.1129 0.77232 0.96087 158.08 3.3927 2.9029 0.0027575
-165.62 2.7666e-05 3.5579e-09 -154.25 -154.25 -0.95494 710.45 0.0014075 -154.25 -154.25 -0.95494 1.3378 1.9398 1986.3 -0.0076165 2566.0 0.20016 9.4084e-06 1.0629e+05 366.27 386.55 4.0746 0.77605 0.96460 158.75 3.3095 2.9304 0.0028108
-164.62 3.5367e-05 4.4823e-09 -152.31 -152.31 -0.93698 709.44 0.0014096 -152.31 -152.31 -0.93698 1.3375 1.9411 1979.4 -0.0076084 2444.9 0.19973 1.1916e-05 83918. 367.05 387.52 4.0372 0.77976 0.96832 159.41 3.2291 2.9579 0.0028643
-163.62 4.4989e-05 5.6193e-09 -150.37 -150.37 -0.91917 708.42 0.0014116 -150.37 -150.37 -0.91917 1.3371 1.9424 1972.6 -0.0076002 2332.3 0.19930 1.5020e-05 66577. 367.83 388.49 4.0008 0.78346 0.97201 160.07 3.1514 2.9854 0.0029182
-162.62 5.6956e-05 7.0115e-09 -148.43 -148.43 -0.90151 707.40 0.0014136 -148.43 -148.43 -0.90151 1.3368 1.9437 1965.8 -0.0075919 2227.7 0.19886 1.8844e-05 53068. 368.62 389.46 3.9651 0.78713 0.97569 160.72 3.0764 3.0129 0.0029723
-161.62 7.1773e-05 8.7084e-09 -146.48 -146.48 -0.88400 706.38 0.0014157 -146.48 -146.48 -0.88400 1.3365 1.9451 1959.0 -0.0075834 2130.2 0.19841 2.3533e-05 42494. 369.41 390.44 3.9304 0.79079 0.97935 161.38 3.0038 3.0404 0.0030268
-160.62 9.0036e-05 1.0768e-08 -144.54 -144.54 -0.86663 705.37 0.0014177 -144.54 -144.54 -0.86663 1.3363 1.9465 1952.1 -0.0075748 2039.2 0.19796 2.9258e-05 34178. 370.20 391.42 3.8964 0.79443 0.98298 162.03 2.9337 3.0679 0.0030815
-159.62 0.00011245 1.3256e-08 -142.59 -142.59 -0.84940 704.35 0.0014197 -142.59 -142.59 -0.84940 1.3360 1.9478 1945.3 -0.0075661 1954.2 0.19751 3.6221e-05 27609. 371.00 392.40 3.8632 0.79805 0.98660 162.68 2.8658 3.0955 0.0031365
-158.62 0.00013985 1.6250e-08 -140.64 -140.64 -0.83231 703.34 0.0014218 -140.64 -140.64 -0.83231 1.3358 1.9492 1938.5 -0.0075573 1874.8 0.19705 4.4652e-05 22395. 371.80 393.39 3.8307 0.80164 0.99020 163.32 2.8002 3.1230 0.0031918
-157.62 0.00017320 1.9838e-08 -138.69 -138.69 -0.81536 702.32 0.0014238 -138.69 -138.69 -0.81536 1.3356 1.9506 1931.7 -0.0075484 1800.3 0.19658 5.4822e-05 18241. 372.60 394.38 3.7990 0.80522 0.99378 163.96 2.7367 3.1505 0.0032474
-156.62 0.00021364 2.4122e-08 -136.74 -136.74 -0.79854 701.31 0.0014259 -136.74 -136.74 -0.79854 1.3354 1.9520 1924.9 -0.0075393 1730.5 0.19611 6.7040e-05 14916. 373.41 395.38 3.7680 0.80878 0.99734 164.60 2.6752 3.1780 0.0033033
-155.62 0.00026248 2.9216e-08 -134.79 -134.79 -0.78185 700.30 0.0014280 -134.79 -134.79 -0.78185 1.3352 1.9534 1918.1 -0.0075302 1664.9 0.19564 8.1666e-05 12245. 374.22 396.38 3.7377 0.81232 1.0009 165.24 2.6157 3.2055 0.0033595
-154.62 0.00032125 3.5251e-08 -132.83 -132.83 -0.76530 699.29 0.0014300 -132.83 -132.83 -0.76530 1.3350 1.9548 1911.3 -0.0075209 1603.3 0.19516 9.9109e-05 10090. 375.03 397.38 3.7081 0.81585 1.0044 165.87 2.5580 3.2330 0.0034160
-153.62 0.00039171 4.2376e-08 -130.88 -130.88 -0.74887 698.27 0.0014321 -130.88 -130.88 -0.74887 1.3349 1.9563 1904.5 -0.0075114 1545.3 0.19468 0.00011984 8344.6 375.85 398.39 3.6792 0.81935 1.0079 166.50 2.5022 3.2606 0.0034727
-152.62 0.00047590 5.0756e-08 -128.92 -128.92 -0.73256 697.26 0.0014342 -128.92 -128.92 -0.73256 1.3348 1.9577 1897.8 -0.0075019 1490.6 0.19419 0.00014439 6925.9 376.67 399.40 3.6509 0.82284 1.0114 167.13 2.4481 3.2881 0.0035298
-151.62 0.00057613 6.0579e-08 -126.96 -126.96 -0.71638 696.25 0.0014363 -126.96 -126.96 -0.71638 1.3346 1.9592 1891.0 -0.0074922 1438.9 0.19370 0.00017336 5768.4 377.49 400.41 3.6232 0.82631 1.0149 167.76 2.3957 3.3156 0.0035872
-150.62 0.00069507 7.2056e-08 -125.00 -125.00 -0.70032 695.24 0.0014384 -125.00 -125.00 -0.70032 1.3345 1.9606 1884.2 -0.0074824 1390.2 0.19320 0.00020744 4820.7 378.32 401.42 3.5962 0.82976 1.0183 168.38 2.3448 3.3431 0.0036448
-149.62 0.00083574 8.5419e-08 -123.04 -123.04 -0.68438 694.23 0.0014404 -123.04 -123.04 -0.68438 1.3345 1.9621 1877.4 -0.0074724 1344.0 0.19270 0.00024740 4042.0 379.15 402.44 3.5697 0.83319 1.0218 169.00 2.2956 3.3706 0.0037027
-148.62 0.0010016 1.0093e-07 -121.08 -121.08 -0.66855 693.22 0.0014425 -121.08 -121.08 -0.66855 1.3344 1.9636 1870.7 -0.0074623 1300.3 0.19220 0.00029412 3400.0 379.99 403.47 3.5438 0.83661 1.0252 169.62 2.2478 3.3982 0.0037610
-147.62 0.0011965 1.1888e-07 -119.11 -119.11 -0.65284 692.21 0.0014447 -119.11 -119.11 -0.65284 1.3343 1.9651 1863.9 -0.0074521 1258.9 0.19169 0.00034856 2869.0 380.83 404.49 3.5185 0.84001 1.0286 170.24 2.2014 3.4257 0.0038195
-146.62 0.0014249 1.3958e-07 -117.15 -117.15 -0.63724 691.20 0.0014468 -117.15 -117.15 -0.63724 1.3343 1.9666 1857.2 -0.0074417 1219.6 0.19117 0.00041181 2428.3 381.67 405.52 3.4938 0.84340 1.0320 170.85 2.1565 3.4532 0.0038783
-145.62 0.0016917 1.6340e-07 -115.18 -115.18 -0.62175 690.19 0.0014489 -115.18 -115.18 -0.62175 1.3343 1.9682 1850.4 -0.0074312 1182.3 0.19066 0.00048510 2061.4 382.51 406.56 3.4695 0.84677 1.0353 171.46 2.1128 3.4807 0.0039374
-144.62 0.0020026 1.9070e-07 -113.21 -113.21 -0.60637 689.18 0.0014510 -113.21 -113.21 -0.60637 1.3343 1.9697 1843.7 -0.0074206 1146.8 0.19014 0.00056976 1755.1 383.36 407.59 3.4458 0.85012 1.0387 172.07 2.0705 3.5082 0.0039967
-143.62 0.0023637 2.2193e-07 -111.24 -111.24 -0.59110 688.17 0.0014531 -111.24 -111.24 -0.59110 1.3343 1.9713 1836.9 -0.0074098 1113.0 0.18962 0.00066731 1498.6 384.21 408.63 3.4226 0.85346 1.0420 172.68 2.0294 3.5358 0.0040564
-142.62 0.0027820 2.5754e-07 -109.27 -109.27 -0.57593 687.16 0.0014553 -109.27 -109.27 -0.57593 1.3343 1.9728 1830.2 -0.0073988 1080.8 0.18909 0.00077939 1283.1 385.07 409.68 3.3999 0.85679 1.0454 173.28 1.9896 3.5633 0.0041164
-141.62 0.0032653 2.9805e-07 -107.30 -107.30 -0.56087 686.15 0.0014574 -107.30 -107.30 -0.56087 1.3343 1.9744 1823.5 -0.0073878 1050.1 0.18856 0.00090784 1101.5 385.93 410.72 3.3777 0.86011 1.0487 173.88 1.9508 3.5908 0.0041766
-140.62 0.0038222 3.4399e-07 -105.32 -105.32 -0.54591 685.14 0.0014596 -105.32 -105.32 -0.54591 1.3344 1.9760 1816.7 -0.0073765 1020.7 0.18803 0.0010547 948.16 386.79 411.77 3.3560 0.86341 1.0520 174.48 1.9133 3.6183 0.0042372
-139.62 0.0044623 3.9596e-07 -103.34 -103.34 -0.53105 684.13 0.0014617 -103.34 -103.34 -0.53105 1.3344 1.9776 1810.0 -0.0073651 992.74 0.18749 0.0012221 818.26 387.65 412.83 3.3347 0.86670 1.0553 175.08 1.8768 3.6459 0.0042980
-138.62 0.0051963 4.5461e-07 -101.37 -101.37 -0.51628 683.12 0.0014639 -101.37 -101.37 -0.51629 1.3345 1.9792 1803.3 -0.0073536 965.97 0.18695 0.0014125 707.94 388.52 413.88 3.3139 0.86998 1.0586 175.67 1.8413 3.6734 0.0043592
-137.62 0.0060358 5.2064e-07 -99.386 -99.386 -0.50162 682.11 0.0014660 -99.386 -99.386 -0.50162 1.3346 1.9808 1796.6 -0.0073419 940.35 0.18641 0.0016287 614.00 389.39 414.94 3.2935 0.87325 1.0619 176.26 1.8069 3.7009 0.0044206
-136.62 0.0069938 5.9478e-07 -97.404 -97.404 -0.48705 681.10 0.0014682 -97.404 -97.404 -0.48705 1.3347 1.9825 1789.9 -0.0073301 915.81 0.18586 0.0018733 533.80 390.26 416.00 3.2735 0.87650 1.0651 176.85 1.7734 3.7284 0.0044823
-135.62 0.0080843 6.7785e-07 -95.421 -95.421 -0.47258 680.09 0.0014704 -95.421 -95.421 -0.47258 1.3348 1.9841 1783.2 -0.0073180 892.30 0.18531 0.0021497 465.17 391.14 417.07 3.2540 0.87975 1.0684 177.44 1.7409 3.7559 0.0045443
-134.62 0.0093230 7.7069e-07 -93.436 -93.436 -0.45820 679.08 0.0014726 -93.436 -93.436 -0.45820 1.3350 1.9858 1776.5 -0.0073059 869.75 0.18476 0.0024613 406.30 392.02 418.14 3.2348 0.88299 1.0716 178.02 1.7093 3.7834 0.0046066
-133.62 0.010727 8.7423e-07 -91.449 -91.449 -0.44390 678.07 0.0014748 -91.450 -91.449 -0.44391 1.3351 1.9875 1769.8 -0.0072935 848.11 0.18421 0.0028116 355.67 392.91 419.21 3.2161 0.88622 1.0749 178.61 1.6786 3.8109 0.0046691
-132.62 0.012315 9.8944e-07 -89.461 -89.461 -0.42970 677.06 0.0014770 -89.461 -89.461 -0.42971 1.3353 1.9892 1763.1 -0.0072810 827.32 0.18365 0.0032049 312.03 393.79 420.29 3.1977 0.88944 1.0781 179.19 1.6488 3.8385 0.0047320
-131.62 0.014106 1.1174e-06 -87.471 -87.470 -0.41559 676.04 0.0014792 -87.471 -87.471 -0.41560 1.3354 1.9909 1756.4 -0.0072684 807.34 0.18309 0.0036453 274.33 394.68 421.36 3.1798 0.89266 1.0813 179.76 1.6197 3.8660 0.0047951
-130.62 0.016124 1.2591e-06 -85.479 -85.479 -0.40157 675.03 0.0014814 -85.479 -85.479 -0.40157 1.3356 1.9926 1749.7 -0.0072555 788.12 0.18253 0.0041375 241.69 395.58 422.44 3.1622 0.89586 1.0846 180.34 1.5915 3.8935 0.0048586
-129.62 0.018392 1.4158e-06 -83.485 -83.485 -0.38763 674.02 0.0014836 -83.486 -83.486 -0.38763 1.3358 1.9944 1743.0 -0.0072425 769.63 0.18196 0.0046867 213.37 396.47 423.53 3.1450 0.89906 1.0878 180.91 1.5641 3.9210 0.0049223
-128.62 0.020935 1.5886e-06 -81.490 -81.490 -0.37378 673.01 0.0014859 -81.491 -81.490 -0.37378 1.3360 1.9961 1736.3 -0.0072294 751.83 0.18140 0.0052981 188.75 397.37 424.62 3.1281 0.90226 1.0910 181.48 1.5374 3.9485 0.0049863
-127.62 0.023783 1.7790e-06 -79.493 -79.492 -0.36000 672.00 0.0014881 -79.494 -79.493 -0.36001 1.3363 1.9979 1729.6 -0.0072160 734.67 0.18083 0.0059776 167.29 398.27 425.71 3.1116 0.90545 1.0942 182.05 1.5114 3.9760 0.0050506
-126.62 0.026966 1.9882e-06 -77.494 -77.494 -0.34632 670.98 0.0014904 -77.495 -77.495 -0.34632 1.3365 1.9997 1722.9 -0.0072025 718.14 0.18025 0.0067313 148.56 399.18 426.80 3.0954 0.90863 1.0974 182.62 1.4861 4.0035 0.0051152
-125.62 0.030515 2.2177e-06 -75.493 -75.493 -0.33271 669.97 0.0014926 -75.494 -75.494 -0.33272 1.3368 2.0015 1716.2 -0.0071888 702.18 0.17968 0.0075660 132.17 400.09 427.89 3.0795 0.91181 1.1006 183.18 1.4615 4.0310 0.0051800
-124.62 0.034467 2.4689e-06 -73.491 -73.490 -0.31918 668.95 0.0014949 -73.492 -73.492 -0.31919 1.3371 2.0033 1709.5 -0.0071749 686.79 0.17910 0.0084885 117.81 401.00 428.99 3.0640 0.91499 1.1038 183.74 1.4375 4.0584 0.0052452
-123.62 0.038859 2.7434e-06 -71.486 -71.486 -0.30573 667.94 0.0014971 -71.488 -71.487 -0.30574 1.3374 2.0051 1702.8 -0.0071609 671.93 0.17852 0.0095065 105.19 401.91 430.10 3.0488 0.91816 1.1070 184.30 1.4141 4.0859 0.0053106
-122.62 0.043731 3.0427e-06 -69.480 -69.480 -0.29236 666.92 0.0014994 -69.482 -69.481 -0.29237 1.3377 2.0070 1696.2 -0.0071466 657.57 0.17794 0.010628 94.092 402.83 431.20 3.0339 0.92134 1.1102 184.86 1.3913 4.1134 0.0053764
-121.62 0.049128 3.3687e-06 -67.472 -67.472 -0.27906 665.91 0.0015017 -67.474 -67.473 -0.27907 1.3380 2.0089 1689.5 -0.0071322 643.70 0.17736 0.011861 84.309 403.75 432.31 3.0193 0.92451 1.1134 185.41 1.3691 4.1409 0.0054424
-120.62 0.055096 3.7230e-06 -65.462 -65.461 -0.26584 664.89 0.0015040 -65.464 -65.463 -0.26585 1.3384 2.0107 1682.8 -0.0071176 630.28 0.17678 0.013215 75.669 404.67 433.42 3.0050 0.92767 1.1166 185.96 1.3475 4.1683 0.0055087
-119.62 0.061684 4.1074e-06 -63.450 -63.450 -0.25269 663.87 0.0015063 -63.452 -63.452 -0.25271 1.3387 2.0126 1676.1 -0.0071028 617.30 0.17619 0.014700 68.027 405.60 434.53 2.9909 0.93084 1.1198 186.51 1.3264 4.1958 0.0055752
-118.62 0.068946 4.5237e-06 -61.437 -61.436 -0.23962 662.86 0.0015086 -61.439 -61.438 -0.23963 1.3391 2.0146 1669.4 -0.0070878 604.74 0.17560 0.016325 61.255 406.53 435.64 2.9772 0.93401 1.1231 187.06 1.3058 4.2233 0.0056421
-117.62 0.076937 4.9738e-06 -59.421 -59.420 -0.22662 661.84 0.0015109 -59.423 -59.422 -0.22663 1.3395 2.0165 1662.8 -0.0070726 592.58 0.17501 0.018101 55.245 407.46 436.76 2.9638 0.93718 1.1263 187.60 1.2857 4.2507 0.0057092
-116.62 0.085718 5.4598e-06 -57.403 -57.402 -0.21368 660.82 0.0015133 -57.406 -57.405 -0.21370 1.3400 2.0184 1656.1 -0.0070573 580.80 0.17442 0.020040 49.901 408.39 437.88 2.9506 0.94035 1.1295 188.14 1.2660 4.2782 0.0057767
-115.62 0.095353 5.9835e-06 -55.384 -55.382 -0.20082 659.80 0.0015156 -55.386 -55.385 -0.20084 1.3404 2.0204 1649.4 -0.0070417 569.38 0.17383 0.022152 45.142 409.33 439.01 2.9377 0.94352 1.1327 188.68 1.2468 4.3056 0.0058444
-114.62 0.10591 6.5471e-06 -53.362 -53.361 -0.18803 658.78 0.0015180 -53.365 -53.364 -0.18805 1.3409 2.0224 1642.7 -0.0070260 558.32 0.17323 0.024451 40.898 410.27 440.13 2.9250 0.94669 1.1360 189.22 1.2281 4.3330 0.0059123
-113.62 0.11746 7.1526e-06 -51.338 -51.337 -0.17530 657.76 0.0015203 -51.342 -51.340 -0.17533 1.3413 2.0244 1636.0 -0.0070100 547.59 0.17264 0.026949 37.107 411.21 441.26 2.9126 0.94987 1.1392 189.75 1.2097 4.3604 0.0059806
-112.62 0.13008 7.8020e-06 -49.313 -49.311 -0.16265 656.73 0.0015227 -49.316 -49.315 -0.16267 1.3418 2.0264 1629.3 -0.0069938 537.18 0.17204 0.029661 33.715 412.16 442.39 2.9005 0.95305 1.1424 190.28 1.1918 4.3879 0.0060491
-111.62 0.14384 8.4976e-06 -47.285 -47.283 -0.15005 655.71 0.0015251 -47.289 -47.287 -0.15008 1.3424 2.0285 1622.7 -0.0069774 527.08 0.17144 0.032600 30.675 413.10 443.53 2.8885 0.95623 1.1457 190.81 1.1742 4.4153 0.0061180
-110.62 0.15884 9.2415e-06 -45.255 -45.253 -0.13753 654.69 0.0015274 -45.259 -45.258 -0.13755 1.3429 2.0305 1616.0 -0.0069609 517.28 0.17084 0.035781 27.948 414.06 444.66 2.8769 0.95942 1.1490 191.34 1.1570 4.4427 0.0061871
-109.62 0.17516 1.0036e-05 -43.223 -43.221 -0.12506 653.66 0.0015298 -43.228 -43.226 -0.12509 1.3435 2.0326 1609.3 -0.0069441 507.76 0.17024 0.039220 25.497 415.01 445.80 2.8654 0.96261 1.1522 191.86 1.1402 4.4701 0.0062564
-108.62 0.19290 1.0883e-05 -41.189 -41.187 -0.11266 652.64 0.0015322 -41.194 -41.192 -0.11269 1.3441 2.0347 1602.6 -0.0069271 498.51 0.16964 0.042933 23.292 415.96 446.94 2.8542 0.96581 1.1555 192.38 1.1236 4.4974 0.0063261
-107.62 0.21215 1.1784e-05 -39.153 -39.150 -0.10032 651.61 0.0015347 -39.158 -39.156 -0.10036 1.3447 2.0369 1595.9 -0.0069098 489.52 0.16903 0.046937 21.305 416.92 448.09 2.8433 0.96901 1.1588 192.90 1.1075 4.5248 0.0063960
-106.62 0.23301 1.2743e-05 -37.115 -37.112 -0.088045 650.58 0.0015371 -37.120 -37.118 -0.088082 1.3453 2.0390 1589.2 -0.0068924 480.79 0.16843 0.051250 19.512 417.88 449.23 2.8325 0.97222 1.1621 193.41 1.0916 4.5522 0.0064662
-105.62 0.25561 1.3761e-05 -35.074 -35.071 -0.075829 649.55 0.0015395 -35.080 -35.078 -0.075868 1.3460 2.0412 1582.6 -0.0068747 472.30 0.16782 0.055891 17.892 418.85 450.38 2.8220 0.97544 1.1655 193.93 1.0760 4.5795 0.0065367
-104.62 0.28004 1.4840e-05 -33.032 -33.028 -0.063672 648.52 0.0015420 -33.038 -33.035 -0.063714 1.3467 2.0434 1575.9 -0.0068569 464.04 0.16721 0.060878 16.426 419.81 451.53 2.8116 0.97867 1.1688 194.44 1.0608 4.6069 0.0066074
-103.62 0.30643 1.5983e-05 -30.987 -30.983 -0.051573 647.49 0.0015444 -30.994 -30.991 -0.051619 1.3474 2.0456 1569.2 -0.0068387 456.00 0.16660 0.066231 15.099 420.78 452.68 2.8015 0.98191 1.1722 194.94 1.0458 4.6342 0.0066785
-102.62 0.33490 1.7190e-05 -28.939 -28.935 -0.039533 646.46 0.0015469 -28.947 -28.944 -0.039582 1.3481 2.0478 1562.5 -0.0068204 448.18 0.16600 0.071971 13.894 421.75 453.84 2.7916 0.98516 1.1755 195.44 1.0310 4.6615 0.0067498
-101.62 0.36558 1.8466e-05 -26.890 -26.886 -0.027550 645.43 0.0015494 -26.898 -26.894 -0.027602 1.3489 2.0501 1555.8 -0.0068018 440.57 0.16539 0.078120 12.801 422.73 454.99 2.7818 0.98841 1.1789 195.95 1.0166 4.6888 0.0068213
-100.62 0.39862 1.9810e-05 -24.838 -24.833 -0.015623 644.39 0.0015519 -24.847 -24.843 -0.015678 1.3497 2.0524 1549.1 -0.0067830 433.16 0.16478 0.084699 11.807 423.70 456.15 2.7723 0.99168 1.1823 196.44 1.0024 4.7161 0.0068932
-99.625 0.43414 2.1226e-05 -22.784 -22.779 -0.0037515 643.36 0.0015544 -22.794 -22.789 -0.0038103 1.3505 2.0547 1542.4 -0.0067639 425.95 0.16416 0.091731 10.901 424.68 457.31 2.7630 0.99496 1.1858 196.94 0.98838 4.7434 0.0069653
-98.625 0.47230 2.2715e-05 -20.728 -20.722 0.0080651 642.32 0.0015569 -20.738 -20.733 0.0080027 1.3514 2.0570 1535.7 -0.0067447 418.92 0.16355 0.099240 10.077 425.66 458.48 2.7538 0.99825 1.1892 197.43 0.97464 4.7707 0.0070377
-97.625 0.51325 2.4279e-05 -18.669 -18.663 0.019828 641.28 0.0015594 -18.680 -18.674 0.019762 1.3522 2.0594 1529.0 -0.0067251 412.07 0.16294 0.10725 9.3239 426.65 459.64 2.7448 1.0016 1.1927 197.92 0.96112 4.7979 0.0071103
-96.625 0.55714 2.5918e-05 -16.608 -16.601 0.031537 640.24 0.0015619 -16.620 -16.614 0.031467 1.3531 2.0618 1522.3 -0.0067053 405.39 0.16233 0.11579 8.6365 427.63 460.81 2.7360 1.0049 1.1962 198.40 0.94783 4.8251 0.0071832
-95.625 0.60416 2.7636e-05 -14.544 -14.537 0.043194 639.20 0.0015645 -14.557 -14.550 0.043120 1.3540 2.0642 1515.7 -0.0066853 398.88 0.16171 0.12488 8.0078 428.62 461.98 2.7274 1.0082 1.1997 198.88 0.93475 4.8524 0.0072564
-94.625 0.65446 2.9432e-05 -12.478 -12.470 0.054800 638.16 0.0015670 -12.491 -12.484 0.054721 1.3550 2.0667 1509.0 -0.0066650 392.53 0.16110 0.13455 7.4323 429.61 463.15 2.7189 1.0116 1.2032 199.36 0.92188 4.8796 0.0073299
-93.625 0.70822 3.1309e-05 -10.410 -10.401 0.066354 637.12 0.0015696 -10.424 -10.416 0.066271 1.3560 2.0691 1502.3 -0.0066444 386.34 0.16048 0.14482 6.9050 430.60 464.32 2.7107 1.0149 1.2068 199.83 0.90921 4.9068 0.0074036
-92.625 0.76564 3.3267e-05 -8.3389 -8.3295 0.077858 636.07 0.0015722 -8.3535 -8.3452 0.077771 1.3570 2.0716 1495.6 -0.0066236 380.31 0.15987 0.15573 6.4212 431.60 465.49 2.7025 1.0183 1.2104 200.30 0.89673 4.9340 0.0074776
-91.625 0.82689 3.5307e-05 -6.2653 -6.2552 0.089312 635.02 0.0015747 -6.2808 -6.2719 0.089220 1.3580 2.0742 1488.9 -0.0066025 374.41 0.15925 0.16731 5.9769 432.59 466.67 2.6946 1.0217 1.2140 200.77 0.88445 4.9611 0.0075518
-90.625 0.89218 3.7430e-05 -4.1892 -4.1783 0.10072 633.98 0.0015773 -4.2056 -4.1959 0.10062 1.3591 2.0767 1482.2 -0.0065811 368.66 0.15864 0.17958 5.5685 433.59 467.84 2.6868 1.0251 1.2177 201.24 0.87236 4.9883 0.0076263
-89.625 0.96172 3.9636e-05 -2.1106 -2.0987 0.11208 632.93 0.0015800 -2.1279 -2.1174 0.11197 1.3602 2.0793 1475.5 -0.0065595 363.05 0.15802 0.19258 5.1928 434.59 469.02 2.6791 1.0285 1.2213 201.70 0.86045 5.0154 0.0077011
-88.625 1.0357 4.1925e-05 -0.029252 -0.016500 0.12339 631.88 0.0015826 -0.047516 -0.036215 0.12328 1.3613 2.0819 1468.8 -0.0065375 357.56 0.15740 0.20633 4.8466 435.59 470.20 2.6717 1.0320 1.2250 202.15 0.84873 5.0425 0.0077761
-87.625 1.1144 4.4298e-05 2.0547 2.0684 0.13465 630.83 0.0015852 2.0355 2.0476 0.13454 1.3625 2.0846 1462.1 -0.0065153 352.21 0.15679 0.22087 4.5276 436.60 471.39 2.6643 1.0354 1.2288 202.61 0.83718 5.0696 0.0078514
-86.625 1.1979 4.6754e-05 4.1413 4.1561 0.14587 629.77 0.0015879 4.1211 4.1342 0.14575 1.3637 2.0873 1455.4 -0.0064928 346.98 0.15617 0.23623 4.2331 437.61 472.57 2.6571 1.0389 1.2325 203.06 0.82580 5.0967 0.0079270
-85.625 1.2866 4.9293e-05 6.2307 6.2465 0.15704 628.72 0.0015905 6.2094 6.2235 0.15691 1.3649 2.0900 1448.8 -0.0064701 341.87 0.15555 0.25245 3.9612 438.61 473.75 2.6501 1.0424 1.2363 203.50 0.81460 5.1237 0.0080028
-84.625 1.3806 5.1913e-05 8.3227 8.3397 0.16816 627.66 0.0015932 8.3004 8.3155 0.16803 1.3661 2.0927 1442.1 -0.0064470 336.87 0.15494 0.26956 3.7097 439.63 474.94 2.6432 1.0460 1.2402 203.95 0.80356 5.1508 0.0080789
-83.625 1.4803 5.4614e-05 10.418 10.436 0.17925 626.60 0.0015959 10.394 10.410 0.17911 1.3674 2.0955 1435.4 -0.0064236 331.99 0.15432 0.28760 3.4771 440.64 476.13 2.6364 1.0495 1.2440 204.38 0.79269 5.1778 0.0081553
-82.625 1.5858 5.7394e-05 12.515 12.535 0.19028 625.54 0.0015986 12.491 12.508 0.19014 1.3687 2.0983 1428.7 -0.0063999 327.22 0.15370 0.30659 3.2616 441.65 477.31 2.6298 1.0531 1.2479 204.82 0.78199 5.2048 0.0082319
-81.625 1.6975 6.0252e-05 14.616 14.637 0.20128 624.48 0.0016013 14.590 14.609 0.20113 1.3700 2.1012 1422.0 -0.0063759 322.55 0.15309 0.32659 3.0619 442.67 478.50 2.6233 1.0567 1.2519 205.25 0.77144 5.2318 0.0083088
-80.625 1.8155 6.3186e-05 16.719 16.741 0.21223 623.42 0.0016041 16.692 16.712 0.21208 1.3714 2.1041 1415.4 -0.0063516 317.99 0.15247 0.34763 2.8766 443.69 479.70 2.6169 1.0603 1.2558 205.67 0.76106 5.2587 0.0083860
-79.625 1.9402 6.6192e-05 18.825 18.849 0.22315 622.36 0.0016068 18.797 18.819 0.22299 1.3728 2.1070 1408.7 -0.0063270 313.52 0.15186 0.36974 2.7046 444.71 480.89 2.6106 1.0639 1.2598 206.10 0.75083 5.2857 0.0084634
-78.625 2.0718 6.9268e-05 20.934 20.960 0.23402 621.29 0.0016096 20.905 20.928 0.23385 1.3742 2.1099 1402.0 -0.0063021 309.15 0.15124 0.39296 2.5448 445.73 482.08 2.6045 1.0676 1.2639 206.51 0.74076 5.3126 0.0085411
-77.625 2.2107 7.2412e-05 23.047 23.074 0.24485 620.22 0.0016123 23.016 23.040 0.24468 1.3757 2.1129 1395.3 -0.0062768 304.88 0.15062 0.41735 2.3961 446.75 483.27 2.5985 1.0712 1.2680 206.93 0.73084 5.3395 0.0086190
-76.625 2.3571 7.5618e-05 25.162 25.191 0.25564 619.15 0.0016151 25.130 25.156 0.25546 1.3772 2.1159 1388.7 -0.0062512 300.69 0.15001 0.44292 2.2577 447.78 484.47 2.5926 1.0749 1.2721 207.34 0.72107 5.3664 0.0086972
-75.625 2.5113 7.8883e-05 27.280 27.311 0.26639 618.08 0.0016179 27.247 27.275 0.26620 1.3787 2.1190 1382.0 -0.0062253 296.59 0.14939 0.46974 2.1288 448.81 485.67 2.5869 1.0787 1.2762 207.74 0.71146 5.3933 0.0087757
-74.625 2.6736 8.2203e-05 29.401 29.434 0.27710 617.01 0.0016207 29.366 29.396 0.27691 1.3802 2.1221 1375.4 -0.0061990 292.58 0.14878 0.49783 2.0087 449.83 486.86 2.5812 1.0824 1.2804 208.14 0.70200 5.4201 0.0088544
-73.625 2.8444 8.5572e-05 31.525 31.560 0.28777 615.93 0.0016236 31.489 31.521 0.28758 1.3818 2.1252 1368.7 -0.0061724 288.65 0.14816 0.52725 1.8966 450.86 488.06 2.5757 1.0862 1.2847 208.54 0.69268 5.4469 0.0089334
-72.625 3.0240 8.8985e-05 33.653 33.690 0.29841 614.85 0.0016264 33.615 33.649 0.29821 1.3834 2.1284 1362.0 -0.0061454 284.81 0.14755 0.55804 1.7920 451.90 489.26 2.5703 1.0900 1.2889 208.93 0.68351 5.4737 0.0090126
-71.625 3.2127 9.2435e-05 35.783 35.823 0.30901 613.78 0.0016293 35.745 35.781 0.30880 1.3851 2.1316 1355.4 -0.0061181 281.03 0.14694 0.59024 1.6942 452.93 490.46 2.5650 1.0938 1.2932 209.32 0.67448 5.5005 0.0090922
-70.625 3.4108 9.5916e-05 37.917 37.959 0.31957 612.69 0.0016321 37.877 37.915 0.31935 1.3867 2.1349 1348.7 -0.0060904 277.34 0.14632 0.62390 1.6028 453.96 491.66 2.5598 1.0976 1.2976 209.70 0.66560 5.5273 0.0091720
-69.625 3.6187 9.9420e-05 40.054 40.098 0.33009 611.61 0.0016350 40.013 40.053 0.32987 1.3884 2.1382 1342.1 -0.0060624 273.72 0.14571 0.65906 1.5173 455.00 492.86 2.5547 1.1015 1.3020 210.08 0.65687 5.5540 0.0092520
-68.625 3.8367 0.00010294 42.194 42.241 0.34058 610.53 0.0016379 42.152 42.195 0.34036 1.3902 2.1415 1335.5 -0.0060339 270.17 0.14510 0.69577 1.4372 456.04 494.06 2.5497 1.1054 1.3064 210.45 0.64827 5.5807 0.0093324
-67.625 4.0652 0.00010647 44.338 44.388 0.35104 609.44 0.0016409 44.294 44.340 0.35080 1.3919 2.1449 1328.8 -0.0060051 266.69 0.14449 0.73408 1.3622 457.08 495.26 2.5448 1.1093 1.3109 210.82 0.63981 5.6074 0.0094130
-66.625 4.3046 0.00010999 46.484 46.537 0.36146 608.35 0.0016438 46.439 46.488 0.36122 1.3937 2.1483 1322.2 -0.0059760 263.28 0.14388 0.77404 1.2919 458.12 496.46 2.5400 1.1133 1.3154 211.18 0.63150 5.6341 0.0094939
-65.625 4.5551 0.00011351 48.635 48.691 0.37184 607.26 0.0016467 48.588 48.640 0.37160 1.3955 2.1518 1315.6 -0.0059464 259.93 0.14327 0.81570 1.2259 459.16 497.67 2.5353 1.1172 1.3200 211.54 0.62332 5.6608 0.0095750
-64.625 4.8173 0.00011700 50.788 50.848 0.38220 606.16 0.0016497 50.740 50.795 0.38195 1.3974 2.1553 1308.9 -0.0059164 256.65 0.14266 0.85910 1.1640 460.21 498.87 2.5307 1.1212 1.3246 211.89 0.61527 5.6874 0.0096564
-63.625 5.0915 0.00012046 52.945 53.008 0.39252 605.07 0.0016527 52.896 52.954 0.39226 1.3993 2.1588 1302.3 -0.0058861 253.42 0.14205 0.90429 1.1058 461.25 500.07 2.5262 1.1252 1.3293 212.24 0.60736 5.7140 0.0097382
-62.625 5.3781 0.00012387 55.106 55.172 0.40280 603.97 0.0016557 55.055 55.117 0.40254 1.4012 2.1624 1295.7 -0.0058553 250.26 0.14144 0.95134 1.0511 462.30 501.28 2.5218 1.1293 1.3340 212.58 0.59958 5.7406 0.0098201
-61.625 5.6774 0.00012723 57.270 57.340 0.41306 602.87 0.0016587 57.218 57.283 0.41279 1.4031 2.1660 1289.1 -0.0058241 247.16 0.14084 1.0003 0.99972 463.35 502.48 2.5175 1.1333 1.3387 212.92 0.59194 5.7672 0.0099024
-60.625 5.9899 0.00013051 59.437 59.511 0.42328 601.77 0.0016618 59.385 59.453 0.42301 1.4051 2.1697 1282.5 -0.0057925 244.12 0.14023 1.0512 0.95131 464.40 503.68 2.5133 1.1374 1.3435 213.26 0.58442 5.7938 0.0099850
-59.625 6.3160 0.00013371 61.608 61.686 0.43347 600.66 0.0016648 61.554 61.627 0.43320 1.4071 2.1734 1275.9 -0.0057605 241.13 0.13962 1.1041 0.90573 465.45 504.89 2.5091 1.1415 1.3483 213.58 0.57704 5.8203 0.010068
-58.625 6.6561 0.00013681 63.783 63.865 0.44363 599.55 0.0016679 63.728 63.805 0.44335 1.4091 2.1772 1269.3 -0.0057280 238.19 0.13902 1.1591 0.86277 466.50 506.09 2.5051 1.1457 1.3532 213.90 0.56978 5.8468 0.010151
-57.625 7.0107 0.00013979 65.962 66.048 0.45377 598.44 0.0016710 65.905 65.986 0.45348 1.4111 2.1810 1262.7 -0.0056951 235.31 0.13842 1.2161 0.82228 467.55 507.30 2.5011 1.1498 1.3581 214.22 0.56265 5.8733 0.010234
-56.625 7.3801 0.00014264 68.144 68.234 0.46387 597.33 0.0016741 68.086 68.172 0.46358 1.4132 2.1848 1256.1 -0.0056617 232.48 0.13781 1.2754 0.78408 468.60 508.50 2.4972 1.1540 1.3631 214.53 0.55564 5.8998 0.010318
-55.625 7.7648 0.00014534 70.329 70.425 0.47394 596.22 0.0016772 70.271 70.361 0.47364 1.4153 2.1887 1249.5 -0.0056279 229.69 0.13721 1.3369 0.74802 469.66 509.71 2.4934 1.1582 1.3681 214.84 0.54875 5.9263 0.010402
-54.625 8.1652 0.00014787 72.519 72.619 0.48398 595.10 0.0016804 72.460 72.554 0.48368 1.4174 2.1927 1242.9 -0.0055937 226.96 0.13661 1.4006 0.71396 470.72 510.91 2.4897 1.1624 1.3731 215.14 0.54199 5.9527 0.010486
-53.625 8.5819 0.00015021 74.712 74.818 0.49399 593.98 0.0016836 74.652 74.752 0.49369 1.4196 2.1967 1236.3 -0.0055589 224.27 0.13601 1.4667 0.68178 471.77 512.11 2.4860 1.1667 1.3782 215.43 0.53535 5.9792 0.010571
-52.625 9.0151 0.00015233 76.909 77.020 0.50398 592.86 0.0016867 76.849 76.954 0.50368 1.4218 2.2007 1229.8 -0.0055237 221.63 0.13541 1.5353 0.65136 472.83 513.32 2.4824 1.1710 1.3834 215.72 0.52882 6.0056 0.010656
-51.625 9.4655 0.00015423 79.110 79.227 0.51394 591.73 0.0016900 79.049 79.159 0.51363 1.4240 2.2048 1223.2 -0.0054880 219.04 0.13482 1.6062 0.62258 473.89 514.52 2.4789 1.1752 1.3886 216.00 0.52241 6.0320 0.010741
-50.625 9.9335 0.00015587 81.315 81.437 0.52387 590.60 0.0016932 81.253 81.369 0.52356 1.4262 2.2089 1216.6 -0.0054519 216.48 0.13422 1.6797 0.59534 474.95 515.73 2.4755 1.1796 1.3938 216.28 0.51612 6.0584 0.010827
-49.625 10.419 0.00015723 83.523 83.652 0.53377 589.47 0.0016964 83.462 83.584 0.53347 1.4285 2.2131 1210.1 -0.0054152 213.98 0.13363 1.7558 0.56954 476.01 516.93 2.4722 1.1839 1.3991 216.55 0.50994 6.0848 0.010913
-48.625 10.924 0.00015828 85.736 85.871 0.54365 588.34 0.0016997 85.674 85.802 0.54334 1.4308 2.2173 1203.5 -0.0053780 211.51 0.13303 1.8345 0.54510 477.07 518.13 2.4689 1.1883 1.4044 216.82 0.50387 6.1112 0.010999
-47.625 11.448 0.00015901 87.953 88.094 0.55350 587.20 0.0017030 87.891 88.025 0.55319 1.4331 2.2216 1196.9 -0.0053403 209.08 0.13244 1.9159 0.52194 478.14 519.33 2.4657 1.1927 1.4098 217.08 0.49792 6.1375 0.011085
-46.625 11.991 0.00015937 90.173 90.321 0.56332 586.06 0.0017063 90.111 90.252 0.56302 1.4354 2.2259 1190.4 -0.0053020 206.69 0.13185 2.0001 0.49997 479.20 520.53 2.4625 1.1971 1.4153 217.33 0.49207 6.1639 0.011172
-45.625 12.554 0.00015935 92.398 92.553 0.57312 584.92 0.0017096 92.336 92.484 0.57282 1.4378 2.2303 1183.8 -0.0052633 204.34 0.13126 2.0872 0.47912 480.27 521.74 2.4594 1.2015 1.4207 217.58 0.48633 6.1902 0.011259
-44.625 13.137 0.00015891 94.627 94.788 0.58290 583.77 0.0017130 94.565 94.720 0.58260 1.4402 2.2347 1177.3 -0.0052240 202.03 0.13067 2.1771 0.45933 481.33 522.94 2.4564 1.2060 1.4263 217.82 0.48069 6.2165 0.011347
-43.625 13.741 0.00015803 96.860 97.029 0.59265 582.62 0.0017164 96.799 96.961 0.59235 1.4426 2.2392 1170.7 -0.0051841 199.75 0.13008 2.2700 0.44053 482.40 524.14 2.4535 1.2104 1.4319 218.05 0.47516 6.2429 0.011435
-42.625 14.367 0.00015665 99.097 99.273 0.60237 581.47 0.0017198 99.036 99.207 0.60208 1.4450 2.2437 1164.2 -0.0051437 197.51 0.12949 2.3659 0.42267 483.46 525.33 2.4506 1.2149 1.4375 218.28 0.46973 6.2692 0.011523
-41.625 15.015 0.00015477 101.34 101.52 0.61207 580.32 0.0017232 101.28 101.46 0.61179 1.4475 2.2483 1157.7 -0.0051027 195.30 0.12891 2.4649 0.40569 484.53 526.53 2.4478 1.2195 1.4432 218.50 0.46440 6.2955 0.011612
-40.625 15.686 0.00015233 103.58 103.78 0.62175 579.16 0.0017266 103.52 103.71 0.62147 1.4500 2.2529 1151.1 -0.0050611 193.13 0.12832 2.5671 0.38954 485.60 527.73 2.4450 1.2240 1.4489 218.72 0.45917 6.3218 0.011701
-39.625 16.380 0.00014930 105.83 106.03 0.63140 578.00 0.0017301 105.78 105.97 0.63113 1.4525 2.2576 1144.6 -0.0050189 190.99 0.12774 2.6725 0.37418 486.67 528.93 2.4423 1.2286 1.4547 218.93 0.45403 6.3481 0.011790
-38.625 17.097 0.00014564 108.09 108.30 0.64103 576.83 0.0017336 108.03 108.24 0.64077 1.4550 2.2623 1138.0 -0.0049761 188.88 0.12716 2.7813 0.35955 487.74 530.12 2.4397 1.2332 1.4606 219.13 0.44900 6.3744 0.011880
-37.625 17.838 0.00014131 110.34 110.56 0.65064 575.66 0.0017371 110.29 110.51 0.65039 1.4576 2.2671 1131.5 -0.0049327 186.81 0.12658 2.8934 0.34562 488.81 531.32 2.4371 1.2378 1.4665 219.33 0.44405 6.4007 0.011970
-36.625 18.604 0.00013626 112.61 112.84 0.66023 574.49 0.0017407 112.56 112.78 0.65999 1.4602 2.2719 1125.0 -0.0048887 184.76 0.12600 3.0089 0.33235 489.88 532.51 2.4346 1.2424 1.4724 219.52 0.43920 6.4270 0.012060
-35.625 19.395 0.00013047 114.87 115.11 0.66979 573.32 0.0017442 114.83 115.06 0.66956 1.4628 2.2768 1118.5 -0.0048440 182.75 0.12542 3.1280 0.31969 490.95 533.70 2.4321 1.2471 1.4784 219.70 0.43444 6.4533 0.012151
-34.625 20.212 0.00012386 117.15 117.39 0.67933 572.14 0.0017478 117.10 117.34 0.67912 1.4654 2.2818 1111.9 -0.0047987 180.76 0.12485 3.2506 0.30763 492.02 534.89 2.4297 1.2517 1.4845 219.88 0.42977 6.4797 0.012243
-33.625 21.056 0.00011641 119.42 119.68 0.68886 570.96 0.0017514 119.38 119.63 0.68865 1.4681 2.2868 1105.4 -0.0047527 178.80 0.12427 3.3770 0.29612 493.09 536.08 2.4273 1.2564 1.4906 220.05 0.42519 6.5060 0.012334
-32.625 21.926 0.00010806 121.70 121.97 0.69836 569.77 0.0017551 121.66 121.93 0.69817 1.4708 2.2918 1098.9 -0.0047061 176.87 0.12370 3.5071 0.28514 494.17 537.27 2.4250 1.2611 1.4968 220.21 0.42070 6.5323 0.012426
-31.625 22.823 9.8752e-05 123.99 124.27 0.70784 568.58 0.0017588 123.95 124.23 0.70767 1.4735 2.2970 1092.3 -0.0046587 174.97 0.12313 3.6410 0.27465 495.24 538.46 2.4227 1.2659 1.5031 220.36 0.41629 6.5587 0.012519
-30.625 23.749 8.8439e-05 126.28 126.57 0.71729 567.39 0.0017625 126.24 126.53 0.71714 1.4762 2.3021 1085.8 -0.0046107 173.09 0.12256 3.7787 0.26464 496.31 539.64 2.4205 1.2706 1.5094 220.51 0.41196 6.5850 0.012612
-29.625 24.703 7.7064e-05 128.57 128.87 0.72673 566.19 0.0017662 128.54 128.84 0.72660 1.4790 2.3074 1079.3 -0.0045619 171.24 0.12200 3.9205 0.25507 497.38 540.83 2.4184 1.2754 1.5157 220.65 0.40772 6.6114 0.012706
-28.625 25.687 6.4569e-05 130.87 131.18 0.73615 564.99 0.0017699 130.84 131.16 0.73604 1.4818 2.3126 1072.8 -0.0045124 169.42 0.12143 4.0663 0.24592 498.46 542.01 2.4162 1.2802 1.5222 220.79 0.40356 6.6378 0.012800
-27.625 26.700 5.0891e-05 133.17 133.50 0.74555 563.78 0.0017737 133.15 133.48 0.74547 1.4846 2.3180 1066.2 -0.0044621 167.62 0.12087 4.2163 0.23717 499.53 543.19 2.4142 1.2850 1.5286 220.91 0.39947 6.6642 0.012894
-26.625 27.743 3.5969e-05 135.48 135.82 0.75493 562.57 0.0017775 135.47 135.81 0.75487 1.4874 2.3234 1059.7 -0.0044111 165.84 0.12031 4.3705 0.22881 500.60 544.37 2.4122 1.2899 1.5352 221.03 0.39547 6.6906 0.012989
-25.625 28.817 1.9736e-05 137.79 138.15 0.76429 561.36 0.0017814 137.78 138.14 0.76426 1.4902 2.3289 1053.2 -0.0043593 164.09 0.11975 4.5290 0.22080 501.68 545.55 2.4102 1.2947 1.5418 221.14 0.39154 6.7171 0.013084
-24.625 29.923 2.1249e-06 140.11 140.48 0.77363 560.14 0.0017853 140.11 140.48 0.77363 1.4931 2.3344 1046.7 -0.0043067 162.36 0.11919 4.6918 0.21314 502.75 546.72 2.4083 1.2996 1.5485 221.25 0.38768 6.7436 0.013180
-23.625 140.58 undefined 141.70 143.43 0.78002 560.00 0.0017857 141.70 143.43 0.78002 1.4966 2.3338 1048.4 -0.0043261 162.10 0.11922 560.00 0.0017857 141.70 143.43 0.78002 1.4966 2.3338 1048.4 -0.0043261 162.10 0.11922
-22.625 265.43 undefined 143.20 146.46 0.78601 560.00 0.0017857 143.20 146.46 0.78601 1.5002 2.3326 1051.1 -0.0043543 162.04 0.11934 560.00 0.0017857 143.20 146.46 0.78601 1.5002 2.3326 1051.1 -0.0043543 162.04 0.11934
-21.625 390.17 undefined 144.70 149.50 0.79200 560.00 0.0017857 144.70 149.50 0.79200 1.5038 2.3314 1053.8 -0.0043818 161.98 0.11945 560.00 0.0017857 144.70 149.50 0.79200 1.5038 2.3314 1053.8 -0.0043818 161.98 0.11945
-20.625 514.81 undefined 146.20 152.54 0.79797 560.00 0.0017857 146.20 152.54 0.79797 1.5075 2.3303 1056.5 -0.0044086 161.92 0.11957 560.00 0.0017857 146.20 152.54 0.79797 1.5075 2.3303 1056.5 -0.0044086 161.92 0.11957
-19.625 639.35 undefined 147.71 155.59 0.80394 560.00 0.0017857 147.71 155.59 0.80394 1.5111 2.3294 1059.2 -0.0044348 161.86 0.11968 560.00 0.0017857 147.71 155.59 0.80394 1.5111 2.3294 1059.2 -0.0044348 161.86 0.11968
-18.625 763.78 undefined 149.23 158.63 0.80989 560.00 0.0017857 149.23 158.63 0.80989 1.5148 2.3285 1061.9 -0.0044603 161.81 0.11980 560.00 0.0017857 149.23 158.63 0.80989 1.5148 2.3285 1061.9 -0.0044603 161.81 0.11980
-17.625 888.11 undefined 150.74 161.68 0.81584 560.00 0.0017857 150.74 161.68 0.81584 1.5185 2.3277 1064.5 -0.0044853 161.75 0.11991 560.00 0.0017857 150.74 161.68 0.81584 1.5185 2.3277 1064.5 -0.0044853 161.75 0.11991
-16.625 1012.3 undefined 152.26 164.73 0.82178 560.00 0.0017857 152.26 164.73 0.82178 1.5222 2.3270 1067.1 -0.0045096 161.69 0.12003 560.00 0.0017857 152.26 164.73 0.82178 1.5222 2.3270 1067.1 -0.0045096 161.69 0.12003
-15.625 1136.4 undefined 153.79 167.78 0.82771 560.00 0.0017857 153.79 167.78 0.82771 1.5259 2.3264 1069.7 -0.0045333 161.63 0.12014 560.00 0.0017857 153.79 167.78 0.82771 1.5259 2.3264 1069.7 -0.0045333 161.63 0.12014
-14.625 1260.5 undefined 155.32 170.83 0.83363 560.00 0.0017857 155.32 170.83 0.83363 1.5296 2.3259 1072.3 -0.0045564 161.58 0.12026 560.00 0.0017857 155.32 170.83 0.83363 1.5296 2.3259 1072.3 -0.0045564 161.58 0.12026
-13.625 1384.4 undefined 156.85 173.89 0.83954 560.00 0.0017857 156.85 173.89 0.83954 1.5333 2.3255 1074.8 -0.0045790 161.52 0.12038 560.00 0.0017857 156.85 173.89 0.83954 1.5333 2.3255 1074.8 -0.0045790 161.52 0.12038
-12.625 1508.1 undefined 158.38 176.95 0.84544 560.00 0.0017857 158.38 176.95 0.84544 1.5371 2.3252 1077.4 -0.0046011 161.47 0.12049 560.00 0.0017857 158.38 176.95 0.84544 1.5371 2.3252 1077.4 -0.0046011 161.47 0.12049
-11.625 1631.8 undefined 159.92 180.01 0.85134 560.00 0.0017857 159.92 180.01 0.85134 1.5409 2.3249 1079.9 -0.0046225 161.42 0.12061 560.00 0.0017857 159.92 180.01 0.85134 1.5409 2.3249 1079.9 -0.0046225 161.42 0.12061
-10.625 1755.4 undefined 161.46 183.08 0.85723 560.00 0.0017857 161.46 183.08 0.85723 1.5447 2.3247 1082.3 -0.0046435 161.36 0.12073 560.00 0.0017857 161.46 183.08 0.85723 1.5447 2.3247 1082.3 -0.0046435 161.36 0.12073
-9.6250 1878.9 undefined 163.01 186.14 0.86311 560.00 0.0017857 163.01 186.14 0.86311 1.5485 2.3246 1084.8 -0.0046639 161.31 0.12085 560.00 0.0017857 163.01 186.14 0.86311 1.5485 2.3246 1084.8 -0.0046639 161.31 0.12085
-8.6250 2002.2 undefined 164.56 189.21 0.86898 560.00 0.0017857 164.56 189.21 0.86898 1.5523 2.3245 1087.3 -0.0046839 161.26 0.12096 560.00 0.0017857 164.56 189.21 0.86898 1.5523 2.3245 1087.3 -0.0046839 161.26 0.12096
-7.6250 2125.5 undefined 166.11 192.28 0.87484 560.00 0.0017857 166.11 192.28 0.87484 1.5561 2.3246 1089.7 -0.0047033 161.21 0.12108 560.00 0.0017857 166.11 192.28 0.87484 1.5561 2.3246 1089.7 -0.0047033 161.21 0.12108
-6.6250 2248.6 undefined 167.67 195.36 0.88070 560.00 0.0017857 167.67 195.36 0.88070 1.5600 2.3247 1092.1 -0.0047223 161.16 0.12120 560.00 0.0017857 167.67 195.36 0.88070 1.5600 2.3247 1092.1 -0.0047223 161.16 0.12120
-5.6250 2371.6 undefined 169.23 198.43 0.88655 560.00 0.0017857 169.23 198.43 0.88655 1.5638 2.3249 1094.5 -0.0047408 161.11 0.12132 560.00 0.0017857 169.23 198.43 0.88655 1.5638 2.3249 1094.5 -0.0047408 161.11 0.12132
-4.6250 2494.5 undefined 170.80 201.51 0.89239 560.00 0.0017857 170.80 201.51 0.89239 1.5677 2.3251 1096.9 -0.0047589 161.06 0.12144 560.00 0.0017857 170.80 201.51 0.89239 1.5677 2.3251 1096.9 -0.0047589 161.06 0.12144
-3.6250 2617.4 undefined 172.37 204.60 0.89823 560.00 0.0017857 172.37 204.60 0.89823 1.5716 2.3254 1099.2 -0.0047765 161.01 0.12156 560.00 0.0017857 172.37 204.60 0.89823 1.5716 2.3254 1099.2 -0.0047765 161.01 0.12156
-2.6250 2740.0 undefined 173.94 207.68 0.90405 560.00 0.0017857 173.94 207.68 0.90405 1.5755 2.3258 1101.5 -0.0047936 160.96 0.12168 560.00 0.0017857 173.94 207.68 0.90405 1.5755 2.3258 1101.5 -0.0047936 160.96 0.12168
-1.6250 2862.6 undefined 175.52 210.77 0.90987 560.00 0.0017857 175.52 210.77 0.90987 1.5794 2.3262 1103.9 -0.0048103 160.92 0.12180 560.00 0.0017857 175.52 210.77 0.90987 1.5794 2.3262 1103.9 -0.0048103 160.92 0.12180
-0.62500 2985.1 undefined 177.10 213.86 0.91569 560.00 0.0017857 177.10 213.86 0.91569 1.5834 2.3267 1106.2 -0.0048266 160.87 0.12192 560.00 0.0017857 177.10 213.86 0.91569 1.5834 2.3267 1106.2 -0.0048266 160.87 0.12192
0.37500 3107.4 undefined 178.69 216.95 0.92149 560.00 0.0017857 178.69 216.95 0.92149 1.5873 2.3273 1108.5 -0.0048425 160.83 0.12205 560.00 0.0017857 178.69 216.95 0.92149 1.5873 2.3273 1108.5 -0.0048425 160.83 0.12205
1.3750 3229.7 undefined 180.28 220.04 0.92729 560.00 0.0017857 180.28 220.04 0.92729 1.5913 2.3279 1110.7 -0.0048580 160.78 0.12217 560.00 0.0017857 180.28 220.04 0.92729 1.5913 2.3279 1110.7 -0.0048580 160.78 0.12217
2.3750 3351.8 undefined 181.87 223.14 0.93309 560.00 0.0017857 181.87 223.14 0.93309 1.5952 2.3286 1113.0 -0.0048731 160.74 0.12229 560.00 0.0017857 181.87 223.14 0.93309 1.5952 2.3286 1113.0 -0.0048731 160.74 0.12229
3.3750 3473.8 undefined 183.47 226.24 0.93887 560.00 0.0017857 183.47 226.24 0.93887 1.5992 2.3293 1115.2 -0.0048879 160.69 0.12241 560.00 0.0017857 183.47 226.24 0.93887 1.5992 2.3293 1115.2 -0.0048879 160.69 0.12241
4.3750 3595.7 undefined 185.07 229.34 0.94465 560.00 0.0017857 185.07 229.34 0.94465 1.6032 2.3301 1117.4 -0.0049022 160.65 0.12254 560.00 0.0017857 185.07 229.34 0.94465 1.6032 2.3301 1117.4 -0.0049022 160.65 0.12254
5.3750 3717.5 undefined 186.67 232.44 0.95043 560.00 0.0017857 186.67 232.44 0.95043 1.6072 2.3310 1119.7 -0.0049162 160.61 0.12266 560.00 0.0017857 186.67 232.44 0.95043 1.6072 2.3310 1119.7 -0.0049162 160.61 0.12266
6.3750 3839.2 undefined 188.28 235.55 0.95619 560.00 0.0017857 188.28 235.55 0.95619 1.6113 2.3319 1121.8 -0.0049298 160.56 0.12278 560.00 0.0017857 188.28 235.55 0.95619 1.6113 2.3319 1121.8 -0.0049298 160.56 0.12278
7.3750 3960.7 undefined 189.90 238.66 0.96196 560.00 0.0017857 189.90 238.66 0.96196 1.6153 2.3328 1124.0 -0.0049430 160.52 0.12291 560.00 0.0017857 189.90 238.66 0.96196 1.6153 2.3328 1124.0 -0.0049430 160.52 0.12291
8.3750 4082.1 undefined 191.51 241.77 0.96771 560.00 0.0017857 191.51 241.77 0.96771 1.6193 2.3338 1126.2 -0.0049559 160.48 0.12303 560.00 0.0017857 191.51 241.77 0.96771 1.6193 2.3338 1126.2 -0.0049559 160.48 0.12303
9.3750 4203.5 undefined 193.14 244.89 0.97346 560.00 0.0017857 193.14 244.89 0.97346 1.6234 2.3349 1128.3 -0.0049685 160.44 0.12315 560.00 0.0017857 193.14 244.89 0.97346 1.6234 2.3349 1128.3 -0.0049685 160.44 0.12315
10.375 4324.7 undefined 194.76 248.01 0.97920 560.00 0.0017857 194.76 248.01 0.97920 1.6275 2.3360 1130.5 -0.0049808 160.40 0.12328 560.00 0.0017857 194.76 248.01 0.97920 1.6275 2.3360 1130.5 -0.0049808 160.40 0.12328
11.375 4445.8 undefined 196.39 251.13 0.98494 560.00 0.0017857 196.39 251.13 0.98494 1.6316 2.3371 1132.6 -0.0049927 160.36 0.12340 560.00 0.0017857 196.39 251.13 0.98494 1.6316 2.3371 1132.6 -0.0049927 160.36 0.12340
12.375 4566.8 undefined 198.02 254.25 0.99067 560.00 0.0017857 198.02 254.25 0.99067 1.6357 2.3383 1134.7 -0.0050043 160.32 0.12353 560.00 0.0017857 198.02 254.25 0.99067 1.6357 2.3383 1134.7 -0.0050043 160.32 0.12353
13.375 4687.6 undefined 199.66 257.38 0.99640 560.00 0.0017857 199.66 257.38 0.99640 1.6398 2.3396 1136.8 -0.0050156 160.28 0.12365 560.00 0.0017857 199.66 257.38 0.99640 1.6398 2.3396 1136.8 -0.0050156 160.28 0.12365
14.375 4808.4 undefined 201.30 260.50 1.0021 560.00 0.0017857 201.30 260.50 1.0021 1.6439 2.3409 1138.9 -0.0050265 160.24 0.12378 560.00 0.0017857 201.30 260.50 1.0021 1.6439 2.3409 1138.9 -0.0050265 160.24 0.12378
15.375 4929.0 undefined 202.95 263.64 1.0078 560.00 0.0017857 202.95 263.64 1.0078 1.6480 2.3422 1140.9 -0.0050372 160.21 0.12391 560.00 0.0017857 202.95 263.64 1.0078 1.6480 2.3422 1140.9 -0.0050372 160.21 0.12391
16.375 5049.5 undefined 204.60 266.77 1.0135 560.00 0.0017857 204.60 266.77 1.0135 1.6521 2.3436 1143.0 -0.0050476 160.17 0.12403 560.00 0.0017857 204.60 266.77 1.0135 1.6521 2.3436 1143.0 -0.0050476 160.17 0.12403
17.375 5169.9 undefined 206.25 269.91 1.0192 560.00 0.0017857 206.25 269.91 1.0192 1.6563 2.3450 1145.0 -0.0050577 160.13 0.12416 560.00 0.0017857 206.25 269.91 1.0192 1.6563 2.3450 1145.0 -0.0050577 160.13 0.12416
18.375 5290.2 undefined 207.91 273.05 1.0249 560.00 0.0017857 207.91 273.05 1.0249 1.6604 2.3465 1147.1 -0.0050675 160.10 0.12429 560.00 0.0017857 207.91 273.05 1.0249 1.6604 2.3465 1147.1 -0.0050675 160.10 0.12429
19.375 5410.4 undefined 209.57 276.19 1.0306 560.00 0.0017857 209.57 276.19 1.0306 1.6646 2.3480 1149.1 -0.0050771 160.06 0.12441 560.00 0.0017857 209.57 276.19 1.0306 1.6646 2.3480 1149.1 -0.0050771 160.06 0.12441
20.375 5530.4 undefined 211.24 279.33 1.0363 560.00 0.0017857 211.24 279.33 1.0363 1.6688 2.3495 1151.1 -0.0050863 160.03 0.12454 560.00 0.0017857 211.24 279.33 1.0363 1.6688 2.3495 1151.1 -0.0050863 160.03 0.12454
21.375 5650.4 undefined 212.91 282.48 1.0420 560.00 0.0017857 212.91 282.48 1.0420 1.6730 2.3511 1153.1 -0.0050953 159.99 0.12467 560.00 0.0017857 212.91 282.48 1.0420 1.6730 2.3511 1153.1 -0.0050953 159.99 0.12467
22.375 5770.2 undefined 214.59 285.63 1.0477 560.00 0.0017857 214.59 285.63 1.0477 1.6772 2.3527 1155.1 -0.0051041 159.96 0.12480 560.00 0.0017857 214.59 285.63 1.0477 1.6772 2.3527 1155.1 -0.0051041 159.96 0.12480
23.375 5889.9 undefined 216.27 288.78 1.0534 560.00 0.0017857 216.27 288.78 1.0534 1.6814 2.3544 1157.1 -0.0051125 159.92 0.12492 560.00 0.0017857 216.27 288.78 1.0534 1.6814 2.3544 1157.1 -0.0051125 159.92 0.12492
24.375 6009.5 undefined 217.95 291.94 1.0590 560.00 0.0017857 217.95 291.94 1.0590 1.6856 2.3561 1159.0 -0.0051208 159.89 0.12505 560.00 0.0017857 217.95 291.94 1.0590 1.6856 2.3561 1159.0 -0.0051208 159.89 0.12505
25.375 6128.9 undefined 219.64 295.10 1.0647 560.00 0.0017857 219.64 295.10 1.0647 1.6898 2.3578 1161.0 -0.0051288 159.86 0.12518 560.00 0.0017857 219.64 295.10 1.0647 1.6898 2.3578 1161.0 -0.0051288 159.86 0.12518
26.375 6248.3 undefined 221.33 298.26 1.0703 560.00 0.0017857 221.33 298.26 1.0703 1.6940 2.3596 1162.9 -0.0051365 159.83 0.12531 560.00 0.0017857 221.33 298.26 1.0703 1.6940 2.3596 1162.9 -0.0051365 159.83 0.12531
27.375 6367.5 undefined 223.03 301.42 1.0760 560.00 0.0017857 223.03 301.42 1.0760 1.6983 2.3614 1164.9 -0.0051440 159.79 0.12544 560.00 0.0017857 223.03 301.42 1.0760 1.6983 2.3614 1164.9 -0.0051440 159.79 0.12544
28.375 6486.7 undefined 224.73 304.59 1.0816 560.00 0.0017857 224.73 304.59 1.0816 1.7025 2.3632 1166.8 -0.0051513 159.76 0.12557 560.00 0.0017857 224.73 304.59 1.0816 1.7025 2.3632 1166.8 -0.0051513 159.76 0.12557
29.375 6605.7 undefined 226.43 307.76 1.0873 560.00 0.0017857 226.43 307.76 1.0873 1.7067 2.3651 1168.7 -0.0051584 159.73 0.12570 560.00 0.0017857 226.43 307.76 1.0873 1.7067 2.3651 1168.7 -0.0051584 159.73 0.12570
30.375 6724.6 undefined 228.14 310.93 1.0929 560.00 0.0017857 228.14 310.93 1.0929 1.7110 2.3670 1170.6 -0.0051652 159.70 0.12583 560.00 0.0017857 228.14 310.93 1.0929 1.7110 2.3670 1170.6 -0.0051652 159.70 0.12583
31.375 6843.4 undefined 229.85 314.11 1.0986 560.00 0.0017857 229.85 314.11 1.0986 1.7153 2.3689 1172.5 -0.0051718 159.67 0.12596 560.00 0.0017857 229.85 314.11 1.0986 1.7153 2.3689 1172.5 -0.0051718 159.67 0.12596
32.375 6962.0 undefined 231.57 317.29 1.1042 560.00 0.0017857 231.57 317.29 1.1042 1.7195 2.3709 1174.4 -0.0051782 159.64 0.12609 560.00 0.0017857 231.57 317.29 1.1042 1.7195 2.3709 1174.4 -0.0051782 159.64 0.12609
33.375 7080.6 undefined 233.29 320.47 1.1098 560.00 0.0017857 233.29 320.47 1.1098 1.7238 2.3729 1176.3 -0.0051844 159.61 0.12622 560.00 0.0017857 233.29 320.47 1.1098 1.7238 2.3729 1176.3 -0.0051844 159.61 0.12622
34.375 7199.0 undefined 235.02 323.65 1.1154 560.00 0.0017857 235.02 323.65 1.1154 1.7281 2.3749 1178.1 -0.0051904 159.58 0.12636 560.00 0.0017857 235.02 323.65 1.1154 1.7281 2.3749 1178.1 -0.0051904 159.58 0.12636
35.375 7317.3 undefined 236.75 326.84 1.1211 560.00 0.0017857 236.75 326.84 1.1211 1.7324 2.3770 1180.0 -0.0051962 159.56 0.12649 560.00 0.0017857 236.75 326.84 1.1211 1.7324 2.3770 1180.0 -0.0051962 159.56 0.12649
36.375 7435.5 undefined 238.48 330.03 1.1267 560.00 0.0017857 238.48 330.03 1.1267 1.7367 2.3791 1181.8 -0.0052017 159.53 0.12662 560.00 0.0017857 238.48 330.03 1.1267 1.7367 2.3791 1181.8 -0.0052017 159.53 0.12662
37.375 7553.6 undefined 240.22 333.22 1.1323 560.00 0.0017857 240.22 333.22 1.1323 1.7410 2.3812 1183.7 -0.0052071 159.50 0.12675 560.00 0.0017857 240.22 333.22 1.1323 1.7410 2.3812 1183.7 -0.0052071 159.50 0.12675
38.375 7671.6 undefined 241.96 336.42 1.1379 560.00 0.0017857 241.96 336.42 1.1379 1.7453 2.3833 1185.5 -0.0052123 159.47 0.12689 560.00 0.0017857 241.96 336.42 1.1379 1.7453 2.3833 1185.5 -0.0052123 159.47 0.12689
39.375 7789.5 undefined 243.71 339.62 1.1435 560.00 0.0017857 243.71 339.62 1.1435 1.7496 2.3855 1187.3 -0.0052173 159.45 0.12702 560.00 0.0017857 243.71 339.62 1.1435 1.7496 2.3855 1187.3 -0.0052173 159.45 0.12702
40.375 7907.2 undefined 245.46 342.82 1.1491 560.00 0.0017857 245.46 342.82 1.1491 1.7539 2.3877 1189.2 -0.0052222 159.42 0.12715 560.00 0.0017857 245.46 342.82 1.1491 1.7539 2.3877 1189.2 -0.0052222 159.42 0.12715
41.375 8024.9 undefined 247.22 346.02 1.1547 560.00 0.0017857 247.22 346.02 1.1547 1.7583 2.3899 1191.0 -0.0052268 159.39 0.12729 560.00 0.0017857 247.22 346.02 1.1547 1.7583 2.3899 1191.0 -0.0052268 159.39 0.12729
42.375 8142.4 undefined 248.98 349.23 1.1603 560.00 0.0017857 248.98 349.23 1.1603 1.7626 2.3922 1192.8 -0.0052313 159.37 0.12742 560.00 0.0017857 248.98 349.23 1.1603 1.7626 2.3922 1192.8 -0.0052313 159.37 0.12742
43.375 8259.8 undefined 250.75 352.44 1.1658 560.00 0.0017857 250.75 352.44 1.1658 1.7669 2.3945 1194.6 -0.0052356 159.34 0.12755 560.00 0.0017857 250.75 352.44 1.1658 1.7669 2.3945 1194.6 -0.0052356 159.34 0.12755
44.375 8377.1 undefined 252.51 355.65 1.1714 560.00 0.0017857 252.51 355.65 1.1714 1.7713 2.3968 1196.3 -0.0052397 159.32 0.12769 560.00 0.0017857 252.51 355.65 1.1714 1.7713 2.3968 1196.3 -0.0052397 159.32 0.12769
45.375 8494.3 undefined 254.29 358.87 1.1770 560.00 0.0017857 254.29 358.87 1.1770 1.7756 2.3991 1198.1 -0.0052436 159.29 0.12782 560.00 0.0017857 254.29 358.87 1.1770 1.7756 2.3991 1198.1 -0.0052436 159.29 0.12782
46.375 8611.3 undefined 256.07 362.09 1.1826 560.00 0.0017857 256.07 362.09 1.1826 1.7799 2.4015 1199.9 -0.0052474 159.27 0.12796 560.00 0.0017857 256.07 362.09 1.1826 1.7799 2.4015 1199.9 -0.0052474 159.27 0.12796
47.375 8728.3 undefined 257.85 365.31 1.1881 560.00 0.0017857 257.85 365.31 1.1881 1.7843 2.4038 1201.7 -0.0052511 159.25 0.12809 560.00 0.0017857 257.85 365.31 1.1881 1.7843 2.4038 1201.7 -0.0052511 159.25 0.12809
48.375 8845.2 undefined 259.63 368.54 1.1937 560.00 0.0017857 259.63 368.54 1.1937 1.7886 2.4062 1203.4 -0.0052545 159.22 0.12823 560.00 0.0017857 259.63 368.54 1.1937 1.7886 2.4062 1203.4 -0.0052545 159.22 0.12823
49.375 8961.9 undefined 261.42 371.76 1.1993 560.00 0.0017857 261.42 371.76 1.1993 1.7930 2.4087 1205.2 -0.0052579 159.20 0.12837 560.00 0.0017857 261.42 371.76 1.1993 1.7930 2.4087 1205.2 -0.0052579 159.20 0.12837
50.375 9078.5 undefined 263.22 375.00 1.2048 560.00 0.0017857 263.22 375.00 1.2048 1.7974 2.4111 1206.9 -0.0052610 159.18 0.12850 560.00 0.0017857 263.22 375.00 1.2048 1.7974 2.4111 1206.9 -0.0052610 159.18 0.12850
51.375 9195.0 undefined 265.02 378.23 1.2104 560.00 0.0017857 265.02 378.23 1.2104 1.8017 2.4136 1208.6 -0.0052640 159.15 0.12864 560.00 0.0017857 265.02 378.23 1.2104 1.8017 2.4136 1208.6 -0.0052640 159.15 0.12864
52.375 9311.4 undefined 266.82 381.47 1.2159 560.00 0.0017857 266.82 381.47 1.2159 1.8061 2.4161 1210.4 -0.0052669 159.13 0.12878 560.00 0.0017857 266.82 381.47 1.2159 1.8061 2.4161 1210.4 -0.0052669 159.13 0.12878
53.375 9427.7 undefined 268.63 384.71 1.2215 560.00 0.0017857 268.63 384.71 1.2215 1.8105 2.4186 1212.1 -0.0052697 159.11 0.12891 560.00 0.0017857 268.63 384.71 1.2215 1.8105 2.4186 1212.1 -0.0052697 159.11 0.12891
54.375 9543.9 undefined 270.44 387.95 1.2270 560.00 0.0017857 270.44 387.95 1.2270 1.8148 2.4211 1213.8 -0.0052722 159.09 0.12905 560.00 0.0017857 270.44 387.95 1.2270 1.8148 2.4211 1213.8 -0.0052722 159.09 0.12905
55.375 9660.0 undefined 272.26 391.20 1.2326 560.00 0.0017857 272.26 391.20 1.2326 1.8192 2.4236 1215.5 -0.0052747 159.07 0.12919 560.00 0.0017857 272.26 391.20 1.2326 1.8192 2.4236 1215.5 -0.0052747 159.07 0.12919
56.375 9775.9 undefined 274.08 394.44 1.2381 560.00 0.0017857 274.08 394.44 1.2381 1.8236 2.4262 1217.2 -0.0052770 159.05 0.12933 560.00 0.0017857 274.08 394.44 1.2381 1.8236 2.4262 1217.2 -0.0052770 159.05 0.12933
57.375 9891.8 undefined 275.91 397.70 1.2436 560.00 0.0017857 275.91 397.70 1.2436 1.8280 2.4288 1218.9 -0.0052792 159.03 0.12946 560.00 0.0017857 275.91 397.70 1.2436 1.8280 2.4288 1218.9 -0.0052792 159.03 0.12946
58.375 10008. undefined 277.74 400.95 1.2492 560.00 0.0017857 277.74 400.95 1.2492 1.8324 2.4314 1220.6 -0.0052813 159.01 0.12960 560.00 0.0017857 277.74 400.95 1.2492 1.8324 2.4314 1220.6 -0.0052813 159.01 0.12960
59.375 10123. undefined 279.57 404.21 1.2547 560.00 0.0017857 279.57 404.21 1.2547 1.8367 2.4340 1222.3 -0.0052832 158.99 0.12974 560.00 0.0017857 279.57 404.21 1.2547 1.8367 2.4340 1222.3 -0.0052832 158.99 0.12974
60.375 10239. undefined 281.41 407.47 1.2602 560.00 0.0017857 281.41 407.47 1.2602 1.8411 2.4367 1223.9 -0.0052850 158.97 0.12988 560.00 0.0017857 281.41 407.47 1.2602 1.8411 2.4367 1223.9 -0.0052850 158.97 0.12988
61.375 10354. undefined 283.26 410.74 1.2657 560.00 0.0017857 283.26 410.74 1.2657 1.8455 2.4394 1225.6 -0.0052867 158.95 0.13002 560.00 0.0017857 283.26 410.74 1.2657 1.8455 2.4394 1225.6 -0.0052867 158.95 0.13002
62.375 10469. undefined 285.10 414.00 1.2712 560.00 0.0017857 285.10 414.00 1.2712 1.8499 2.4420 1227.3 -0.0052882 158.93 0.13016 560.00 0.0017857 285.10 414.00 1.2712 1.8499 2.4420 1227.3 -0.0052882 158.93 0.13016
63.375 10585. undefined 286.96 417.27 1.2768 560.00 0.0017857 286.96 417.27 1.2768 1.8543 2.4447 1228.9 -0.0052897 158.91 0.13030 560.00 0.0017857 286.96 417.27 1.2768 1.8543 2.4447 1228.9 -0.0052897 158.91 0.13030
64.375 10700. undefined 288.81 420.55 1.2823 560.00 0.0017857 288.81 420.55 1.2823 1.8587 2.4474 1230.6 -0.0052910 158.89 0.13044 560.00 0.0017857 288.81 420.55 1.2823 1.8587 2.4474 1230.6 -0.0052910 158.89 0.13044
65.375 10815. undefined 290.67 423.82 1.2878 560.00 0.0017857 290.67 423.82 1.2878 1.8631 2.4502 1232.2 -0.0052922 158.88 0.13058 560.00 0.0017857 290.67 423.82 1.2878 1.8631 2.4502 1232.2 -0.0052922 158.88 0.13058
66.375 10930. undefined 292.54 427.10 1.2933 560.00 0.0017857 292.54 427.10 1.2933 1.8675 2.4529 1233.9 -0.0052934 158.86 0.13072 560.00 0.0017857 292.54 427.10 1.2933 1.8675 2.4529 1233.9 -0.0052934 158.86 0.13072
67.375 11044. undefined 294.41 430.39 1.2988 560.00 0.0017857 294.41 430.39 1.2988 1.8719 2.4557 1235.5 -0.0052944 158.84 0.13086 560.00 0.0017857 294.41 430.39 1.2988 1.8719 2.4557 1235.5 -0.0052944 158.84 0.13086
68.375 11159. undefined 296.28 433.67 1.3043 560.00 0.0017857 296.28 433.67 1.3043 1.8763 2.4585 1237.1 -0.0052952 158.82 0.13101 560.00 0.0017857 296.28 433.67 1.3043 1.8763 2.4585 1237.1 -0.0052952 158.82 0.13101
69.375 11274. undefined 298.16 436.96 1.3098 560.00 0.0017857 298.16 436.96 1.3098 1.8807 2.4613 1238.8 -0.0052960 158.81 0.13115 560.00 0.0017857 298.16 436.96 1.3098 1.8807 2.4613 1238.8 -0.0052960 158.81 0.13115
70.375 11388. undefined 300.04 440.25 1.3152 560.00 0.0017857 300.04 440.25 1.3152 1.8851 2.4641 1240.4 -0.0052967 158.79 0.13129 560.00 0.0017857 300.04 440.25 1.3152 1.8851 2.4641 1240.4 -0.0052967 158.79 0.13129
71.375 11502. undefined 301.93 443.55 1.3207 560.00 0.0017857 301.93 443.55 1.3207 1.8895 2.4669 1242.0 -0.0052973 158.78 0.13143 560.00 0.0017857 301.93 443.55 1.3207 1.8895 2.4669 1242.0 -0.0052973 158.78 0.13143
72.375 11617. undefined 303.82 446.85 1.3262 560.00 0.0017857 303.82 446.85 1.3262 1.8939 2.4697 1243.6 -0.0052978 158.76 0.13157 560.00 0.0017857 303.82 446.85 1.3262 1.8939 2.4697 1243.6 -0.0052978 158.76 0.13157
73.375 11731. undefined 305.72 450.15 1.3317 560.00 0.0017857 305.72 450.15 1.3317 1.8983 2.4726 1245.2 -0.0052982 158.74 0.13172 560.00 0.0017857 305.72 450.15 1.3317 1.8983 2.4726 1245.2 -0.0052982 158.74 0.13172
74.375 11845. undefined 307.62 453.45 1.3372 560.00 0.0017857 307.62 453.45 1.3372 1.9027 2.4755 1246.8 -0.0052985 158.73 0.13186 560.00 0.0017857 307.62 453.45 1.3372 1.9027 2.4755 1246.8 -0.0052985 158.73 0.13186
75.375 11959. undefined 309.52 456.76 1.3426 560.00 0.0017857 309.52 456.76 1.3426 1.9071 2.4783 1248.4 -0.0052987 158.71 0.13200 560.00 0.0017857 309.52 456.76 1.3426 1.9071 2.4783 1248.4 -0.0052987 158.71 0.13200
76.375 12073. undefined 311.43 460.07 1.3481 560.00 0.0017857 311.43 460.07 1.3481 1.9115 2.4812 1250.0 -0.0052988 158.70 0.13215 560.00 0.0017857 311.43 460.07 1.3481 1.9115 2.4812 1250.0 -0.0052988 158.70 0.13215
77.375 12186. undefined 313.35 463.38 1.3536 560.00 0.0017857 313.35 463.38 1.3536 1.9159 2.4841 1251.6 -0.0052988 158.68 0.13229 560.00 0.0017857 313.35 463.38 1.3536 1.9159 2.4841 1251.6 -0.0052988 158.68 0.13229
78.375 12300. undefined 315.26 466.70 1.3590 560.00 0.0017857 315.26 466.70 1.3590 1.9203 2.4870 1253.2 -0.0052988 158.67 0.13244 560.00 0.0017857 315.26 466.70 1.3590 1.9203 2.4870 1253.2 -0.0052988 158.67 0.13244
79.375 12413. undefined 317.19 470.02 1.3645 560.00 0.0017857 317.19 470.02 1.3645 1.9247 2.4900 1254.7 -0.0052986 158.66 0.13258 560.00 0.0017857 317.19 470.02 1.3645 1.9247 2.4900 1254.7 -0.0052986 158.66 0.13258
80.375 12527. undefined 319.11 473.34 1.3700 560.00 0.0017857 319.11 473.34 1.3700 1.9291 2.4929 1256.3 -0.0052984 158.64 0.13273 560.00 0.0017857 319.11 473.34 1.3700 1.9291 2.4929 1256.3 -0.0052984 158.64 0.13273
81.375 12640. undefined 321.05 476.67 1.3754 560.00 0.0017857 321.05 476.67 1.3754 1.9335 2.4959 1257.9 -0.0052981 158.63 0.13287 560.00 0.0017857 321.05 476.67 1.3754 1.9335 2.4959 1257.9 -0.0052981 158.63 0.13287
82.375 12753. undefined 322.98 480.00 1.3809 560.00 0.0017857 322.98 480.00 1.3809 1.9379 2.4988 1259.4 -0.0052977 158.62 0.13302 560.00 0.0017857 322.98 480.00 1.3809 1.9379 2.4988 1259.4 -0.0052977 158.62 0.13302
83.375 12866. undefined 324.92 483.33 1.3863 560.00 0.0017857 324.92 483.33 1.3863 1.9423 2.5018 1261.0 -0.0052972 158.60 0.13316 560.00 0.0017857 324.92 483.33 1.3863 1.9423 2.5018 1261.0 -0.0052972 158.60 0.13316
84.375 12979. undefined 326.87 486.67 1.3918 560.00 0.0017857 326.87 486.67 1.3918 1.9467 2.5048 1262.5 -0.0052967 158.59 0.13331 560.00 0.0017857 326.87 486.67 1.3918 1.9467 2.5048 1262.5 -0.0052967 158.59 0.13331
85.375 13092. undefined 328.81 490.01 1.3972 560.00 0.0017857 328.81 490.01 1.3972 1.9511 2.5078 1264.1 -0.0052960 158.58 0.13346 560.00 0.0017857 328.81 490.01 1.3972 1.9511 2.5078 1264.1 -0.0052960 158.58 0.13346
86.375 13205. undefined 330.77 493.35 1.4026 560.00 0.0017857 330.77 493.35 1.4026 1.9554 2.5108 1265.6 -0.0052953 158.57 0.13360 560.00 0.0017857 330.77 493.35 1.4026 1.9554 2.5108 1265.6 -0.0052953 158.57 0.13360
87.375 13318. undefined 332.73 496.69 1.4081 560.00 0.0017857 332.73 496.69 1.4081 1.9598 2.5138 1267.1 -0.0052946 158.55 0.13375 560.00 0.0017857 332.73 496.69 1.4081 1.9598 2.5138 1267.1 -0.0052946 158.55 0.13375
88.375 13430. undefined 334.69 500.04 1.4135 560.00 0.0017857 334.69 500.04 1.4135 1.9642 2.5168 1268.7 -0.0052937 158.54 0.13390 560.00 0.0017857 334.69 500.04 1.4135 1.9642 2.5168 1268.7 -0.0052937 158.54 0.13390
89.375 13543. undefined 336.65 503.39 1.4190 560.00 0.0017857 336.65 503.39 1.4190 1.9686 2.5199 1270.2 -0.0052928 158.53 0.13405 560.00 0.0017857 336.65 503.39 1.4190 1.9686 2.5199 1270.2 -0.0052928 158.53 0.13405
90.375 13655. undefined 338.62 506.75 1.4244 560.00 0.0017857 338.62 506.75 1.4244 1.9730 2.5229 1271.7 -0.0052918 158.52 0.13419 560.00 0.0017857 338.62 506.75 1.4244 1.9730 2.5229 1271.7 -0.0052918 158.52 0.13419
91.375 13768. undefined 340.60 510.11 1.4298 560.00 0.0017857 340.60 510.11 1.4298 1.9774 2.5260 1273.2 -0.0052908 158.51 0.13434 560.00 0.0017857 340.60 510.11 1.4298 1.9774 2.5260 1273.2 -0.0052908 158.51 0.13434
92.375 13880. undefined 342.58 513.47 1.4352 560.00 0.0017857 342.58 513.47 1.4352 1.9818 2.5291 1274.8 -0.0052897 158.50 0.13449 560.00 0.0017857 342.58 513.47 1.4352 1.9818 2.5291 1274.8 -0.0052897 158.50 0.13449
93.375 13992. undefined 344.56 516.83 1.4407 560.00 0.0017857 344.56 516.83 1.4407 1.9862 2.5321 1276.3 -0.0052885 158.49 0.13464 560.00 0.0017857 344.56 516.83 1.4407 1.9862 2.5321 1276.3 -0.0052885 158.49 0.13464
94.375 14104. undefined 346.55 520.20 1.4461 560.00 0.0017857 346.55 520.20 1.4461 1.9906 2.5352 1277.8 -0.0052873 158.48 0.13479 560.00 0.0017857 346.55 520.20 1.4461 1.9906 2.5352 1277.8 -0.0052873 158.48 0.13479
95.375 14216. undefined 348.54 523.57 1.4515 560.00 0.0017857 348.54 523.57 1.4515 1.9949 2.5383 1279.3 -0.0052860 158.47 0.13494 560.00 0.0017857 348.54 523.57 1.4515 1.9949 2.5383 1279.3 -0.0052860 158.47 0.13494
96.375 14328. undefined 350.54 526.94 1.4569 560.00 0.0017857 350.54 526.94 1.4569 1.9993 2.5414 1280.8 -0.0052846 158.46 0.13509 560.00 0.0017857 350.54 526.94 1.4569 1.9993 2.5414 1280.8 -0.0052846 158.46 0.13509
97.375 14439. undefined 352.54 530.32 1.4623 560.00 0.0017857 352.54 530.32 1.4623 2.0037 2.5445 1282.3 -0.0052832 158.45 0.13524 560.00 0.0017857 352.54 530.32 1.4623 2.0037 2.5445 1282.3 -0.0052832 158.45 0.13524
98.375 14551. undefined 354.55 533.70 1.4677 560.00 0.0017857 354.55 533.70 1.4677 2.0081 2.5476 1283.7 -0.0052817 158.44 0.13539 560.00 0.0017857 354.55 533.70 1.4677 2.0081 2.5476 1283.7 -0.0052817 158.44 0.13539
99.375 14662. undefined 356.56 537.08 1.4731 560.00 0.0017857 356.56 537.08 1.4731 2.0125 2.5507 1285.2 -0.0052802 158.43 0.13554 560.00 0.0017857 356.56 537.08 1.4731 2.0125 2.5507 1285.2 -0.0052802 158.43 0.13554
100.38 14774. undefined 358.57 540.47 1.4785 560.00 0.0017857 358.57 540.47 1.4785 2.0168 2.5539 1286.7 -0.0052786 158.42 0.13569 560.00 0.0017857 358.57 540.47 1.4785 2.0168 2.5539 1286.7 -0.0052786 158.42 0.13569
101.38 14885. undefined 360.59 543.86 1.4839 560.00 0.0017857 360.59 543.86 1.4839 2.0212 2.5570 1288.2 -0.0052770 158.41 0.13584 560.00 0.0017857 360.59 543.86 1.4839 2.0212 2.5570 1288.2 -0.0052770 158.41 0.13584
102.38 14996. undefined 362.62 547.25 1.4893 560.00 0.0017857 362.62 547.25 1.4893 2.0256 2.5602 1289.7 -0.0052753 158.40 0.13599 560.00 0.0017857 362.62 547.25 1.4893 2.0256 2.5602 1289.7 -0.0052753 158.40 0.13599
103.38 15107. undefined 364.64 550.65 1.4947 560.00 0.0017857 364.64 550.65 1.4947 2.0299 2.5633 1291.1 -0.0052735 158.40 0.13615 560.00 0.0017857 364.64 550.65 1.4947 2.0299 2.5633 1291.1 -0.0052735 158.40 0.13615
104.38 15218. undefined 366.68 554.05 1.5001 560.00 0.0017857 366.68 554.05 1.5001 2.0343 2.5665 1292.6 -0.0052718 158.39 0.13630 560.00 0.0017857 366.68 554.05 1.5001 2.0343 2.5665 1292.6 -0.0052718 158.39 0.13630
105.38 15329. undefined 368.71 557.45 1.5055 560.00 0.0017857 368.71 557.45 1.5055 2.0387 2.5696 1294.0 -0.0052699 158.38 0.13645 560.00 0.0017857 368.71 557.45 1.5055 2.0387 2.5696 1294.0 -0.0052699 158.38 0.13645
106.38 15440. undefined 370.75 560.85 1.5109 560.00 0.0017857 370.75 560.85 1.5109 2.0430 2.5728 1295.5 -0.0052680 158.37 0.13660 560.00 0.0017857 370.75 560.85 1.5109 2.0430 2.5728 1295.5 -0.0052680 158.37 0.13660
107.38 15551. undefined 372.80 564.26 1.5162 560.00 0.0017857 372.80 564.26 1.5162 2.0474 2.5760 1297.0 -0.0052661 158.36 0.13676 560.00 0.0017857 372.80 564.26 1.5162 2.0474 2.5760 1297.0 -0.0052661 158.36 0.13676
108.38 15662. undefined 374.85 567.67 1.5216 560.00 0.0017857 374.85 567.67 1.5216 2.0517 2.5792 1298.4 -0.0052641 158.36 0.13691 560.00 0.0017857 374.85 567.67 1.5216 2.0517 2.5792 1298.4 -0.0052641 158.36 0.13691
109.38 15772. undefined 376.90 571.09 1.5270 560.00 0.0017857 376.90 571.09 1.5270 2.0561 2.5824 1299.8 -0.0052621 158.35 0.13706 560.00 0.0017857 376.90 571.09 1.5270 2.0561 2.5824 1299.8 -0.0052621 158.35 0.13706
110.38 15883. undefined 378.96 574.51 1.5324 560.00 0.0017857 378.96 574.51 1.5324 2.0604 2.5856 1301.3 -0.0052600 158.34 0.13722 560.00 0.0017857 378.96 574.51 1.5324 2.0604 2.5856 1301.3 -0.0052600 158.34 0.13722
111.38 15993. undefined 381.02 577.93 1.5377 560.00 0.0017857 381.02 577.93 1.5377 2.0648 2.5888 1302.7 -0.0052579 158.34 0.13737 560.00 0.0017857 381.02 577.93 1.5377 2.0648 2.5888 1302.7 -0.0052579 158.34 0.13737
112.38 16103. undefined 383.09 581.35 1.5431 560.00 0.0017857 383.09 581.35 1.5431 2.0691 2.5920 1304.2 -0.0052557 158.33 0.13752 560.00 0.0017857 383.09 581.35 1.5431 2.0691 2.5920 1304.2 -0.0052557 158.33 0.13752
113.38 16213. undefined 385.16 584.78 1.5485 560.00 0.0017857 385.16 584.78 1.5485 2.0735 2.5952 1305.6 -0.0052535 158.32 0.13768 560.00 0.0017857 385.16 584.78 1.5485 2.0735 2.5952 1305.6 -0.0052535 158.32 0.13768
114.38 16323. undefined 387.24 588.21 1.5538 560.00 0.0017857 387.24 588.21 1.5538 2.0778 2.5984 1307.0 -0.0052513 158.32 0.13783 560.00 0.0017857 387.24 588.21 1.5538 2.0778 2.5984 1307.0 -0.0052513 158.32 0.13783
115.38 16433. undefined 389.32 591.65 1.5592 560.00 0.0017857 389.32 591.65 1.5592 2.0821 2.6016 1308.4 -0.0052490 158.31 0.13799 560.00 0.0017857 389.32 591.65 1.5592 2.0821 2.6016 1308.4 -0.0052490 158.31 0.13799
116.38 16543. undefined 391.40 595.08 1.5646 560.00 0.0017857 391.40 595.08 1.5646 2.0865 2.6048 1309.8 -0.0052467 158.31 0.13815 560.00 0.0017857 391.40 595.08 1.5646 2.0865 2.6048 1309.8 -0.0052467 158.31 0.13815
117.38 16653. undefined 393.49 598.52 1.5699 560.00 0.0017857 393.49 598.52 1.5699 2.0908 2.6081 1311.3 -0.0052443 158.30 0.13830 560.00 0.0017857 393.49 598.52 1.5699 2.0908 2.6081 1311.3 -0.0052443 158.30 0.13830
118.38 16763. undefined 395.58 601.97 1.5753 560.00 0.0017857 395.58 601.97 1.5753 2.0951 2.6113 1312.7 -0.0052419 158.29 0.13846 560.00 0.0017857 395.58 601.97 1.5753 2.0951 2.6113 1312.7 -0.0052419 158.29 0.13846
119.38 16872. undefined 397.68 605.41 1.5806 560.00 0.0017857 397.68 605.41 1.5806 2.0994 2.6146 1314.1 -0.0052395 158.29 0.13861 560.00 0.0017857 397.68 605.41 1.5806 2.0994 2.6146 1314.1 -0.0052395 158.29 0.13861
120.38 16982. undefined 399.78 608.86 1.5860 560.00 0.0017857 399.78 608.86 1.5860 2.1038 2.6178 1315.5 -0.0052370 158.28 0.13877 560.00 0.0017857 399.78 608.86 1.5860 2.1038 2.6178 1315.5 -0.0052370 158.28 0.13877
121.38 17091. undefined 401.89 612.32 1.5913 560.00 0.0017857 401.89 612.32 1.5913 2.1081 2.6210 1316.9 -0.0052345 158.28 0.13893 560.00 0.0017857 401.89 612.32 1.5913 2.1081 2.6210 1316.9 -0.0052345 158.28 0.13893
122.38 17201. undefined 404.00 615.77 1.5967 560.00 0.0017857 404.00 615.77 1.5967 2.1124 2.6243 1318.3 -0.0052320 158.27 0.13909 560.00 0.0017857 404.00 615.77 1.5967 2.1124 2.6243 1318.3 -0.0052320 158.27 0.13909
123.38 17310. undefined 406.11 619.23 1.6020 560.00 0.0017857 406.11 619.23 1.6020 2.1167 2.6276 1319.7 -0.0052294 158.27 0.13924 560.00 0.0017857 406.11 619.23 1.6020 2.1167 2.6276 1319.7 -0.0052294 158.27 0.13924
124.38 17419. undefined 408.23 622.70 1.6073 560.00 0.0017857 408.23 622.70 1.6073 2.1210 2.6308 1321.1 -0.0052268 158.27 0.13940 560.00 0.0017857 408.23 622.70 1.6073 2.1210 2.6308 1321.1 -0.0052268 158.27 0.13940
125.38 17528. undefined 410.35 626.16 1.6127 560.00 0.0017857 410.35 626.16 1.6127 2.1253 2.6341 1322.5 -0.0052242 158.26 0.13956 560.00 0.0017857 410.35 626.16 1.6127 2.1253 2.6341 1322.5 -0.0052242 158.26 0.13956
126.38 17637. undefined 412.48 629.63 1.6180 560.00 0.0017857 412.48 629.63 1.6180 2.1296 2.6373 1323.8 -0.0052216 158.26 0.13972 560.00 0.0017857 412.48 629.63 1.6180 2.1296 2.6373 1323.8 -0.0052216 158.26 0.13972
127.38 17746. undefined 414.61 633.10 1.6233 560.00 0.0017857 414.61 633.10 1.6233 2.1339 2.6406 1325.2 -0.0052189 158.25 0.13988 560.00 0.0017857 414.61 633.10 1.6233 2.1339 2.6406 1325.2 -0.0052189 158.25 0.13988
128.38 17855. undefined 416.75 636.58 1.6286 560.00 0.0017857 416.75 636.58 1.6286 2.1382 2.6439 1326.6 -0.0052162 158.25 0.14004 560.00 0.0017857 416.75 636.58 1.6286 2.1382 2.6439 1326.6 -0.0052162 158.25 0.14004
129.38 17963. undefined 418.89 640.06 1.6340 560.00 0.0017857 418.89 640.06 1.6340 2.1425 2.6472 1328.0 -0.0052134 158.25 0.14020 560.00 0.0017857 418.89 640.06 1.6340 2.1425 2.6472 1328.0 -0.0052134 158.25 0.14020
130.38 18072. undefined 421.03 643.54 1.6393 560.00 0.0017857 421.03 643.54 1.6393 2.1468 2.6505 1329.3 -0.0052106 158.24 0.14035 560.00 0.0017857 421.03 643.54 1.6393 2.1468 2.6505 1329.3 -0.0052106 158.24 0.14035
131.38 18181. undefined 423.18 647.02 1.6446 560.00 0.0017857 423.18 647.02 1.6446 2.1510 2.6537 1330.7 -0.0052078 158.24 0.14051 560.00 0.0017857 423.18 647.02 1.6446 2.1510 2.6537 1330.7 -0.0052078 158.24 0.14051
132.38 18289. undefined 425.34 650.51 1.6499 560.00 0.0017857 425.34 650.51 1.6499 2.1553 2.6570 1332.1 -0.0052050 158.24 0.14068 560.00 0.0017857 425.34 650.51 1.6499 2.1553 2.6570 1332.1 -0.0052050 158.24 0.14068
133.38 18397. undefined 427.49 654.00 1.6552 560.00 0.0017857 427.49 654.00 1.6552 2.1596 2.6603 1333.4 -0.0052022 158.23 0.14084 560.00 0.0017857 427.49 654.00 1.6552 2.1596 2.6603 1333.4 -0.0052022 158.23 0.14084
134.38 18506. undefined 429.66 657.50 1.6606 560.00 0.0017857 429.66 657.50 1.6606 2.1639 2.6636 1334.8 -0.0051993 158.23 0.14100 560.00 0.0017857 429.66 657.50 1.6606 2.1639 2.6636 1334.8 -0.0051993 158.23 0.14100
135.38 18614. undefined 431.82 661.00 1.6659 560.00 0.0017857 431.82 661.00 1.6659 2.1681 2.6669 1336.1 -0.0051964 158.23 0.14116 560.00 0.0017857 431.82 661.00 1.6659 2.1681 2.6669 1336.1 -0.0051964 158.23 0.14116
136.38 18722. undefined 433.99 664.50 1.6712 560.00 0.0017857 433.99 664.50 1.6712 2.1724 2.6702 1337.5 -0.0051935 158.23 0.14132 560.00 0.0017857 433.99 664.50 1.6712 2.1724 2.6702 1337.5 -0.0051935 158.23 0.14132
137.38 18830. undefined 436.17 668.00 1.6765 560.00 0.0017857 436.17 668.00 1.6765 2.1767 2.6735 1338.8 -0.0051905 158.22 0.14148 560.00 0.0017857 436.17 668.00 1.6765 2.1767 2.6735 1338.8 -0.0051905 158.22 0.14148
138.38 18938. undefined 438.35 671.51 1.6818 560.00 0.0017857 438.35 671.51 1.6818 2.1809 2.6768 1340.2 -0.0051875 158.22 0.14164 560.00 0.0017857 438.35 671.51 1.6818 2.1809 2.6768 1340.2 -0.0051875 158.22 0.14164
139.38 19046. undefined 440.53 675.02 1.6871 560.00 0.0017857 440.53 675.02 1.6871 2.1852 2.6801 1341.5 -0.0051845 158.22 0.14181 560.00 0.0017857 440.53 675.02 1.6871 2.1852 2.6801 1341.5 -0.0051845 158.22 0.14181
140.38 19153. undefined 442.72 678.53 1.6924 560.00 0.0017857 442.72 678.53 1.6924 2.1894 2.6834 1342.9 -0.0051815 158.22 0.14197 560.00 0.0017857 442.72 678.53 1.6924 2.1894 2.6834 1342.9 -0.0051815 158.22 0.14197
141.38 19261. undefined 444.91 682.05 1.6977 560.00 0.0017857 444.91 682.05 1.6977 2.1936 2.6867 1344.2 -0.0051785 158.22 0.14213 560.00 0.0017857 444.91 682.05 1.6977 2.1936 2.6867 1344.2 -0.0051785 158.22 0.14213
142.38 19368. undefined 447.10 685.57 1.7029 560.00 0.0017857 447.10 685.57 1.7029 2.1979 2.6900 1345.5 -0.0051754 158.21 0.14229 560.00 0.0017857 447.10 685.57 1.7029 2.1979 2.6900 1345.5 -0.0051754 158.21 0.14229
143.38 19476. undefined 449.30 689.09 1.7082 560.00 0.0017857 449.30 689.09 1.7082 2.2021 2.6933 1346.9 -0.0051723 158.21 0.14246 560.00 0.0017857 449.30 689.09 1.7082 2.2021 2.6933 1346.9 -0.0051723 158.21 0.14246
144.38 19583. undefined 451.51 692.62 1.7135 560.00 0.0017857 451.51 692.62 1.7135 2.2064 2.6966 1348.2 -0.0051693 158.21 0.14262 560.00 0.0017857 451.51 692.62 1.7135 2.2064 2.6966 1348.2 -0.0051693 158.21 0.14262
145.38 19691. undefined 453.72 696.15 1.7188 560.00 0.0017857 453.72 696.15 1.7188 2.2106 2.6999 1349.5 -0.0051661 158.21 0.14279 560.00 0.0017857 453.72 696.15 1.7188 2.2106 2.6999 1349.5 -0.0051661 158.21 0.14279
146.38 19798. undefined 455.93 699.68 1.7241 560.00 0.0017857 455.93 699.68 1.7241 2.2148 2.7033 1350.8 -0.0051630 158.21 0.14295 560.00 0.0017857 455.93 699.68 1.7241 2.2148 2.7033 1350.8 -0.0051630 158.21 0.14295
147.38 19905. undefined 458.15 703.22 1.7294 560.00 0.0017857 458.15 703.22 1.7294 2.2190 2.7066 1352.2 -0.0051599 158.21 0.14311 560.00 0.0017857 458.15 703.22 1.7294 2.2190 2.7066 1352.2 -0.0051599 158.21 0.14311
148.38 20012. undefined 460.37 706.75 1.7346 560.00 0.0017857 460.37 706.75 1.7346 2.2232 2.7099 1353.5 -0.0051567 158.21 0.14328 560.00 0.0017857 460.37 706.75 1.7346 2.2232 2.7099 1353.5 -0.0051567 158.21 0.14328
149.38 20119. undefined 462.59 710.30 1.7399 560.00 0.0017857 462.59 710.30 1.7399 2.2274 2.7132 1354.8 -0.0051535 158.21 0.14344 560.00 0.0017857 462.59 710.30 1.7399 2.2274 2.7132 1354.8 -0.0051535 158.21 0.14344
150.38 20226. undefined 464.82 713.84 1.7452 560.00 0.0017857 464.82 713.84 1.7452 2.2316 2.7165 1356.1 -0.0051503 158.21 0.14361 560.00 0.0017857 464.82 713.84 1.7452 2.2316 2.7165 1356.1 -0.0051503 158.21 0.14361
151.38 20333. undefined 467.05 717.39 1.7505 560.00 0.0017857 467.05 717.39 1.7505 2.2358 2.7198 1357.4 -0.0051471 158.21 0.14378 560.00 0.0017857 467.05 717.39 1.7505 2.2358 2.7198 1357.4 -0.0051471 158.21 0.14378
152.38 20439. undefined 469.29 720.94 1.7557 560.00 0.0017857 469.29 720.94 1.7557 2.2400 2.7232 1358.7 -0.0051438 158.21 0.14394 560.00 0.0017857 469.29 720.94 1.7557 2.2400 2.7232 1358.7 -0.0051438 158.21 0.14394
153.38 20546. undefined 471.53 724.50 1.7610 560.00 0.0017857 471.53 724.50 1.7610 2.2442 2.7265 1360.0 -0.0051406 158.21 0.14411 560.00 0.0017857 471.53 724.50 1.7610 2.2442 2.7265 1360.0 -0.0051406 158.21 0.14411
154.38 20652. undefined 473.78 728.05 1.7662 560.00 0.0017857 473.78 728.05 1.7662 2.2484 2.7298 1361.3 -0.0051373 158.21 0.14428 560.00 0.0017857 473.78 728.05 1.7662 2.2484 2.7298 1361.3 -0.0051373 158.21 0.14428
155.38 20759. undefined 476.03 731.62 1.7715 560.00 0.0017857 476.03 731.62 1.7715 2.2526 2.7331 1362.6 -0.0051341 158.21 0.14444 560.00 0.0017857 476.03 731.62 1.7715 2.2526 2.7331 1362.6 -0.0051341 158.21 0.14444
156.38 20865. undefined 478.29 735.18 1.7768 560.00 0.0017857 478.29 735.18 1.7768 2.2568 2.7365 1363.9 -0.0051308 158.21 0.14461 560.00 0.0017857 478.29 735.18 1.7768 2.2568 2.7365 1363.9 -0.0051308 158.21 0.14461
157.38 20971. undefined 480.55 738.75 1.7820 560.00 0.0017857 480.55 738.75 1.7820 2.2609 2.7398 1365.2 -0.0051275 158.21 0.14478 560.00 0.0017857 480.55 738.75 1.7820 2.2609 2.7398 1365.2 -0.0051275 158.21 0.14478
158.38 21078. undefined 482.81 742.32 1.7873 560.00 0.0017857 482.81 742.32 1.7873 2.2651 2.7431 1366.5 -0.0051241 158.21 0.14495 560.00 0.0017857 482.81 742.32 1.7873 2.2651 2.7431 1366.5 -0.0051241 158.21 0.14495
159.38 21184. undefined 485.08 745.89 1.7925 560.00 0.0017857 485.08 745.89 1.7925 2.2693 2.7464 1367.8 -0.0051208 158.21 0.14511 560.00 0.0017857 485.08 745.89 1.7925 2.2693 2.7464 1367.8 -0.0051208 158.21 0.14511
160.38 21290. undefined 487.35 749.47 1.7978 560.00 0.0017857 487.35 749.47 1.7978 2.2734 2.7498 1369.0 -0.0051175 158.21 0.14528 560.00 0.0017857 487.35 749.47 1.7978 2.2734 2.7498 1369.0 -0.0051175 158.21 0.14528
161.38 21396. undefined 489.62 753.05 1.8030 560.00 0.0017857 489.62 753.05 1.8030 2.2776 2.7531 1370.3 -0.0051141 158.21 0.14545 560.00 0.0017857 489.62 753.05 1.8030 2.2776 2.7531 1370.3 -0.0051141 158.21 0.14545
162.38 21502. undefined 491.90 756.63 1.8082 560.00 0.0017857 491.90 756.63 1.8082 2.2817 2.7564 1371.6 -0.0051108 158.21 0.14562 560.00 0.0017857 491.90 756.63 1.8082 2.2817 2.7564 1371.6 -0.0051108 158.21 0.14562
163.38 21607. undefined 494.19 760.22 1.8135 560.00 0.0017857 494.19 760.22 1.8135 2.2859 2.7597 1372.9 -0.0051074 158.21 0.14579 560.00 0.0017857 494.19 760.22 1.8135 2.2859 2.7597 1372.9 -0.0051074 158.21 0.14579
164.38 21713. undefined 496.47 763.81 1.8187 560.00 0.0017857 496.47 763.81 1.8187 2.2900 2.7631 1374.1 -0.0051040 158.21 0.14596 560.00 0.0017857 496.47 763.81 1.8187 2.2900 2.7631 1374.1 -0.0051040 158.21 0.14596
165.38 21819. undefined 498.77 767.40 1.8239 560.00 0.0017857 498.77 767.40 1.8239 2.2942 2.7664 1375.4 -0.0051006 158.21 0.14613 560.00 0.0017857 498.77 767.40 1.8239 2.2942 2.7664 1375.4 -0.0051006 158.21 0.14613
166.38 21924. undefined 501.06 770.99 1.8292 560.00 0.0017857 501.06 770.99 1.8292 2.2983 2.7697 1376.7 -0.0050972 158.21 0.14630 560.00 0.0017857 501.06 770.99 1.8292 2.2983 2.7697 1376.7 -0.0050972 158.21 0.14630
167.38 22030. undefined 503.36 774.59 1.8344 560.00 0.0017857 503.36 774.59 1.8344 2.3024 2.7730 1377.9 -0.0050938 158.22 0.14647 560.00 0.0017857 503.36 774.59 1.8344 2.3024 2.7730 1377.9 -0.0050938 158.22 0.14647
168.38 22135. undefined 505.67 778.19 1.8396 560.00 0.0017857 505.67 778.19 1.8396 2.3066 2.7764 1379.2 -0.0050903 158.22 0.14664 560.00 0.0017857 505.67 778.19 1.8396 2.3066 2.7764 1379.2 -0.0050903 158.22 0.14664
169.38 22240. undefined 507.98 781.80 1.8448 560.00 0.0017857 507.98 781.80 1.8448 2.3107 2.7797 1380.4 -0.0050869 158.22 0.14681 560.00 0.0017857 507.98 781.80 1.8448 2.3107 2.7797 1380.4 -0.0050869 158.22 0.14681
170.38 22345. undefined 510.29 785.41 1.8501 560.00 0.0017857 510.29 785.41 1.8501 2.3148 2.7830 1381.7 -0.0050835 158.22 0.14698 560.00 0.0017857 510.29 785.41 1.8501 2.3148 2.7830 1381.7 -0.0050835 158.22 0.14698
171.38 22451. undefined 512.61 789.02 1.8553 560.00 0.0017857 512.61 789.02 1.8553 2.3189 2.7863 1383.0 -0.0050800 158.22 0.14715 560.00 0.0017857 512.61 789.02 1.8553 2.3189 2.7863 1383.0 -0.0050800 158.22 0.14715
172.38 22556. undefined 514.93 792.63 1.8605 560.00 0.0017857 514.93 792.63 1.8605 2.3230 2.7896 1384.2 -0.0050766 158.23 0.14733 560.00 0.0017857 514.93 792.63 1.8605 2.3230 2.7896 1384.2 -0.0050766 158.23 0.14733
173.38 22661. undefined 517.25 796.25 1.8657 560.00 0.0017857 517.25 796.25 1.8657 2.3271 2.7930 1385.5 -0.0050731 158.23 0.14750 560.00 0.0017857 517.25 796.25 1.8657 2.3271 2.7930 1385.5 -0.0050731 158.23 0.14750
174.38 22765. undefined 519.58 799.87 1.8709 560.00 0.0017857 519.58 799.87 1.8709 2.3312 2.7963 1386.7 -0.0050696 158.23 0.14767 560.00 0.0017857 519.58 799.87 1.8709 2.3312 2.7963 1386.7 -0.0050696 158.23 0.14767
175.38 22870. undefined 521.91 803.49 1.8761 560.00 0.0017857 521.91 803.49 1.8761 2.3353 2.7996 1387.9 -0.0050661 158.23 0.14784 560.00 0.0017857 521.91 803.49 1.8761 2.3353 2.7996 1387.9 -0.0050661 158.23 0.14784
176.38 22975. undefined 524.25 807.12 1.8813 560.00 0.0017857 524.25 807.12 1.8813 2.3394 2.8029 1389.2 -0.0050626 158.24 0.14802 560.00 0.0017857 524.25 807.12 1.8813 2.3394 2.8029 1389.2 -0.0050626 158.24 0.14802
177.38 23080. undefined 526.59 810.75 1.8865 560.00 0.0017857 526.59 810.75 1.8865 2.3434 2.8063 1390.4 -0.0050591 158.24 0.14819 560.00 0.0017857 526.59 810.75 1.8865 2.3434 2.8063 1390.4 -0.0050591 158.24 0.14819
178.38 23184. undefined 528.94 814.38 1.8917 560.00 0.0017857 528.94 814.38 1.8917 2.3475 2.8096 1391.7 -0.0050556 158.24 0.14837 560.00 0.0017857 528.94 814.38 1.8917 2.3475 2.8096 1391.7 -0.0050556 158.24 0.14837
179.38 23289. undefined 531.29 818.02 1.8969 560.00 0.0017857 531.29 818.02 1.8969 2.3516 2.8129 1392.9 -0.0050521 158.24 0.14854 560.00 0.0017857 531.29 818.02 1.8969 2.3516 2.8129 1392.9 -0.0050521 158.24 0.14854
180.38 23393. undefined 533.64 821.66 1.9021 560.00 0.0017857 533.64 821.66 1.9021 2.3556 2.8162 1394.1 -0.0050486 158.25 0.14871 560.00 0.0017857 533.64 821.66 1.9021 2.3556 2.8162 1394.1 -0.0050486 158.25 0.14871
181.38 23497. undefined 536.00 825.30 1.9073 560.00 0.0017857 536.00 825.30 1.9073 2.3597 2.8195 1395.3 -0.0050451 158.25 0.14889 560.00 0.0017857 536.00 825.30 1.9073 2.3597 2.8195 1395.3 -0.0050451 158.25 0.14889
182.38 23602. undefined 538.36 828.94 1.9125 560.00 0.0017857 538.36 828.94 1.9125 2.3638 2.8228 1396.6 -0.0050416 158.25 0.14906 560.00 0.0017857 538.36 828.94 1.9125 2.3638 2.8228 1396.6 -0.0050416 158.25 0.14906
183.38 23706. undefined 540.73 832.59 1.9177 560.00 0.0017857 540.73 832.59 1.9177 2.3678 2.8261 1397.8 -0.0050380 158.26 0.14924 560.00 0.0017857 540.73 832.59 1.9177 2.3678 2.8261 1397.8 -0.0050380 158.26 0.14924
184.38 23810. undefined 543.10 836.24 1.9229 560.00 0.0017857 543.10 836.24 1.9229 2.3718 2.8295 1399.0 -0.0050345 158.26 0.14941 560.00 0.0017857 543.10 836.24 1.9229 2.3718 2.8295 1399.0 -0.0050345 158.26 0.14941
185.38 23914. undefined 545.47 839.90 1.9281 560.00 0.0017857 545.47 839.90 1.9281 2.3759 2.8328 1400.2 -0.0050310 158.26 0.14959 560.00 0.0017857 545.47 839.90 1.9281 2.3759 2.8328 1400.2 -0.0050310 158.26 0.14959
186.38 24018. undefined 547.85 843.56 1.9333 560.00 0.0017857 547.85 843.56 1.9333 2.3799 2.8361 1401.4 -0.0050274 158.27 0.14977 560.00 0.0017857 547.85 843.56 1.9333 2.3799 2.8361 1401.4 -0.0050274 158.27 0.14977
187.38 24122. undefined 550.23 847.22 1.9384 560.00 0.0017857 550.23 847.22 1.9384 2.3839 2.8394 1402.7 -0.0050239 158.27 0.14994 560.00 0.0017857 550.23 847.22 1.9384 2.3839 2.8394 1402.7 -0.0050239 158.27 0.14994
188.38 24225. undefined 552.62 850.88 1.9436 560.00 0.0017857 552.62 850.88 1.9436 2.3880 2.8427 1403.9 -0.0050203 158.27 0.15012 560.00 0.0017857 552.62 850.88 1.9436 2.3880 2.8427 1403.9 -0.0050203 158.27 0.15012
189.38 24329. undefined 555.01 854.55 1.9488 560.00 0.0017857 555.01 854.55 1.9488 2.3920 2.8460 1405.1 -0.0050168 158.28 0.15030 560.00 0.0017857 555.01 854.55 1.9488 2.3920 2.8460 1405.1 -0.0050168 158.28 0.15030
190.38 24433. undefined 557.40 858.22 1.9539 560.00 0.0017857 557.40 858.22 1.9539 2.3960 2.8493 1406.3 -0.0050132 158.28 0.15047 560.00 0.0017857 557.40 858.22 1.9539 2.3960 2.8493 1406.3 -0.0050132 158.28 0.15047
191.38 24536. undefined 559.80 861.89 1.9591 560.00 0.0017857 559.80 861.89 1.9591 2.4000 2.8526 1407.5 -0.0050097 158.29 0.15065 560.00 0.0017857 559.80 861.89 1.9591 2.4000 2.8526 1407.5 -0.0050097 158.29 0.15065
192.38 24640. undefined 562.20 865.56 1.9643 560.00 0.0017857 562.20 865.56 1.9643 2.4040 2.8559 1408.7 -0.0050061 158.29 0.15083 560.00 0.0017857 562.20 865.56 1.9643 2.4040 2.8559 1408.7 -0.0050061 158.29 0.15083
193.38 24743. undefined 564.61 869.24 1.9694 560.00 0.0017857 564.61 869.24 1.9694 2.4080 2.8592 1409.9 -0.0050025 158.29 0.15101 560.00 0.0017857 564.61 869.24 1.9694 2.4080 2.8592 1409.9 -0.0050025 158.29 0.15101
194.38 24846. undefined 567.02 872.93 1.9746 560.00 0.0017857 567.02 872.93 1.9746 2.4120 2.8625 1411.1 -0.0049990 158.30 0.15118 560.00 0.0017857 567.02 872.93 1.9746 2.4120 2.8625 1411.1 -0.0049990 158.30 0.15118
195.38 24950. undefined 569.43 876.61 1.9798 560.00 0.0017857 569.43 876.61 1.9798 2.4160 2.8658 1412.3 -0.0049954 158.30 0.15136 560.00 0.0017857 569.43 876.61 1.9798 2.4160 2.8658 1412.3 -0.0049954 158.30 0.15136
196.38 25053. undefined 571.85 880.30 1.9849 560.00 0.0017857 571.85 880.30 1.9849 2.4200 2.8691 1413.5 -0.0049918 158.31 0.15154 560.00 0.0017857 571.85 880.30 1.9849 2.4200 2.8691 1413.5 -0.0049918 158.31 0.15154
197.38 25156. undefined 574.27 883.99 1.9901 560.00 0.0017857 574.27 883.99 1.9901 2.4240 2.8724 1414.7 -0.0049882 158.31 0.15172 560.00 0.0017857 574.27 883.99 1.9901 2.4240 2.8724 1414.7 -0.0049882 158.31 0.15172
198.38 25259. undefined 576.70 887.68 1.9952 560.00 0.0017857 576.70 887.68 1.9952 2.4279 2.8757 1415.9 -0.0049847 158.32 0.15190 560.00 0.0017857 576.70 887.68 1.9952 2.4279 2.8757 1415.9 -0.0049847 158.32 0.15190
199.38 25362. undefined 579.13 891.38 2.0004 560.00 0.0017857 579.13 891.38 2.0004 2.4319 2.8790 1417.0 -0.0049811 158.32 0.15208 560.00 0.0017857 579.13 891.38 2.0004 2.4319 2.8790 1417.0 -0.0049811 158.32 0.15208
200.38 25465. undefined 581.56 895.08 2.0055 560.00 0.0017857 581.56 895.08 2.0055 2.4359 2.8823 1418.2 -0.0049775 158.33 0.15226 560.00 0.0017857 581.56 895.08 2.0055 2.4359 2.8823 1418.2 -0.0049775 158.33 0.15226
201.38 25567. undefined 584.00 898.78 2.0107 560.00 0.0017857 584.00 898.78 2.0107 2.4398 2.8856 1419.4 -0.0049739 158.33 0.15244 560.00 0.0017857 584.00 898.78 2.0107 2.4398 2.8856 1419.4 -0.0049739 158.33 0.15244
202.38 25670. undefined 586.44 902.49 2.0158 560.00 0.0017857 586.44 902.49 2.0158 2.4438 2.8888 1420.6 -0.0049703 158.34 0.15262 560.00 0.0017857 586.44 902.49 2.0158 2.4438 2.8888 1420.6 -0.0049703 158.34 0.15262
203.38 25773. undefined 588.88 906.20 2.0209 560.00 0.0017857 588.88 906.20 2.0209 2.4477 2.8921 1421.8 -0.0049667 158.34 0.15280 560.00 0.0017857 588.88 906.20 2.0209 2.4477 2.8921 1421.8 -0.0049667 158.34 0.15280
204.38 25875. undefined 591.33 909.91 2.0261 560.00 0.0017857 591.33 909.91 2.0261 2.4517 2.8954 1422.9 -0.0049632 158.35 0.15299 560.00 0.0017857 591.33 909.91 2.0261 2.4517 2.8954 1422.9 -0.0049632 158.35 0.15299
205.38 25978. undefined 593.79 913.63 2.0312 560.00 0.0017857 593.79 913.63 2.0312 2.4556 2.8987 1424.1 -0.0049596 158.35 0.15317 560.00 0.0017857 593.79 913.63 2.0312 2.4556 2.8987 1424.1 -0.0049596 158.35 0.15317
206.38 26080. undefined 596.25 917.35 2.0363 560.00 0.0017857 596.25 917.35 2.0363 2.4595 2.9020 1425.3 -0.0049560 158.36 0.15335 560.00 0.0017857 596.25 917.35 2.0363 2.4595 2.9020 1425.3 -0.0049560 158.36 0.15335
207.38 26183. undefined 598.71 921.07 2.0415 560.00 0.0017857 598.71 921.07 2.0415 2.4634 2.9052 1426.4 -0.0049524 158.36 0.15353 560.00 0.0017857 598.71 921.07 2.0415 2.4634 2.9052 1426.4 -0.0049524 158.36 0.15353
208.38 26285. undefined 601.17 924.79 2.0466 560.00 0.0017857 601.17 924.79 2.0466 2.4674 2.9085 1427.6 -0.0049488 158.37 0.15371 560.00 0.0017857 601.17 924.79 2.0466 2.4674 2.9085 1427.6 -0.0049488 158.37 0.15371
209.38 26387. undefined 603.64 928.52 2.0517 560.00 0.0017857 603.64 928.52 2.0517 2.4713 2.9118 1428.8 -0.0049452 158.37 0.15390 560.00 0.0017857 603.64 928.52 2.0517 2.4713 2.9118 1428.8 -0.0049452 158.37 0.15390
210.38 26489. undefined 606.11 932.25 2.0568 560.00 0.0017857 606.11 932.25 2.0568 2.4752 2.9150 1429.9 -0.0049416 158.38 0.15408 560.00 0.0017857 606.11 932.25 2.0568 2.4752 2.9150 1429.9 -0.0049416 158.38 0.15408
211.38 26591. undefined 608.59 935.98 2.0619 560.00 0.0017857 608.59 935.98 2.0619 2.4791 2.9183 1431.1 -0.0049381 158.38 0.15426 560.00 0.0017857 608.59 935.98 2.0619 2.4791 2.9183 1431.1 -0.0049381 158.38 0.15426
212.38 26693. undefined 611.07 939.72 2.0671 560.00 0.0017857 611.07 939.72 2.0671 2.4830 2.9216 1432.3 -0.0049345 158.39 0.15445 560.00 0.0017857 611.07 939.72 2.0671 2.4830 2.9216 1432.3 -0.0049345 158.39 0.15445
213.38 26795. undefined 613.56 943.46 2.0722 560.00 0.0017857 613.56 943.46 2.0722 2.4869 2.9248 1433.4 -0.0049309 158.40 0.15463 560.00 0.0017857 613.56 943.46 2.0722 2.4869 2.9248 1433.4 -0.0049309 158.40 0.15463
214.38 26897. undefined 616.05 947.20 2.0773 560.00 0.0017857 616.05 947.20 2.0773 2.4908 2.9281 1434.6 -0.0049273 158.40 0.15481 560.00 0.0017857 616.05 947.20 2.0773 2.4908 2.9281 1434.6 -0.0049273 158.40 0.15481
215.38 26999. undefined 618.54 950.95 2.0824 560.00 0.0017857 618.54 950.95 2.0824 2.4947 2.9314 1435.7 -0.0049237 158.41 0.15500 560.00 0.0017857 618.54 950.95 2.0824 2.4947 2.9314 1435.7 -0.0049237 158.41 0.15500
216.38 27100. undefined 621.04 954.70 2.0875 560.00 0.0017857 621.04 954.70 2.0875 2.4985 2.9346 1436.9 -0.0049201 158.41 0.15518 560.00 0.0017857 621.04 954.70 2.0875 2.4985 2.9346 1436.9 -0.0049201 158.41 0.15518
217.38 27202. undefined 623.54 958.45 2.0926 560.00 0.0017857 623.54 958.45 2.0926 2.5024 2.9379 1438.0 -0.0049166 158.42 0.15537 560.00 0.0017857 623.54 958.45 2.0926 2.5024 2.9379 1438.0 -0.0049166 158.42 0.15537
218.38 27303. undefined 626.04 962.20 2.0977 560.00 0.0017857 626.04 962.20 2.0977 2.5063 2.9411 1439.2 -0.0049130 158.43 0.15555 560.00 0.0017857 626.04 962.20 2.0977 2.5063 2.9411 1439.2 -0.0049130 158.43 0.15555
219.38 27405. undefined 628.55 965.96 2.1028 560.00 0.0017857 628.55 965.96 2.1028 2.5101 2.9444 1440.3 -0.0049094 158.43 0.15574 560.00 0.0017857 628.55 965.96 2.1028 2.5101 2.9444 1440.3 -0.0049094 158.43 0.15574
220.38 27506. undefined 631.06 969.72 2.1079 560.00 0.0017857 631.06 969.72 2.1079 2.5140 2.9476 1441.4 -0.0049058 158.44 0.15593 560.00 0.0017857 631.06 969.72 2.1079 2.5140 2.9476 1441.4 -0.0049058 158.44 0.15593
221.38 27607. undefined 633.58 973.48 2.1130 560.00 0.0017857 633.58 973.48 2.1130 2.5178 2.9509 1442.6 -0.0049022 158.45 0.15611 560.00 0.0017857 633.58 973.48 2.1130 2.5178 2.9509 1442.6 -0.0049022 158.45 0.15611
222.38 27709. undefined 636.10 977.25 2.1181 560.00 0.0017857 636.10 977.25 2.1181 2.5217 2.9541 1443.7 -0.0048987 158.45 0.15630 560.00 0.0017857 636.10 977.25 2.1181 2.5217 2.9541 1443.7 -0.0048987 158.45 0.15630
223.38 27810. undefined 638.62 981.02 2.1232 560.00 0.0017857 638.62 981.02 2.1232 2.5255 2.9573 1444.9 -0.0048951 158.46 0.15649 560.00 0.0017857 638.62 981.02 2.1232 2.5255 2.9573 1444.9 -0.0048951 158.46 0.15649
224.38 27911. undefined 641.15 984.79 2.1283 560.00 0.0017857 641.15 984.79 2.1283 2.5294 2.9606 1446.0 -0.0048915 158.46 0.15667 560.00 0.0017857 641.15 984.79 2.1283 2.5294 2.9606 1446.0 -0.0048915 158.46 0.15667
225.38 28012. undefined 643.68 988.56 2.1333 560.00 0.0017857 643.68 988.56 2.1333 2.5332 2.9638 1447.1 -0.0048880 158.47 0.15686 560.00 0.0017857 643.68 988.56 2.1333 2.5332 2.9638 1447.1 -0.0048880 158.47 0.15686
226.38 28113. undefined 646.21 992.34 2.1384 560.00 0.0017857 646.21 992.34 2.1384 2.5370 2.9670 1448.3 -0.0048844 158.48 0.15705 560.00 0.0017857 646.21 992.34 2.1384 2.5370 2.9670 1448.3 -0.0048844 158.48 0.15705
227.38 28214. undefined 648.75 996.12 2.1435 560.00 0.0017857 648.75 996.12 2.1435 2.5408 2.9703 1449.4 -0.0048808 158.49 0.15724 560.00 0.0017857 648.75 996.12 2.1435 2.5408 2.9703 1449.4 -0.0048808 158.49 0.15724
228.38 28315. undefined 651.30 999.91 2.1486 560.00 0.0017857 651.30 999.91 2.1486 2.5447 2.9735 1450.5 -0.0048773 158.49 0.15742 560.00 0.0017857 651.30 999.91 2.1486 2.5447 2.9735 1450.5 -0.0048773 158.49 0.15742
229.38 28415. undefined 653.84 1003.7 2.1536 560.00 0.0017857 653.84 1003.7 2.1536 2.5485 2.9767 1451.6 -0.0048737 158.50 0.15761 560.00 0.0017857 653.84 1003.7 2.1536 2.5485 2.9767 1451.6 -0.0048737 158.50 0.15761
230.38 28516. undefined 656.39 1007.5 2.1587 560.00 0.0017857 656.39 1007.5 2.1587 2.5523 2.9799 1452.8 -0.0048701 158.51 0.15780 560.00 0.0017857 656.39 1007.5 2.1587 2.5523 2.9799 1452.8 -0.0048701 158.51 0.15780
231.38 28617. undefined 658.95 1011.3 2.1638 560.00 0.0017857 658.95 1011.3 2.1638 2.5561 2.9831 1453.9 -0.0048666 158.51 0.15799 560.00 0.0017857 658.95 1011.3 2.1638 2.5561 2.9831 1453.9 -0.0048666 158.51 0.15799
232.38 28717. undefined 661.51 1015.1 2.1688 560.00 0.0017857 661.51 1015.1 2.1688 2.5599 2.9864 1455.0 -0.0048630 158.52 0.15818 560.00 0.0017857 661.51 1015.1 2.1688 2.5599 2.9864 1455.0 -0.0048630 158.52 0.15818
233.38 28818. undefined 664.07 1018.9 2.1739 560.00 0.0017857 664.07 1018.9 2.1739 2.5637 2.9896 1456.1 -0.0048595 158.53 0.15837 560.00 0.0017857 664.07 1018.9 2.1739 2.5637 2.9896 1456.1 -0.0048595 158.53 0.15837
234.38 28918. undefined 666.63 1022.7 2.1790 560.00 0.0017857 666.63 1022.7 2.1790 2.5674 2.9928 1457.2 -0.0048559 158.53 0.15856 560.00 0.0017857 666.63 1022.7 2.1790 2.5674 2.9928 1457.2 -0.0048559 158.53 0.15856
235.38 29018. undefined 669.20 1026.5 2.1840 560.00 0.0017857 669.20 1026.5 2.1840 2.5712 2.9960 1458.3 -0.0048524 158.54 0.15875 560.00 0.0017857 669.20 1026.5 2.1840 2.5712 2.9960 1458.3 -0.0048524 158.54 0.15875
236.38 29119. undefined 671.77 1030.3 2.1891 560.00 0.0017857 671.77 1030.3 2.1891 2.5750 2.9992 1459.4 -0.0048488 158.55 0.15894 560.00 0.0017857 671.77 1030.3 2.1891 2.5750 2.9992 1459.4 -0.0048488 158.55 0.15894
237.38 29219. undefined 674.35 1034.1 2.1941 560.00 0.0017857 674.35 1034.1 2.1941 2.5788 3.0024 1460.6 -0.0048453 158.56 0.15913 560.00 0.0017857 674.35 1034.1 2.1941 2.5788 3.0024 1460.6 -0.0048453 158.56 0.15913
238.38 29319. undefined 676.93 1037.9 2.1992 560.00 0.0017857 676.93 1037.9 2.1992 2.5825 3.0056 1461.7 -0.0048418 158.56 0.15932 560.00 0.0017857 676.93 1037.9 2.1992 2.5825 3.0056 1461.7 -0.0048418 158.56 0.15932
239.38 29419. undefined 679.52 1041.7 2.2042 560.00 0.0017857 679.52 1041.7 2.2042 2.5863 3.0088 1462.8 -0.0048382 158.57 0.15952 560.00 0.0017857 679.52 1041.7 2.2042 2.5863 3.0088 1462.8 -0.0048382 158.57 0.15952
240.38 29519. undefined 682.11 1045.5 2.2093 560.00 0.0017857 682.11 1045.5 2.2093 2.5900 3.0120 1463.9 -0.0048347 158.58 0.15971 560.00 0.0017857 682.11 1045.5 2.2093 2.5900 3.0120 1463.9 -0.0048347 158.58 0.15971
241.38 29619. undefined 684.70 1049.4 2.2143 560.00 0.0017857 684.70 1049.4 2.2143 2.5938 3.0152 1465.0 -0.0048312 158.59 0.15990 560.00 0.0017857 684.70 1049.4 2.2143 2.5938 3.0152 1465.0 -0.0048312 158.59 0.15990
242.38 29719. undefined 687.29 1053.2 2.2194 560.00 0.0017857 687.29 1053.2 2.2194 2.5975 3.0184 1466.1 -0.0048277 158.59 0.16009 560.00 0.0017857 687.29 1053.2 2.2194 2.5975 3.0184 1466.1 -0.0048277 158.59 0.16009
243.38 29818. undefined 689.89 1057.0 2.2244 560.00 0.0017857 689.89 1057.0 2.2244 2.6013 3.0215 1467.2 -0.0048242 158.60 0.16029 560.00 0.0017857 689.89 1057.0 2.2244 2.6013 3.0215 1467.2 -0.0048242 158.60 0.16029
244.38 29918. undefined 692.50 1060.8 2.2294 560.00 0.0017857 692.50 1060.8 2.2294 2.6050 3.0247 1468.3 -0.0048206 158.61 0.16048 560.00 0.0017857 692.50 1060.8 2.2294 2.6050 3.0247 1468.3 -0.0048206 158.61 0.16048
245.38 30018. undefined 695.10 1064.7 2.2345 560.00 0.0017857 695.10 1064.7 2.2345 2.6087 3.0279 1469.4 -0.0048171 158.62 0.16067 560.00 0.0017857 695.10 1064.7 2.2345 2.6087 3.0279 1469.4 -0.0048171 158.62 0.16067
246.38 30117. undefined 697.71 1068.5 2.2395 560.00 0.0017857 697.71 1068.5 2.2395 2.6124 3.0311 1470.4 -0.0048136 158.63 0.16087 560.00 0.0017857 697.71 1068.5 2.2395 2.6124 3.0311 1470.4 -0.0048136 158.63 0.16087
247.38 30217. undefined 700.33 1072.4 2.2445 560.00 0.0017857 700.33 1072.4 2.2445 2.6161 3.0343 1471.5 -0.0048101 158.63 0.16106 560.00 0.0017857 700.33 1072.4 2.2445 2.6161 3.0343 1471.5 -0.0048101 158.63 0.16106
248.38 30316. undefined 702.94 1076.2 2.2495 560.00 0.0017857 702.94 1076.2 2.2495 2.6198 3.0374 1472.6 -0.0048066 158.64 0.16125 560.00 0.0017857 702.94 1076.2 2.2495 2.6198 3.0374 1472.6 -0.0048066 158.64 0.16125
249.38 30416. undefined 705.57 1080.0 2.2546 560.00 0.0017857 705.57 1080.0 2.2546 2.6236 3.0406 1473.7 -0.0048031 158.65 0.16145 560.00 0.0017857 705.57 1080.0 2.2546 2.6236 3.0406 1473.7 -0.0048031 158.65 0.16145
250.38 30515. undefined 708.19 1083.9 2.2596 560.00 0.0017857 708.19 1083.9 2.2596 2.6273 3.0438 1474.8 -0.0047996 158.66 0.16164 560.00 0.0017857 708.19 1083.9 2.2596 2.6273 3.0438 1474.8 -0.0047996 158.66 0.16164
251.38 30614. undefined 710.82 1087.7 2.2646 560.00 0.0017857 710.82 1087.7 2.2646 2.6309 3.0469 1475.9 -0.0047961 158.67 0.16184 560.00 0.0017857 710.82 1087.7 2.2646 2.6309 3.0469 1475.9 -0.0047961 158.67 0.16184
252.38 30713. undefined 713.45 1091.6 2.2696 560.00 0.0017857 713.45 1091.6 2.2696 2.6346 3.0501 1477.0 -0.0047927 158.68 0.16203 560.00 0.0017857 713.45 1091.6 2.2696 2.6346 3.0501 1477.0 -0.0047927 158.68 0.16203
253.38 30812. undefined 716.09 1095.5 2.2746 560.00 0.0017857 716.09 1095.5 2.2746 2.6383 3.0532 1478.0 -0.0047892 158.68 0.16223 560.00 0.0017857 716.09 1095.5 2.2746 2.6383 3.0532 1478.0 -0.0047892 158.68 0.16223
254.38 30911. undefined 718.73 1099.3 2.2796 560.00 0.0017857 718.73 1099.3 2.2796 2.6420 3.0564 1479.1 -0.0047857 158.69 0.16242 560.00 0.0017857 718.73 1099.3 2.2796 2.6420 3.0564 1479.1 -0.0047857 158.69 0.16242
255.38 31010. undefined 721.37 1103.2 2.2846 560.00 0.0017857 721.37 1103.2 2.2846 2.6457 3.0595 1480.2 -0.0047822 158.70 0.16262 560.00 0.0017857 721.37 1103.2 2.2846 2.6457 3.0595 1480.2 -0.0047822 158.70 0.16262
256.38 31109. undefined 724.02 1107.0 2.2896 560.00 0.0017857 724.02 1107.0 2.2896 2.6493 3.0627 1481.3 -0.0047788 158.71 0.16282 560.00 0.0017857 724.02 1107.0 2.2896 2.6493 3.0627 1481.3 -0.0047788 158.71 0.16282
257.38 31208. undefined 726.67 1110.9 2.2946 560.00 0.0017857 726.67 1110.9 2.2946 2.6530 3.0658 1482.3 -0.0047753 158.72 0.16301 560.00 0.0017857 726.67 1110.9 2.2946 2.6530 3.0658 1482.3 -0.0047753 158.72 0.16301
258.38 31307. undefined 729.33 1114.8 2.2996 560.00 0.0017857 729.33 1114.8 2.2996 2.6566 3.0690 1483.4 -0.0047718 158.73 0.16321 560.00 0.0017857 729.33 1114.8 2.2996 2.6566 3.0690 1483.4 -0.0047718 158.73 0.16321
259.38 31406. undefined 731.99 1118.7 2.3046 560.00 0.0017857 731.99 1118.7 2.3046 2.6603 3.0721 1484.5 -0.0047684 158.73 0.16341 560.00 0.0017857 731.99 1118.7 2.3046 2.6603 3.0721 1484.5 -0.0047684 158.73 0.16341
260.38 31504. undefined 734.65 1122.5 2.3096 560.00 0.0017857 734.65 1122.5 2.3096 2.6639 3.0752 1485.6 -0.0047649 158.74 0.16361 560.00 0.0017857 734.65 1122.5 2.3096 2.6639 3.0752 1485.6 -0.0047649 158.74 0.16361
261.38 31603. undefined 737.31 1126.4 2.3146 560.00 0.0017857 737.31 1126.4 2.3146 2.6676 3.0784 1486.6 -0.0047615 158.75 0.16380 560.00 0.0017857 737.31 1126.4 2.3146 2.6676 3.0784 1486.6 -0.0047615 158.75 0.16380
262.38 31701. undefined 739.98 1130.3 2.3196 560.00 0.0017857 739.98 1130.3 2.3196 2.6712 3.0815 1487.7 -0.0047581 158.76 0.16400 560.00 0.0017857 739.98 1130.3 2.3196 2.6712 3.0815 1487.7 -0.0047581 158.76 0.16400
263.38 31800. undefined 742.66 1134.2 2.3246 560.00 0.0017857 742.66 1134.2 2.3246 2.6749 3.0846 1488.7 -0.0047546 158.77 0.16420 560.00 0.0017857 742.66 1134.2 2.3246 2.6749 3.0846 1488.7 -0.0047546 158.77 0.16420
264.38 31898. undefined 745.33 1138.1 2.3296 560.00 0.0017857 745.33 1138.1 2.3296 2.6785 3.0877 1489.8 -0.0047512 158.78 0.16440 560.00 0.0017857 745.33 1138.1 2.3296 2.6785 3.0877 1489.8 -0.0047512 158.78 0.16440
265.38 31996. undefined 748.01 1142.0 2.3346 560.00 0.0017857 748.01 1142.0 2.3346 2.6821 3.0909 1490.9 -0.0047478 158.79 0.16460 560.00 0.0017857 748.01 1142.0 2.3346 2.6821 3.0909 1490.9 -0.0047478 158.79 0.16460
266.38 32095. undefined 750.70 1145.8 2.3396 560.00 0.0017857 750.70 1145.8 2.3396 2.6857 3.0940 1491.9 -0.0047443 158.80 0.16480 560.00 0.0017857 750.70 1145.8 2.3396 2.6857 3.0940 1491.9 -0.0047443 158.80 0.16480
267.38 32193. undefined 753.38 1149.7 2.3445 560.00 0.0017857 753.38 1149.7 2.3445 2.6893 3.0971 1493.0 -0.0047409 158.81 0.16500 560.00 0.0017857 753.38 1149.7 2.3445 2.6893 3.0971 1493.0 -0.0047409 158.81 0.16500
268.38 32291. undefined 756.08 1153.6 2.3495 560.00 0.0017857 756.08 1153.6 2.3495 2.6929 3.1002 1494.0 -0.0047375 158.81 0.16520 560.00 0.0017857 756.08 1153.6 2.3495 2.6929 3.1002 1494.0 -0.0047375 158.81 0.16520
269.38 32389. undefined 758.77 1157.5 2.3545 560.00 0.0017857 758.77 1157.5 2.3545 2.6965 3.1033 1495.1 -0.0047341 158.82 0.16540 560.00 0.0017857 758.77 1157.5 2.3545 2.6965 3.1033 1495.1 -0.0047341 158.82 0.16540
270.38 32487. undefined 761.47 1161.5 2.3594 560.00 0.0017857 761.47 1161.5 2.3594 2.7001 3.1064 1496.1 -0.0047307 158.83 0.16560 560.00 0.0017857 761.47 1161.5 2.3594 2.7001 3.1064 1496.1 -0.0047307 158.83 0.16560
271.38 32585. undefined 764.17 1165.4 2.3644 560.00 0.0017857 764.17 1165.4 2.3644 2.7037 3.1095 1497.2 -0.0047273 158.84 0.16580 560.00 0.0017857 764.17 1165.4 2.3644 2.7037 3.1095 1497.2 -0.0047273 158.84 0.16580
272.38 32683. undefined 766.88 1169.3 2.3694 560.00 0.0017857 766.88 1169.3 2.3694 2.7073 3.1126 1498.2 -0.0047239 158.85 0.16600 560.00 0.0017857 766.88 1169.3 2.3694 2.7073 3.1126 1498.2 -0.0047239 158.85 0.16600
273.38 32781. undefined 769.59 1173.2 2.3743 560.00 0.0017857 769.59 1173.2 2.3743 2.7109 3.1157 1499.3 -0.0047205 158.86 0.16620 560.00 0.0017857 769.59 1173.2 2.3743 2.7109 3.1157 1499.3 -0.0047205 158.86 0.16620
274.38 32878. undefined 772.30 1177.1 2.3793 560.00 0.0017857 772.30 1177.1 2.3793 2.7144 3.1188 1500.3 -0.0047171 158.87 0.16640 560.00 0.0017857 772.30 1177.1 2.3793 2.7144 3.1188 1500.3 -0.0047171 158.87 0.16640
275.38 32976. undefined 775.01 1181.0 2.3843 560.00 0.0017857 775.01 1181.0 2.3843 2.7180 3.1219 1501.4 -0.0047138 158.88 0.16661 560.00 0.0017857 775.01 1181.0 2.3843 2.7180 3.1219 1501.4 -0.0047138 158.88 0.16661
276.38 33074. undefined 777.73 1184.9 2.3892 560.00 0.0017857 777.73 1184.9 2.3892 2.7216 3.1250 1502.4 -0.0047104 158.89 0.16681 560.00 0.0017857 777.73 1184.9 2.3892 2.7216 3.1250 1502.4 -0.0047104 158.89 0.16681
277.38 33171. undefined 780.46 1188.9 2.3942 560.00 0.0017857 780.46 1188.9 2.3942 2.7251 3.1280 1503.4 -0.0047070 158.90 0.16701 560.00 0.0017857 780.46 1188.9 2.3942 2.7251 3.1280 1503.4 -0.0047070 158.90 0.16701
278.38 33269. undefined 783.18 1192.8 2.3991 560.00 0.0017857 783.18 1192.8 2.3991 2.7287 3.1311 1504.5 -0.0047037 158.91 0.16722 560.00 0.0017857 783.18 1192.8 2.3991 2.7287 3.1311 1504.5 -0.0047037 158.91 0.16722
279.38 33366. undefined 785.91 1196.7 2.4041 560.00 0.0017857 785.91 1196.7 2.4041 2.7322 3.1342 1505.5 -0.0047003 158.92 0.16742 560.00 0.0017857 785.91 1196.7 2.4041 2.7322 3.1342 1505.5 -0.0047003 158.92 0.16742
280.38 33463. undefined 788.65 1200.7 2.4090 560.00 0.0017857 788.65 1200.7 2.4090 2.7358 3.1373 1506.6 -0.0046970 158.93 0.16762 560.00 0.0017857 788.65 1200.7 2.4090 2.7358 3.1373 1506.6 -0.0046970 158.93 0.16762
281.38 33561. undefined 791.39 1204.6 2.4139 560.00 0.0017857 791.39 1204.6 2.4139 2.7393 3.1403 1507.6 -0.0046936 158.94 0.16783 560.00 0.0017857 791.39 1204.6 2.4139 2.7393 3.1403 1507.6 -0.0046936 158.94 0.16783
282.38 33658. undefined 794.13 1208.5 2.4189 560.00 0.0017857 794.13 1208.5 2.4189 2.7428 3.1434 1508.6 -0.0046903 158.95 0.16780 560.00 0.0017857 794.13 1208.5 2.4189 2.7428 3.1434 1508.6 -0.0046903 158.95 0.16780
283.38 33755. undefined 796.87 1212.5 2.4238 560.00 0.0017857 796.87 1212.5 2.4238 2.7464 3.1465 1509.7 -0.0046869 158.96 0.16800 560.00 0.0017857 796.87 1212.5 2.4238 2.7464 3.1465 1509.7 -0.0046869 158.96 0.16800
284.38 33852. undefined 799.62 1216.4 2.4287 560.00 0.0017857 799.62 1216.4 2.4287 2.7499 3.1495 1510.7 -0.0046836 158.97 0.16820 560.00 0.0017857 799.62 1216.4 2.4287 2.7499 3.1495 1510.7 -0.0046836 158.97 0.16820
285.38 33949. undefined 802.37 1220.4 2.4337 560.00 0.0017857 802.37 1220.4 2.4337 2.7534 3.1526 1511.7 -0.0046803 158.98 0.16841 560.00 0.0017857 802.37 1220.4 2.4337 2.7534 3.1526 1511.7 -0.0046803 158.98 0.16841
286.38 34046. undefined 805.13 1224.3 2.4386 560.00 0.0017857 805.13 1224.3 2.4386 2.7569 3.1556 1512.7 -0.0046770 158.99 0.16861 560.00 0.0017857 805.13 1224.3 2.4386 2.7569 3.1556 1512.7 -0.0046770 158.99 0.16861
287.38 34143. undefined 807.89 1228.3 2.4435 560.00 0.0017857 807.89 1228.3 2.4435 2.7604 3.1587 1513.8 -0.0046736 158.99 0.16882 560.00 0.0017857 807.89 1228.3 2.4435 2.7604 3.1587 1513.8 -0.0046736 158.99 0.16882
288.38 34240. undefined 810.65 1232.2 2.4485 560.00 0.0017857 810.65 1232.2 2.4485 2.7639 3.1617 1514.8 -0.0046703 159.00 0.16902 560.00 0.0017857 810.65 1232.2 2.4485 2.7639 3.1617 1514.8 -0.0046703 159.00 0.16902
289.38 34337. undefined 813.41 1236.2 2.4534 560.00 0.0017857 813.41 1236.2 2.4534 2.7674 3.1648 1515.8 -0.0046670 159.01 0.16923 560.00 0.0017857 813.41 1236.2 2.4534 2.7674 3.1648 1515.8 -0.0046670 159.01 0.16923
290.38 34433. undefined 816.18 1240.1 2.4583 560.00 0.0017857 816.18 1240.1 2.4583 2.7709 3.1678 1516.8 -0.0046637 159.02 0.16943 560.00 0.0017857 816.18 1240.1 2.4583 2.7709 3.1678 1516.8 -0.0046637 159.02 0.16943
291.38 34530. undefined 818.96 1244.1 2.4632 560.00 0.0017857 818.96 1244.1 2.4632 2.7744 3.1708 1517.8 -0.0046604 159.03 0.16964 560.00 0.0017857 818.96 1244.1 2.4632 2.7744 3.1708 1517.8 -0.0046604 159.03 0.16964
292.38 34627. undefined 821.73 1248.1 2.4681 560.00 0.0017857 821.73 1248.1 2.4681 2.7779 3.1739 1518.9 -0.0046571 159.04 0.16985 560.00 0.0017857 821.73 1248.1 2.4681 2.7779 3.1739 1518.9 -0.0046571 159.04 0.16985
293.38 34723. undefined 824.51 1252.0 2.4730 560.00 0.0017857 824.51 1252.0 2.4730 2.7814 3.1769 1519.9 -0.0046539 159.05 0.17005 560.00 0.0017857 824.51 1252.0 2.4730 2.7814 3.1769 1519.9 -0.0046539 159.05 0.17005
294.38 34820. undefined 827.29 1256.0 2.4779 560.00 0.0017857 827.29 1256.0 2.4779 2.7848 3.1799 1520.9 -0.0046506 159.06 0.17026 560.00 0.0017857 827.29 1256.0 2.4779 2.7848 3.1799 1520.9 -0.0046506 159.06 0.17026
295.38 34916. undefined 830.08 1260.0 2.4828 560.00 0.0017857 830.08 1260.0 2.4828 2.7883 3.1830 1521.9 -0.0046473 159.08 0.17047 560.00 0.0017857 830.08 1260.0 2.4828 2.7883 3.1830 1521.9 -0.0046473 159.08 0.17047
296.38 35012. undefined 832.87 1263.9 2.4877 560.00 0.0017857 832.87 1263.9 2.4877 2.7918 3.1860 1522.9 -0.0046440 159.09 0.17067 560.00 0.0017857 832.87 1263.9 2.4877 2.7918 3.1860 1522.9 -0.0046440 159.09 0.17067
297.38 35109. undefined 835.66 1267.9 2.4926 560.00 0.0017857 835.66 1267.9 2.4926 2.7952 3.1890 1523.9 -0.0046408 159.10 0.17088 560.00 0.0017857 835.66 1267.9 2.4926 2.7952 3.1890 1523.9 -0.0046408 159.10 0.17088
298.38 35205. undefined 838.46 1271.9 2.4975 560.00 0.0017857 838.46 1271.9 2.4975 2.7987 3.1920 1524.9 -0.0046375 159.11 0.17109 560.00 0.0017857 838.46 1271.9 2.4975 2.7987 3.1920 1524.9 -0.0046375 159.11 0.17109
299.38 35301. undefined 841.26 1275.9 2.5024 560.00 0.0017857 841.26 1275.9 2.5024 2.8021 3.1950 1525.9 -0.0046343 159.12 0.17130 560.00 0.0017857 841.26 1275.9 2.5024 2.8021 3.1950 1525.9 -0.0046343 159.12 0.17130
300.38 35397. undefined 844.07 1279.9 2.5073 560.00 0.0017857 844.07 1279.9 2.5073 2.8056 3.1980 1526.9 -0.0046310 159.13 0.17151 560.00 0.0017857 844.07 1279.9 2.5073 2.8056 3.1980 1526.9 -0.0046310 159.13 0.17151