Temperature (C) Pressure (psia) Quality (l+v) Internal Energy (l+v, kJ/kg) Enthalpy (l+v, kJ/kg) Entropy (l+v, J/g*K) Density (l, kg/m3) Volume (l, m3/kg) Internal Energy (l, kJ/kg) Enthalpy (l, kJ/kg) Entropy (l, J/g*K) Cv (l, J/g*K) Cp (l, J/g*K) Sound Spd. (l, m/s) Joule-Thomson (l, F/psia) Viscosity (l, uPa*s) Therm. Cond. (l, W/m*K) Density (v, kg/m3) Volume (v, m3/kg) Internal Energy (v, kJ/kg) Enthalpy (v, kJ/kg) Entropy (v, J/g*K) Cv (v, J/g*K) Cp (v, J/g*K) Sound Spd. (v, m/s) Joule-Thomson (v, F/psia) Viscosity (v, uPa*s) Therm. Cond. (v, W/m*K)
-187.62 2.4953e-08 4.0019e-12 -196.64 -196.64 -1.3959 733.13 0.0013640 -196.64 -196.64 -1.3959 1.3553 1.9158 2136.4 -0.0077592 10960. 0.20792 1.0669e-08 9.3732e+07 350.13 366.26 5.1858 0.69067 0.87923 143.28 6.1051 2.3259 0.0017061
-186.62 3.7339e-08 5.8885e-12 -194.73 -194.73 -1.3736 732.08 0.0013660 -194.73 -194.73 -1.3736 1.3539 1.9166 2129.6 -0.0077546 10073. 0.20765 1.5780e-08 6.3371e+07 350.82 367.14 5.1200 0.69462 0.88317 144.03 5.9178 2.3534 0.0017533
-185.62 5.5322e-08 8.5797e-12 -192.81 -192.81 -1.3516 731.04 0.0013679 -192.81 -192.81 -1.3516 1.3525 1.9174 2122.9 -0.0077498 9276.1 0.20737 2.3112e-08 4.3267e+07 351.52 368.02 5.0561 0.69857 0.88713 144.77 5.7383 2.3808 0.0018007
-184.62 8.1182e-08 1.2383e-11 -190.89 -190.89 -1.3298 730.00 0.0013699 -190.89 -190.89 -1.3298 1.3513 1.9182 2116.1 -0.0077448 8557.8 0.20708 3.3533e-08 2.9821e+07 352.22 368.91 4.9939 0.70253 0.89108 145.51 5.5662 2.4083 0.0018485
-183.62 1.1803e-07 1.7708e-11 -188.97 -188.97 -1.3083 728.96 0.0013718 -188.97 -188.97 -1.3083 1.3501 1.9191 2109.3 -0.0077395 7909.8 0.20678 4.8211e-08 2.0742e+07 352.92 369.81 4.9333 0.70648 0.89504 146.24 5.4011 2.4357 0.0018965
-182.62 1.7009e-07 2.5101e-11 -187.05 -187.05 -1.2869 727.92 0.0013738 -187.05 -187.05 -1.2869 1.3490 1.9201 2102.5 -0.0077340 7324.3 0.20647 6.8704e-08 1.4555e+07 353.63 370.70 4.8744 0.71043 0.89899 146.97 5.2426 2.4632 0.0019448
-181.62 2.4299e-07 3.5278e-11 -185.13 -185.13 -1.2658 726.88 0.0013757 -185.13 -185.13 -1.2658 1.3480 1.9210 2095.7 -0.0077283 6794.5 0.20616 9.7079e-08 1.0301e+07 354.35 371.60 4.8170 0.71438 0.90294 147.69 5.0904 2.4906 0.0019934
-180.62 3.4425e-07 4.9172e-11 -183.21 -183.21 -1.2450 725.85 0.0013777 -183.21 -183.21 -1.2450 1.3470 1.9220 2088.9 -0.0077225 6314.4 0.20584 1.3605e-07 7.3504e+06 355.06 372.51 4.7612 0.71833 0.90688 148.41 4.9442 2.5181 0.0020423
-179.62 4.8378e-07 6.7993e-11 -181.29 -181.29 -1.2243 724.81 0.0013797 -181.29 -181.29 -1.2243 1.3461 1.9231 2082.0 -0.0077164 5878.8 0.20551 1.8915e-07 5.2868e+06 355.78 373.42 4.7068 0.72227 0.91082 149.13 4.8038 2.5456 0.0020915
-178.62 6.7459e-07 9.3293e-11 -179.37 -179.37 -1.2038 723.78 0.0013816 -179.37 -179.37 -1.2038 1.3453 1.9241 2075.2 -0.0077102 5482.9 0.20517 2.6096e-07 3.8320e+06 356.51 374.33 4.6538 0.72620 0.91475 149.84 4.6688 2.5731 0.0021410
-177.62 9.3358e-07 1.2705e-10 -177.44 -177.44 -1.1836 722.75 0.0013836 -177.44 -177.44 -1.1836 1.3445 1.9252 2068.4 -0.0077039 5122.6 0.20483 3.5737e-07 2.7982e+06 357.23 375.25 4.6022 0.73012 0.91867 150.54 4.5390 2.6005 0.0021907
-176.62 1.2826e-06 1.7178e-10 -175.52 -175.52 -1.1635 721.72 0.0013856 -175.52 -175.52 -1.1635 1.3437 1.9263 2061.5 -0.0076973 4794.1 0.20447 4.8588e-07 2.0581e+06 357.97 376.17 4.5519 0.73403 0.92258 151.25 4.4142 2.6280 0.0022408
-175.62 1.7496e-06 2.3064e-10 -173.59 -173.59 -1.1437 720.69 0.0013876 -173.59 -173.59 -1.1437 1.3430 1.9274 2054.7 -0.0076907 4494.3 0.20411 6.5601e-07 1.5244e+06 358.70 377.09 4.5029 0.73792 0.92648 151.95 4.2941 2.6555 0.0022912
-174.62 2.3705e-06 3.0756e-10 -171.66 -171.66 -1.1240 719.66 0.0013895 -171.66 -171.66 -1.1240 1.3423 1.9286 2047.9 -0.0076838 4220.2 0.20375 8.7976e-07 1.1367e+06 359.44 378.02 4.4551 0.74181 0.93036 152.64 4.1784 2.6830 0.0023418
-173.62 3.1903e-06 4.0744e-10 -169.73 -169.73 -1.1045 718.64 0.0013915 -169.73 -169.73 -1.1045 1.3417 1.9298 2041.0 -0.0076769 3969.3 0.20338 1.1721e-06 8.5314e+05 360.19 378.95 4.4085 0.74568 0.93423 153.33 4.0671 2.7105 0.0023928
-172.62 4.2661e-06 5.3633e-10 -167.80 -167.80 -1.0852 717.61 0.0013935 -167.80 -167.80 -1.0852 1.3411 1.9310 2034.2 -0.0076698 3739.3 0.20300 1.5518e-06 6.4441e+05 360.93 379.89 4.3631 0.74953 0.93809 154.02 3.9599 2.7379 0.0024440
-171.62 5.6692e-06 7.0164e-10 -165.87 -165.87 -1.0661 716.58 0.0013955 -165.87 -165.87 -1.0661 1.3405 1.9322 2027.3 -0.0076625 3528.0 0.20261 2.0419e-06 4.8974e+05 361.69 380.83 4.3188 0.75337 0.94193 154.71 3.8566 2.7654 0.0024955
-170.62 7.4884e-06 9.1241e-10 -163.94 -163.94 -1.0472 715.56 0.0013975 -163.94 -163.94 -1.0472 1.3400 1.9334 2020.5 -0.0076552 3333.8 0.20222 2.6708e-06 3.7442e+05 362.44 381.77 4.2755 0.75720 0.94575 155.39 3.7570 2.7929 0.0025473
-169.62 9.8334e-06 1.1796e-09 -162.00 -162.00 -1.0284 714.54 0.0013995 -162.00 -162.00 -1.0284 1.3395 1.9347 2013.6 -0.0076477 3154.9 0.20182 3.4733e-06 2.8791e+05 363.20 382.72 4.2334 0.76100 0.94956 156.07 3.6609 2.8204 0.0025994
-168.62 1.2839e-05 1.5165e-09 -160.07 -160.07 -1.0098 713.52 0.0014015 -160.07 -160.07 -1.0098 1.3390 1.9359 2006.8 -0.0076401 2989.9 0.20141 4.4917e-06 2.2263e+05 363.96 383.67 4.1922 0.76479 0.95335 156.74 3.5683 2.8479 0.0026518
-167.62 1.6672e-05 1.9389e-09 -158.13 -158.13 -0.99134 712.49 0.0014035 -158.13 -158.13 -0.99134 1.3386 1.9372 2000.0 -0.0076323 2837.5 0.20100 5.7771e-06 1.7310e+05 364.73 384.63 4.1521 0.76856 0.95712 157.41 3.4790 2.8754 0.0027045
-166.62 2.1533e-05 2.4658e-09 -156.19 -156.19 -0.97306 711.47 0.0014055 -156.19 -156.19 -0.97306 1.3382 1.9385 1993.1 -0.0076245 2696.5 0.20058 7.3914e-06 1.3529e+05 365.50 385.59 4.1129 0.77232 0.96087 158.08 3.3927 2.9029 0.0027575
-165.62 2.7666e-05 3.1196e-09 -154.25 -154.25 -0.95494 710.45 0.0014075 -154.25 -154.25 -0.95494 1.3378 1.9398 1986.3 -0.0076165 2566.0 0.20016 9.4084e-06 1.0629e+05 366.27 386.55 4.0746 0.77605 0.96460 158.75 3.3095 2.9304 0.0028108
-164.62 3.5367e-05 3.9272e-09 -152.31 -152.31 -0.93698 709.44 0.0014096 -152.31 -152.31 -0.93698 1.3375 1.9411 1979.4 -0.0076084 2444.9 0.19973 1.1916e-05 83918. 367.05 387.52 4.0372 0.77976 0.96832 159.41 3.2291 2.9579 0.0028643
-163.62 4.4989e-05 4.9196e-09 -150.37 -150.37 -0.91917 708.42 0.0014116 -150.37 -150.37 -0.91917 1.3371 1.9424 1972.6 -0.0076002 2332.3 0.19930 1.5020e-05 66577. 367.83 388.49 4.0008 0.78346 0.97201 160.07 3.1514 2.9854 0.0029182
-162.62 5.6956e-05 6.1337e-09 -148.43 -148.43 -0.90151 707.40 0.0014136 -148.43 -148.43 -0.90151 1.3368 1.9437 1965.8 -0.0075919 2227.7 0.19886 1.8844e-05 53068. 368.62 389.46 3.9651 0.78713 0.97569 160.72 3.0764 3.0129 0.0029723
-161.62 7.1773e-05 7.6121e-09 -146.48 -146.48 -0.88400 706.38 0.0014157 -146.48 -146.48 -0.88400 1.3365 1.9451 1959.0 -0.0075834 2130.2 0.19841 2.3533e-05 42494. 369.41 390.44 3.9304 0.79079 0.97935 161.38 3.0038 3.0404 0.0030268
-160.62 9.0036e-05 9.4046e-09 -144.54 -144.54 -0.86663 705.37 0.0014177 -144.54 -144.54 -0.86663 1.3363 1.9465 1952.1 -0.0075748 2039.2 0.19796 2.9258e-05 34178. 370.20 391.42 3.8964 0.79443 0.98298 162.03 2.9337 3.0679 0.0030815
-159.62 0.00011245 1.1568e-08 -142.59 -142.59 -0.84940 704.35 0.0014197 -142.59 -142.59 -0.84940 1.3360 1.9478 1945.3 -0.0075661 1954.2 0.19751 3.6221e-05 27609. 371.00 392.40 3.8632 0.79805 0.98660 162.68 2.8658 3.0955 0.0031365
-158.62 0.00013985 1.4170e-08 -140.64 -140.64 -0.83231 703.34 0.0014218 -140.64 -140.64 -0.83231 1.3358 1.9492 1938.5 -0.0075573 1874.8 0.19705 4.4652e-05 22395. 371.80 393.39 3.8307 0.80164 0.99020 163.32 2.8002 3.1230 0.0031918
-157.62 0.00017320 1.7285e-08 -138.69 -138.69 -0.81536 702.32 0.0014238 -138.69 -138.69 -0.81536 1.3356 1.9506 1931.7 -0.0075484 1800.3 0.19658 5.4822e-05 18241. 372.60 394.38 3.7990 0.80522 0.99378 163.96 2.7367 3.1505 0.0032474
-156.62 0.00021364 2.0999e-08 -136.74 -136.74 -0.79854 701.31 0.0014259 -136.74 -136.74 -0.79854 1.3354 1.9520 1924.9 -0.0075393 1730.5 0.19611 6.7040e-05 14916. 373.41 395.38 3.7680 0.80878 0.99734 164.60 2.6752 3.1780 0.0033033
-155.62 0.00026248 2.5412e-08 -134.79 -134.79 -0.78185 700.30 0.0014280 -134.79 -134.79 -0.78185 1.3352 1.9534 1918.1 -0.0075302 1664.9 0.19564 8.1666e-05 12245. 374.22 396.38 3.7377 0.81232 1.0009 165.24 2.6157 3.2055 0.0033595
-154.62 0.00032125 3.0635e-08 -132.83 -132.83 -0.76530 699.29 0.0014300 -132.83 -132.83 -0.76530 1.3350 1.9548 1911.3 -0.0075209 1603.3 0.19516 9.9109e-05 10090. 375.03 397.38 3.7081 0.81585 1.0044 165.87 2.5580 3.2330 0.0034160
-153.62 0.00039171 3.6793e-08 -130.88 -130.88 -0.74887 698.27 0.0014321 -130.88 -130.88 -0.74887 1.3349 1.9563 1904.5 -0.0075114 1545.3 0.19468 0.00011984 8344.6 375.85 398.39 3.6792 0.81935 1.0079 166.50 2.5022 3.2606 0.0034727
-152.62 0.00047590 4.4030e-08 -128.92 -128.92 -0.73256 697.26 0.0014342 -128.92 -128.92 -0.73256 1.3348 1.9577 1897.8 -0.0075019 1490.6 0.19419 0.00014439 6925.9 376.67 399.40 3.6509 0.82284 1.0114 167.13 2.4481 3.2881 0.0035298
-151.62 0.00057613 5.2504e-08 -126.96 -126.96 -0.71638 696.25 0.0014363 -126.96 -126.96 -0.71638 1.3346 1.9592 1891.0 -0.0074922 1438.9 0.19370 0.00017336 5768.4 377.49 400.41 3.6232 0.82631 1.0149 167.76 2.3957 3.3156 0.0035872
-150.62 0.00069507 6.2393e-08 -125.00 -125.00 -0.70032 695.24 0.0014384 -125.00 -125.00 -0.70032 1.3345 1.9606 1884.2 -0.0074824 1390.2 0.19320 0.00020744 4820.7 378.32 401.42 3.5962 0.82976 1.0183 168.38 2.3448 3.3431 0.0036448
-149.62 0.00083574 7.3895e-08 -123.04 -123.04 -0.68438 694.23 0.0014404 -123.04 -123.04 -0.68438 1.3345 1.9621 1877.4 -0.0074724 1344.0 0.19270 0.00024740 4042.0 379.15 402.44 3.5697 0.83319 1.0218 169.00 2.2956 3.3706 0.0037027
-148.62 0.0010016 8.7230e-08 -121.08 -121.08 -0.66855 693.22 0.0014425 -121.08 -121.08 -0.66855 1.3344 1.9636 1870.7 -0.0074623 1300.3 0.19220 0.00029412 3400.0 379.99 403.47 3.5438 0.83661 1.0252 169.62 2.2478 3.3982 0.0037610
-147.62 0.0011965 1.0264e-07 -119.11 -119.11 -0.65284 692.21 0.0014447 -119.11 -119.11 -0.65284 1.3343 1.9651 1863.9 -0.0074521 1258.9 0.19169 0.00034856 2869.0 380.83 404.49 3.5185 0.84001 1.0286 170.24 2.2014 3.4257 0.0038195
-146.62 0.0014249 1.2040e-07 -117.15 -117.15 -0.63724 691.20 0.0014468 -117.15 -117.15 -0.63724 1.3343 1.9666 1857.2 -0.0074417 1219.6 0.19117 0.00041181 2428.3 381.67 405.52 3.4938 0.84340 1.0320 170.85 2.1565 3.4532 0.0038783
-145.62 0.0016917 1.4080e-07 -115.18 -115.18 -0.62175 690.19 0.0014489 -115.18 -115.18 -0.62175 1.3343 1.9682 1850.4 -0.0074312 1182.3 0.19066 0.00048510 2061.4 382.51 406.56 3.4695 0.84677 1.0353 171.46 2.1128 3.4807 0.0039374
-144.62 0.0020026 1.6416e-07 -113.21 -113.21 -0.60637 689.18 0.0014510 -113.21 -113.21 -0.60637 1.3343 1.9697 1843.7 -0.0074206 1146.8 0.19014 0.00056976 1755.1 383.36 407.59 3.4458 0.85012 1.0387 172.07 2.0705 3.5082 0.0039967
-143.62 0.0023637 1.9085e-07 -111.24 -111.24 -0.59110 688.17 0.0014531 -111.24 -111.24 -0.59110 1.3343 1.9713 1836.9 -0.0074098 1113.0 0.18962 0.00066731 1498.6 384.21 408.63 3.4226 0.85346 1.0420 172.68 2.0294 3.5358 0.0040564
-142.62 0.0027820 2.2124e-07 -109.27 -109.27 -0.57593 687.16 0.0014553 -109.27 -109.27 -0.57593 1.3343 1.9728 1830.2 -0.0073988 1080.8 0.18909 0.00077939 1283.1 385.07 409.68 3.3999 0.85679 1.0454 173.28 1.9896 3.5633 0.0041164
-141.62 0.0032653 2.5576e-07 -107.30 -107.30 -0.56087 686.15 0.0014574 -107.30 -107.30 -0.56087 1.3343 1.9744 1823.5 -0.0073878 1050.1 0.18856 0.00090784 1101.5 385.93 410.72 3.3777 0.86011 1.0487 173.88 1.9508 3.5908 0.0041766
-140.62 0.0038222 2.9486e-07 -105.32 -105.32 -0.54591 685.14 0.0014596 -105.32 -105.32 -0.54591 1.3344 1.9760 1816.7 -0.0073765 1020.7 0.18803 0.0010547 948.16 386.79 411.77 3.3560 0.86341 1.0520 174.48 1.9133 3.6183 0.0042372
-139.62 0.0044623 3.3903e-07 -103.34 -103.34 -0.53105 684.13 0.0014617 -103.34 -103.34 -0.53105 1.3344 1.9776 1810.0 -0.0073651 992.74 0.18749 0.0012221 818.26 387.65 412.83 3.3347 0.86670 1.0553 175.08 1.8768 3.6459 0.0042980
-138.62 0.0051963 3.8881e-07 -101.37 -101.37 -0.51628 683.12 0.0014639 -101.37 -101.37 -0.51629 1.3345 1.9792 1803.3 -0.0073536 965.97 0.18695 0.0014125 707.94 388.52 413.88 3.3139 0.86998 1.0586 175.67 1.8413 3.6734 0.0043592
-137.62 0.0060358 4.4477e-07 -99.386 -99.386 -0.50162 682.11 0.0014660 -99.386 -99.386 -0.50162 1.3346 1.9808 1796.6 -0.0073419 940.35 0.18641 0.0016287 614.00 389.39 414.94 3.2935 0.87325 1.0619 176.26 1.8069 3.7009 0.0044206
-136.62 0.0069938 5.0751e-07 -97.404 -97.404 -0.48705 681.10 0.0014682 -97.404 -97.404 -0.48705 1.3347 1.9825 1789.9 -0.0073301 915.81 0.18586 0.0018733 533.80 390.26 416.00 3.2735 0.87650 1.0651 176.85 1.7734 3.7284 0.0044823
-135.62 0.0080843 5.7770e-07 -95.421 -95.421 -0.47258 680.09 0.0014704 -95.421 -95.421 -0.47258 1.3348 1.9841 1783.2 -0.0073180 892.30 0.18531 0.0021497 465.17 391.14 417.07 3.2540 0.87975 1.0684 177.44 1.7409 3.7559 0.0045443
-134.62 0.0093230 6.5604e-07 -93.436 -93.436 -0.45820 679.08 0.0014726 -93.436 -93.436 -0.45820 1.3350 1.9858 1776.5 -0.0073059 869.75 0.18476 0.0024613 406.30 392.02 418.14 3.2348 0.88299 1.0716 178.02 1.7093 3.7834 0.0046066
-133.62 0.010727 7.4325e-07 -91.449 -91.449 -0.44391 678.07 0.0014748 -91.450 -91.449 -0.44391 1.3351 1.9875 1769.8 -0.0072935 848.11 0.18421 0.0028116 355.67 392.91 419.21 3.2161 0.88622 1.0749 178.61 1.6786 3.8109 0.0046691
-132.62 0.012315 8.4014e-07 -89.461 -89.461 -0.42971 677.06 0.0014770 -89.461 -89.461 -0.42971 1.3353 1.9892 1763.1 -0.0072810 827.32 0.18365 0.0032049 312.03 393.79 420.29 3.1977 0.88944 1.0781 179.19 1.6488 3.8385 0.0047320
-131.62 0.014106 9.4754e-07 -87.471 -87.471 -0.41559 676.04 0.0014792 -87.471 -87.471 -0.41560 1.3354 1.9909 1756.4 -0.0072684 807.34 0.18309 0.0036453 274.33 394.68 421.36 3.1798 0.89266 1.0813 179.76 1.6197 3.8660 0.0047951
-130.62 0.016124 1.0663e-06 -85.479 -85.479 -0.40157 675.03 0.0014814 -85.479 -85.479 -0.40157 1.3356 1.9926 1749.7 -0.0072555 788.12 0.18253 0.0041375 241.69 395.58 422.44 3.1622 0.89586 1.0846 180.34 1.5915 3.8935 0.0048586
-129.62 0.018392 1.1974e-06 -83.485 -83.485 -0.38763 674.02 0.0014836 -83.486 -83.486 -0.38763 1.3358 1.9944 1743.0 -0.0072425 769.63 0.18196 0.0046867 213.37 396.47 423.53 3.1450 0.89906 1.0878 180.91 1.5641 3.9210 0.0049223
-128.62 0.020935 1.3418e-06 -81.490 -81.490 -0.37378 673.01 0.0014859 -81.491 -81.490 -0.37378 1.3360 1.9961 1736.3 -0.0072294 751.83 0.18140 0.0052981 188.75 397.37 424.62 3.1281 0.90226 1.0910 181.48 1.5374 3.9485 0.0049863
-127.62 0.023783 1.5005e-06 -79.493 -79.493 -0.36001 672.00 0.0014881 -79.494 -79.493 -0.36001 1.3363 1.9979 1729.6 -0.0072160 734.67 0.18083 0.0059776 167.29 398.27 425.71 3.1116 0.90545 1.0942 182.05 1.5114 3.9760 0.0050506
-126.62 0.026966 1.6746e-06 -77.494 -77.494 -0.34632 670.98 0.0014904 -77.495 -77.495 -0.34632 1.3365 1.9997 1722.9 -0.0072025 718.14 0.18025 0.0067313 148.56 399.18 426.80 3.0954 0.90863 1.0974 182.62 1.4861 4.0035 0.0051152
-125.62 0.030515 1.8652e-06 -75.493 -75.493 -0.33271 669.97 0.0014926 -75.494 -75.494 -0.33272 1.3368 2.0015 1716.2 -0.0071888 702.18 0.17968 0.0075660 132.17 400.09 427.89 3.0795 0.91181 1.1006 183.18 1.4615 4.0310 0.0051800
-124.62 0.034467 2.0734e-06 -73.491 -73.490 -0.31918 668.95 0.0014949 -73.492 -73.492 -0.31919 1.3371 2.0033 1709.5 -0.0071749 686.79 0.17910 0.0084885 117.81 401.00 428.99 3.0640 0.91499 1.1038 183.74 1.4375 4.0584 0.0052452
-123.62 0.038859 2.3005e-06 -71.487 -71.486 -0.30573 667.94 0.0014971 -71.488 -71.487 -0.30574 1.3374 2.0051 1702.8 -0.0071609 671.93 0.17852 0.0095065 105.19 401.91 430.10 3.0488 0.91816 1.1070 184.30 1.4141 4.0859 0.0053106
-122.62 0.043731 2.5477e-06 -69.480 -69.480 -0.29236 666.92 0.0014994 -69.482 -69.481 -0.29237 1.3377 2.0070 1696.2 -0.0071466 657.57 0.17794 0.010628 94.092 402.83 431.20 3.0339 0.92134 1.1102 184.86 1.3913 4.1134 0.0053764
-121.62 0.049128 2.8162e-06 -67.472 -67.472 -0.27906 665.91 0.0015017 -67.474 -67.473 -0.27907 1.3380 2.0089 1689.5 -0.0071322 643.70 0.17736 0.011861 84.309 403.75 432.31 3.0193 0.92451 1.1134 185.41 1.3691 4.1409 0.0054424
-120.62 0.055096 3.1074e-06 -65.462 -65.462 -0.26584 664.89 0.0015040 -65.464 -65.463 -0.26585 1.3384 2.0107 1682.8 -0.0071176 630.28 0.17678 0.013215 75.669 404.67 433.42 3.0050 0.92767 1.1166 185.96 1.3475 4.1683 0.0055087
-119.62 0.061684 3.4226e-06 -63.451 -63.450 -0.25270 663.87 0.0015063 -63.452 -63.452 -0.25271 1.3387 2.0126 1676.1 -0.0071028 617.30 0.17619 0.014700 68.027 405.60 434.53 2.9909 0.93084 1.1198 186.51 1.3264 4.1958 0.0055752
-118.62 0.068946 3.7632e-06 -61.437 -61.436 -0.23962 662.86 0.0015086 -61.439 -61.438 -0.23963 1.3391 2.0146 1669.4 -0.0070878 604.74 0.17560 0.016325 61.255 406.53 435.64 2.9772 0.93401 1.1231 187.06 1.3058 4.2233 0.0056421
-117.62 0.076937 4.1306e-06 -59.421 -59.420 -0.22662 661.84 0.0015109 -59.423 -59.422 -0.22663 1.3395 2.0165 1662.8 -0.0070726 592.58 0.17501 0.018101 55.245 407.46 436.76 2.9638 0.93718 1.1263 187.60 1.2857 4.2507 0.0057092
-116.62 0.085718 4.5262e-06 -57.404 -57.403 -0.21369 660.82 0.0015133 -57.406 -57.405 -0.21370 1.3400 2.0184 1656.1 -0.0070573 580.80 0.17442 0.020040 49.901 408.39 437.88 2.9506 0.94035 1.1295 188.14 1.2660 4.2782 0.0057767
-115.62 0.095353 4.9516e-06 -55.384 -55.383 -0.20083 659.80 0.0015156 -55.386 -55.385 -0.20084 1.3404 2.0204 1649.4 -0.0070417 569.38 0.17383 0.022152 45.142 409.33 439.01 2.9377 0.94352 1.1327 188.68 1.2468 4.3056 0.0058444
-114.62 0.10591 5.4080e-06 -53.362 -53.361 -0.18803 658.78 0.0015180 -53.365 -53.364 -0.18805 1.3409 2.0224 1642.7 -0.0070260 558.32 0.17323 0.024451 40.898 410.27 440.13 2.9250 0.94669 1.1360 189.22 1.2281 4.3330 0.0059123
-113.62 0.11746 5.8971e-06 -51.339 -51.337 -0.17531 657.76 0.0015203 -51.342 -51.340 -0.17533 1.3413 2.0244 1636.0 -0.0070100 547.59 0.17264 0.026949 37.107 411.21 441.26 2.9126 0.94987 1.1392 189.75 1.2097 4.3604 0.0059806
-112.62 0.13008 6.4202e-06 -49.313 -49.312 -0.16265 656.73 0.0015227 -49.316 -49.315 -0.16267 1.3418 2.0264 1629.3 -0.0069938 537.18 0.17204 0.029661 33.715 412.16 442.39 2.9005 0.95305 1.1424 190.28 1.1918 4.3879 0.0060491
-111.62 0.14384 6.9789e-06 -47.286 -47.284 -0.15006 655.71 0.0015251 -47.289 -47.287 -0.15008 1.3424 2.0285 1622.7 -0.0069774 527.08 0.17144 0.032600 30.675 413.10 443.53 2.8885 0.95623 1.1457 190.81 1.1742 4.4153 0.0061180
-110.62 0.15884 7.5746e-06 -45.256 -45.254 -0.13753 654.69 0.0015274 -45.259 -45.258 -0.13755 1.3429 2.0305 1616.0 -0.0069609 517.28 0.17084 0.035781 27.948 414.06 444.66 2.8769 0.95942 1.1490 191.34 1.1570 4.4427 0.0061871
-109.62 0.17516 8.2087e-06 -43.224 -43.222 -0.12507 653.66 0.0015298 -43.228 -43.226 -0.12509 1.3435 2.0326 1609.3 -0.0069441 507.76 0.17024 0.039220 25.497 415.01 445.80 2.8654 0.96261 1.1522 191.86 1.1402 4.4701 0.0062564
-108.62 0.19290 8.8826e-06 -41.190 -41.188 -0.11267 652.64 0.0015322 -41.194 -41.192 -0.11269 1.3441 2.0347 1602.6 -0.0069271 498.51 0.16964 0.042933 23.292 415.96 446.94 2.8542 0.96581 1.1555 192.38 1.1236 4.4974 0.0063261
-107.62 0.21215 9.5978e-06 -39.154 -39.151 -0.10033 651.61 0.0015347 -39.158 -39.156 -0.10036 1.3447 2.0369 1595.9 -0.0069098 489.52 0.16903 0.046937 21.305 416.92 448.09 2.8433 0.96901 1.1588 192.90 1.1075 4.5248 0.0063960
-106.62 0.23301 1.0356e-05 -37.116 -37.113 -0.088052 650.58 0.0015371 -37.120 -37.118 -0.088082 1.3453 2.0390 1589.2 -0.0068924 480.79 0.16843 0.051250 19.512 417.88 449.23 2.8325 0.97222 1.1621 193.41 1.0916 4.5522 0.0064662
-105.62 0.25561 1.1157e-05 -35.075 -35.072 -0.075836 649.55 0.0015395 -35.080 -35.078 -0.075868 1.3460 2.0412 1582.6 -0.0068747 472.30 0.16782 0.055891 17.892 418.85 450.38 2.8220 0.97544 1.1655 193.93 1.0760 4.5795 0.0065367
-104.62 0.28004 1.2004e-05 -33.033 -33.029 -0.063680 648.52 0.0015420 -33.038 -33.035 -0.063714 1.3467 2.0434 1575.9 -0.0068569 464.04 0.16721 0.060878 16.426 419.81 451.53 2.8116 0.97867 1.1688 194.44 1.0608 4.6069 0.0066074
-103.62 0.30643 1.2897e-05 -30.988 -30.984 -0.051582 647.49 0.0015444 -30.994 -30.991 -0.051619 1.3474 2.0456 1569.2 -0.0068387 456.00 0.16660 0.066231 15.099 420.78 452.68 2.8015 0.98191 1.1722 194.94 1.0458 4.6342 0.0066785
-102.62 0.33490 1.3837e-05 -28.941 -28.937 -0.039542 646.46 0.0015469 -28.947 -28.944 -0.039582 1.3481 2.0478 1562.5 -0.0068204 448.18 0.16600 0.071971 13.894 421.75 453.84 2.7916 0.98516 1.1755 195.44 1.0310 4.6615 0.0067498
-101.62 0.36558 1.4826e-05 -26.892 -26.887 -0.027560 645.43 0.0015494 -26.898 -26.894 -0.027602 1.3489 2.0501 1555.8 -0.0068018 440.57 0.16539 0.078120 12.801 422.73 454.99 2.7818 0.98841 1.1789 195.95 1.0166 4.6888 0.0068213
-100.62 0.39862 1.5864e-05 -24.840 -24.835 -0.015634 644.39 0.0015519 -24.847 -24.843 -0.015678 1.3497 2.0524 1549.1 -0.0067830 433.16 0.16478 0.084699 11.807 423.70 456.15 2.7723 0.99168 1.1823 196.44 1.0024 4.7161 0.0068932
-99.625 0.43414 1.6952e-05 -22.786 -22.781 -0.0037633 643.36 0.0015544 -22.794 -22.789 -0.0038103 1.3505 2.0547 1542.4 -0.0067639 425.95 0.16416 0.091731 10.901 424.68 457.31 2.7630 0.99496 1.1858 196.94 0.98838 4.7434 0.0069653
-98.625 0.47230 1.8091e-05 -20.730 -20.724 0.0080524 642.32 0.0015569 -20.738 -20.733 0.0080027 1.3514 2.0570 1535.7 -0.0067447 418.92 0.16355 0.099240 10.077 425.66 458.48 2.7538 0.99825 1.1892 197.43 0.97464 4.7707 0.0070377
-97.625 0.51325 1.9282e-05 -18.671 -18.665 0.019814 641.28 0.0015594 -18.680 -18.674 0.019762 1.3522 2.0594 1529.0 -0.0067251 412.07 0.16294 0.10725 9.3239 426.65 459.64 2.7448 1.0016 1.1927 197.92 0.96112 4.7979 0.0071103
-96.625 0.55714 2.0523e-05 -16.610 -16.604 0.031523 640.24 0.0015619 -16.620 -16.614 0.031467 1.3531 2.0618 1522.3 -0.0067053 405.39 0.16233 0.11579 8.6365 427.63 460.81 2.7360 1.0049 1.1962 198.40 0.94783 4.8251 0.0071832
-95.625 0.60416 2.1817e-05 -14.547 -14.540 0.043179 639.20 0.0015645 -14.557 -14.550 0.043120 1.3540 2.0642 1515.7 -0.0066853 398.88 0.16171 0.12488 8.0078 428.62 461.98 2.7274 1.0082 1.1997 198.88 0.93475 4.8524 0.0072564
-94.625 0.65446 2.3163e-05 -12.481 -12.473 0.054783 638.16 0.0015670 -12.491 -12.484 0.054721 1.3550 2.0667 1509.0 -0.0066650 392.53 0.16110 0.13455 7.4323 429.61 463.15 2.7189 1.0116 1.2032 199.36 0.92188 4.8796 0.0073299
-93.625 0.70822 2.4561e-05 -10.413 -10.404 0.066336 637.12 0.0015696 -10.424 -10.416 0.066271 1.3560 2.0691 1502.3 -0.0066444 386.34 0.16048 0.14482 6.9050 430.60 464.32 2.7107 1.0149 1.2068 199.83 0.90921 4.9068 0.0074036
-92.625 0.76564 2.6011e-05 -8.3421 -8.3329 0.077839 636.07 0.0015722 -8.3535 -8.3452 0.077771 1.3570 2.0716 1495.6 -0.0066236 380.31 0.15987 0.15573 6.4212 431.60 465.49 2.7025 1.0183 1.2104 200.30 0.89673 4.9340 0.0074776
-91.625 0.82689 2.7511e-05 -6.2688 -6.2589 0.089292 635.02 0.0015747 -6.2808 -6.2719 0.089220 1.3580 2.0742 1488.9 -0.0066025 374.41 0.15925 0.16731 5.9769 432.59 466.67 2.6946 1.0217 1.2140 200.77 0.88445 4.9611 0.0075518
-90.625 0.89218 2.9062e-05 -4.1929 -4.1822 0.10070 633.98 0.0015773 -4.2056 -4.1959 0.10062 1.3591 2.0767 1482.2 -0.0065811 368.66 0.15864 0.17958 5.5685 433.59 467.84 2.6868 1.0251 1.2177 201.24 0.87236 4.9883 0.0076263
-89.625 0.96172 3.0662e-05 -2.1145 -2.1029 0.11205 632.93 0.0015800 -2.1279 -2.1174 0.11197 1.3602 2.0793 1475.5 -0.0065595 363.05 0.15802 0.19258 5.1928 434.59 469.02 2.6791 1.0285 1.2213 201.70 0.86045 5.0154 0.0077011
-88.625 1.0357 3.2311e-05 -0.033441 -0.021022 0.12336 631.88 0.0015826 -0.047516 -0.036215 0.12328 1.3613 2.0819 1468.8 -0.0065375 357.56 0.15740 0.20633 4.8466 435.59 470.20 2.6717 1.0320 1.2250 202.15 0.84873 5.0425 0.0077761
-87.625 1.1144 3.4006e-05 2.0502 2.0636 0.13462 630.83 0.0015852 2.0355 2.0476 0.13454 1.3625 2.0846 1462.1 -0.0065153 352.21 0.15679 0.22087 4.5276 436.60 471.39 2.6643 1.0354 1.2288 202.61 0.83718 5.0696 0.0078514
-86.625 1.1979 3.5745e-05 4.1366 4.1509 0.14584 629.77 0.0015879 4.1211 4.1342 0.14575 1.3637 2.0873 1455.4 -0.0064928 346.98 0.15617 0.23623 4.2331 437.61 472.57 2.6571 1.0389 1.2325 203.06 0.82580 5.0967 0.0079270
-85.625 1.2866 3.7528e-05 6.2256 6.2410 0.15701 628.72 0.0015905 6.2094 6.2235 0.15691 1.3649 2.0900 1448.8 -0.0064701 341.87 0.15555 0.25245 3.9612 438.61 473.75 2.6501 1.0424 1.2363 203.50 0.81460 5.1237 0.0080028
-84.625 1.3806 3.9350e-05 8.3173 8.3339 0.16813 627.66 0.0015932 8.3004 8.3155 0.16803 1.3661 2.0927 1442.1 -0.0064470 336.87 0.15494 0.26956 3.7097 439.63 474.94 2.6432 1.0460 1.2402 203.95 0.80356 5.1508 0.0080789
-83.625 1.4803 4.1210e-05 10.412 10.430 0.17921 626.60 0.0015959 10.394 10.410 0.17911 1.3674 2.0955 1435.4 -0.0064236 331.99 0.15432 0.28760 3.4771 440.64 476.13 2.6364 1.0495 1.2440 204.38 0.79269 5.1778 0.0081553
-82.625 1.5858 4.3105e-05 12.509 12.528 0.19025 625.54 0.0015986 12.491 12.508 0.19014 1.3687 2.0983 1428.7 -0.0063999 327.22 0.15370 0.30659 3.2616 441.65 477.31 2.6298 1.0531 1.2479 204.82 0.78199 5.2048 0.0082319
-81.625 1.6975 4.5030e-05 14.609 14.630 0.20124 624.48 0.0016013 14.590 14.609 0.20113 1.3700 2.1012 1422.0 -0.0063759 322.55 0.15309 0.32659 3.0619 442.67 478.50 2.6233 1.0567 1.2519 205.25 0.77144 5.2318 0.0083088
-80.625 1.8155 4.6983e-05 16.712 16.734 0.21219 623.42 0.0016041 16.692 16.712 0.21208 1.3714 2.1041 1415.4 -0.0063516 317.99 0.15247 0.34763 2.8766 443.69 479.70 2.6169 1.0603 1.2558 205.67 0.76106 5.2587 0.0083860
-79.625 1.9402 4.8958e-05 18.818 18.841 0.22310 622.36 0.0016068 18.797 18.819 0.22299 1.3728 2.1070 1408.7 -0.0063270 313.52 0.15186 0.36974 2.7046 444.71 480.89 2.6106 1.0639 1.2598 206.10 0.75083 5.2857 0.0084634
-78.625 2.0718 5.0951e-05 20.927 20.951 0.23397 621.29 0.0016096 20.905 20.928 0.23385 1.3742 2.1099 1402.0 -0.0063021 309.15 0.15124 0.39296 2.5448 445.73 482.08 2.6045 1.0676 1.2639 206.51 0.74076 5.3126 0.0085411
-77.625 2.2107 5.2957e-05 23.038 23.065 0.24480 620.22 0.0016123 23.016 23.040 0.24468 1.3757 2.1129 1395.3 -0.0062768 304.88 0.15062 0.41735 2.3961 446.75 483.27 2.5985 1.0712 1.2680 206.93 0.73084 5.3395 0.0086190
-76.625 2.3571 5.4970e-05 25.153 25.181 0.25559 619.15 0.0016151 25.130 25.156 0.25546 1.3772 2.1159 1388.7 -0.0062512 300.69 0.15001 0.44292 2.2577 447.78 484.47 2.5926 1.0749 1.2721 207.34 0.72107 5.3664 0.0086972
-75.625 2.5113 5.6985e-05 27.271 27.301 0.26634 618.08 0.0016179 27.247 27.275 0.26620 1.3787 2.1190 1382.0 -0.0062253 296.59 0.14939 0.46974 2.1288 448.81 485.67 2.5869 1.0787 1.2762 207.74 0.71146 5.3933 0.0087757
-74.625 2.6736 5.8993e-05 29.391 29.423 0.27704 617.01 0.0016207 29.366 29.396 0.27691 1.3802 2.1221 1375.4 -0.0061990 292.58 0.14878 0.49783 2.0087 449.83 486.86 2.5812 1.0824 1.2804 208.14 0.70200 5.4201 0.0088544
-73.625 2.8444 6.0989e-05 31.515 31.549 0.28772 615.93 0.0016236 31.489 31.521 0.28758 1.3818 2.1252 1368.7 -0.0061724 288.65 0.14816 0.52725 1.8966 450.86 488.06 2.5757 1.0862 1.2847 208.54 0.69268 5.4469 0.0089334
-72.625 3.0240 6.2965e-05 33.642 33.678 0.29835 614.85 0.0016264 33.615 33.649 0.29821 1.3834 2.1284 1362.0 -0.0061454 284.81 0.14755 0.55804 1.7920 451.90 489.26 2.5703 1.0900 1.2889 208.93 0.68351 5.4737 0.0090126
-71.625 3.2127 6.4913e-05 35.772 35.810 0.30894 613.78 0.0016293 35.745 35.781 0.30880 1.3851 2.1316 1355.4 -0.0061181 281.03 0.14694 0.59024 1.6942 452.93 490.46 2.5650 1.0938 1.2932 209.32 0.67448 5.5005 0.0090922
-70.625 3.4108 6.6823e-05 37.905 37.946 0.31950 612.69 0.0016321 37.877 37.915 0.31935 1.3867 2.1349 1348.7 -0.0060904 277.34 0.14632 0.62390 1.6028 453.96 491.66 2.5598 1.0976 1.2976 209.70 0.66560 5.5273 0.0091720
-69.625 3.6187 6.8686e-05 40.041 40.085 0.33002 611.61 0.0016350 40.013 40.053 0.32987 1.3884 2.1382 1342.1 -0.0060624 273.72 0.14571 0.65906 1.5173 455.00 492.86 2.5547 1.1015 1.3020 210.08 0.65687 5.5540 0.0092520
-68.625 3.8367 7.0492e-05 42.181 42.227 0.34051 610.53 0.0016379 42.152 42.195 0.34036 1.3902 2.1415 1335.5 -0.0060339 270.17 0.14510 0.69577 1.4372 456.04 494.06 2.5497 1.1054 1.3064 210.45 0.64827 5.5807 0.0093324
-67.625 4.0652 7.2231e-05 44.324 44.372 0.35096 609.44 0.0016409 44.294 44.340 0.35080 1.3919 2.1449 1328.8 -0.0060051 266.69 0.14449 0.73408 1.3622 457.08 495.26 2.5448 1.1093 1.3109 210.82 0.63981 5.6074 0.0094130
-66.625 4.3046 7.3890e-05 46.470 46.521 0.36138 608.35 0.0016438 46.439 46.488 0.36122 1.3937 2.1483 1322.2 -0.0059760 263.28 0.14388 0.77404 1.2919 458.12 496.46 2.5400 1.1133 1.3154 211.18 0.63150 5.6341 0.0094939
-65.625 4.5551 7.5459e-05 48.619 48.674 0.37176 607.26 0.0016467 48.588 48.640 0.37160 1.3955 2.1518 1315.6 -0.0059464 259.93 0.14327 0.81570 1.2259 459.16 497.67 2.5353 1.1172 1.3200 211.54 0.62332 5.6608 0.0095750
-64.625 4.8173 7.6923e-05 50.772 50.830 0.38211 606.16 0.0016497 50.740 50.795 0.38195 1.3974 2.1553 1308.9 -0.0059164 256.65 0.14266 0.85910 1.1640 460.21 498.87 2.5307 1.1212 1.3246 211.89 0.61527 5.6874 0.0096564
-63.625 5.0915 7.8271e-05 52.928 52.989 0.39243 605.07 0.0016527 52.896 52.954 0.39226 1.3993 2.1588 1302.3 -0.0058861 253.42 0.14205 0.90429 1.1058 461.25 500.07 2.5262 1.1252 1.3293 212.24 0.60736 5.7140 0.0097382
-62.625 5.3781 7.9486e-05 55.088 55.152 0.40271 603.97 0.0016557 55.055 55.117 0.40254 1.4012 2.1624 1295.7 -0.0058553 250.26 0.14144 0.95134 1.0511 462.30 501.28 2.5218 1.1293 1.3340 212.58 0.59958 5.7406 0.0098201
-61.625 5.6774 8.0554e-05 57.251 57.319 0.41296 602.87 0.0016587 57.218 57.283 0.41279 1.4031 2.1660 1289.1 -0.0058241 247.16 0.14084 1.0003 0.99972 463.35 502.48 2.5175 1.1333 1.3387 212.92 0.59194 5.7672 0.0099024
-60.625 5.9899 8.1460e-05 59.418 59.489 0.42318 601.77 0.0016618 59.385 59.453 0.42301 1.4051 2.1697 1282.5 -0.0057925 244.12 0.14023 1.0512 0.95131 464.40 503.68 2.5133 1.1374 1.3435 213.26 0.58442 5.7938 0.0099850
-59.625 6.3160 8.2186e-05 61.588 61.663 0.43337 600.66 0.0016648 61.554 61.627 0.43320 1.4071 2.1734 1275.9 -0.0057605 241.13 0.13962 1.1041 0.90573 465.45 504.89 2.5091 1.1415 1.3483 213.58 0.57704 5.8203 0.010068
-58.625 6.6561 8.2714e-05 63.761 63.841 0.44352 599.55 0.0016679 63.728 63.805 0.44335 1.4091 2.1772 1269.3 -0.0057280 238.19 0.13902 1.1591 0.86277 466.50 506.09 2.5051 1.1457 1.3532 213.90 0.56978 5.8468 0.010151
-57.625 7.0107 8.3026e-05 65.939 66.023 0.45365 598.44 0.0016710 65.905 65.986 0.45348 1.4111 2.1810 1262.7 -0.0056951 235.31 0.13842 1.2161 0.82228 467.55 507.30 2.5011 1.1498 1.3581 214.22 0.56265 5.8733 0.010234
-56.625 7.3801 8.3103e-05 68.120 68.208 0.46374 597.33 0.0016741 68.086 68.172 0.46358 1.4132 2.1848 1256.1 -0.0056617 232.48 0.13781 1.2754 0.78408 468.60 508.50 2.4972 1.1540 1.3631 214.53 0.55564 5.8998 0.010318
-55.625 7.7648 8.2924e-05 70.304 70.397 0.47381 596.22 0.0016772 70.271 70.361 0.47364 1.4153 2.1887 1249.5 -0.0056279 229.69 0.13721 1.3369 0.74802 469.66 509.71 2.4934 1.1582 1.3681 214.84 0.54875 5.9263 0.010402
-54.625 8.1652 8.2467e-05 72.493 72.591 0.48385 595.10 0.0016804 72.460 72.554 0.48368 1.4174 2.1927 1242.9 -0.0055937 226.96 0.13661 1.4006 0.71396 470.72 510.91 2.4897 1.1624 1.3731 215.14 0.54199 5.9527 0.010486
-53.625 8.5819 8.1710e-05 74.685 74.788 0.49386 593.98 0.0016836 74.652 74.752 0.49369 1.4196 2.1967 1236.3 -0.0055589 224.27 0.13601 1.4667 0.68178 471.77 512.11 2.4860 1.1667 1.3782 215.43 0.53535 5.9792 0.010571
-52.625 9.0151 8.0629e-05 76.881 76.989 0.50384 592.86 0.0016867 76.849 76.954 0.50368 1.4218 2.2007 1229.8 -0.0055237 221.63 0.13541 1.5353 0.65136 472.83 513.32 2.4824 1.1710 1.3834 215.72 0.52882 6.0056 0.010656
-51.625 9.4655 7.9200e-05 79.080 79.194 0.51379 591.73 0.0016900 79.049 79.159 0.51363 1.4240 2.2048 1223.2 -0.0054880 219.04 0.13482 1.6062 0.62258 473.89 514.52 2.4789 1.1752 1.3886 216.00 0.52241 6.0320 0.010741
-50.625 9.9335 7.7396e-05 81.284 81.403 0.52371 590.60 0.0016932 81.253 81.369 0.52356 1.4262 2.2089 1216.6 -0.0054519 216.48 0.13422 1.6797 0.59534 474.95 515.73 2.4755 1.1796 1.3938 216.28 0.51612 6.0584 0.010827
-49.625 10.419 7.5192e-05 83.491 83.616 0.53361 589.47 0.0016964 83.462 83.584 0.53347 1.4285 2.2131 1210.1 -0.0054152 213.98 0.13363 1.7558 0.56954 476.01 516.93 2.4722 1.1839 1.3991 216.55 0.50994 6.0848 0.010913
-48.625 10.924 7.2557e-05 85.703 85.833 0.54348 588.34 0.0016997 85.674 85.802 0.54334 1.4308 2.2173 1203.5 -0.0053780 211.51 0.13303 1.8345 0.54510 477.07 518.13 2.4689 1.1883 1.4044 216.82 0.50387 6.1112 0.010999
-47.625 11.448 6.9464e-05 87.918 88.055 0.55333 587.20 0.0017030 87.891 88.025 0.55319 1.4331 2.2216 1196.9 -0.0053403 209.08 0.13244 1.9159 0.52194 478.14 519.33 2.4657 1.1927 1.4098 217.08 0.49792 6.1375 0.011085
-46.625 11.991 6.5881e-05 90.137 90.281 0.56314 586.06 0.0017063 90.111 90.252 0.56302 1.4354 2.2259 1190.4 -0.0053020 206.69 0.13185 2.0001 0.49997 479.20 520.53 2.4625 1.1971 1.4153 217.33 0.49207 6.1639 0.011172
-45.625 12.554 6.1777e-05 92.360 92.511 0.57294 584.92 0.0017096 92.336 92.484 0.57282 1.4378 2.2303 1183.8 -0.0052633 204.34 0.13126 2.0872 0.47912 480.27 521.74 2.4594 1.2015 1.4207 217.58 0.48633 6.1902 0.011259
-44.625 13.137 5.7117e-05 94.587 94.745 0.58270 583.77 0.0017130 94.565 94.720 0.58260 1.4402 2.2347 1177.3 -0.0052240 202.03 0.13067 2.1771 0.45933 481.33 522.94 2.4564 1.2060 1.4263 217.82 0.48069 6.2165 0.011347
-43.625 13.741 5.1867e-05 96.819 96.983 0.59245 582.62 0.0017164 96.799 96.961 0.59235 1.4426 2.2392 1170.7 -0.0051841 199.75 0.13008 2.2700 0.44053 482.40 524.14 2.4535 1.2104 1.4319 218.05 0.47516 6.2429 0.011435
-42.625 14.367 4.5992e-05 99.054 99.226 0.60217 581.47 0.0017198 99.036 99.207 0.60208 1.4450 2.2437 1164.2 -0.0051437 197.51 0.12949 2.3659 0.42267 483.46 525.33 2.4506 1.2149 1.4375 218.28 0.46973 6.2692 0.011523
-41.625 15.015 3.9452e-05 101.29 101.47 0.61186 580.32 0.0017232 101.28 101.46 0.61179 1.4475 2.2483 1157.7 -0.0051027 195.30 0.12891 2.4649 0.40569 484.53 526.53 2.4478 1.2195 1.4432 218.50 0.46440 6.2955 0.011612
-40.625 15.686 3.2209e-05 103.54 103.73 0.62153 579.16 0.0017266 103.52 103.71 0.62147 1.4500 2.2529 1151.1 -0.0050611 193.13 0.12832 2.5671 0.38954 485.60 527.73 2.4450 1.2240 1.4489 218.72 0.45917 6.3218 0.011701
-39.625 16.380 2.4221e-05 105.79 105.98 0.63118 578.00 0.0017301 105.78 105.97 0.63113 1.4525 2.2576 1144.6 -0.0050189 190.99 0.12774 2.6725 0.37418 486.67 528.93 2.4423 1.2286 1.4547 218.93 0.45403 6.3481 0.011790
-38.625 17.097 1.5447e-05 108.04 108.24 0.64080 576.83 0.0017336 108.03 108.24 0.64077 1.4550 2.2623 1138.0 -0.0049761 188.88 0.12716 2.7813 0.35955 487.74 530.12 2.4397 1.2332 1.4606 219.13 0.44900 6.3744 0.011880
-37.625 17.838 5.8420e-06 110.29 110.51 0.65040 575.66 0.0017371 110.29 110.51 0.65039 1.4576 2.2671 1131.5 -0.0049327 186.81 0.12658 2.8934 0.34562 488.81 531.32 2.4371 1.2378 1.4665 219.33 0.44405 6.4007 0.011970
-36.625 78.643 undefined 112.21 113.15 0.65851 575.00 0.0017391 112.21 113.15 0.65851 1.4605 2.2694 1129.0 -0.0049178 185.59 0.12630 575.00 0.0017391 112.21 113.15 0.65851 1.4605 2.2694 1129.0 -0.0049178 185.59 0.12630
-35.625 218.25 undefined 113.67 116.29 0.66468 575.00 0.0017391 113.67 116.29 0.66468 1.4640 2.2684 1131.7 -0.0049405 185.48 0.12642 575.00 0.0017391 113.67 116.29 0.66468 1.4640 2.2684 1131.7 -0.0049405 185.48 0.12642
-34.625 357.70 undefined 115.14 119.42 0.67084 575.00 0.0017391 115.14 119.42 0.67084 1.4675 2.2674 1134.4 -0.0049627 185.37 0.12655 575.00 0.0017391 115.14 119.42 0.67084 1.4675 2.2674 1134.4 -0.0049627 185.37 0.12655
-33.625 497.00 undefined 116.61 122.56 0.67699 575.00 0.0017391 116.61 122.56 0.67699 1.4710 2.2666 1137.1 -0.0049842 185.26 0.12667 575.00 0.0017391 116.61 122.56 0.67699 1.4710 2.2666 1137.1 -0.0049842 185.26 0.12667
-32.625 636.16 undefined 118.08 125.71 0.68312 575.00 0.0017391 118.08 125.71 0.68312 1.4745 2.2659 1139.7 -0.0050053 185.15 0.12679 575.00 0.0017391 118.08 125.71 0.68312 1.4745 2.2659 1139.7 -0.0050053 185.15 0.12679
-31.625 775.16 undefined 119.55 128.85 0.68925 575.00 0.0017391 119.55 128.85 0.68925 1.4780 2.2652 1142.3 -0.0050257 185.04 0.12692 575.00 0.0017391 119.55 128.85 0.68925 1.4780 2.2652 1142.3 -0.0050257 185.04 0.12692
-30.625 914.01 undefined 121.03 131.99 0.69536 575.00 0.0017391 121.03 131.99 0.69536 1.4816 2.2647 1144.9 -0.0050457 184.94 0.12704 575.00 0.0017391 121.03 131.99 0.69536 1.4816 2.2647 1144.9 -0.0050457 184.94 0.12704
-29.625 1052.7 undefined 122.52 135.14 0.70146 575.00 0.0017391 122.52 135.14 0.70146 1.4851 2.2642 1147.5 -0.0050651 184.83 0.12716 575.00 0.0017391 122.52 135.14 0.70146 1.4851 2.2642 1147.5 -0.0050651 184.83 0.12716
-28.625 1191.3 undefined 124.00 138.29 0.70756 575.00 0.0017391 124.00 138.29 0.70756 1.4887 2.2638 1150.1 -0.0050840 184.73 0.12729 575.00 0.0017391 124.00 138.29 0.70756 1.4887 2.2638 1150.1 -0.0050840 184.73 0.12729
-27.625 1329.7 undefined 125.49 141.44 0.71364 575.00 0.0017391 125.49 141.44 0.71364 1.4923 2.2634 1152.6 -0.0051024 184.63 0.12741 575.00 0.0017391 125.49 141.44 0.71364 1.4923 2.2634 1152.6 -0.0051024 184.63 0.12741
-26.625 1467.9 undefined 126.99 144.59 0.71971 575.00 0.0017391 126.99 144.59 0.71971 1.4959 2.2632 1155.2 -0.0051204 184.52 0.12754 575.00 0.0017391 126.99 144.59 0.71971 1.4959 2.2632 1155.2 -0.0051204 184.52 0.12754
-25.625 1606.0 undefined 128.49 147.74 0.72578 575.00 0.0017391 128.49 147.74 0.72578 1.4995 2.2630 1157.7 -0.0051379 184.42 0.12766 575.00 0.0017391 128.49 147.74 0.72578 1.4995 2.2630 1157.7 -0.0051379 184.42 0.12766
-24.625 1744.0 undefined 129.99 150.90 0.73183 575.00 0.0017391 129.99 150.90 0.73183 1.5032 2.2629 1160.1 -0.0051549 184.32 0.12779 575.00 0.0017391 129.99 150.90 0.73183 1.5032 2.2629 1160.1 -0.0051549 184.32 0.12779
-23.625 1881.8 undefined 131.49 154.06 0.73787 575.00 0.0017391 131.49 154.06 0.73787 1.5068 2.2628 1162.6 -0.0051714 184.23 0.12791 575.00 0.0017391 131.49 154.06 0.73787 1.5068 2.2628 1162.6 -0.0051714 184.23 0.12791
-22.625 2019.4 undefined 133.00 157.22 0.74391 575.00 0.0017391 133.00 157.22 0.74391 1.5105 2.2629 1165.0 -0.0051875 184.13 0.12804 575.00 0.0017391 133.00 157.22 0.74391 1.5105 2.2629 1165.0 -0.0051875 184.13 0.12804
-21.625 2156.9 undefined 134.51 160.38 0.74993 575.00 0.0017391 134.51 160.38 0.74993 1.5142 2.2630 1167.5 -0.0052032 184.03 0.12816 575.00 0.0017391 134.51 160.38 0.74993 1.5142 2.2630 1167.5 -0.0052032 184.03 0.12816
-20.625 2294.2 undefined 136.03 163.54 0.75595 575.00 0.0017391 136.03 163.54 0.75595 1.5179 2.2632 1169.9 -0.0052184 183.94 0.12829 575.00 0.0017391 136.03 163.54 0.75595 1.5179 2.2632 1169.9 -0.0052184 183.94 0.12829
-19.625 2431.4 undefined 137.55 166.70 0.76195 575.00 0.0017391 137.55 166.70 0.76195 1.5216 2.2634 1172.3 -0.0052333 183.85 0.12842 575.00 0.0017391 137.55 166.70 0.76195 1.5216 2.2634 1172.3 -0.0052333 183.85 0.12842
-18.625 2568.5 undefined 139.07 169.87 0.76795 575.00 0.0017391 139.07 169.87 0.76795 1.5253 2.2637 1174.6 -0.0052477 183.75 0.12854 575.00 0.0017391 139.07 169.87 0.76795 1.5253 2.2637 1174.6 -0.0052477 183.75 0.12854
-17.625 2705.3 undefined 140.60 173.04 0.77394 575.00 0.0017391 140.60 173.04 0.77394 1.5290 2.2641 1177.0 -0.0052617 183.66 0.12867 575.00 0.0017391 140.60 173.04 0.77394 1.5290 2.2641 1177.0 -0.0052617 183.66 0.12867
-16.625 2842.1 undefined 142.13 176.21 0.77992 575.00 0.0017391 142.13 176.21 0.77992 1.5328 2.2645 1179.3 -0.0052754 183.57 0.12880 575.00 0.0017391 142.13 176.21 0.77992 1.5328 2.2645 1179.3 -0.0052754 183.57 0.12880
-15.625 2978.7 undefined 143.67 179.38 0.78589 575.00 0.0017391 143.67 179.38 0.78589 1.5366 2.2650 1181.6 -0.0052886 183.48 0.12893 575.00 0.0017391 143.67 179.38 0.78589 1.5366 2.2650 1181.6 -0.0052886 183.48 0.12893
-14.625 3115.1 undefined 145.20 182.56 0.79185 575.00 0.0017391 145.20 182.56 0.79185 1.5404 2.2655 1183.9 -0.0053015 183.40 0.12905 575.00 0.0017391 145.20 182.56 0.79185 1.5404 2.2655 1183.9 -0.0053015 183.40 0.12905
-13.625 3251.4 undefined 146.75 185.73 0.79781 575.00 0.0017391 146.75 185.73 0.79781 1.5442 2.2661 1186.2 -0.0053140 183.31 0.12918 575.00 0.0017391 146.75 185.73 0.79781 1.5442 2.2661 1186.2 -0.0053140 183.31 0.12918
-12.625 3387.5 undefined 148.29 188.91 0.80375 575.00 0.0017391 148.29 188.91 0.80375 1.5480 2.2668 1188.5 -0.0053262 183.22 0.12931 575.00 0.0017391 148.29 188.91 0.80375 1.5480 2.2668 1188.5 -0.0053262 183.22 0.12931
-11.625 3523.5 undefined 149.84 192.09 0.80969 575.00 0.0017391 149.84 192.09 0.80969 1.5518 2.2675 1190.8 -0.0053380 183.14 0.12944 575.00 0.0017391 149.84 192.09 0.80969 1.5518 2.2675 1190.8 -0.0053380 183.14 0.12944
-10.625 3659.3 undefined 151.40 195.27 0.81562 575.00 0.0017391 151.40 195.27 0.81562 1.5557 2.2683 1193.0 -0.0053495 183.06 0.12957 575.00 0.0017391 151.40 195.27 0.81562 1.5557 2.2683 1193.0 -0.0053495 183.06 0.12957
-9.6250 3795.0 undefined 152.95 198.46 0.82154 575.00 0.0017391 152.95 198.46 0.82154 1.5595 2.2691 1195.2 -0.0053606 182.97 0.12970 575.00 0.0017391 152.95 198.46 0.82154 1.5595 2.2691 1195.2 -0.0053606 182.97 0.12970
-8.6250 3930.5 undefined 154.52 201.65 0.82745 575.00 0.0017391 154.52 201.65 0.82745 1.5634 2.2700 1197.4 -0.0053714 182.89 0.12983 575.00 0.0017391 154.52 201.65 0.82745 1.5634 2.2700 1197.4 -0.0053714 182.89 0.12983
-7.6250 4065.9 undefined 156.08 204.83 0.83336 575.00 0.0017391 156.08 204.83 0.83336 1.5673 2.2709 1199.6 -0.0053819 182.81 0.12996 575.00 0.0017391 156.08 204.83 0.83336 1.5673 2.2709 1199.6 -0.0053819 182.81 0.12996
-6.6250 4201.1 undefined 157.65 208.02 0.83926 575.00 0.0017391 157.65 208.02 0.83926 1.5712 2.2719 1201.8 -0.0053921 182.73 0.13009 575.00 0.0017391 157.65 208.02 0.83926 1.5712 2.2719 1201.8 -0.0053921 182.73 0.13009
-5.6250 4336.2 undefined 159.22 211.22 0.84515 575.00 0.0017391 159.22 211.22 0.84515 1.5751 2.2730 1203.9 -0.0054019 182.65 0.13022 575.00 0.0017391 159.22 211.22 0.84515 1.5751 2.2730 1203.9 -0.0054019 182.65 0.13022
-4.6250 4471.1 undefined 160.80 214.41 0.85104 575.00 0.0017391 160.80 214.41 0.85104 1.5790 2.2740 1206.1 -0.0054115 182.57 0.13035 575.00 0.0017391 160.80 214.41 0.85104 1.5790 2.2740 1206.1 -0.0054115 182.57 0.13035
-3.6250 4605.9 undefined 162.38 217.61 0.85691 575.00 0.0017391 162.38 217.61 0.85691 1.5830 2.2752 1208.2 -0.0054207 182.50 0.13048 575.00 0.0017391 162.38 217.61 0.85691 1.5830 2.2752 1208.2 -0.0054207 182.50 0.13048
-2.6250 4740.5 undefined 163.97 220.81 0.86278 575.00 0.0017391 163.97 220.81 0.86278 1.5869 2.2764 1210.3 -0.0054297 182.42 0.13061 575.00 0.0017391 163.97 220.81 0.86278 1.5869 2.2764 1210.3 -0.0054297 182.42 0.13061
-1.6250 4874.9 undefined 165.55 224.01 0.86864 575.00 0.0017391 165.55 224.01 0.86864 1.5909 2.2776 1212.5 -0.0054384 182.34 0.13075 575.00 0.0017391 165.55 224.01 0.86864 1.5909 2.2776 1212.5 -0.0054384 182.34 0.13075
-0.62500 5009.3 undefined 167.15 227.21 0.87450 575.00 0.0017391 167.15 227.21 0.87450 1.5949 2.2789 1214.5 -0.0054468 182.27 0.13088 575.00 0.0017391 167.15 227.21 0.87450 1.5949 2.2789 1214.5 -0.0054468 182.27 0.13088
0.37500 5143.4 undefined 168.74 230.42 0.88035 575.00 0.0017391 168.74 230.42 0.88035 1.5989 2.2802 1216.6 -0.0054549 182.20 0.13101 575.00 0.0017391 168.74 230.42 0.88035 1.5989 2.2802 1216.6 -0.0054549 182.20 0.13101
1.3750 5277.4 undefined 170.35 233.63 0.88619 575.00 0.0017391 170.35 233.63 0.88619 1.6029 2.2815 1218.7 -0.0054628 182.12 0.13114 575.00 0.0017391 170.35 233.63 0.88619 1.6029 2.2815 1218.7 -0.0054628 182.12 0.13114
2.3750 5411.3 undefined 171.95 236.84 0.89203 575.00 0.0017391 171.95 236.84 0.89203 1.6069 2.2829 1220.7 -0.0054703 182.05 0.13128 575.00 0.0017391 171.95 236.84 0.89203 1.6069 2.2829 1220.7 -0.0054703 182.05 0.13128
3.3750 5545.0 undefined 173.56 240.05 0.89786 575.00 0.0017391 173.56 240.05 0.89786 1.6109 2.2844 1222.8 -0.0054777 181.98 0.13141 575.00 0.0017391 173.56 240.05 0.89786 1.6109 2.2844 1222.8 -0.0054777 181.98 0.13141
4.3750 5678.6 undefined 175.17 243.26 0.90368 575.00 0.0017391 175.17 243.26 0.90368 1.6150 2.2859 1224.8 -0.0054848 181.91 0.13154 575.00 0.0017391 175.17 243.26 0.90368 1.6150 2.2859 1224.8 -0.0054848 181.91 0.13154
5.3750 5812.0 undefined 176.79 246.48 0.90949 575.00 0.0017391 176.79 246.48 0.90949 1.6190 2.2874 1226.8 -0.0054916 181.84 0.13168 575.00 0.0017391 176.79 246.48 0.90949 1.6190 2.2874 1226.8 -0.0054916 181.84 0.13168
6.3750 5945.3 undefined 178.41 249.70 0.91530 575.00 0.0017391 178.41 249.70 0.91530 1.6231 2.2890 1228.8 -0.0054982 181.77 0.13181 575.00 0.0017391 178.41 249.70 0.91530 1.6231 2.2890 1228.8 -0.0054982 181.77 0.13181
7.3750 6078.4 undefined 180.04 252.92 0.92111 575.00 0.0017391 180.04 252.92 0.92111 1.6272 2.2906 1230.8 -0.0055045 181.70 0.13195 575.00 0.0017391 180.04 252.92 0.92111 1.6272 2.2906 1230.8 -0.0055045 181.70 0.13195
8.3750 6211.3 undefined 181.66 256.14 0.92690 575.00 0.0017391 181.66 256.14 0.92690 1.6313 2.2922 1232.8 -0.0055106 181.64 0.13208 575.00 0.0017391 181.66 256.14 0.92690 1.6313 2.2922 1232.8 -0.0055106 181.64 0.13208
9.3750 6344.2 undefined 183.30 259.37 0.93270 575.00 0.0017391 183.30 259.37 0.93270 1.6354 2.2939 1234.8 -0.0055165 181.57 0.13222 575.00 0.0017391 183.30 259.37 0.93270 1.6354 2.2939 1234.8 -0.0055165 181.57 0.13222
10.375 6476.8 undefined 184.94 262.60 0.93848 575.00 0.0017391 184.94 262.60 0.93848 1.6395 2.2956 1236.7 -0.0055221 181.51 0.13235 575.00 0.0017391 184.94 262.60 0.93848 1.6395 2.2956 1236.7 -0.0055221 181.51 0.13235
11.375 6609.4 undefined 186.58 265.83 0.94426 575.00 0.0017391 186.58 265.83 0.94426 1.6436 2.2974 1238.7 -0.0055276 181.44 0.13249 575.00 0.0017391 186.58 265.83 0.94426 1.6436 2.2974 1238.7 -0.0055276 181.44 0.13249
12.375 6741.7 undefined 188.22 269.06 0.95004 575.00 0.0017391 188.22 269.06 0.95004 1.6477 2.2991 1240.6 -0.0055328 181.38 0.13262 575.00 0.0017391 188.22 269.06 0.95004 1.6477 2.2991 1240.6 -0.0055328 181.38 0.13262
13.375 6874.0 undefined 189.87 272.30 0.95580 575.00 0.0017391 189.87 272.30 0.95580 1.6519 2.3010 1242.6 -0.0055378 181.32 0.13276 575.00 0.0017391 189.87 272.30 0.95580 1.6519 2.3010 1242.6 -0.0055378 181.32 0.13276
14.375 7006.0 undefined 191.53 275.53 0.96157 575.00 0.0017391 191.53 275.53 0.96157 1.6560 2.3028 1244.5 -0.0055426 181.25 0.13290 575.00 0.0017391 191.53 275.53 0.96157 1.6560 2.3028 1244.5 -0.0055426 181.25 0.13290
15.375 7138.0 undefined 193.18 278.77 0.96732 575.00 0.0017391 193.18 278.77 0.96732 1.6602 2.3047 1246.4 -0.0055472 181.19 0.13303 575.00 0.0017391 193.18 278.77 0.96732 1.6602 2.3047 1246.4 -0.0055472 181.19 0.13303
16.375 7269.7 undefined 194.85 282.02 0.97307 575.00 0.0017391 194.85 282.02 0.97307 1.6643 2.3066 1248.3 -0.0055516 181.13 0.13317 575.00 0.0017391 194.85 282.02 0.97307 1.6643 2.3066 1248.3 -0.0055516 181.13 0.13317
17.375 7401.4 undefined 196.51 285.26 0.97882 575.00 0.0017391 196.51 285.26 0.97882 1.6685 2.3086 1250.2 -0.0055558 181.07 0.13331 575.00 0.0017391 196.51 285.26 0.97882 1.6685 2.3086 1250.2 -0.0055558 181.07 0.13331
18.375 7532.9 undefined 198.18 288.51 0.98456 575.00 0.0017391 198.18 288.51 0.98456 1.6727 2.3106 1252.0 -0.0055598 181.01 0.13345 575.00 0.0017391 198.18 288.51 0.98456 1.6727 2.3106 1252.0 -0.0055598 181.01 0.13345
19.375 7664.2 undefined 199.86 291.76 0.99029 575.00 0.0017391 199.86 291.76 0.99029 1.6769 2.3126 1253.9 -0.0055636 180.95 0.13358 575.00 0.0017391 199.86 291.76 0.99029 1.6769 2.3126 1253.9 -0.0055636 180.95 0.13358
20.375 7795.4 undefined 201.54 295.01 0.99602 575.00 0.0017391 201.54 295.01 0.99602 1.6811 2.3147 1255.8 -0.0055672 180.90 0.13372 575.00 0.0017391 201.54 295.01 0.99602 1.6811 2.3147 1255.8 -0.0055672 180.90 0.13372
21.375 7926.5 undefined 203.22 298.27 1.0017 575.00 0.0017391 203.22 298.27 1.0017 1.6853 2.3168 1257.6 -0.0055706 180.84 0.13386 575.00 0.0017391 203.22 298.27 1.0017 1.6853 2.3168 1257.6 -0.0055706 180.84 0.13386
22.375 8057.4 undefined 204.91 301.52 1.0075 575.00 0.0017391 204.91 301.52 1.0075 1.6895 2.3189 1259.5 -0.0055739 180.78 0.13400 575.00 0.0017391 204.91 301.52 1.0075 1.6895 2.3189 1259.5 -0.0055739 180.78 0.13400
23.375 8188.1 undefined 206.60 304.78 1.0132 575.00 0.0017391 206.60 304.78 1.0132 1.6937 2.3210 1261.3 -0.0055770 180.73 0.13414 575.00 0.0017391 206.60 304.78 1.0132 1.6937 2.3210 1261.3 -0.0055770 180.73 0.13414
24.375 8318.8 undefined 208.30 308.04 1.0189 575.00 0.0017391 208.30 308.04 1.0189 1.6980 2.3232 1263.1 -0.0055799 180.67 0.13428 575.00 0.0017391 208.30 308.04 1.0189 1.6980 2.3232 1263.1 -0.0055799 180.67 0.13428
25.375 8449.2 undefined 210.00 311.31 1.0246 575.00 0.0017391 210.00 311.31 1.0246 1.7022 2.3254 1264.9 -0.0055826 180.62 0.13442 575.00 0.0017391 210.00 311.31 1.0246 1.7022 2.3254 1264.9 -0.0055826 180.62 0.13442
26.375 8579.6 undefined 211.70 314.58 1.0303 575.00 0.0017391 211.70 314.58 1.0303 1.7065 2.3276 1266.7 -0.0055852 180.56 0.13456 575.00 0.0017391 211.70 314.58 1.0303 1.7065 2.3276 1266.7 -0.0055852 180.56 0.13456
27.375 8709.8 undefined 213.41 317.85 1.0360 575.00 0.0017391 213.41 317.85 1.0360 1.7107 2.3299 1268.5 -0.0055876 180.51 0.13470 575.00 0.0017391 213.41 317.85 1.0360 1.7107 2.3299 1268.5 -0.0055876 180.51 0.13470
28.375 8839.8 undefined 215.12 321.12 1.0417 575.00 0.0017391 215.12 321.12 1.0417 1.7150 2.3321 1270.3 -0.0055899 180.46 0.13484 575.00 0.0017391 215.12 321.12 1.0417 1.7150 2.3321 1270.3 -0.0055899 180.46 0.13484
29.375 8969.7 undefined 216.84 324.39 1.0474 575.00 0.0017391 216.84 324.39 1.0474 1.7192 2.3345 1272.1 -0.0055920 180.40 0.13498 575.00 0.0017391 216.84 324.39 1.0474 1.7192 2.3345 1272.1 -0.0055920 180.40 0.13498
30.375 9099.5 undefined 218.56 327.67 1.0530 575.00 0.0017391 218.56 327.67 1.0530 1.7235 2.3368 1273.9 -0.0055940 180.35 0.13512 575.00 0.0017391 218.56 327.67 1.0530 1.7235 2.3368 1273.9 -0.0055940 180.35 0.13512
31.375 9229.1 undefined 220.29 330.95 1.0587 575.00 0.0017391 220.29 330.95 1.0587 1.7278 2.3391 1275.7 -0.0055958 180.30 0.13526 575.00 0.0017391 220.29 330.95 1.0587 1.7278 2.3391 1275.7 -0.0055958 180.30 0.13526
32.375 9358.6 undefined 222.02 334.23 1.0644 575.00 0.0017391 222.02 334.23 1.0644 1.7321 2.3415 1277.4 -0.0055974 180.25 0.13540 575.00 0.0017391 222.02 334.23 1.0644 1.7321 2.3415 1277.4 -0.0055974 180.25 0.13540
33.375 9487.9 undefined 223.75 337.52 1.0701 575.00 0.0017391 223.75 337.52 1.0701 1.7364 2.3439 1279.2 -0.0055989 180.20 0.13555 575.00 0.0017391 223.75 337.52 1.0701 1.7364 2.3439 1279.2 -0.0055989 180.20 0.13555
34.375 9617.1 undefined 225.49 340.81 1.0757 575.00 0.0017391 225.49 340.81 1.0757 1.7407 2.3464 1280.9 -0.0056003 180.15 0.13569 575.00 0.0017391 225.49 340.81 1.0757 1.7407 2.3464 1280.9 -0.0056003 180.15 0.13569
35.375 9746.2 undefined 227.23 344.10 1.0814 575.00 0.0017391 227.23 344.10 1.0814 1.7450 2.3488 1282.6 -0.0056015 180.11 0.13583 575.00 0.0017391 227.23 344.10 1.0814 1.7450 2.3488 1282.6 -0.0056015 180.11 0.13583
36.375 9875.1 undefined 228.98 347.39 1.0870 575.00 0.0017391 228.98 347.39 1.0870 1.7493 2.3513 1284.4 -0.0056026 180.06 0.13598 575.00 0.0017391 228.98 347.39 1.0870 1.7493 2.3513 1284.4 -0.0056026 180.06 0.13598
37.375 10004. undefined 230.73 350.68 1.0927 575.00 0.0017391 230.73 350.68 1.0927 1.7536 2.3538 1286.1 -0.0056036 180.01 0.13612 575.00 0.0017391 230.73 350.68 1.0927 1.7536 2.3538 1286.1 -0.0056036 180.01 0.13612
38.375 10132. undefined 232.49 353.98 1.0983 575.00 0.0017391 232.49 353.98 1.0983 1.7579 2.3563 1287.8 -0.0056044 179.96 0.13626 575.00 0.0017391 232.49 353.98 1.0983 1.7579 2.3563 1287.8 -0.0056044 179.96 0.13626
39.375 10261. undefined 234.25 357.28 1.1040 575.00 0.0017391 234.25 357.28 1.1040 1.7622 2.3589 1289.5 -0.0056051 179.92 0.13641 575.00 0.0017391 234.25 357.28 1.1040 1.7622 2.3589 1289.5 -0.0056051 179.92 0.13641
40.375 10389. undefined 236.01 360.59 1.1096 575.00 0.0017391 236.01 360.59 1.1096 1.7666 2.3614 1291.2 -0.0056057 179.87 0.13655 575.00 0.0017391 236.01 360.59 1.1096 1.7666 2.3614 1291.2 -0.0056057 179.87 0.13655
41.375 10518. undefined 237.78 363.89 1.1152 575.00 0.0017391 237.78 363.89 1.1152 1.7709 2.3640 1292.9 -0.0056062 179.83 0.13669 575.00 0.0017391 237.78 363.89 1.1152 1.7709 2.3640 1292.9 -0.0056062 179.83 0.13669
42.375 10646. undefined 239.55 367.20 1.1209 575.00 0.0017391 239.55 367.20 1.1209 1.7752 2.3666 1294.6 -0.0056065 179.78 0.13684 575.00 0.0017391 239.55 367.20 1.1209 1.7752 2.3666 1294.6 -0.0056065 179.78 0.13684
43.375 10774. undefined 241.33 370.51 1.1265 575.00 0.0017391 241.33 370.51 1.1265 1.7796 2.3692 1296.3 -0.0056067 179.74 0.13698 575.00 0.0017391 241.33 370.51 1.1265 1.7796 2.3692 1296.3 -0.0056067 179.74 0.13698
44.375 10901. undefined 243.11 373.83 1.1321 575.00 0.0017391 243.11 373.83 1.1321 1.7839 2.3719 1298.0 -0.0056068 179.70 0.13713 575.00 0.0017391 243.11 373.83 1.1321 1.7839 2.3719 1298.0 -0.0056068 179.70 0.13713
45.375 11029. undefined 244.90 377.15 1.1377 575.00 0.0017391 244.90 377.15 1.1377 1.7883 2.3746 1299.6 -0.0056068 179.65 0.13728 575.00 0.0017391 244.90 377.15 1.1377 1.7883 2.3746 1299.6 -0.0056068 179.65 0.13728
46.375 11157. undefined 246.69 380.47 1.1433 575.00 0.0017391 246.69 380.47 1.1433 1.7926 2.3772 1301.3 -0.0056067 179.61 0.13742 575.00 0.0017391 246.69 380.47 1.1433 1.7926 2.3772 1301.3 -0.0056067 179.61 0.13742
47.375 11284. undefined 248.48 383.79 1.1490 575.00 0.0017391 248.48 383.79 1.1490 1.7970 2.3799 1303.0 -0.0056065 179.57 0.13757 575.00 0.0017391 248.48 383.79 1.1490 1.7970 2.3799 1303.0 -0.0056065 179.57 0.13757
48.375 11411. undefined 250.28 387.11 1.1546 575.00 0.0017391 250.28 387.11 1.1546 1.8013 2.3827 1304.6 -0.0056061 179.53 0.13771 575.00 0.0017391 250.28 387.11 1.1546 1.8013 2.3827 1304.6 -0.0056061 179.53 0.13771
49.375 11538. undefined 252.08 390.44 1.1602 575.00 0.0017391 252.08 390.44 1.1602 1.8057 2.3854 1306.3 -0.0056057 179.49 0.13786 575.00 0.0017391 252.08 390.44 1.1602 1.8057 2.3854 1306.3 -0.0056057 179.49 0.13786
50.375 11665. undefined 253.89 393.77 1.1658 575.00 0.0017391 253.89 393.77 1.1658 1.8101 2.3882 1307.9 -0.0056052 179.45 0.13801 575.00 0.0017391 253.89 393.77 1.1658 1.8101 2.3882 1307.9 -0.0056052 179.45 0.13801
51.375 11792. undefined 255.70 397.11 1.1713 575.00 0.0017391 255.70 397.11 1.1713 1.8144 2.3909 1309.5 -0.0056045 179.41 0.13816 575.00 0.0017391 255.70 397.11 1.1713 1.8144 2.3909 1309.5 -0.0056045 179.41 0.13816
52.375 11919. undefined 257.52 400.44 1.1769 575.00 0.0017391 257.52 400.44 1.1769 1.8188 2.3937 1311.2 -0.0056038 179.37 0.13830 575.00 0.0017391 257.52 400.44 1.1769 1.8188 2.3937 1311.2 -0.0056038 179.37 0.13830
53.375 12046. undefined 259.34 403.78 1.1825 575.00 0.0017391 259.34 403.78 1.1825 1.8232 2.3965 1312.8 -0.0056029 179.33 0.13845 575.00 0.0017391 259.34 403.78 1.1825 1.8232 2.3965 1312.8 -0.0056029 179.33 0.13845
54.375 12172. undefined 261.17 407.12 1.1881 575.00 0.0017391 261.17 407.12 1.1881 1.8275 2.3994 1314.4 -0.0056020 179.29 0.13860 575.00 0.0017391 261.17 407.12 1.1881 1.8275 2.3994 1314.4 -0.0056020 179.29 0.13860
55.375 12298. undefined 263.00 410.47 1.1937 575.00 0.0017391 263.00 410.47 1.1937 1.8319 2.4022 1316.0 -0.0056010 179.26 0.13875 575.00 0.0017391 263.00 410.47 1.1937 1.8319 2.4022 1316.0 -0.0056010 179.26 0.13875
56.375 12425. undefined 264.83 413.81 1.1993 575.00 0.0017391 264.83 413.81 1.1993 1.8363 2.4050 1317.6 -0.0055999 179.22 0.13890 575.00 0.0017391 264.83 413.81 1.1993 1.8363 2.4050 1317.6 -0.0055999 179.22 0.13890
57.375 12551. undefined 266.67 417.16 1.2048 575.00 0.0017391 266.67 417.16 1.2048 1.8407 2.4079 1319.2 -0.0055987 179.18 0.13905 575.00 0.0017391 266.67 417.16 1.2048 1.8407 2.4079 1319.2 -0.0055987 179.18 0.13905
58.375 12677. undefined 268.51 420.52 1.2104 575.00 0.0017391 268.51 420.52 1.2104 1.8451 2.4108 1320.8 -0.0055974 179.15 0.13920 575.00 0.0017391 268.51 420.52 1.2104 1.8451 2.4108 1320.8 -0.0055974 179.15 0.13920
59.375 12803. undefined 270.36 423.87 1.2160 575.00 0.0017391 270.36 423.87 1.2160 1.8495 2.4137 1322.4 -0.0055960 179.11 0.13935 575.00 0.0017391 270.36 423.87 1.2160 1.8495 2.4137 1322.4 -0.0055960 179.11 0.13935
60.375 12928. undefined 272.21 427.23 1.2215 575.00 0.0017391 272.21 427.23 1.2215 1.8538 2.4166 1324.0 -0.0055946 179.07 0.13950 575.00 0.0017391 272.21 427.23 1.2215 1.8538 2.4166 1324.0 -0.0055946 179.07 0.13950
61.375 13054. undefined 274.07 430.59 1.2271 575.00 0.0017391 274.07 430.59 1.2271 1.8582 2.4195 1325.6 -0.0055930 179.04 0.13965 575.00 0.0017391 274.07 430.59 1.2271 1.8582 2.4195 1325.6 -0.0055930 179.04 0.13965
62.375 13179. undefined 275.93 433.96 1.2326 575.00 0.0017391 275.93 433.96 1.2326 1.8626 2.4225 1327.2 -0.0055914 179.01 0.13980 575.00 0.0017391 275.93 433.96 1.2326 1.8626 2.4225 1327.2 -0.0055914 179.01 0.13980
63.375 13305. undefined 277.79 437.33 1.2382 575.00 0.0017391 277.79 437.33 1.2382 1.8670 2.4254 1328.7 -0.0055897 178.97 0.13995 575.00 0.0017391 277.79 437.33 1.2382 1.8670 2.4254 1328.7 -0.0055897 178.97 0.13995
64.375 13430. undefined 279.66 440.70 1.2437 575.00 0.0017391 279.66 440.70 1.2437 1.8714 2.4284 1330.3 -0.0055879 178.94 0.14010 575.00 0.0017391 279.66 440.70 1.2437 1.8714 2.4284 1330.3 -0.0055879 178.94 0.14010
65.375 13555. undefined 281.54 444.07 1.2493 575.00 0.0017391 281.54 444.07 1.2493 1.8758 2.4314 1331.8 -0.0055861 178.90 0.14025 575.00 0.0017391 281.54 444.07 1.2493 1.8758 2.4314 1331.8 -0.0055861 178.90 0.14025
66.375 13680. undefined 283.41 447.45 1.2548 575.00 0.0017391 283.41 447.45 1.2548 1.8802 2.4344 1333.4 -0.0055842 178.87 0.14040 575.00 0.0017391 283.41 447.45 1.2548 1.8802 2.4344 1333.4 -0.0055842 178.87 0.14040
67.375 13804. undefined 285.30 450.82 1.2603 575.00 0.0017391 285.30 450.82 1.2603 1.8846 2.4374 1335.0 -0.0055822 178.84 0.14055 575.00 0.0017391 285.30 450.82 1.2603 1.8846 2.4374 1335.0 -0.0055822 178.84 0.14055
68.375 13929. undefined 287.18 454.21 1.2659 575.00 0.0017391 287.18 454.21 1.2659 1.8890 2.4404 1336.5 -0.0055801 178.81 0.14071 575.00 0.0017391 287.18 454.21 1.2659 1.8890 2.4404 1336.5 -0.0055801 178.81 0.14071
69.375 14054. undefined 289.07 457.59 1.2714 575.00 0.0017391 289.07 457.59 1.2714 1.8934 2.4434 1338.0 -0.0055780 178.78 0.14086 575.00 0.0017391 289.07 457.59 1.2714 1.8934 2.4434 1338.0 -0.0055780 178.78 0.14086
70.375 14178. undefined 290.97 460.98 1.2769 575.00 0.0017391 290.97 460.98 1.2769 1.8978 2.4465 1339.6 -0.0055758 178.74 0.14101 575.00 0.0017391 290.97 460.98 1.2769 1.8978 2.4465 1339.6 -0.0055758 178.74 0.14101
71.375 14302. undefined 292.87 464.37 1.2824 575.00 0.0017391 292.87 464.37 1.2824 1.9022 2.4495 1341.1 -0.0055736 178.71 0.14117 575.00 0.0017391 292.87 464.37 1.2824 1.9022 2.4495 1341.1 -0.0055736 178.71 0.14117
72.375 14427. undefined 294.77 467.76 1.2880 575.00 0.0017391 294.77 467.76 1.2880 1.9066 2.4526 1342.6 -0.0055713 178.68 0.14132 575.00 0.0017391 294.77 467.76 1.2880 1.9066 2.4526 1342.6 -0.0055713 178.68 0.14132
73.375 14551. undefined 296.68 471.16 1.2935 575.00 0.0017391 296.68 471.16 1.2935 1.9110 2.4557 1344.2 -0.0055689 178.65 0.14147 575.00 0.0017391 296.68 471.16 1.2935 1.9110 2.4557 1344.2 -0.0055689 178.65 0.14147
74.375 14674. undefined 298.60 474.56 1.2990 575.00 0.0017391 298.60 474.56 1.2990 1.9154 2.4588 1345.7 -0.0055664 178.62 0.14163 575.00 0.0017391 298.60 474.56 1.2990 1.9154 2.4588 1345.7 -0.0055664 178.62 0.14163
75.375 14798. undefined 300.51 477.96 1.3045 575.00 0.0017391 300.51 477.96 1.3045 1.9198 2.4619 1347.2 -0.0055639 178.60 0.14178 575.00 0.0017391 300.51 477.96 1.3045 1.9198 2.4619 1347.2 -0.0055639 178.60 0.14178
76.375 14922. undefined 302.44 481.36 1.3100 575.00 0.0017391 302.44 481.36 1.3100 1.9242 2.4650 1348.7 -0.0055614 178.57 0.14194 575.00 0.0017391 302.44 481.36 1.3100 1.9242 2.4650 1348.7 -0.0055614 178.57 0.14194
77.375 15045. undefined 304.36 484.77 1.3155 575.00 0.0017391 304.36 484.77 1.3155 1.9286 2.4681 1350.2 -0.0055588 178.54 0.14209 575.00 0.0017391 304.36 484.77 1.3155 1.9286 2.4681 1350.2 -0.0055588 178.54 0.14209
78.375 15169. undefined 306.29 488.18 1.3210 575.00 0.0017391 306.29 488.18 1.3210 1.9330 2.4712 1351.7 -0.0055561 178.51 0.14225 575.00 0.0017391 306.29 488.18 1.3210 1.9330 2.4712 1351.7 -0.0055561 178.51 0.14225
79.375 15292. undefined 308.23 491.60 1.3265 575.00 0.0017391 308.23 491.60 1.3265 1.9373 2.4743 1353.2 -0.0055534 178.48 0.14240 575.00 0.0017391 308.23 491.60 1.3265 1.9373 2.4743 1353.2 -0.0055534 178.48 0.14240
80.375 15415. undefined 310.17 495.01 1.3320 575.00 0.0017391 310.17 495.01 1.3320 1.9417 2.4775 1354.7 -0.0055506 178.46 0.14256 575.00 0.0017391 310.17 495.01 1.3320 1.9417 2.4775 1354.7 -0.0055506 178.46 0.14256
81.375 15538. undefined 312.11 498.43 1.3375 575.00 0.0017391 312.11 498.43 1.3375 1.9461 2.4806 1356.2 -0.0055478 178.43 0.14272 575.00 0.0017391 312.11 498.43 1.3375 1.9461 2.4806 1356.2 -0.0055478 178.43 0.14272
82.375 15661. undefined 314.06 501.85 1.3430 575.00 0.0017391 314.06 501.85 1.3430 1.9505 2.4838 1357.7 -0.0055449 178.40 0.14287 575.00 0.0017391 314.06 501.85 1.3430 1.9505 2.4838 1357.7 -0.0055449 178.40 0.14287
83.375 15784. undefined 316.01 505.28 1.3485 575.00 0.0017391 316.01 505.28 1.3485 1.9549 2.4870 1359.1 -0.0055419 178.38 0.14303 575.00 0.0017391 316.01 505.28 1.3485 1.9549 2.4870 1359.1 -0.0055419 178.38 0.14303
84.375 15907. undefined 317.97 508.71 1.3540 575.00 0.0017391 317.97 508.71 1.3540 1.9593 2.4902 1360.6 -0.0055390 178.35 0.14319 575.00 0.0017391 317.97 508.71 1.3540 1.9593 2.4902 1360.6 -0.0055390 178.35 0.14319
85.375 16030. undefined 319.93 512.14 1.3594 575.00 0.0017391 319.93 512.14 1.3594 1.9637 2.4933 1362.1 -0.0055359 178.33 0.14334 575.00 0.0017391 319.93 512.14 1.3594 1.9637 2.4933 1362.1 -0.0055359 178.33 0.14334
86.375 16152. undefined 321.90 515.57 1.3649 575.00 0.0017391 321.90 515.57 1.3649 1.9681 2.4965 1363.6 -0.0055329 178.30 0.14350 575.00 0.0017391 321.90 515.57 1.3649 1.9681 2.4965 1363.6 -0.0055329 178.30 0.14350
87.375 16274. undefined 323.87 519.01 1.3704 575.00 0.0017391 323.87 519.01 1.3704 1.9725 2.4997 1365.0 -0.0055297 178.28 0.14366 575.00 0.0017391 323.87 519.01 1.3704 1.9725 2.4997 1365.0 -0.0055297 178.28 0.14366
88.375 16397. undefined 325.84 522.45 1.3759 575.00 0.0017391 325.84 522.45 1.3759 1.9769 2.5030 1366.5 -0.0055266 178.25 0.14382 575.00 0.0017391 325.84 522.45 1.3759 1.9769 2.5030 1366.5 -0.0055266 178.25 0.14382
89.375 16519. undefined 327.82 525.89 1.3813 575.00 0.0017391 327.82 525.89 1.3813 1.9813 2.5062 1367.9 -0.0055234 178.23 0.14398 575.00 0.0017391 327.82 525.89 1.3813 1.9813 2.5062 1367.9 -0.0055234 178.23 0.14398
90.375 16641. undefined 329.80 529.34 1.3868 575.00 0.0017391 329.80 529.34 1.3868 1.9857 2.5094 1369.4 -0.0055201 178.20 0.14413 575.00 0.0017391 329.80 529.34 1.3868 1.9857 2.5094 1369.4 -0.0055201 178.20 0.14413
91.375 16763. undefined 331.79 532.79 1.3922 575.00 0.0017391 331.79 532.79 1.3922 1.9900 2.5126 1370.8 -0.0055169 178.18 0.14429 575.00 0.0017391 331.79 532.79 1.3922 1.9900 2.5126 1370.8 -0.0055169 178.18 0.14429
92.375 16884. undefined 333.78 536.24 1.3977 575.00 0.0017391 333.78 536.24 1.3977 1.9944 2.5159 1372.3 -0.0055135 178.16 0.14445 575.00 0.0017391 333.78 536.24 1.3977 1.9944 2.5159 1372.3 -0.0055135 178.16 0.14445
93.375 17006. undefined 335.78 539.70 1.4032 575.00 0.0017391 335.78 539.70 1.4032 1.9988 2.5191 1373.7 -0.0055102 178.13 0.14461 575.00 0.0017391 335.78 539.70 1.4032 1.9988 2.5191 1373.7 -0.0055102 178.13 0.14461
94.375 17127. undefined 337.78 543.16 1.4086 575.00 0.0017391 337.78 543.16 1.4086 2.0032 2.5224 1375.2 -0.0055068 178.11 0.14477 575.00 0.0017391 337.78 543.16 1.4086 2.0032 2.5224 1375.2 -0.0055068 178.11 0.14477
95.375 17249. undefined 339.79 546.62 1.4141 575.00 0.0017391 339.79 546.62 1.4141 2.0076 2.5256 1376.6 -0.0055033 178.09 0.14493 575.00 0.0017391 339.79 546.62 1.4141 2.0076 2.5256 1376.6 -0.0055033 178.09 0.14493
96.375 17370. undefined 341.80 550.08 1.4195 575.00 0.0017391 341.80 550.08 1.4195 2.0119 2.5289 1378.0 -0.0054999 178.07 0.14509 575.00 0.0017391 341.80 550.08 1.4195 2.0119 2.5289 1378.0 -0.0054999 178.07 0.14509
97.375 17491. undefined 343.81 553.55 1.4249 575.00 0.0017391 343.81 553.55 1.4249 2.0163 2.5322 1379.4 -0.0054963 178.05 0.14525 575.00 0.0017391 343.81 553.55 1.4249 2.0163 2.5322 1379.4 -0.0054963 178.05 0.14525
98.375 17612. undefined 345.83 557.02 1.4304 575.00 0.0017391 345.83 557.02 1.4304 2.0207 2.5355 1380.9 -0.0054928 178.03 0.14542 575.00 0.0017391 345.83 557.02 1.4304 2.0207 2.5355 1380.9 -0.0054928 178.03 0.14542
99.375 17733. undefined 347.85 560.49 1.4358 575.00 0.0017391 347.85 560.49 1.4358 2.0251 2.5387 1382.3 -0.0054892 178.00 0.14558 575.00 0.0017391 347.85 560.49 1.4358 2.0251 2.5387 1382.3 -0.0054892 178.00 0.14558
100.38 17854. undefined 349.88 563.97 1.4413 575.00 0.0017391 349.88 563.97 1.4413 2.0294 2.5420 1383.7 -0.0054856 177.98 0.14574 575.00 0.0017391 349.88 563.97 1.4413 2.0294 2.5420 1383.7 -0.0054856 177.98 0.14574
101.38 17975. undefined 351.91 567.45 1.4467 575.00 0.0017391 351.91 567.45 1.4467 2.0338 2.5453 1385.1 -0.0054820 177.96 0.14590 575.00 0.0017391 351.91 567.45 1.4467 2.0338 2.5453 1385.1 -0.0054820 177.96 0.14590
102.38 18096. undefined 353.95 570.93 1.4521 575.00 0.0017391 353.95 570.93 1.4521 2.0382 2.5486 1386.5 -0.0054783 177.94 0.14606 575.00 0.0017391 353.95 570.93 1.4521 2.0382 2.5486 1386.5 -0.0054783 177.94 0.14606
103.38 18216. undefined 355.99 574.42 1.4575 575.00 0.0017391 355.99 574.42 1.4575 2.0425 2.5519 1387.9 -0.0054746 177.92 0.14623 575.00 0.0017391 355.99 574.42 1.4575 2.0425 2.5519 1387.9 -0.0054746 177.92 0.14623
104.38 18336. undefined 358.03 577.90 1.4630 575.00 0.0017391 358.03 577.90 1.4630 2.0469 2.5552 1389.3 -0.0054709 177.90 0.14639 575.00 0.0017391 358.03 577.90 1.4630 2.0469 2.5552 1389.3 -0.0054709 177.90 0.14639
105.38 18457. undefined 360.08 581.39 1.4684 575.00 0.0017391 360.08 581.39 1.4684 2.0512 2.5586 1390.7 -0.0054671 177.89 0.14655 575.00 0.0017391 360.08 581.39 1.4684 2.0512 2.5586 1390.7 -0.0054671 177.89 0.14655
106.38 18577. undefined 362.14 584.89 1.4738 575.00 0.0017391 362.14 584.89 1.4738 2.0556 2.5619 1392.1 -0.0054633 177.87 0.14672 575.00 0.0017391 362.14 584.89 1.4738 2.0556 2.5619 1392.1 -0.0054633 177.87 0.14672
107.38 18697. undefined 364.19 588.39 1.4792 575.00 0.0017391 364.19 588.39 1.4792 2.0600 2.5652 1393.5 -0.0054595 177.85 0.14688 575.00 0.0017391 364.19 588.39 1.4792 2.0600 2.5652 1393.5 -0.0054595 177.85 0.14688
108.38 18817. undefined 366.26 591.89 1.4846 575.00 0.0017391 366.26 591.89 1.4846 2.0643 2.5685 1394.9 -0.0054557 177.83 0.14704 575.00 0.0017391 366.26 591.89 1.4846 2.0643 2.5685 1394.9 -0.0054557 177.83 0.14704
109.38 18937. undefined 368.32 595.39 1.4900 575.00 0.0017391 368.32 595.39 1.4900 2.0686 2.5719 1396.3 -0.0054518 177.81 0.14721 575.00 0.0017391 368.32 595.39 1.4900 2.0686 2.5719 1396.3 -0.0054518 177.81 0.14721
110.38 19057. undefined 370.39 598.90 1.4954 575.00 0.0017391 370.39 598.90 1.4954 2.0730 2.5752 1397.6 -0.0054480 177.79 0.14737 575.00 0.0017391 370.39 598.90 1.4954 2.0730 2.5752 1397.6 -0.0054480 177.79 0.14737
111.38 19176. undefined 372.47 602.41 1.5009 575.00 0.0017391 372.47 602.41 1.5009 2.0773 2.5785 1399.0 -0.0054440 177.78 0.14754 575.00 0.0017391 372.47 602.41 1.5009 2.0773 2.5785 1399.0 -0.0054440 177.78 0.14754
112.38 19296. undefined 374.55 605.92 1.5063 575.00 0.0017391 374.55 605.92 1.5063 2.0817 2.5819 1400.4 -0.0054401 177.76 0.14770 575.00 0.0017391 374.55 605.92 1.5063 2.0817 2.5819 1400.4 -0.0054401 177.76 0.14770
113.38 19415. undefined 376.63 609.43 1.5117 575.00 0.0017391 376.63 609.43 1.5117 2.0860 2.5852 1401.8 -0.0054362 177.74 0.14787 575.00 0.0017391 376.63 609.43 1.5117 2.0860 2.5852 1401.8 -0.0054362 177.74 0.14787
114.38 19534. undefined 378.72 612.95 1.5170 575.00 0.0017391 378.72 612.95 1.5170 2.0903 2.5886 1403.1 -0.0054322 177.73 0.14803 575.00 0.0017391 378.72 612.95 1.5170 2.0903 2.5886 1403.1 -0.0054322 177.73 0.14803
115.38 19653. undefined 380.81 616.47 1.5224 575.00 0.0017391 380.81 616.47 1.5224 2.0947 2.5920 1404.5 -0.0054282 177.71 0.14820 575.00 0.0017391 380.81 616.47 1.5224 2.0947 2.5920 1404.5 -0.0054282 177.71 0.14820
116.38 19773. undefined 382.91 620.00 1.5278 575.00 0.0017391 382.91 620.00 1.5278 2.0990 2.5953 1405.8 -0.0054242 177.69 0.14837 575.00 0.0017391 382.91 620.00 1.5278 2.0990 2.5953 1405.8 -0.0054242 177.69 0.14837
117.38 19892. undefined 385.01 623.53 1.5332 575.00 0.0017391 385.01 623.53 1.5332 2.1033 2.5987 1407.2 -0.0054201 177.68 0.14853 575.00 0.0017391 385.01 623.53 1.5332 2.1033 2.5987 1407.2 -0.0054201 177.68 0.14853
118.38 20010. undefined 387.12 627.06 1.5386 575.00 0.0017391 387.12 627.06 1.5386 2.1077 2.6020 1408.6 -0.0054161 177.66 0.14870 575.00 0.0017391 387.12 627.06 1.5386 2.1077 2.6020 1408.6 -0.0054161 177.66 0.14870
119.38 20129. undefined 389.23 630.59 1.5440 575.00 0.0017391 389.23 630.59 1.5440 2.1120 2.6054 1409.9 -0.0054120 177.65 0.14887 575.00 0.0017391 389.23 630.59 1.5440 2.1120 2.6054 1409.9 -0.0054120 177.65 0.14887
120.38 20248. undefined 391.34 634.13 1.5494 575.00 0.0017391 391.34 634.13 1.5494 2.1163 2.6088 1411.3 -0.0054079 177.63 0.14904 575.00 0.0017391 391.34 634.13 1.5494 2.1163 2.6088 1411.3 -0.0054079 177.63 0.14904
121.38 20366. undefined 393.46 637.67 1.5547 575.00 0.0017391 393.46 637.67 1.5547 2.1206 2.6122 1412.6 -0.0054038 177.62 0.14920 575.00 0.0017391 393.46 637.67 1.5547 2.1206 2.6122 1412.6 -0.0054038 177.62 0.14920
122.38 20485. undefined 395.58 641.21 1.5601 575.00 0.0017391 395.58 641.21 1.5601 2.1249 2.6155 1413.9 -0.0053997 177.60 0.14937 575.00 0.0017391 395.58 641.21 1.5601 2.1249 2.6155 1413.9 -0.0053997 177.60 0.14937
123.38 20603. undefined 397.71 644.76 1.5655 575.00 0.0017391 397.71 644.76 1.5655 2.1292 2.6189 1415.3 -0.0053955 177.59 0.14954 575.00 0.0017391 397.71 644.76 1.5655 2.1292 2.6189 1415.3 -0.0053955 177.59 0.14954
124.38 20721. undefined 399.84 648.31 1.5709 575.00 0.0017391 399.84 648.31 1.5709 2.1335 2.6223 1416.6 -0.0053914 177.57 0.14971 575.00 0.0017391 399.84 648.31 1.5709 2.1335 2.6223 1416.6 -0.0053914 177.57 0.14971
125.38 20839. undefined 401.97 651.86 1.5762 575.00 0.0017391 401.97 651.86 1.5762 2.1378 2.6257 1417.9 -0.0053872 177.56 0.14988 575.00 0.0017391 401.97 651.86 1.5762 2.1378 2.6257 1417.9 -0.0053872 177.56 0.14988
126.38 20957. undefined 404.11 655.41 1.5816 575.00 0.0017391 404.11 655.41 1.5816 2.1421 2.6291 1419.3 -0.0053830 177.55 0.15005 575.00 0.0017391 404.11 655.41 1.5816 2.1421 2.6291 1419.3 -0.0053830 177.55 0.15005
127.38 21075. undefined 406.26 658.97 1.5869 575.00 0.0017391 406.26 658.97 1.5869 2.1464 2.6325 1420.6 -0.0053788 177.53 0.15022 575.00 0.0017391 406.26 658.97 1.5869 2.1464 2.6325 1420.6 -0.0053788 177.53 0.15022
128.38 21193. undefined 408.41 662.53 1.5923 575.00 0.0017391 408.41 662.53 1.5923 2.1507 2.6359 1421.9 -0.0053746 177.52 0.15039 575.00 0.0017391 408.41 662.53 1.5923 2.1507 2.6359 1421.9 -0.0053746 177.52 0.15039
129.38 21311. undefined 410.56 666.10 1.5977 575.00 0.0017391 410.56 666.10 1.5977 2.1550 2.6393 1423.2 -0.0053704 177.51 0.15056 575.00 0.0017391 410.56 666.10 1.5977 2.1550 2.6393 1423.2 -0.0053704 177.51 0.15056
130.38 21428. undefined 412.72 669.66 1.6030 575.00 0.0017391 412.72 669.66 1.6030 2.1593 2.6427 1424.6 -0.0053661 177.49 0.15073 575.00 0.0017391 412.72 669.66 1.6030 2.1593 2.6427 1424.6 -0.0053661 177.49 0.15073
131.38 21546. undefined 414.88 673.23 1.6084 575.00 0.0017391 414.88 673.23 1.6084 2.1635 2.6460 1425.9 -0.0053619 177.48 0.15090 575.00 0.0017391 414.88 673.23 1.6084 2.1635 2.6460 1425.9 -0.0053619 177.48 0.15090
132.38 21663. undefined 417.04 676.81 1.6137 575.00 0.0017391 417.04 676.81 1.6137 2.1678 2.6494 1427.2 -0.0053576 177.47 0.15107 575.00 0.0017391 417.04 676.81 1.6137 2.1678 2.6494 1427.2 -0.0053576 177.47 0.15107
133.38 21781. undefined 419.21 680.38 1.6190 575.00 0.0017391 419.21 680.38 1.6190 2.1721 2.6528 1428.5 -0.0053533 177.46 0.15124 575.00 0.0017391 419.21 680.38 1.6190 2.1721 2.6528 1428.5 -0.0053533 177.46 0.15124
134.38 21898. undefined 421.39 683.96 1.6244 575.00 0.0017391 421.39 683.96 1.6244 2.1763 2.6563 1429.8 -0.0053490 177.44 0.15141 575.00 0.0017391 421.39 683.96 1.6244 2.1763 2.6563 1429.8 -0.0053490 177.44 0.15141
135.38 22015. undefined 423.57 687.54 1.6297 575.00 0.0017391 423.57 687.54 1.6297 2.1806 2.6597 1431.1 -0.0053447 177.43 0.15159 575.00 0.0017391 423.57 687.54 1.6297 2.1806 2.6597 1431.1 -0.0053447 177.43 0.15159
136.38 22132. undefined 425.75 691.13 1.6351 575.00 0.0017391 425.75 691.13 1.6351 2.1849 2.6631 1432.4 -0.0053404 177.42 0.15176 575.00 0.0017391 425.75 691.13 1.6351 2.1849 2.6631 1432.4 -0.0053404 177.42 0.15176
137.38 22249. undefined 427.94 694.72 1.6404 575.00 0.0017391 427.94 694.72 1.6404 2.1891 2.6665 1433.7 -0.0053361 177.41 0.15193 575.00 0.0017391 427.94 694.72 1.6404 2.1891 2.6665 1433.7 -0.0053361 177.41 0.15193
138.38 22365. undefined 430.13 698.31 1.6457 575.00 0.0017391 430.13 698.31 1.6457 2.1934 2.6699 1435.0 -0.0053318 177.40 0.15210 575.00 0.0017391 430.13 698.31 1.6457 2.1934 2.6699 1435.0 -0.0053318 177.40 0.15210
139.38 22482. undefined 432.32 701.90 1.6511 575.00 0.0017391 432.32 701.90 1.6511 2.1976 2.6733 1436.3 -0.0053274 177.39 0.15228 575.00 0.0017391 432.32 701.90 1.6511 2.1976 2.6733 1436.3 -0.0053274 177.39 0.15228
140.38 22599. undefined 434.52 705.50 1.6564 575.00 0.0017391 434.52 705.50 1.6564 2.2019 2.6767 1437.6 -0.0053231 177.38 0.15245 575.00 0.0017391 434.52 705.50 1.6564 2.2019 2.6767 1437.6 -0.0053231 177.38 0.15245
141.38 22715. undefined 436.73 709.10 1.6617 575.00 0.0017391 436.73 709.10 1.6617 2.2061 2.6801 1438.9 -0.0053187 177.37 0.15262 575.00 0.0017391 436.73 709.10 1.6617 2.2061 2.6801 1438.9 -0.0053187 177.37 0.15262
142.38 22831. undefined 438.94 712.70 1.6670 575.00 0.0017391 438.94 712.70 1.6670 2.2103 2.6835 1440.2 -0.0053144 177.36 0.15280 575.00 0.0017391 438.94 712.70 1.6670 2.2103 2.6835 1440.2 -0.0053144 177.36 0.15280
143.38 22948. undefined 441.15 716.31 1.6723 575.00 0.0017391 441.15 716.31 1.6723 2.2146 2.6869 1441.4 -0.0053100 177.35 0.15297 575.00 0.0017391 441.15 716.31 1.6723 2.2146 2.6869 1441.4 -0.0053100 177.35 0.15297
144.38 23064. undefined 443.36 719.92 1.6777 575.00 0.0017391 443.36 719.92 1.6777 2.2188 2.6903 1442.7 -0.0053056 177.34 0.15315 575.00 0.0017391 443.36 719.92 1.6777 2.2188 2.6903 1442.7 -0.0053056 177.34 0.15315
145.38 23180. undefined 445.59 723.53 1.6830 575.00 0.0017391 445.59 723.53 1.6830 2.2230 2.6937 1444.0 -0.0053013 177.33 0.15332 575.00 0.0017391 445.59 723.53 1.6830 2.2230 2.6937 1444.0 -0.0053013 177.33 0.15332
146.38 23296. undefined 447.81 727.15 1.6883 575.00 0.0017391 447.81 727.15 1.6883 2.2272 2.6972 1445.3 -0.0052969 177.32 0.15350 575.00 0.0017391 447.81 727.15 1.6883 2.2272 2.6972 1445.3 -0.0052969 177.32 0.15350
147.38 23412. undefined 450.04 730.77 1.6936 575.00 0.0017391 450.04 730.77 1.6936 2.2314 2.7006 1446.5 -0.0052925 177.31 0.15367 575.00 0.0017391 450.04 730.77 1.6936 2.2314 2.7006 1446.5 -0.0052925 177.31 0.15367
148.38 23528. undefined 452.27 734.39 1.6989 575.00 0.0017391 452.27 734.39 1.6989 2.2356 2.7040 1447.8 -0.0052881 177.30 0.15385 575.00 0.0017391 452.27 734.39 1.6989 2.2356 2.7040 1447.8 -0.0052881 177.30 0.15385
149.38 23643. undefined 454.51 738.01 1.7042 575.00 0.0017391 454.51 738.01 1.7042 2.2399 2.7074 1449.1 -0.0052837 177.29 0.15402 575.00 0.0017391 454.51 738.01 1.7042 2.2399 2.7074 1449.1 -0.0052837 177.29 0.15402
150.38 23759. undefined 456.75 741.64 1.7095 575.00 0.0017391 456.75 741.64 1.7095 2.2441 2.7108 1450.3 -0.0052793 177.28 0.15420 575.00 0.0017391 456.75 741.64 1.7095 2.2441 2.7108 1450.3 -0.0052793 177.28 0.15420
151.38 23874. undefined 459.00 745.27 1.7148 575.00 0.0017391 459.00 745.27 1.7148 2.2483 2.7142 1451.6 -0.0052749 177.27 0.15438 575.00 0.0017391 459.00 745.27 1.7148 2.2483 2.7142 1451.6 -0.0052749 177.27 0.15438
152.38 23990. undefined 461.25 748.91 1.7201 575.00 0.0017391 461.25 748.91 1.7201 2.2524 2.7176 1452.8 -0.0052705 177.27 0.15455 575.00 0.0017391 461.25 748.91 1.7201 2.2524 2.7176 1452.8 -0.0052705 177.27 0.15455
153.38 24105. undefined 463.50 752.54 1.7254 575.00 0.0017391 463.50 752.54 1.7254 2.2566 2.7211 1454.1 -0.0052660 177.26 0.15473 575.00 0.0017391 463.50 752.54 1.7254 2.2566 2.7211 1454.1 -0.0052660 177.26 0.15473
154.38 24220. undefined 465.76 756.18 1.7307 575.00 0.0017391 465.76 756.18 1.7307 2.2608 2.7245 1455.3 -0.0052616 177.25 0.15491 575.00 0.0017391 465.76 756.18 1.7307 2.2608 2.7245 1455.3 -0.0052616 177.25 0.15491
155.38 24335. undefined 468.03 759.83 1.7360 575.00 0.0017391 468.03 759.83 1.7360 2.2650 2.7279 1456.6 -0.0052572 177.24 0.15509 575.00 0.0017391 468.03 759.83 1.7360 2.2650 2.7279 1456.6 -0.0052572 177.24 0.15509
156.38 24450. undefined 470.29 763.47 1.7412 575.00 0.0017391 470.29 763.47 1.7412 2.2692 2.7313 1457.8 -0.0052528 177.23 0.15527 575.00 0.0017391 470.29 763.47 1.7412 2.2692 2.7313 1457.8 -0.0052528 177.23 0.15527
157.38 24565. undefined 472.56 767.12 1.7465 575.00 0.0017391 472.56 767.12 1.7465 2.2733 2.7347 1459.1 -0.0052483 177.23 0.15544 575.00 0.0017391 472.56 767.12 1.7465 2.2733 2.7347 1459.1 -0.0052483 177.23 0.15544
158.38 24680. undefined 474.84 770.77 1.7518 575.00 0.0017391 474.84 770.77 1.7518 2.2775 2.7381 1460.3 -0.0052439 177.22 0.15562 575.00 0.0017391 474.84 770.77 1.7518 2.2775 2.7381 1460.3 -0.0052439 177.22 0.15562
159.38 24795. undefined 477.12 774.43 1.7571 575.00 0.0017391 477.12 774.43 1.7571 2.2817 2.7415 1461.6 -0.0052395 177.21 0.15580 575.00 0.0017391 477.12 774.43 1.7571 2.2817 2.7415 1461.6 -0.0052395 177.21 0.15580
160.38 24909. undefined 479.40 778.09 1.7624 575.00 0.0017391 479.40 778.09 1.7624 2.2858 2.7449 1462.8 -0.0052350 177.21 0.15598 575.00 0.0017391 479.40 778.09 1.7624 2.2858 2.7449 1462.8 -0.0052350 177.21 0.15598
161.38 25024. undefined 481.69 781.75 1.7676 575.00 0.0017391 481.69 781.75 1.7676 2.2900 2.7484 1464.0 -0.0052306 177.20 0.15616 575.00 0.0017391 481.69 781.75 1.7676 2.2900 2.7484 1464.0 -0.0052306 177.20 0.15616
162.38 25138. undefined 483.98 785.41 1.7729 575.00 0.0017391 483.98 785.41 1.7729 2.2941 2.7518 1465.3 -0.0052261 177.19 0.15634 575.00 0.0017391 483.98 785.41 1.7729 2.2941 2.7518 1465.3 -0.0052261 177.19 0.15634
163.38 25253. undefined 486.28 789.08 1.7782 575.00 0.0017391 486.28 789.08 1.7782 2.2983 2.7552 1466.5 -0.0052217 177.19 0.15652 575.00 0.0017391 486.28 789.08 1.7782 2.2983 2.7552 1466.5 -0.0052217 177.19 0.15652
164.38 25367. undefined 488.58 792.75 1.7834 575.00 0.0017391 488.58 792.75 1.7834 2.3024 2.7586 1467.7 -0.0052173 177.18 0.15670 575.00 0.0017391 488.58 792.75 1.7834 2.3024 2.7586 1467.7 -0.0052173 177.18 0.15670
165.38 25481. undefined 490.88 796.42 1.7887 575.00 0.0017391 490.88 796.42 1.7887 2.3065 2.7620 1469.0 -0.0052128 177.17 0.15688 575.00 0.0017391 490.88 796.42 1.7887 2.3065 2.7620 1469.0 -0.0052128 177.17 0.15688
166.38 25595. undefined 493.19 800.10 1.7939 575.00 0.0017391 493.19 800.10 1.7939 2.3107 2.7654 1470.2 -0.0052084 177.17 0.15706 575.00 0.0017391 493.19 800.10 1.7939 2.3107 2.7654 1470.2 -0.0052084 177.17 0.15706
167.38 25709. undefined 495.50 803.78 1.7992 575.00 0.0017391 495.50 803.78 1.7992 2.3148 2.7688 1471.4 -0.0052039 177.16 0.15724 575.00 0.0017391 495.50 803.78 1.7992 2.3148 2.7688 1471.4 -0.0052039 177.16 0.15724
168.38 25823. undefined 497.82 807.46 1.8045 575.00 0.0017391 497.82 807.46 1.8045 2.3189 2.7722 1472.6 -0.0051995 177.16 0.15743 575.00 0.0017391 497.82 807.46 1.8045 2.3189 2.7722 1472.6 -0.0051995 177.16 0.15743
169.38 25937. undefined 500.14 811.14 1.8097 575.00 0.0017391 500.14 811.14 1.8097 2.3230 2.7756 1473.8 -0.0051951 177.15 0.15761 575.00 0.0017391 500.14 811.14 1.8097 2.3230 2.7756 1473.8 -0.0051951 177.15 0.15761
170.38 26050. undefined 502.47 814.83 1.8150 575.00 0.0017391 502.47 814.83 1.8150 2.3271 2.7790 1475.0 -0.0051906 177.15 0.15779 575.00 0.0017391 502.47 814.83 1.8150 2.3271 2.7790 1475.0 -0.0051906 177.15 0.15779
171.38 26164. undefined 504.80 818.52 1.8202 575.00 0.0017391 504.80 818.52 1.8202 2.3312 2.7824 1476.3 -0.0051862 177.14 0.15797 575.00 0.0017391 504.80 818.52 1.8202 2.3312 2.7824 1476.3 -0.0051862 177.14 0.15797
172.38 26277. undefined 507.13 822.22 1.8254 575.00 0.0017391 507.13 822.22 1.8254 2.3353 2.7858 1477.5 -0.0051817 177.14 0.15816 575.00 0.0017391 507.13 822.22 1.8254 2.3353 2.7858 1477.5 -0.0051817 177.14 0.15816
173.38 26391. undefined 509.47 825.92 1.8307 575.00 0.0017391 509.47 825.92 1.8307 2.3394 2.7892 1478.7 -0.0051773 177.13 0.15834 575.00 0.0017391 509.47 825.92 1.8307 2.3394 2.7892 1478.7 -0.0051773 177.13 0.15834
174.38 26504. undefined 511.81 829.62 1.8359 575.00 0.0017391 511.81 829.62 1.8359 2.3435 2.7926 1479.9 -0.0051729 177.13 0.15852 575.00 0.0017391 511.81 829.62 1.8359 2.3435 2.7926 1479.9 -0.0051729 177.13 0.15852
175.38 26617. undefined 514.15 833.32 1.8412 575.00 0.0017391 514.15 833.32 1.8412 2.3476 2.7960 1481.1 -0.0051684 177.12 0.15871 575.00 0.0017391 514.15 833.32 1.8412 2.3476 2.7960 1481.1 -0.0051684 177.12 0.15871
176.38 26730. undefined 516.50 837.02 1.8464 575.00 0.0017391 516.50 837.02 1.8464 2.3517 2.7994 1482.3 -0.0051640 177.12 0.15889 575.00 0.0017391 516.50 837.02 1.8464 2.3517 2.7994 1482.3 -0.0051640 177.12 0.15889
177.38 26843. undefined 518.86 840.73 1.8516 575.00 0.0017391 518.86 840.73 1.8516 2.3557 2.8028 1483.5 -0.0051595 177.11 0.15907 575.00 0.0017391 518.86 840.73 1.8516 2.3557 2.8028 1483.5 -0.0051595 177.11 0.15907
178.38 26956. undefined 521.22 844.45 1.8568 575.00 0.0017391 521.22 844.45 1.8568 2.3598 2.8062 1484.7 -0.0051551 177.11 0.15926 575.00 0.0017391 521.22 844.45 1.8568 2.3598 2.8062 1484.7 -0.0051551 177.11 0.15926
179.38 27069. undefined 523.58 848.16 1.8621 575.00 0.0017391 523.58 848.16 1.8621 2.3639 2.8096 1485.9 -0.0051507 177.11 0.15944 575.00 0.0017391 523.58 848.16 1.8621 2.3639 2.8096 1485.9 -0.0051507 177.11 0.15944
180.38 27182. undefined 525.94 851.88 1.8673 575.00 0.0017391 525.94 851.88 1.8673 2.3679 2.8130 1487.0 -0.0051463 177.10 0.15963 575.00 0.0017391 525.94 851.88 1.8673 2.3679 2.8130 1487.0 -0.0051463 177.10 0.15963
181.38 27295. undefined 528.31 855.60 1.8725 575.00 0.0017391 528.31 855.60 1.8725 2.3720 2.8164 1488.2 -0.0051418 177.10 0.15981 575.00 0.0017391 528.31 855.60 1.8725 2.3720 2.8164 1488.2 -0.0051418 177.10 0.15981
182.38 27407. undefined 530.69 859.32 1.8777 575.00 0.0017391 530.69 859.32 1.8777 2.3760 2.8198 1489.4 -0.0051374 177.10 0.16000 575.00 0.0017391 530.69 859.32 1.8777 2.3760 2.8198 1489.4 -0.0051374 177.10 0.16000
183.38 27520. undefined 533.07 863.05 1.8829 575.00 0.0017391 533.07 863.05 1.8829 2.3801 2.8231 1490.6 -0.0051330 177.09 0.16019 575.00 0.0017391 533.07 863.05 1.8829 2.3801 2.8231 1490.6 -0.0051330 177.09 0.16019
184.38 27632. undefined 535.45 866.78 1.8882 575.00 0.0017391 535.45 866.78 1.8882 2.3841 2.8265 1491.8 -0.0051286 177.09 0.16037 575.00 0.0017391 535.45 866.78 1.8882 2.3841 2.8265 1491.8 -0.0051286 177.09 0.16037
185.38 27744. undefined 537.83 870.51 1.8934 575.00 0.0017391 537.83 870.51 1.8934 2.3882 2.8299 1493.0 -0.0051242 177.09 0.16056 575.00 0.0017391 537.83 870.51 1.8934 2.3882 2.8299 1493.0 -0.0051242 177.09 0.16056
186.38 27857. undefined 540.22 874.25 1.8986 575.00 0.0017391 540.22 874.25 1.8986 2.3922 2.8333 1494.1 -0.0051198 177.08 0.16075 575.00 0.0017391 540.22 874.25 1.8986 2.3922 2.8333 1494.1 -0.0051198 177.08 0.16075
187.38 27969. undefined 542.62 877.99 1.9038 575.00 0.0017391 542.62 877.99 1.9038 2.3962 2.8367 1495.3 -0.0051154 177.08 0.16093 575.00 0.0017391 542.62 877.99 1.9038 2.3962 2.8367 1495.3 -0.0051154 177.08 0.16093
188.38 28081. undefined 545.02 881.73 1.9090 575.00 0.0017391 545.02 881.73 1.9090 2.4002 2.8400 1496.5 -0.0051110 177.08 0.16112 575.00 0.0017391 545.02 881.73 1.9090 2.4002 2.8400 1496.5 -0.0051110 177.08 0.16112
189.38 28193. undefined 547.42 885.47 1.9142 575.00 0.0017391 547.42 885.47 1.9142 2.4043 2.8434 1497.7 -0.0051066 177.08 0.16131 575.00 0.0017391 547.42 885.47 1.9142 2.4043 2.8434 1497.7 -0.0051066 177.08 0.16131
190.38 28305. undefined 549.82 889.22 1.9194 575.00 0.0017391 549.82 889.22 1.9194 2.4083 2.8468 1498.8 -0.0051022 177.07 0.16150 575.00 0.0017391 549.82 889.22 1.9194 2.4083 2.8468 1498.8 -0.0051022 177.07 0.16150
191.38 28416. undefined 552.24 892.97 1.9246 575.00 0.0017391 552.24 892.97 1.9246 2.4123 2.8502 1500.0 -0.0050978 177.07 0.16169 575.00 0.0017391 552.24 892.97 1.9246 2.4123 2.8502 1500.0 -0.0050978 177.07 0.16169
192.38 28528. undefined 554.65 896.73 1.9298 575.00 0.0017391 554.65 896.73 1.9298 2.4163 2.8535 1501.2 -0.0050934 177.07 0.16187 575.00 0.0017391 554.65 896.73 1.9298 2.4163 2.8535 1501.2 -0.0050934 177.07 0.16187
193.38 28640. undefined 557.07 900.48 1.9350 575.00 0.0017391 557.07 900.48 1.9350 2.4203 2.8569 1502.3 -0.0050890 177.07 0.16206 575.00 0.0017391 557.07 900.48 1.9350 2.4203 2.8569 1502.3 -0.0050890 177.07 0.16206
194.38 28751. undefined 559.49 904.24 1.9401 575.00 0.0017391 559.49 904.24 1.9401 2.4242 2.8603 1503.5 -0.0050846 177.06 0.16225 575.00 0.0017391 559.49 904.24 1.9401 2.4242 2.8603 1503.5 -0.0050846 177.06 0.16225
195.38 28863. undefined 561.92 908.00 1.9453 575.00 0.0017391 561.92 908.00 1.9453 2.4282 2.8636 1504.6 -0.0050803 177.06 0.16244 575.00 0.0017391 561.92 908.00 1.9453 2.4282 2.8636 1504.6 -0.0050803 177.06 0.16244
196.38 28974. undefined 564.35 911.77 1.9505 575.00 0.0017391 564.35 911.77 1.9505 2.4322 2.8670 1505.8 -0.0050759 177.06 0.16263 575.00 0.0017391 564.35 911.77 1.9505 2.4322 2.8670 1505.8 -0.0050759 177.06 0.16263
197.38 29085. undefined 566.78 915.54 1.9557 575.00 0.0017391 566.78 915.54 1.9557 2.4362 2.8703 1507.0 -0.0050715 177.06 0.16282 575.00 0.0017391 566.78 915.54 1.9557 2.4362 2.8703 1507.0 -0.0050715 177.06 0.16282
198.38 29196. undefined 569.22 919.31 1.9609 575.00 0.0017391 569.22 919.31 1.9609 2.4402 2.8737 1508.1 -0.0050672 177.06 0.16301 575.00 0.0017391 569.22 919.31 1.9609 2.4402 2.8737 1508.1 -0.0050672 177.06 0.16301
199.38 29307. undefined 571.66 923.08 1.9660 575.00 0.0017391 571.66 923.08 1.9660 2.4441 2.8770 1509.3 -0.0050628 177.06 0.16320 575.00 0.0017391 571.66 923.08 1.9660 2.4441 2.8770 1509.3 -0.0050628 177.06 0.16320
200.38 29418. undefined 574.11 926.86 1.9712 575.00 0.0017391 574.11 926.86 1.9712 2.4481 2.8804 1510.4 -0.0050585 177.06 0.16339 575.00 0.0017391 574.11 926.86 1.9712 2.4481 2.8804 1510.4 -0.0050585 177.06 0.16339
201.38 29529. undefined 576.56 930.64 1.9764 575.00 0.0017391 576.56 930.64 1.9764 2.4520 2.8837 1511.6 -0.0050541 177.06 0.16359 575.00 0.0017391 576.56 930.64 1.9764 2.4520 2.8837 1511.6 -0.0050541 177.06 0.16359
202.38 29640. undefined 579.01 934.42 1.9815 575.00 0.0017391 579.01 934.42 1.9815 2.4560 2.8871 1512.7 -0.0050498 177.05 0.16378 575.00 0.0017391 579.01 934.42 1.9815 2.4560 2.8871 1512.7 -0.0050498 177.05 0.16378
203.38 29751. undefined 581.47 938.21 1.9867 575.00 0.0017391 581.47 938.21 1.9867 2.4599 2.8904 1513.8 -0.0050455 177.05 0.16397 575.00 0.0017391 581.47 938.21 1.9867 2.4599 2.8904 1513.8 -0.0050455 177.05 0.16397
204.38 29862. undefined 583.93 942.00 1.9919 575.00 0.0017391 583.93 942.00 1.9919 2.4639 2.8938 1515.0 -0.0050411 177.05 0.16416 575.00 0.0017391 583.93 942.00 1.9919 2.4639 2.8938 1515.0 -0.0050411 177.05 0.16416
205.38 29972. undefined 586.40 945.79 1.9970 575.00 0.0017391 586.40 945.79 1.9970 2.4678 2.8971 1516.1 -0.0050368 177.05 0.16435 575.00 0.0017391 586.40 945.79 1.9970 2.4678 2.8971 1516.1 -0.0050368 177.05 0.16435
206.38 30083. undefined 588.87 949.58 2.0022 575.00 0.0017391 588.87 949.58 2.0022 2.4717 2.9004 1517.3 -0.0050325 177.05 0.16455 575.00 0.0017391 588.87 949.58 2.0022 2.4717 2.9004 1517.3 -0.0050325 177.05 0.16455
207.38 30193. undefined 591.34 953.38 2.0073 575.00 0.0017391 591.34 953.38 2.0073 2.4756 2.9038 1518.4 -0.0050282 177.05 0.16474 575.00 0.0017391 591.34 953.38 2.0073 2.4756 2.9038 1518.4 -0.0050282 177.05 0.16474
208.38 30303. undefined 593.82 957.18 2.0125 575.00 0.0017391 593.82 957.18 2.0125 2.4795 2.9071 1519.5 -0.0050239 177.05 0.16493 575.00 0.0017391 593.82 957.18 2.0125 2.4795 2.9071 1519.5 -0.0050239 177.05 0.16493
209.38 30414. undefined 596.30 960.99 2.0176 575.00 0.0017391 596.30 960.99 2.0176 2.4835 2.9104 1520.6 -0.0050196 177.05 0.16513 575.00 0.0017391 596.30 960.99 2.0176 2.4835 2.9104 1520.6 -0.0050196 177.05 0.16513
210.38 30524. undefined 598.78 964.79 2.0228 575.00 0.0017391 598.78 964.79 2.0228 2.4874 2.9138 1521.8 -0.0050153 177.05 0.16532 575.00 0.0017391 598.78 964.79 2.0228 2.4874 2.9138 1521.8 -0.0050153 177.05 0.16532
211.38 30634. undefined 601.27 968.60 2.0279 575.00 0.0017391 601.27 968.60 2.0279 2.4913 2.9171 1522.9 -0.0050110 177.05 0.16551 575.00 0.0017391 601.27 968.60 2.0279 2.4913 2.9171 1522.9 -0.0050110 177.05 0.16551
212.38 30744. undefined 603.77 972.41 2.0331 575.00 0.0017391 603.77 972.41 2.0331 2.4952 2.9204 1524.0 -0.0050067 177.05 0.16571 575.00 0.0017391 603.77 972.41 2.0331 2.4952 2.9204 1524.0 -0.0050067 177.05 0.16571
213.38 30854. undefined 606.26 976.23 2.0382 575.00 0.0017391 606.26 976.23 2.0382 2.4990 2.9237 1525.1 -0.0050025 177.05 0.16590 575.00 0.0017391 606.26 976.23 2.0382 2.4990 2.9237 1525.1 -0.0050025 177.05 0.16590
214.38 30964. undefined 608.77 980.05 2.0433 575.00 0.0017391 608.77 980.05 2.0433 2.5029 2.9270 1526.3 -0.0049982 177.05 0.16610 575.00 0.0017391 608.77 980.05 2.0433 2.5029 2.9270 1526.3 -0.0049982 177.05 0.16610
215.38 31073. undefined 611.27 983.87 2.0485 575.00 0.0017391 611.27 983.87 2.0485 2.5068 2.9303 1527.4 -0.0049939 177.05 0.16629 575.00 0.0017391 611.27 983.87 2.0485 2.5068 2.9303 1527.4 -0.0049939 177.05 0.16629
216.38 31183. undefined 613.78 987.69 2.0536 575.00 0.0017391 613.78 987.69 2.0536 2.5107 2.9337 1528.5 -0.0049897 177.05 0.16649 575.00 0.0017391 613.78 987.69 2.0536 2.5107 2.9337 1528.5 -0.0049897 177.05 0.16649
217.38 31293. undefined 616.29 991.52 2.0587 575.00 0.0017391 616.29 991.52 2.0587 2.5146 2.9370 1529.6 -0.0049854 177.05 0.16669 575.00 0.0017391 616.29 991.52 2.0587 2.5146 2.9370 1529.6 -0.0049854 177.05 0.16669
218.38 31402. undefined 618.81 995.35 2.0638 575.00 0.0017391 618.81 995.35 2.0638 2.5184 2.9403 1530.7 -0.0049812 177.06 0.16688 575.00 0.0017391 618.81 995.35 2.0638 2.5184 2.9403 1530.7 -0.0049812 177.06 0.16688
219.38 31511. undefined 621.33 999.18 2.0690 575.00 0.0017391 621.33 999.18 2.0690 2.5223 2.9436 1531.8 -0.0049770 177.06 0.16708 575.00 0.0017391 621.33 999.18 2.0690 2.5223 2.9436 1531.8 -0.0049770 177.06 0.16708
220.38 31621. undefined 623.85 1003.0 2.0741 575.00 0.0017391 623.85 1003.0 2.0741 2.5261 2.9469 1533.0 -0.0049727 177.06 0.16728 575.00 0.0017391 623.85 1003.0 2.0741 2.5261 2.9469 1533.0 -0.0049727 177.06 0.16728
221.38 31730. undefined 626.38 1006.9 2.0792 575.00 0.0017391 626.38 1006.9 2.0792 2.5300 2.9502 1534.1 -0.0049685 177.06 0.16747 575.00 0.0017391 626.38 1006.9 2.0792 2.5300 2.9502 1534.1 -0.0049685 177.06 0.16747
222.38 31839. undefined 628.91 1010.7 2.0843 575.00 0.0017391 628.91 1010.7 2.0843 2.5338 2.9535 1535.2 -0.0049643 177.06 0.16767 575.00 0.0017391 628.91 1010.7 2.0843 2.5338 2.9535 1535.2 -0.0049643 177.06 0.16767
223.38 31948. undefined 631.45 1014.5 2.0894 575.00 0.0017391 631.45 1014.5 2.0894 2.5377 2.9567 1536.3 -0.0049601 177.06 0.16787 575.00 0.0017391 631.45 1014.5 2.0894 2.5377 2.9567 1536.3 -0.0049601 177.06 0.16787
224.38 32057. undefined 633.99 1018.4 2.0945 575.00 0.0017391 633.99 1018.4 2.0945 2.5415 2.9600 1537.4 -0.0049559 177.06 0.16807 575.00 0.0017391 633.99 1018.4 2.0945 2.5415 2.9600 1537.4 -0.0049559 177.06 0.16807
225.38 32166. undefined 636.53 1022.2 2.0996 575.00 0.0017391 636.53 1022.2 2.0996 2.5453 2.9633 1538.5 -0.0049517 177.06 0.16826 575.00 0.0017391 636.53 1022.2 2.0996 2.5453 2.9633 1538.5 -0.0049517 177.06 0.16826
226.38 32275. undefined 639.08 1026.1 2.1048 575.00 0.0017391 639.08 1026.1 2.1048 2.5491 2.9666 1539.6 -0.0049475 177.07 0.16846 575.00 0.0017391 639.08 1026.1 2.1048 2.5491 2.9666 1539.6 -0.0049475 177.07 0.16846
227.38 32384. undefined 641.63 1029.9 2.1099 575.00 0.0017391 641.63 1029.9 2.1099 2.5529 2.9699 1540.7 -0.0049433 177.07 0.16866 575.00 0.0017391 641.63 1029.9 2.1099 2.5529 2.9699 1540.7 -0.0049433 177.07 0.16866
228.38 32493. undefined 644.18 1033.8 2.1150 575.00 0.0017391 644.18 1033.8 2.1150 2.5568 2.9732 1541.8 -0.0049392 177.07 0.16886 575.00 0.0017391 644.18 1033.8 2.1150 2.5568 2.9732 1541.8 -0.0049392 177.07 0.16886
229.38 32601. undefined 646.74 1037.7 2.1201 575.00 0.0017391 646.74 1037.7 2.1201 2.5606 2.9764 1542.9 -0.0049350 177.07 0.16906 575.00 0.0017391 646.74 1037.7 2.1201 2.5606 2.9764 1542.9 -0.0049350 177.07 0.16906
230.38 32710. undefined 649.31 1041.5 2.1251 575.00 0.0017391 649.31 1041.5 2.1251 2.5644 2.9797 1543.9 -0.0049308 177.07 0.16926 575.00 0.0017391 649.31 1041.5 2.1251 2.5644 2.9797 1543.9 -0.0049308 177.07 0.16926
231.38 32818. undefined 651.87 1045.4 2.1302 575.00 0.0017391 651.87 1045.4 2.1302 2.5682 2.9830 1545.0 -0.0049267 177.08 0.16946 575.00 0.0017391 651.87 1045.4 2.1302 2.5682 2.9830 1545.0 -0.0049267 177.08 0.16946
232.38 32926. undefined 654.44 1049.3 2.1353 575.00 0.0017391 654.44 1049.3 2.1353 2.5719 2.9862 1546.1 -0.0049225 177.08 0.16966 575.00 0.0017391 654.44 1049.3 2.1353 2.5719 2.9862 1546.1 -0.0049225 177.08 0.16966
233.38 33035. undefined 657.02 1053.1 2.1404 575.00 0.0017391 657.02 1053.1 2.1404 2.5757 2.9895 1547.2 -0.0049184 177.08 0.16986 575.00 0.0017391 657.02 1053.1 2.1404 2.5757 2.9895 1547.2 -0.0049184 177.08 0.16986
234.38 33143. undefined 659.59 1057.0 2.1455 575.00 0.0017391 659.59 1057.0 2.1455 2.5795 2.9927 1548.3 -0.0049143 177.08 0.17006 575.00 0.0017391 659.59 1057.0 2.1455 2.5795 2.9927 1548.3 -0.0049143 177.08 0.17006
235.38 33251. undefined 662.17 1060.9 2.1506 575.00 0.0017391 662.17 1060.9 2.1506 2.5833 2.9960 1549.4 -0.0049102 177.08 0.17026 575.00 0.0017391 662.17 1060.9 2.1506 2.5833 2.9960 1549.4 -0.0049102 177.08 0.17026
236.38 33359. undefined 664.76 1064.8 2.1557 575.00 0.0017391 664.76 1064.8 2.1557 2.5870 2.9992 1550.5 -0.0049060 177.09 0.17046 575.00 0.0017391 664.76 1064.8 2.1557 2.5870 2.9992 1550.5 -0.0049060 177.09 0.17046
237.38 33467. undefined 667.35 1068.6 2.1607 575.00 0.0017391 667.35 1068.6 2.1607 2.5908 3.0025 1551.5 -0.0049019 177.09 0.17067 575.00 0.0017391 667.35 1068.6 2.1607 2.5908 3.0025 1551.5 -0.0049019 177.09 0.17067
238.38 33575. undefined 669.94 1072.5 2.1658 575.00 0.0017391 669.94 1072.5 2.1658 2.5946 3.0057 1552.6 -0.0048978 177.09 0.17087 575.00 0.0017391 669.94 1072.5 2.1658 2.5946 3.0057 1552.6 -0.0048978 177.09 0.17087
239.38 33683. undefined 672.54 1076.4 2.1709 575.00 0.0017391 672.54 1076.4 2.1709 2.5983 3.0090 1553.7 -0.0048938 177.10 0.17107 575.00 0.0017391 672.54 1076.4 2.1709 2.5983 3.0090 1553.7 -0.0048938 177.10 0.17107
240.38 33791. undefined 675.14 1080.3 2.1759 575.00 0.0017391 675.14 1080.3 2.1759 2.6021 3.0122 1554.8 -0.0048897 177.10 0.17127 575.00 0.0017391 675.14 1080.3 2.1759 2.6021 3.0122 1554.8 -0.0048897 177.10 0.17127
241.38 33898. undefined 677.74 1084.2 2.1810 575.00 0.0017391 677.74 1084.2 2.1810 2.6058 3.0155 1555.8 -0.0048856 177.10 0.17148 575.00 0.0017391 677.74 1084.2 2.1810 2.6058 3.0155 1555.8 -0.0048856 177.10 0.17148
242.38 34006. undefined 680.35 1088.1 2.1861 575.00 0.0017391 680.35 1088.1 2.1861 2.6095 3.0187 1556.9 -0.0048815 177.10 0.17168 575.00 0.0017391 680.35 1088.1 2.1861 2.6095 3.0187 1556.9 -0.0048815 177.10 0.17168
243.38 34113. undefined 682.96 1092.0 2.1911 575.00 0.0017391 682.96 1092.0 2.1911 2.6133 3.0219 1558.0 -0.0048775 177.11 0.17188 575.00 0.0017391 682.96 1092.0 2.1911 2.6133 3.0219 1558.0 -0.0048775 177.11 0.17188
244.38 34221. undefined 685.58 1095.9 2.1962 575.00 0.0017391 685.58 1095.9 2.1962 2.6170 3.0251 1559.0 -0.0048734 177.11 0.17209 575.00 0.0017391 685.58 1095.9 2.1962 2.6170 3.0251 1559.0 -0.0048734 177.11 0.17209
245.38 34328. undefined 688.19 1099.8 2.2012 575.00 0.0017391 688.19 1099.8 2.2012 2.6207 3.0284 1560.1 -0.0048694 177.11 0.17229 575.00 0.0017391 688.19 1099.8 2.2012 2.6207 3.0284 1560.1 -0.0048694 177.11 0.17229
246.38 34435. undefined 690.82 1103.7 2.2063 575.00 0.0017391 690.82 1103.7 2.2063 2.6244 3.0316 1561.2 -0.0048653 177.12 0.17250 575.00 0.0017391 690.82 1103.7 2.2063 2.6244 3.0316 1561.2 -0.0048653 177.12 0.17250
247.38 34543. undefined 693.44 1107.6 2.2114 575.00 0.0017391 693.44 1107.6 2.2114 2.6281 3.0348 1562.2 -0.0048613 177.12 0.17270 575.00 0.0017391 693.44 1107.6 2.2114 2.6281 3.0348 1562.2 -0.0048613 177.12 0.17270
248.38 34650. undefined 696.07 1111.6 2.2164 575.00 0.0017391 696.07 1111.6 2.2164 2.6318 3.0380 1563.3 -0.0048573 177.12 0.17291 575.00 0.0017391 696.07 1111.6 2.2164 2.6318 3.0380 1563.3 -0.0048573 177.12 0.17291
249.38 34757. undefined 698.71 1115.5 2.2214 575.00 0.0017391 698.71 1115.5 2.2214 2.6355 3.0412 1564.4 -0.0048533 177.13 0.17311 575.00 0.0017391 698.71 1115.5 2.2214 2.6355 3.0412 1564.4 -0.0048533 177.13 0.17311
250.38 34864. undefined 701.34 1119.4 2.2265 575.00 0.0017391 701.34 1119.4 2.2265 2.6392 3.0444 1565.4 -0.0048493 177.13 0.17332 575.00 0.0017391 701.34 1119.4 2.2265 2.6392 3.0444 1565.4 -0.0048493 177.13 0.17332
251.38 34971. undefined 703.99 1123.3 2.2315 575.00 0.0017391 703.99 1123.3 2.2315 2.6429 3.0476 1566.5 -0.0048453 177.14 0.17352 575.00 0.0017391 703.99 1123.3 2.2315 2.6429 3.0476 1566.5 -0.0048453 177.14 0.17352
252.38 35077. undefined 706.63 1127.2 2.2366 575.00 0.0017391 706.63 1127.2 2.2366 2.6466 3.0508 1567.5 -0.0048413 177.14 0.17373 575.00 0.0017391 706.63 1127.2 2.2366 2.6466 3.0508 1567.5 -0.0048413 177.14 0.17373
253.38 35184. undefined 709.28 1131.2 2.2416 575.00 0.0017391 709.28 1131.2 2.2416 2.6503 3.0540 1568.6 -0.0048373 177.14 0.17394 575.00 0.0017391 709.28 1131.2 2.2416 2.6503 3.0540 1568.6 -0.0048373 177.14 0.17394
254.38 35291. undefined 711.93 1135.1 2.2466 575.00 0.0017391 711.93 1135.1 2.2466 2.6540 3.0572 1569.6 -0.0048333 177.15 0.17414 575.00 0.0017391 711.93 1135.1 2.2466 2.6540 3.0572 1569.6 -0.0048333 177.15 0.17414
255.38 35398. undefined 714.59 1139.0 2.2517 575.00 0.0017391 714.59 1139.0 2.2517 2.6576 3.0604 1570.7 -0.0048294 177.15 0.17435 575.00 0.0017391 714.59 1139.0 2.2517 2.6576 3.0604 1570.7 -0.0048294 177.15 0.17435
256.38 35504. undefined 717.25 1143.0 2.2567 575.00 0.0017391 717.25 1143.0 2.2567 2.6613 3.0636 1571.7 -0.0048254 177.16 0.17456 575.00 0.0017391 717.25 1143.0 2.2567 2.6613 3.0636 1571.7 -0.0048254 177.16 0.17456
257.38 35610. undefined 719.91 1146.9 2.2617 575.00 0.0017391 719.91 1146.9 2.2617 2.6649 3.0668 1572.8 -0.0048215 177.16 0.17476 575.00 0.0017391 719.91 1146.9 2.2617 2.6649 3.0668 1572.8 -0.0048215 177.16 0.17476
258.38 35717. undefined 722.58 1150.9 2.2667 575.00 0.0017391 722.58 1150.9 2.2667 2.6686 3.0700 1573.8 -0.0048175 177.16 0.17497 575.00 0.0017391 722.58 1150.9 2.2667 2.6686 3.0700 1573.8 -0.0048175 177.16 0.17497
259.38 35823. undefined 725.25 1154.8 2.2718 575.00 0.0017391 725.25 1154.8 2.2718 2.6722 3.0731 1574.9 -0.0048136 177.17 0.17518 575.00 0.0017391 725.25 1154.8 2.2718 2.6722 3.0731 1574.9 -0.0048136 177.17 0.17518
260.38 35929. undefined 727.92 1158.7 2.2768 575.00 0.0017391 727.92 1158.7 2.2768 2.6759 3.0763 1575.9 -0.0048096 177.17 0.17539 575.00 0.0017391 727.92 1158.7 2.2768 2.6759 3.0763 1575.9 -0.0048096 177.17 0.17539
261.38 36036. undefined 730.60 1162.7 2.2818 575.00 0.0017391 730.60 1162.7 2.2818 2.6795 3.0795 1576.9 -0.0048057 177.18 0.17560 575.00 0.0017391 730.60 1162.7 2.2818 2.6795 3.0795 1576.9 -0.0048057 177.18 0.17560
262.38 36142. undefined 733.28 1166.6 2.2868 575.00 0.0017391 733.28 1166.6 2.2868 2.6831 3.0826 1578.0 -0.0048018 177.18 0.17581 575.00 0.0017391 733.28 1166.6 2.2868 2.6831 3.0826 1578.0 -0.0048018 177.18 0.17581
263.38 36248. undefined 735.96 1170.6 2.2918 575.00 0.0017391 735.96 1170.6 2.2918 2.6868 3.0858 1579.0 -0.0047979 177.19 0.17602 575.00 0.0017391 735.96 1170.6 2.2918 2.6868 3.0858 1579.0 -0.0047979 177.19 0.17602
264.38 36354. undefined 738.65 1174.6 2.2968 575.00 0.0017391 738.65 1174.6 2.2968 2.6904 3.0890 1580.0 -0.0047940 177.19 0.17623 575.00 0.0017391 738.65 1174.6 2.2968 2.6904 3.0890 1580.0 -0.0047940 177.19 0.17623
265.38 36459. undefined 741.35 1178.5 2.3018 575.00 0.0017391 741.35 1178.5 2.3018 2.6940 3.0921 1581.1 -0.0047901 177.20 0.17644 575.00 0.0017391 741.35 1178.5 2.3018 2.6940 3.0921 1581.1 -0.0047901 177.20 0.17644
266.38 36565. undefined 744.04 1182.5 2.3068 575.00 0.0017391 744.04 1182.5 2.3068 2.6976 3.0953 1582.1 -0.0047863 177.20 0.17665 575.00 0.0017391 744.04 1182.5 2.3068 2.6976 3.0953 1582.1 -0.0047863 177.20 0.17665
267.38 36671. undefined 746.74 1186.5 2.3118 575.00 0.0017391 746.74 1186.5 2.3118 2.7012 3.0984 1583.1 -0.0047824 177.21 0.17686 575.00 0.0017391 746.74 1186.5 2.3118 2.7012 3.0984 1583.1 -0.0047824 177.21 0.17686
268.38 36777. undefined 749.44 1190.4 2.3168 575.00 0.0017391 749.44 1190.4 2.3168 2.7048 3.1016 1584.2 -0.0047785 177.21 0.17707 575.00 0.0017391 749.44 1190.4 2.3168 2.7048 3.1016 1584.2 -0.0047785 177.21 0.17707
269.38 36882. undefined 752.15 1194.4 2.3218 575.00 0.0017391 752.15 1194.4 2.3218 2.7084 3.1047 1585.2 -0.0047747 177.22 0.17728 575.00 0.0017391 752.15 1194.4 2.3218 2.7084 3.1047 1585.2 -0.0047747 177.22 0.17728
270.38 36988. undefined 754.86 1198.4 2.3268 575.00 0.0017391 754.86 1198.4 2.3268 2.7120 3.1079 1586.2 -0.0047708 177.22 0.17749 575.00 0.0017391 754.86 1198.4 2.3268 2.7120 3.1079 1586.2 -0.0047708 177.22 0.17749
271.38 37093. undefined 757.57 1202.4 2.3318 575.00 0.0017391 757.57 1202.4 2.3318 2.7156 3.1110 1587.2 -0.0047670 177.23 0.17770 575.00 0.0017391 757.57 1202.4 2.3318 2.7156 3.1110 1587.2 -0.0047670 177.23 0.17770
272.38 37198. undefined 760.29 1206.3 2.3368 575.00 0.0017391 760.29 1206.3 2.3368 2.7192 3.1141 1588.3 -0.0047632 177.23 0.17791 575.00 0.0017391 760.29 1206.3 2.3368 2.7192 3.1141 1588.3 -0.0047632 177.23 0.17791
273.38 37304. undefined 763.01 1210.3 2.3418 575.00 0.0017391 763.01 1210.3 2.3418 2.7227 3.1173 1589.3 -0.0047594 177.24 0.17813 575.00 0.0017391 763.01 1210.3 2.3418 2.7227 3.1173 1589.3 -0.0047594 177.24 0.17813
274.38 37409. undefined 765.74 1214.3 2.3467 575.00 0.0017391 765.74 1214.3 2.3467 2.7263 3.1204 1590.3 -0.0047555 177.24 0.17834 575.00 0.0017391 765.74 1214.3 2.3467 2.7263 3.1204 1590.3 -0.0047555 177.24 0.17834
275.38 37514. undefined 768.47 1218.3 2.3517 575.00 0.0017391 768.47 1218.3 2.3517 2.7299 3.1235 1591.3 -0.0047517 177.25 0.17855 575.00 0.0017391 768.47 1218.3 2.3517 2.7299 3.1235 1591.3 -0.0047517 177.25 0.17855
276.38 37619. undefined 771.20 1222.3 2.3567 575.00 0.0017391 771.20 1222.3 2.3567 2.7334 3.1266 1592.3 -0.0047479 177.25 0.17877 575.00 0.0017391 771.20 1222.3 2.3567 2.7334 3.1266 1592.3 -0.0047479 177.25 0.17877
277.38 37724. undefined 773.93 1226.3 2.3617 575.00 0.0017391 773.93 1226.3 2.3617 2.7370 3.1297 1593.4 -0.0047442 177.26 0.17898 575.00 0.0017391 773.93 1226.3 2.3617 2.7370 3.1297 1593.4 -0.0047442 177.26 0.17898
278.38 37829. undefined 776.67 1230.3 2.3666 575.00 0.0017391 776.67 1230.3 2.3666 2.7405 3.1328 1594.4 -0.0047404 177.27 0.17919 575.00 0.0017391 776.67 1230.3 2.3666 2.7405 3.1328 1594.4 -0.0047404 177.27 0.17919
279.38 37934. undefined 779.41 1234.3 2.3716 575.00 0.0017391 779.41 1234.3 2.3716 2.7441 3.1360 1595.4 -0.0047366 177.27 0.17941 575.00 0.0017391 779.41 1234.3 2.3716 2.7441 3.1360 1595.4 -0.0047366 177.27 0.17941
280.38 38039. undefined 782.16 1238.3 2.3766 575.00 0.0017391 782.16 1238.3 2.3766 2.7476 3.1391 1596.4 -0.0047328 177.28 0.17962 575.00 0.0017391 782.16 1238.3 2.3766 2.7476 3.1391 1596.4 -0.0047328 177.28 0.17962
281.38 38143. undefined 784.91 1242.3 2.3815 575.00 0.0017391 784.91 1242.3 2.3815 2.7511 3.1422 1597.4 -0.0047291 177.28 0.17984 575.00 0.0017391 784.91 1242.3 2.3815 2.7511 3.1422 1597.4 -0.0047291 177.28 0.17984
282.38 38248. undefined 787.66 1246.3 2.3865 575.00 0.0017391 787.66 1246.3 2.3865 2.7547 3.1453 1598.4 -0.0047253 177.29 0.17983 575.00 0.0017391 787.66 1246.3 2.3865 2.7547 3.1453 1598.4 -0.0047253 177.29 0.17983
283.38 38353. undefined 790.42 1250.3 2.3914 575.00 0.0017391 790.42 1250.3 2.3914 2.7582 3.1484 1599.4 -0.0047216 177.29 0.18005 575.00 0.0017391 790.42 1250.3 2.3914 2.7582 3.1484 1599.4 -0.0047216 177.29 0.18005
284.38 38457. undefined 793.18 1254.3 2.3964 575.00 0.0017391 793.18 1254.3 2.3964 2.7617 3.1514 1600.4 -0.0047179 177.30 0.18026 575.00 0.0017391 793.18 1254.3 2.3964 2.7617 3.1514 1600.4 -0.0047179 177.30 0.18026
285.38 38561. undefined 795.94 1258.3 2.4014 575.00 0.0017391 795.94 1258.3 2.4014 2.7652 3.1545 1601.4 -0.0047141 177.31 0.18048 575.00 0.0017391 795.94 1258.3 2.4014 2.7652 3.1545 1601.4 -0.0047141 177.31 0.18048
286.38 38666. undefined 798.71 1262.3 2.4063 575.00 0.0017391 798.71 1262.3 2.4063 2.7687 3.1576 1602.4 -0.0047104 177.31 0.18069 575.00 0.0017391 798.71 1262.3 2.4063 2.7687 3.1576 1602.4 -0.0047104 177.31 0.18069
287.38 38770. undefined 801.48 1266.4 2.4112 575.00 0.0017391 801.48 1266.4 2.4112 2.7722 3.1607 1603.4 -0.0047067 177.32 0.18091 575.00 0.0017391 801.48 1266.4 2.4112 2.7722 3.1607 1603.4 -0.0047067 177.32 0.18091
288.38 38874. undefined 804.25 1270.4 2.4162 575.00 0.0017391 804.25 1270.4 2.4162 2.7757 3.1638 1604.4 -0.0047030 177.32 0.18113 575.00 0.0017391 804.25 1270.4 2.4162 2.7757 3.1638 1604.4 -0.0047030 177.32 0.18113
289.38 38979. undefined 807.03 1274.4 2.4211 575.00 0.0017391 807.03 1274.4 2.4211 2.7792 3.1669 1605.4 -0.0046993 177.33 0.18134 575.00 0.0017391 807.03 1274.4 2.4211 2.7792 3.1669 1605.4 -0.0046993 177.33 0.18134
290.38 39083. undefined 809.81 1278.4 2.4261 575.00 0.0017391 809.81 1278.4 2.4261 2.7827 3.1699 1606.4 -0.0046957 177.34 0.18156 575.00 0.0017391 809.81 1278.4 2.4261 2.7827 3.1699 1606.4 -0.0046957 177.34 0.18156
291.38 39187. undefined 812.60 1282.5 2.4310 575.00 0.0017391 812.60 1282.5 2.4310 2.7862 3.1730 1607.4 -0.0046920 177.34 0.18178 575.00 0.0017391 812.60 1282.5 2.4310 2.7862 3.1730 1607.4 -0.0046920 177.34 0.18178
292.38 39291. undefined 815.38 1286.5 2.4359 575.00 0.0017391 815.38 1286.5 2.4359 2.7897 3.1761 1608.4 -0.0046883 177.35 0.18199 575.00 0.0017391 815.38 1286.5 2.4359 2.7897 3.1761 1608.4 -0.0046883 177.35 0.18199
293.38 39394. undefined 818.17 1290.5 2.4409 575.00 0.0017391 818.17 1290.5 2.4409 2.7931 3.1791 1609.4 -0.0046847 177.36 0.18221 575.00 0.0017391 818.17 1290.5 2.4409 2.7931 3.1791 1609.4 -0.0046847 177.36 0.18221
294.38 39498. undefined 820.97 1294.6 2.4458 575.00 0.0017391 820.97 1294.6 2.4458 2.7966 3.1822 1610.4 -0.0046810 177.36 0.18243 575.00 0.0017391 820.97 1294.6 2.4458 2.7966 3.1822 1610.4 -0.0046810 177.36 0.18243
295.38 39602. undefined 823.77 1298.6 2.4507 575.00 0.0017391 823.77 1298.6 2.4507 2.8001 3.1852 1611.4 -0.0046774 177.37 0.18265 575.00 0.0017391 823.77 1298.6 2.4507 2.8001 3.1852 1611.4 -0.0046774 177.37 0.18265
296.38 39706. undefined 826.57 1302.7 2.4557 575.00 0.0017391 826.57 1302.7 2.4557 2.8035 3.1883 1612.4 -0.0046737 177.38 0.18287 575.00 0.0017391 826.57 1302.7 2.4557 2.8035 3.1883 1612.4 -0.0046737 177.38 0.18287
297.38 39809. undefined 829.38 1306.7 2.4606 575.00 0.0017391 829.38 1306.7 2.4606 2.8070 3.1913 1613.4 -0.0046701 177.38 0.18308 575.00 0.0017391 829.38 1306.7 2.4606 2.8070 3.1913 1613.4 -0.0046701 177.38 0.18308
298.38 39913. undefined 832.18 1310.8 2.4655 575.00 0.0017391 832.18 1310.8 2.4655 2.8104 3.1944 1614.3 -0.0046665 177.39 0.18330 575.00 0.0017391 832.18 1310.8 2.4655 2.8104 3.1944 1614.3 -0.0046665 177.39 0.18330
299.38 40016. undefined 835.00 1314.8 2.4704 575.00 0.0017391 835.00 1314.8 2.4704 2.8138 3.1974 1615.3 -0.0046629 177.40 0.18352 575.00 0.0017391 835.00 1314.8 2.4704 2.8138 3.1974 1615.3 -0.0046629 177.40 0.18352
300.38 40120. undefined 837.81 1318.9 2.4753 575.00 0.0017391 837.81 1318.9 2.4753 2.8173 3.2004 1616.3 -0.0046593 177.40 0.18374 575.00 0.0017391 837.81 1318.9 2.4753 2.8173 3.2004 1616.3 -0.0046593 177.40 0.18374