Temperature (C) Pressure (psia) Quality (l+v) Internal Energy (l+v, kJ/kg) Enthalpy (l+v, kJ/kg) Entropy (l+v, J/g*K) Density (l, kg/m3) Volume (l, m3/kg) Internal Energy (l, kJ/kg) Enthalpy (l, kJ/kg) Entropy (l, J/g*K) Cv (l, J/g*K) Cp (l, J/g*K) Sound Spd. (l, m/s) Joule-Thomson (l, F/psia) Viscosity (l, uPa*s) Therm. Cond. (l, W/m*K) Density (v, kg/m3) Volume (v, m3/kg) Internal Energy (v, kJ/kg) Enthalpy (v, kJ/kg) Entropy (v, J/g*K) Cv (v, J/g*K) Cp (v, J/g*K) Sound Spd. (v, m/s) Joule-Thomson (v, F/psia) Viscosity (v, uPa*s) Therm. Cond. (v, W/m*K)
-187.62 2.4953e-08 3.8420e-12 -196.64 -196.64 -1.3959 733.13 0.0013640 -196.64 -196.64 -1.3959 1.3553 1.9158 2136.4 -0.0077592 10960. 0.20792 1.0669e-08 9.3732e+07 350.13 366.26 5.1858 0.69067 0.87923 143.28 6.1051 2.3259 0.0017061
-186.62 3.7339e-08 5.6519e-12 -194.73 -194.73 -1.3736 732.08 0.0013660 -194.73 -194.73 -1.3736 1.3539 1.9166 2129.6 -0.0077546 10073. 0.20765 1.5780e-08 6.3371e+07 350.82 367.14 5.1200 0.69462 0.88317 144.03 5.9178 2.3534 0.0017533
-185.62 5.5322e-08 8.2331e-12 -192.81 -192.81 -1.3516 731.04 0.0013679 -192.81 -192.81 -1.3516 1.3525 1.9174 2122.9 -0.0077498 9276.1 0.20737 2.3112e-08 4.3267e+07 351.52 368.02 5.0561 0.69857 0.88713 144.77 5.7383 2.3808 0.0018007
-184.62 8.1182e-08 1.1880e-11 -190.89 -190.89 -1.3298 730.00 0.0013699 -190.89 -190.89 -1.3298 1.3513 1.9182 2116.1 -0.0077448 8557.8 0.20708 3.3533e-08 2.9821e+07 352.22 368.91 4.9939 0.70253 0.89108 145.51 5.5662 2.4083 0.0018485
-183.62 1.1803e-07 1.6986e-11 -188.97 -188.97 -1.3083 728.96 0.0013718 -188.97 -188.97 -1.3083 1.3501 1.9191 2109.3 -0.0077395 7909.8 0.20678 4.8211e-08 2.0742e+07 352.92 369.81 4.9333 0.70648 0.89504 146.24 5.4011 2.4357 0.0018965
-182.62 1.7009e-07 2.4071e-11 -187.05 -187.05 -1.2869 727.92 0.0013738 -187.05 -187.05 -1.2869 1.3490 1.9201 2102.5 -0.0077340 7324.3 0.20647 6.8704e-08 1.4555e+07 353.63 370.70 4.8744 0.71043 0.89899 146.97 5.2426 2.4632 0.0019448
-181.62 2.4299e-07 3.3822e-11 -185.13 -185.13 -1.2658 726.88 0.0013757 -185.13 -185.13 -1.2658 1.3480 1.9210 2095.7 -0.0077283 6794.5 0.20616 9.7079e-08 1.0301e+07 354.35 371.60 4.8170 0.71438 0.90294 147.69 5.0904 2.4906 0.0019934
-180.62 3.4425e-07 4.7132e-11 -183.21 -183.21 -1.2450 725.85 0.0013777 -183.21 -183.21 -1.2450 1.3470 1.9220 2088.9 -0.0077225 6314.4 0.20584 1.3605e-07 7.3504e+06 355.06 372.51 4.7612 0.71833 0.90688 148.41 4.9442 2.5181 0.0020423
-179.62 4.8378e-07 6.5157e-11 -181.29 -181.29 -1.2243 724.81 0.0013797 -181.29 -181.29 -1.2243 1.3461 1.9231 2082.0 -0.0077164 5878.8 0.20551 1.8915e-07 5.2868e+06 355.78 373.42 4.7068 0.72227 0.91082 149.13 4.8038 2.5456 0.0020915
-178.62 6.7459e-07 8.9381e-11 -179.37 -179.37 -1.2038 723.78 0.0013816 -179.37 -179.37 -1.2038 1.3453 1.9241 2075.2 -0.0077102 5482.9 0.20517 2.6096e-07 3.8320e+06 356.51 374.33 4.6538 0.72620 0.91475 149.84 4.6688 2.5731 0.0021410
-177.62 9.3358e-07 1.2170e-10 -177.44 -177.44 -1.1836 722.75 0.0013836 -177.44 -177.44 -1.1836 1.3445 1.9252 2068.4 -0.0077039 5122.6 0.20483 3.5737e-07 2.7982e+06 357.23 375.25 4.6022 0.73012 0.91867 150.54 4.5390 2.6005 0.0021907
-176.62 1.2826e-06 1.6450e-10 -175.52 -175.52 -1.1635 721.72 0.0013856 -175.52 -175.52 -1.1635 1.3437 1.9263 2061.5 -0.0076973 4794.1 0.20447 4.8588e-07 2.0581e+06 357.97 376.17 4.5519 0.73403 0.92258 151.25 4.4142 2.6280 0.0022408
-175.62 1.7496e-06 2.2080e-10 -173.59 -173.59 -1.1437 720.69 0.0013876 -173.59 -173.59 -1.1437 1.3430 1.9274 2054.7 -0.0076907 4494.3 0.20411 6.5601e-07 1.5244e+06 358.70 377.09 4.5029 0.73792 0.92648 151.95 4.2941 2.6555 0.0022912
-174.62 2.3705e-06 2.9437e-10 -171.66 -171.66 -1.1240 719.66 0.0013895 -171.66 -171.66 -1.1240 1.3423 1.9286 2047.9 -0.0076838 4220.2 0.20375 8.7976e-07 1.1367e+06 359.44 378.02 4.4551 0.74181 0.93036 152.64 4.1784 2.6830 0.0023418
-173.62 3.1903e-06 3.8987e-10 -169.73 -169.73 -1.1045 718.64 0.0013915 -169.73 -169.73 -1.1045 1.3417 1.9298 2041.0 -0.0076769 3969.3 0.20338 1.1721e-06 8.5314e+05 360.19 378.95 4.4085 0.74568 0.93423 153.33 4.0671 2.7105 0.0023928
-172.62 4.2661e-06 5.1306e-10 -167.80 -167.80 -1.0852 717.61 0.0013935 -167.80 -167.80 -1.0852 1.3411 1.9310 2034.2 -0.0076698 3739.3 0.20300 1.5518e-06 6.4441e+05 360.93 379.89 4.3631 0.74953 0.93809 154.02 3.9599 2.7379 0.0024440
-171.62 5.6692e-06 6.7103e-10 -165.87 -165.87 -1.0661 716.58 0.0013955 -165.87 -165.87 -1.0661 1.3405 1.9322 2027.3 -0.0076625 3528.0 0.20261 2.0419e-06 4.8974e+05 361.69 380.83 4.3188 0.75337 0.94193 154.71 3.8566 2.7654 0.0024955
-170.62 7.4884e-06 8.7237e-10 -163.94 -163.94 -1.0472 715.56 0.0013975 -163.94 -163.94 -1.0472 1.3400 1.9334 2020.5 -0.0076552 3333.8 0.20222 2.6708e-06 3.7442e+05 362.44 381.77 4.2755 0.75720 0.94575 155.39 3.7570 2.7929 0.0025473
-169.62 9.8334e-06 1.1275e-09 -162.00 -162.00 -1.0284 714.54 0.0013995 -162.00 -162.00 -1.0284 1.3395 1.9347 2013.6 -0.0076477 3154.9 0.20182 3.4733e-06 2.8791e+05 363.20 382.72 4.2334 0.76100 0.94956 156.07 3.6609 2.8204 0.0025994
-168.62 1.2839e-05 1.4491e-09 -160.07 -160.07 -1.0098 713.52 0.0014015 -160.07 -160.07 -1.0098 1.3390 1.9359 2006.8 -0.0076401 2989.9 0.20141 4.4917e-06 2.2263e+05 363.96 383.67 4.1922 0.76479 0.95335 156.74 3.5683 2.8479 0.0026518
-167.62 1.6672e-05 1.8523e-09 -158.13 -158.13 -0.99134 712.49 0.0014035 -158.13 -158.13 -0.99134 1.3386 1.9372 2000.0 -0.0076323 2837.5 0.20100 5.7771e-06 1.7310e+05 364.73 384.63 4.1521 0.76856 0.95712 157.41 3.4790 2.8754 0.0027045
-166.62 2.1533e-05 2.3549e-09 -156.19 -156.19 -0.97306 711.47 0.0014055 -156.19 -156.19 -0.97306 1.3382 1.9385 1993.1 -0.0076245 2696.5 0.20058 7.3914e-06 1.3529e+05 365.50 385.59 4.1129 0.77232 0.96087 158.08 3.3927 2.9029 0.0027575
-165.62 2.7666e-05 2.9786e-09 -154.25 -154.25 -0.95494 710.45 0.0014075 -154.25 -154.25 -0.95494 1.3378 1.9398 1986.3 -0.0076165 2566.0 0.20016 9.4084e-06 1.0629e+05 366.27 386.55 4.0746 0.77605 0.96460 158.75 3.3095 2.9304 0.0028108
-164.62 3.5367e-05 3.7485e-09 -152.31 -152.31 -0.93698 709.44 0.0014096 -152.31 -152.31 -0.93698 1.3375 1.9411 1979.4 -0.0076084 2444.9 0.19973 1.1916e-05 83918. 367.05 387.52 4.0372 0.77976 0.96832 159.41 3.2291 2.9579 0.0028643
-163.62 4.4989e-05 4.6944e-09 -150.37 -150.37 -0.91917 708.42 0.0014116 -150.37 -150.37 -0.91917 1.3371 1.9424 1972.6 -0.0076002 2332.3 0.19930 1.5020e-05 66577. 367.83 388.49 4.0008 0.78346 0.97201 160.07 3.1514 2.9854 0.0029182
-162.62 5.6956e-05 5.8512e-09 -148.43 -148.43 -0.90151 707.40 0.0014136 -148.43 -148.43 -0.90151 1.3368 1.9437 1965.8 -0.0075919 2227.7 0.19886 1.8844e-05 53068. 368.62 389.46 3.9651 0.78713 0.97569 160.72 3.0764 3.0129 0.0029723
-161.62 7.1773e-05 7.2593e-09 -146.48 -146.48 -0.88400 706.38 0.0014157 -146.48 -146.48 -0.88400 1.3365 1.9451 1959.0 -0.0075834 2130.2 0.19841 2.3533e-05 42494. 369.41 390.44 3.9304 0.79079 0.97935 161.38 3.0038 3.0404 0.0030268
-160.62 9.0036e-05 8.9659e-09 -144.54 -144.54 -0.86663 705.37 0.0014177 -144.54 -144.54 -0.86663 1.3363 1.9465 1952.1 -0.0075748 2039.2 0.19796 2.9258e-05 34178. 370.20 391.42 3.8964 0.79443 0.98298 162.03 2.9337 3.0679 0.0030815
-159.62 0.00011245 1.1025e-08 -142.59 -142.59 -0.84940 704.35 0.0014197 -142.59 -142.59 -0.84940 1.3360 1.9478 1945.3 -0.0075661 1954.2 0.19751 3.6221e-05 27609. 371.00 392.40 3.8632 0.79805 0.98660 162.68 2.8658 3.0955 0.0031365
-158.62 0.00013985 1.3500e-08 -140.64 -140.64 -0.83231 703.34 0.0014218 -140.64 -140.64 -0.83231 1.3358 1.9492 1938.5 -0.0075573 1874.8 0.19705 4.4652e-05 22395. 371.80 393.39 3.8307 0.80164 0.99020 163.32 2.8002 3.1230 0.0031918
-157.62 0.00017320 1.6463e-08 -138.69 -138.69 -0.81536 702.32 0.0014238 -138.69 -138.69 -0.81536 1.3356 1.9506 1931.7 -0.0075484 1800.3 0.19658 5.4822e-05 18241. 372.60 394.38 3.7990 0.80522 0.99378 163.96 2.7367 3.1505 0.0032474
-156.62 0.00021364 1.9994e-08 -136.74 -136.74 -0.79854 701.31 0.0014259 -136.74 -136.74 -0.79854 1.3354 1.9520 1924.9 -0.0075393 1730.5 0.19611 6.7040e-05 14916. 373.41 395.38 3.7680 0.80878 0.99734 164.60 2.6752 3.1780 0.0033033
-155.62 0.00026248 2.4187e-08 -134.79 -134.79 -0.78185 700.30 0.0014280 -134.79 -134.79 -0.78185 1.3352 1.9534 1918.1 -0.0075302 1664.9 0.19564 8.1666e-05 12245. 374.22 396.38 3.7377 0.81232 1.0009 165.24 2.6157 3.2055 0.0033595
-154.62 0.00032125 2.9149e-08 -132.83 -132.83 -0.76530 699.29 0.0014300 -132.83 -132.83 -0.76530 1.3350 1.9548 1911.3 -0.0075209 1603.3 0.19516 9.9109e-05 10090. 375.03 397.38 3.7081 0.81585 1.0044 165.87 2.5580 3.2330 0.0034160
-153.62 0.00039171 3.4997e-08 -130.88 -130.88 -0.74887 698.27 0.0014321 -130.88 -130.88 -0.74887 1.3349 1.9563 1904.5 -0.0075114 1545.3 0.19468 0.00011984 8344.6 375.85 398.39 3.6792 0.81935 1.0079 166.50 2.5022 3.2606 0.0034727
-152.62 0.00047590 4.1865e-08 -128.92 -128.92 -0.73256 697.26 0.0014342 -128.92 -128.92 -0.73256 1.3348 1.9577 1897.8 -0.0075019 1490.6 0.19419 0.00014439 6925.9 376.67 399.40 3.6509 0.82284 1.0114 167.13 2.4481 3.2881 0.0035298
-151.62 0.00057613 4.9905e-08 -126.96 -126.96 -0.71638 696.25 0.0014363 -126.96 -126.96 -0.71638 1.3346 1.9592 1891.0 -0.0074922 1438.9 0.19370 0.00017336 5768.4 377.49 400.41 3.6232 0.82631 1.0149 167.76 2.3957 3.3156 0.0035872
-150.62 0.00069507 5.9283e-08 -125.00 -125.00 -0.70032 695.24 0.0014384 -125.00 -125.00 -0.70032 1.3345 1.9606 1884.2 -0.0074824 1390.2 0.19320 0.00020744 4820.7 378.32 401.42 3.5962 0.82976 1.0183 168.38 2.3448 3.3431 0.0036448
-149.62 0.00083574 7.0185e-08 -123.04 -123.04 -0.68438 694.23 0.0014404 -123.04 -123.04 -0.68438 1.3345 1.9621 1877.4 -0.0074724 1344.0 0.19270 0.00024740 4042.0 379.15 402.44 3.5697 0.83319 1.0218 169.00 2.2956 3.3706 0.0037027
-148.62 0.0010016 8.2820e-08 -121.08 -121.08 -0.66855 693.22 0.0014425 -121.08 -121.08 -0.66855 1.3344 1.9636 1870.7 -0.0074623 1300.3 0.19220 0.00029412 3400.0 379.99 403.47 3.5438 0.83661 1.0252 169.62 2.2478 3.3982 0.0037610
-147.62 0.0011965 9.7416e-08 -119.11 -119.11 -0.65284 692.21 0.0014447 -119.11 -119.11 -0.65284 1.3343 1.9651 1863.9 -0.0074521 1258.9 0.19169 0.00034856 2869.0 380.83 404.49 3.5185 0.84001 1.0286 170.24 2.2014 3.4257 0.0038195
-146.62 0.0014249 1.1423e-07 -117.15 -117.15 -0.63724 691.20 0.0014468 -117.15 -117.15 -0.63724 1.3343 1.9666 1857.2 -0.0074417 1219.6 0.19117 0.00041181 2428.3 381.67 405.52 3.4938 0.84340 1.0320 170.85 2.1565 3.4532 0.0038783
-145.62 0.0016917 1.3353e-07 -115.18 -115.18 -0.62175 690.19 0.0014489 -115.18 -115.18 -0.62175 1.3343 1.9682 1850.4 -0.0074312 1182.3 0.19066 0.00048510 2061.4 382.51 406.56 3.4695 0.84677 1.0353 171.46 2.1128 3.4807 0.0039374
-144.62 0.0020026 1.5562e-07 -113.21 -113.21 -0.60637 689.18 0.0014510 -113.21 -113.21 -0.60637 1.3343 1.9697 1843.7 -0.0074206 1146.8 0.19014 0.00056976 1755.1 383.36 407.59 3.4458 0.85012 1.0387 172.07 2.0705 3.5082 0.0039967
-143.62 0.0023637 1.8084e-07 -111.24 -111.24 -0.59110 688.17 0.0014531 -111.24 -111.24 -0.59110 1.3343 1.9713 1836.9 -0.0074098 1113.0 0.18962 0.00066731 1498.6 384.21 408.63 3.4226 0.85346 1.0420 172.68 2.0294 3.5358 0.0040564
-142.62 0.0027820 2.0955e-07 -109.27 -109.27 -0.57593 687.16 0.0014553 -109.27 -109.27 -0.57593 1.3343 1.9728 1830.2 -0.0073988 1080.8 0.18909 0.00077939 1283.1 385.07 409.68 3.3999 0.85679 1.0454 173.28 1.9896 3.5633 0.0041164
-141.62 0.0032653 2.4214e-07 -107.30 -107.30 -0.56087 686.15 0.0014574 -107.30 -107.30 -0.56087 1.3343 1.9744 1823.5 -0.0073878 1050.1 0.18856 0.00090784 1101.5 385.93 410.72 3.3777 0.86011 1.0487 173.88 1.9508 3.5908 0.0041766
-140.62 0.0038222 2.7904e-07 -105.32 -105.32 -0.54591 685.14 0.0014596 -105.32 -105.32 -0.54591 1.3344 1.9760 1816.7 -0.0073765 1020.7 0.18803 0.0010547 948.16 386.79 411.77 3.3560 0.86341 1.0520 174.48 1.9133 3.6183 0.0042372
-139.62 0.0044623 3.2071e-07 -103.34 -103.34 -0.53105 684.13 0.0014617 -103.34 -103.34 -0.53105 1.3344 1.9776 1810.0 -0.0073651 992.74 0.18749 0.0012221 818.26 387.65 412.83 3.3347 0.86670 1.0553 175.08 1.8768 3.6459 0.0042980
-138.62 0.0051963 3.6763e-07 -101.37 -101.37 -0.51628 683.12 0.0014639 -101.37 -101.37 -0.51629 1.3345 1.9792 1803.3 -0.0073536 965.97 0.18695 0.0014125 707.94 388.52 413.88 3.3139 0.86998 1.0586 175.67 1.8413 3.6734 0.0043592
-137.62 0.0060358 4.2035e-07 -99.386 -99.386 -0.50162 682.11 0.0014660 -99.386 -99.386 -0.50162 1.3346 1.9808 1796.6 -0.0073419 940.35 0.18641 0.0016287 614.00 389.39 414.94 3.2935 0.87325 1.0619 176.26 1.8069 3.7009 0.0044206
-136.62 0.0069938 4.7943e-07 -97.404 -97.404 -0.48705 681.10 0.0014682 -97.404 -97.404 -0.48705 1.3347 1.9825 1789.9 -0.0073301 915.81 0.18586 0.0018733 533.80 390.26 416.00 3.2735 0.87650 1.0651 176.85 1.7734 3.7284 0.0044823
-135.62 0.0080843 5.4547e-07 -95.421 -95.421 -0.47258 680.09 0.0014704 -95.421 -95.421 -0.47258 1.3348 1.9841 1783.2 -0.0073180 892.30 0.18531 0.0021497 465.17 391.14 417.07 3.2540 0.87975 1.0684 177.44 1.7409 3.7559 0.0045443
-134.62 0.0093230 6.1914e-07 -93.436 -93.436 -0.45820 679.08 0.0014726 -93.436 -93.436 -0.45820 1.3350 1.9858 1776.5 -0.0073059 869.75 0.18476 0.0024613 406.30 392.02 418.14 3.2348 0.88299 1.0716 178.02 1.7093 3.7834 0.0046066
-133.62 0.010727 7.0110e-07 -91.449 -91.449 -0.44391 678.07 0.0014748 -91.450 -91.449 -0.44391 1.3351 1.9875 1769.8 -0.0072935 848.11 0.18421 0.0028116 355.67 392.91 419.21 3.2161 0.88622 1.0749 178.61 1.6786 3.8109 0.0046691
-132.62 0.012315 7.9210e-07 -89.461 -89.461 -0.42971 677.06 0.0014770 -89.461 -89.461 -0.42971 1.3353 1.9892 1763.1 -0.0072810 827.32 0.18365 0.0032049 312.03 393.79 420.29 3.1977 0.88944 1.0781 179.19 1.6488 3.8385 0.0047320
-131.62 0.014106 8.9289e-07 -87.471 -87.471 -0.41559 676.04 0.0014792 -87.471 -87.471 -0.41560 1.3354 1.9909 1756.4 -0.0072684 807.34 0.18309 0.0036453 274.33 394.68 421.36 3.1798 0.89266 1.0813 179.76 1.6197 3.8660 0.0047951
-130.62 0.016124 1.0043e-06 -85.479 -85.479 -0.40157 675.03 0.0014814 -85.479 -85.479 -0.40157 1.3356 1.9926 1749.7 -0.0072555 788.12 0.18253 0.0041375 241.69 395.58 422.44 3.1622 0.89586 1.0846 180.34 1.5915 3.8935 0.0048586
-129.62 0.018392 1.1272e-06 -83.485 -83.485 -0.38763 674.02 0.0014836 -83.486 -83.486 -0.38763 1.3358 1.9944 1743.0 -0.0072425 769.63 0.18196 0.0046867 213.37 396.47 423.53 3.1450 0.89906 1.0878 180.91 1.5641 3.9210 0.0049223
-128.62 0.020935 1.2624e-06 -81.490 -81.490 -0.37378 673.01 0.0014859 -81.491 -81.490 -0.37378 1.3360 1.9961 1736.3 -0.0072294 751.83 0.18140 0.0052981 188.75 397.37 424.62 3.1281 0.90226 1.0910 181.48 1.5374 3.9485 0.0049863
-127.62 0.023783 1.4109e-06 -79.493 -79.493 -0.36001 672.00 0.0014881 -79.494 -79.493 -0.36001 1.3363 1.9979 1729.6 -0.0072160 734.67 0.18083 0.0059776 167.29 398.27 425.71 3.1116 0.90545 1.0942 182.05 1.5114 3.9760 0.0050506
-126.62 0.026966 1.5737e-06 -77.494 -77.494 -0.34632 670.98 0.0014904 -77.495 -77.495 -0.34632 1.3365 1.9997 1722.9 -0.0072025 718.14 0.18025 0.0067313 148.56 399.18 426.80 3.0954 0.90863 1.0974 182.62 1.4861 4.0035 0.0051152
-125.62 0.030515 1.7518e-06 -75.493 -75.493 -0.33271 669.97 0.0014926 -75.494 -75.494 -0.33272 1.3368 2.0015 1716.2 -0.0071888 702.18 0.17968 0.0075660 132.17 400.09 427.89 3.0795 0.91181 1.1006 183.18 1.4615 4.0310 0.0051800
-124.62 0.034467 1.9462e-06 -73.491 -73.491 -0.31918 668.95 0.0014949 -73.492 -73.492 -0.31919 1.3371 2.0033 1709.5 -0.0071749 686.79 0.17910 0.0084885 117.81 401.00 428.99 3.0640 0.91499 1.1038 183.74 1.4375 4.0584 0.0052452
-123.62 0.038859 2.1580e-06 -71.487 -71.486 -0.30573 667.94 0.0014971 -71.488 -71.487 -0.30574 1.3374 2.0051 1702.8 -0.0071609 671.93 0.17852 0.0095065 105.19 401.91 430.10 3.0488 0.91816 1.1070 184.30 1.4141 4.0859 0.0053106
-122.62 0.043731 2.3883e-06 -69.480 -69.480 -0.29236 666.92 0.0014994 -69.482 -69.481 -0.29237 1.3377 2.0070 1696.2 -0.0071466 657.57 0.17794 0.010628 94.092 402.83 431.20 3.0339 0.92134 1.1102 184.86 1.3913 4.1134 0.0053764
-121.62 0.049128 2.6383e-06 -67.472 -67.472 -0.27906 665.91 0.0015017 -67.474 -67.473 -0.27907 1.3380 2.0089 1689.5 -0.0071322 643.70 0.17736 0.011861 84.309 403.75 432.31 3.0193 0.92451 1.1134 185.41 1.3691 4.1409 0.0054424
-120.62 0.055096 2.9092e-06 -65.463 -65.462 -0.26584 664.89 0.0015040 -65.464 -65.463 -0.26585 1.3384 2.0107 1682.8 -0.0071176 630.28 0.17678 0.013215 75.669 404.67 433.42 3.0050 0.92767 1.1166 185.96 1.3475 4.1683 0.0055087
-119.62 0.061684 3.2022e-06 -63.451 -63.450 -0.25270 663.87 0.0015063 -63.452 -63.452 -0.25271 1.3387 2.0126 1676.1 -0.0071028 617.30 0.17619 0.014700 68.027 405.60 434.53 2.9909 0.93084 1.1198 186.51 1.3264 4.1958 0.0055752
-118.62 0.068946 3.5184e-06 -61.437 -61.436 -0.23962 662.86 0.0015086 -61.439 -61.438 -0.23963 1.3391 2.0146 1669.4 -0.0070878 604.74 0.17560 0.016325 61.255 406.53 435.64 2.9772 0.93401 1.1231 187.06 1.3058 4.2233 0.0056421
-117.62 0.076937 3.8592e-06 -59.421 -59.420 -0.22662 661.84 0.0015109 -59.423 -59.422 -0.22663 1.3395 2.0165 1662.8 -0.0070726 592.58 0.17501 0.018101 55.245 407.46 436.76 2.9638 0.93718 1.1263 187.60 1.2857 4.2507 0.0057092
-116.62 0.085718 4.2258e-06 -57.404 -57.403 -0.21369 660.82 0.0015133 -57.406 -57.405 -0.21370 1.3400 2.0184 1656.1 -0.0070573 580.80 0.17442 0.020040 49.901 408.39 437.88 2.9506 0.94035 1.1295 188.14 1.2660 4.2782 0.0057767
-115.62 0.095353 4.6194e-06 -55.384 -55.383 -0.20083 659.80 0.0015156 -55.386 -55.385 -0.20084 1.3404 2.0204 1649.4 -0.0070417 569.38 0.17383 0.022152 45.142 409.33 439.01 2.9377 0.94352 1.1327 188.68 1.2468 4.3056 0.0058444
-114.62 0.10591 5.0414e-06 -53.363 -53.361 -0.18803 658.78 0.0015180 -53.365 -53.364 -0.18805 1.3409 2.0224 1642.7 -0.0070260 558.32 0.17323 0.024451 40.898 410.27 440.13 2.9250 0.94669 1.1360 189.22 1.2281 4.3330 0.0059123
-113.62 0.11746 5.4930e-06 -51.339 -51.338 -0.17531 657.76 0.0015203 -51.342 -51.340 -0.17533 1.3413 2.0244 1636.0 -0.0070100 547.59 0.17264 0.026949 37.107 411.21 441.26 2.9126 0.94987 1.1392 189.75 1.2097 4.3604 0.0059806
-112.62 0.13008 5.9755e-06 -49.313 -49.312 -0.16265 656.73 0.0015227 -49.316 -49.315 -0.16267 1.3418 2.0264 1629.3 -0.0069938 537.18 0.17204 0.029661 33.715 412.16 442.39 2.9005 0.95305 1.1424 190.28 1.1918 4.3879 0.0060491
-111.62 0.14384 6.4901e-06 -47.286 -47.284 -0.15006 655.71 0.0015251 -47.289 -47.287 -0.15008 1.3424 2.0285 1622.7 -0.0069774 527.08 0.17144 0.032600 30.675 413.10 443.53 2.8885 0.95623 1.1457 190.81 1.1742 4.4153 0.0061180
-110.62 0.15884 7.0381e-06 -45.256 -45.254 -0.13753 654.69 0.0015274 -45.259 -45.258 -0.13755 1.3429 2.0305 1616.0 -0.0069609 517.28 0.17084 0.035781 27.948 414.06 444.66 2.8769 0.95942 1.1490 191.34 1.1570 4.4427 0.0061871
-109.62 0.17516 7.6206e-06 -43.224 -43.222 -0.12507 653.66 0.0015298 -43.228 -43.226 -0.12509 1.3435 2.0326 1609.3 -0.0069441 507.76 0.17024 0.039220 25.497 415.01 445.80 2.8654 0.96261 1.1522 191.86 1.1402 4.4701 0.0062564
-108.62 0.19290 8.2389e-06 -41.190 -41.188 -0.11267 652.64 0.0015322 -41.194 -41.192 -0.11269 1.3441 2.0347 1602.6 -0.0069271 498.51 0.16964 0.042933 23.292 415.96 446.94 2.8542 0.96581 1.1555 192.38 1.1236 4.4974 0.0063261
-107.62 0.21215 8.8941e-06 -39.154 -39.152 -0.10033 651.61 0.0015347 -39.158 -39.156 -0.10036 1.3447 2.0369 1595.9 -0.0069098 489.52 0.16903 0.046937 21.305 416.92 448.09 2.8433 0.96901 1.1588 192.90 1.1075 4.5248 0.0063960
-106.62 0.23301 9.5871e-06 -37.116 -37.113 -0.088054 650.58 0.0015371 -37.120 -37.118 -0.088082 1.3453 2.0390 1589.2 -0.0068924 480.79 0.16843 0.051250 19.512 417.88 449.23 2.8325 0.97222 1.1621 193.41 1.0916 4.5522 0.0064662
-105.62 0.25561 1.0319e-05 -35.076 -35.073 -0.075839 649.55 0.0015395 -35.080 -35.078 -0.075868 1.3460 2.0412 1582.6 -0.0068747 472.30 0.16782 0.055891 17.892 418.85 450.38 2.8220 0.97544 1.1655 193.93 1.0760 4.5795 0.0065367
-104.62 0.28004 1.1091e-05 -33.033 -33.030 -0.063682 648.52 0.0015420 -33.038 -33.035 -0.063714 1.3467 2.0434 1575.9 -0.0068569 464.04 0.16721 0.060878 16.426 419.81 451.53 2.8116 0.97867 1.1688 194.44 1.0608 4.6069 0.0066074
-103.62 0.30643 1.1904e-05 -30.988 -30.985 -0.051585 647.49 0.0015444 -30.994 -30.991 -0.051619 1.3474 2.0456 1569.2 -0.0068387 456.00 0.16660 0.066231 15.099 420.78 452.68 2.8015 0.98191 1.1722 194.94 1.0458 4.6342 0.0066785
-102.62 0.33490 1.2758e-05 -28.941 -28.937 -0.039546 646.46 0.0015469 -28.947 -28.944 -0.039582 1.3481 2.0478 1562.5 -0.0068204 448.18 0.16600 0.071971 13.894 421.75 453.84 2.7916 0.98516 1.1755 195.44 1.0310 4.6615 0.0067498
-101.62 0.36558 1.3655e-05 -26.892 -26.888 -0.027563 645.43 0.0015494 -26.898 -26.894 -0.027602 1.3489 2.0501 1555.8 -0.0068018 440.57 0.16539 0.078120 12.801 422.73 454.99 2.7818 0.98841 1.1789 195.95 1.0166 4.6888 0.0068213
-100.62 0.39862 1.4594e-05 -24.841 -24.836 -0.015637 644.39 0.0015519 -24.847 -24.843 -0.015678 1.3497 2.0524 1549.1 -0.0067830 433.16 0.16478 0.084699 11.807 423.70 456.15 2.7723 0.99168 1.1823 196.44 1.0024 4.7161 0.0068932
-99.625 0.43414 1.5577e-05 -22.787 -22.782 -0.0037672 643.36 0.0015544 -22.794 -22.789 -0.0038103 1.3505 2.0547 1542.4 -0.0067639 425.95 0.16416 0.091731 10.901 424.68 457.31 2.7630 0.99496 1.1858 196.94 0.98838 4.7434 0.0069653
-98.625 0.47230 1.6603e-05 -20.731 -20.725 0.0080483 642.32 0.0015569 -20.738 -20.733 0.0080027 1.3514 2.0570 1535.7 -0.0067447 418.92 0.16355 0.099240 10.077 425.66 458.48 2.7538 0.99825 1.1892 197.43 0.97464 4.7707 0.0070377
-97.625 0.51325 1.7673e-05 -18.672 -18.666 0.019810 641.28 0.0015594 -18.680 -18.674 0.019762 1.3522 2.0594 1529.0 -0.0067251 412.07 0.16294 0.10725 9.3239 426.65 459.64 2.7448 1.0016 1.1927 197.92 0.96112 4.7979 0.0071103
-96.625 0.55714 1.8787e-05 -16.611 -16.605 0.031518 640.24 0.0015619 -16.620 -16.614 0.031467 1.3531 2.0618 1522.3 -0.0067053 405.39 0.16233 0.11579 8.6365 427.63 460.81 2.7360 1.0049 1.1962 198.40 0.94783 4.8251 0.0071832
-95.625 0.60416 1.9945e-05 -14.548 -14.541 0.043174 639.20 0.0015645 -14.557 -14.550 0.043120 1.3540 2.0642 1515.7 -0.0066853 398.88 0.16171 0.12488 8.0078 428.62 461.98 2.7274 1.0082 1.1997 198.88 0.93475 4.8524 0.0072564
-94.625 0.65446 2.1146e-05 -12.482 -12.474 0.054777 638.16 0.0015670 -12.491 -12.484 0.054721 1.3550 2.0667 1509.0 -0.0066650 392.53 0.16110 0.13455 7.4323 429.61 463.15 2.7189 1.0116 1.2032 199.36 0.92188 4.8796 0.0073299
-93.625 0.70822 2.2389e-05 -10.414 -10.405 0.066330 637.12 0.0015696 -10.424 -10.416 0.066271 1.3560 2.0691 1502.3 -0.0066444 386.34 0.16048 0.14482 6.9050 430.60 464.32 2.7107 1.0149 1.2068 199.83 0.90921 4.9068 0.0074036
-92.625 0.76564 2.3675e-05 -8.3431 -8.3340 0.077833 636.07 0.0015722 -8.3535 -8.3452 0.077771 1.3570 2.0716 1495.6 -0.0066236 380.31 0.15987 0.15573 6.4212 431.60 465.49 2.7025 1.0183 1.2104 200.30 0.89673 4.9340 0.0074776
-91.625 0.82689 2.5002e-05 -6.2699 -6.2600 0.089285 635.02 0.0015747 -6.2808 -6.2719 0.089220 1.3580 2.0742 1488.9 -0.0066025 374.41 0.15925 0.16731 5.9769 432.59 466.67 2.6946 1.0217 1.2140 200.77 0.88445 4.9611 0.0075518
-90.625 0.89218 2.6369e-05 -4.1941 -4.1835 0.10069 633.98 0.0015773 -4.2056 -4.1959 0.10062 1.3591 2.0767 1482.2 -0.0065811 368.66 0.15864 0.17958 5.5685 433.59 467.84 2.6868 1.0251 1.2177 201.24 0.87236 4.9883 0.0076263
-89.625 0.96172 2.7774e-05 -2.1157 -2.1043 0.11204 632.93 0.0015800 -2.1279 -2.1174 0.11197 1.3602 2.0793 1475.5 -0.0065595 363.05 0.15802 0.19258 5.1928 434.59 469.02 2.6791 1.0285 1.2213 201.70 0.86045 5.0154 0.0077011
-88.625 1.0357 2.9216e-05 -0.034789 -0.022477 0.12335 631.88 0.0015826 -0.047516 -0.036215 0.12328 1.3613 2.0819 1468.8 -0.0065375 357.56 0.15740 0.20633 4.8466 435.59 470.20 2.6717 1.0320 1.2250 202.15 0.84873 5.0425 0.0077761
-87.625 1.1144 3.0693e-05 2.0488 2.0620 0.13461 630.83 0.0015852 2.0355 2.0476 0.13454 1.3625 2.0846 1462.1 -0.0065153 352.21 0.15679 0.22087 4.5276 436.60 471.39 2.6643 1.0354 1.2288 202.61 0.83718 5.0696 0.0078514
-86.625 1.1979 3.2202e-05 4.1350 4.1493 0.14583 629.77 0.0015879 4.1211 4.1342 0.14575 1.3637 2.0873 1455.4 -0.0064928 346.98 0.15617 0.23623 4.2331 437.61 472.57 2.6571 1.0389 1.2325 203.06 0.82580 5.0967 0.0079270
-85.625 1.2866 3.3741e-05 6.2239 6.2392 0.15700 628.72 0.0015905 6.2094 6.2235 0.15691 1.3649 2.0900 1448.8 -0.0064701 341.87 0.15555 0.25245 3.9612 438.61 473.75 2.6501 1.0424 1.2363 203.50 0.81460 5.1237 0.0080028
-84.625 1.3806 3.5307e-05 8.3156 8.3320 0.16812 627.66 0.0015932 8.3004 8.3155 0.16803 1.3661 2.0927 1442.1 -0.0064470 336.87 0.15494 0.26956 3.7097 439.63 474.94 2.6432 1.0460 1.2402 203.95 0.80356 5.1508 0.0080789
-83.625 1.4803 3.6897e-05 10.410 10.428 0.17920 626.60 0.0015959 10.394 10.410 0.17911 1.3674 2.0955 1435.4 -0.0064236 331.99 0.15432 0.28760 3.4771 440.64 476.13 2.6364 1.0495 1.2440 204.38 0.79269 5.1778 0.0081553
-82.625 1.5858 3.8506e-05 12.507 12.526 0.19024 625.54 0.0015986 12.491 12.508 0.19014 1.3687 2.0983 1428.7 -0.0063999 327.22 0.15370 0.30659 3.2616 441.65 477.31 2.6298 1.0531 1.2479 204.82 0.78199 5.2048 0.0082319
-81.625 1.6975 4.0131e-05 14.607 14.627 0.20123 624.48 0.0016013 14.590 14.609 0.20113 1.3700 2.1012 1422.0 -0.0063759 322.55 0.15309 0.32659 3.0619 442.67 478.50 2.6233 1.0567 1.2519 205.25 0.77144 5.2318 0.0083088
-80.625 1.8155 4.1768e-05 16.710 16.731 0.21218 623.42 0.0016041 16.692 16.712 0.21208 1.3714 2.1041 1415.4 -0.0063516 317.99 0.15247 0.34763 2.8766 443.69 479.70 2.6169 1.0603 1.2558 205.67 0.76106 5.2587 0.0083860
-79.625 1.9402 4.3411e-05 18.816 18.839 0.22309 622.36 0.0016068 18.797 18.819 0.22299 1.3728 2.1070 1408.7 -0.0063270 313.52 0.15186 0.36974 2.7046 444.71 480.89 2.6106 1.0639 1.2598 206.10 0.75083 5.2857 0.0084634
-78.625 2.0718 4.5056e-05 20.924 20.949 0.23396 621.29 0.0016096 20.905 20.928 0.23385 1.3742 2.1099 1402.0 -0.0063021 309.15 0.15124 0.39296 2.5448 445.73 482.08 2.6045 1.0676 1.2639 206.51 0.74076 5.3126 0.0085411
-77.625 2.2107 4.6696e-05 23.036 23.062 0.24479 620.22 0.0016123 23.016 23.040 0.24468 1.3757 2.1129 1395.3 -0.0062768 304.88 0.15062 0.41735 2.3961 446.75 483.27 2.5985 1.0712 1.2680 206.93 0.73084 5.3395 0.0086190
-76.625 2.3571 4.8325e-05 25.150 25.178 0.25557 619.15 0.0016151 25.130 25.156 0.25546 1.3772 2.1159 1388.7 -0.0062512 300.69 0.15001 0.44292 2.2577 447.78 484.47 2.5926 1.0749 1.2721 207.34 0.72107 5.3664 0.0086972
-75.625 2.5113 4.9937e-05 27.268 27.297 0.26632 618.08 0.0016179 27.247 27.275 0.26620 1.3787 2.1190 1382.0 -0.0062253 296.59 0.14939 0.46974 2.1288 448.81 485.67 2.5869 1.0787 1.2762 207.74 0.71146 5.3933 0.0087757
-74.625 2.6736 5.1523e-05 29.388 29.420 0.27703 617.01 0.0016207 29.366 29.396 0.27691 1.3802 2.1221 1375.4 -0.0061990 292.58 0.14878 0.49783 2.0087 449.83 486.86 2.5812 1.0824 1.2804 208.14 0.70200 5.4201 0.0088544
-73.625 2.8444 5.3078e-05 31.512 31.545 0.28770 615.93 0.0016236 31.489 31.521 0.28758 1.3818 2.1252 1368.7 -0.0061724 288.65 0.14816 0.52725 1.8966 450.86 488.06 2.5757 1.0862 1.2847 208.54 0.69268 5.4469 0.0089334
-72.625 3.0240 5.4591e-05 33.638 33.674 0.29833 614.85 0.0016264 33.615 33.649 0.29821 1.3834 2.1284 1362.0 -0.0061454 284.81 0.14755 0.55804 1.7920 451.90 489.26 2.5703 1.0900 1.2889 208.93 0.68351 5.4737 0.0090126
-71.625 3.2127 5.6055e-05 35.768 35.806 0.30892 613.78 0.0016293 35.745 35.781 0.30880 1.3851 2.1316 1355.4 -0.0061181 281.03 0.14694 0.59024 1.6942 452.93 490.46 2.5650 1.0938 1.2932 209.32 0.67448 5.5005 0.0090922
-70.625 3.4108 5.7459e-05 37.901 37.941 0.31948 612.69 0.0016321 37.877 37.915 0.31935 1.3867 2.1349 1348.7 -0.0060904 277.34 0.14632 0.62390 1.6028 453.96 491.66 2.5598 1.0976 1.2976 209.70 0.66560 5.5273 0.0091720
-69.625 3.6187 5.8794e-05 40.037 40.080 0.33000 611.61 0.0016350 40.013 40.053 0.32987 1.3884 2.1382 1342.1 -0.0060624 273.72 0.14571 0.65906 1.5173 455.00 492.86 2.5547 1.1015 1.3020 210.08 0.65687 5.5540 0.0092520
-68.625 3.8367 6.0049e-05 42.176 42.222 0.34049 610.53 0.0016379 42.152 42.195 0.34036 1.3902 2.1415 1335.5 -0.0060339 270.17 0.14510 0.69577 1.4372 456.04 494.06 2.5497 1.1054 1.3064 210.45 0.64827 5.5807 0.0093324
-67.625 4.0652 6.1212e-05 44.319 44.367 0.35094 609.44 0.0016409 44.294 44.340 0.35080 1.3919 2.1449 1328.8 -0.0060051 266.69 0.14449 0.73408 1.3622 457.08 495.26 2.5448 1.1093 1.3109 210.82 0.63981 5.6074 0.0094130
-66.625 4.3046 6.2271e-05 46.465 46.516 0.36135 608.35 0.0016438 46.439 46.488 0.36122 1.3937 2.1483 1322.2 -0.0059760 263.28 0.14388 0.77404 1.2919 458.12 496.46 2.5400 1.1133 1.3154 211.18 0.63150 5.6341 0.0094939
-65.625 4.5551 6.3213e-05 48.614 48.668 0.37174 607.26 0.0016467 48.588 48.640 0.37160 1.3955 2.1518 1315.6 -0.0059464 259.93 0.14327 0.81570 1.2259 459.16 497.67 2.5353 1.1172 1.3200 211.54 0.62332 5.6608 0.0095750
-64.625 4.8173 6.4025e-05 50.767 50.824 0.38208 606.16 0.0016497 50.740 50.795 0.38195 1.3974 2.1553 1308.9 -0.0059164 256.65 0.14266 0.85910 1.1640 460.21 498.87 2.5307 1.1212 1.3246 211.89 0.61527 5.6874 0.0096564
-63.625 5.0915 6.4693e-05 52.923 52.983 0.39240 605.07 0.0016527 52.896 52.954 0.39226 1.3993 2.1588 1302.3 -0.0058861 253.42 0.14205 0.90429 1.1058 461.25 500.07 2.5262 1.1252 1.3293 212.24 0.60736 5.7140 0.0097382
-62.625 5.3781 6.5201e-05 55.082 55.146 0.40268 603.97 0.0016557 55.055 55.117 0.40254 1.4012 2.1624 1295.7 -0.0058553 250.26 0.14144 0.95134 1.0511 462.30 501.28 2.5218 1.1293 1.3340 212.58 0.59958 5.7406 0.0098201
-61.625 5.6774 6.5533e-05 57.245 57.312 0.41293 602.87 0.0016587 57.218 57.283 0.41279 1.4031 2.1660 1289.1 -0.0058241 247.16 0.14084 1.0003 0.99972 463.35 502.48 2.5175 1.1333 1.3387 212.92 0.59194 5.7672 0.0099024
-60.625 5.9899 6.5672e-05 59.411 59.482 0.42315 601.77 0.0016618 59.385 59.453 0.42301 1.4051 2.1697 1282.5 -0.0057925 244.12 0.14023 1.0512 0.95131 464.40 503.68 2.5133 1.1374 1.3435 213.26 0.58442 5.7938 0.0099850
-59.625 6.3160 6.5602e-05 61.581 61.656 0.43333 600.66 0.0016648 61.554 61.627 0.43320 1.4071 2.1734 1275.9 -0.0057605 241.13 0.13962 1.1041 0.90573 465.45 504.89 2.5091 1.1415 1.3483 213.58 0.57704 5.8203 0.010068
-58.625 6.6561 6.5303e-05 63.754 63.834 0.44349 599.55 0.0016679 63.728 63.805 0.44335 1.4091 2.1772 1269.3 -0.0057280 238.19 0.13902 1.1591 0.86277 466.50 506.09 2.5051 1.1457 1.3532 213.90 0.56978 5.8468 0.010151
-57.625 7.0107 6.4756e-05 65.931 66.015 0.45361 598.44 0.0016710 65.905 65.986 0.45348 1.4111 2.1810 1262.7 -0.0056951 235.31 0.13842 1.2161 0.82228 467.55 507.30 2.5011 1.1498 1.3581 214.22 0.56265 5.8733 0.010234
-56.625 7.3801 6.3941e-05 68.112 68.200 0.46371 597.33 0.0016741 68.086 68.172 0.46358 1.4132 2.1848 1256.1 -0.0056617 232.48 0.13781 1.2754 0.78408 468.60 508.50 2.4972 1.1540 1.3631 214.53 0.55564 5.8998 0.010318
-55.625 7.7648 6.2836e-05 70.296 70.389 0.47377 596.22 0.0016772 70.271 70.361 0.47364 1.4153 2.1887 1249.5 -0.0056279 229.69 0.13721 1.3369 0.74802 469.66 509.71 2.4934 1.1582 1.3681 214.84 0.54875 5.9263 0.010402
-54.625 8.1652 6.1418e-05 72.484 72.581 0.48381 595.10 0.0016804 72.460 72.554 0.48368 1.4174 2.1927 1242.9 -0.0055937 226.96 0.13661 1.4006 0.71396 470.72 510.91 2.4897 1.1624 1.3731 215.14 0.54199 5.9527 0.010486
-53.625 8.5819 5.9665e-05 74.676 74.778 0.49381 593.98 0.0016836 74.652 74.752 0.49369 1.4196 2.1967 1236.3 -0.0055589 224.27 0.13601 1.4667 0.68178 471.77 512.11 2.4860 1.1667 1.3782 215.43 0.53535 5.9792 0.010571
-52.625 9.0151 5.7552e-05 76.872 76.979 0.50379 592.86 0.0016867 76.849 76.954 0.50368 1.4218 2.2007 1229.8 -0.0055237 221.63 0.13541 1.5353 0.65136 472.83 513.32 2.4824 1.1710 1.3834 215.72 0.52882 6.0056 0.010656
-51.625 9.4655 5.5053e-05 79.071 79.183 0.51374 591.73 0.0016900 79.049 79.159 0.51363 1.4240 2.2048 1223.2 -0.0054880 219.04 0.13482 1.6062 0.62258 473.89 514.52 2.4789 1.1752 1.3886 216.00 0.52241 6.0320 0.010741
-50.625 9.9335 5.2141e-05 81.274 81.392 0.52366 590.60 0.0016932 81.253 81.369 0.52356 1.4262 2.2089 1216.6 -0.0054519 216.48 0.13422 1.6797 0.59534 474.95 515.73 2.4755 1.1796 1.3938 216.28 0.51612 6.0584 0.010827
-49.625 10.419 4.8789e-05 83.481 83.605 0.53356 589.47 0.0016964 83.462 83.584 0.53347 1.4285 2.2131 1210.1 -0.0054152 213.98 0.13363 1.7558 0.56954 476.01 516.93 2.4722 1.1839 1.3991 216.55 0.50994 6.0848 0.010913
-48.625 10.924 4.4967e-05 85.692 85.822 0.54343 588.34 0.0016997 85.674 85.802 0.54334 1.4308 2.2173 1203.5 -0.0053780 211.51 0.13303 1.8345 0.54510 477.07 518.13 2.4689 1.1883 1.4044 216.82 0.50387 6.1112 0.010999
-47.625 11.448 4.0645e-05 87.906 88.043 0.55327 587.20 0.0017030 87.891 88.025 0.55319 1.4331 2.2216 1196.9 -0.0053403 209.08 0.13244 1.9159 0.52194 478.14 519.33 2.4657 1.1927 1.4098 217.08 0.49792 6.1375 0.011085
-46.625 11.991 3.5791e-05 90.125 90.268 0.56309 586.06 0.0017063 90.111 90.252 0.56302 1.4354 2.2259 1190.4 -0.0053020 206.69 0.13185 2.0001 0.49997 479.20 520.53 2.4625 1.1971 1.4153 217.33 0.49207 6.1639 0.011172
-45.625 12.554 3.0373e-05 92.348 92.497 0.57288 584.92 0.0017096 92.336 92.484 0.57282 1.4378 2.2303 1183.8 -0.0052633 204.34 0.13126 2.0872 0.47912 480.27 521.74 2.4594 1.2015 1.4207 217.58 0.48633 6.1902 0.011259
-44.625 13.137 2.4355e-05 94.575 94.731 0.58264 583.77 0.0017130 94.565 94.720 0.58260 1.4402 2.2347 1177.3 -0.0052240 202.03 0.13067 2.1771 0.45933 481.33 522.94 2.4564 1.2060 1.4263 217.82 0.48069 6.2165 0.011347
-43.625 13.741 1.7701e-05 96.805 96.969 0.59238 582.62 0.0017164 96.799 96.961 0.59235 1.4426 2.2392 1170.7 -0.0051841 199.75 0.13008 2.2700 0.44053 482.40 524.14 2.4535 1.2104 1.4319 218.05 0.47516 6.2429 0.011435
-42.625 14.367 1.0376e-05 99.040 99.211 0.60210 581.47 0.0017198 99.036 99.207 0.60208 1.4450 2.2437 1164.2 -0.0051437 197.51 0.12949 2.3659 0.42267 483.46 525.33 2.4506 1.2149 1.4375 218.28 0.46973 6.2692 0.011523
-41.625 15.015 2.3387e-06 101.28 101.46 0.61179 580.32 0.0017232 101.28 101.46 0.61179 1.4475 2.2483 1157.7 -0.0051027 195.30 0.12891 2.4649 0.40569 484.53 526.53 2.4478 1.2195 1.4432 218.50 0.46440 6.2955 0.011612
-40.625 120.35 undefined 102.95 104.38 0.61898 580.00 0.0017241 102.95 104.38 0.61898 1.4506 2.2488 1157.8 -0.0051068 194.60 0.12884 580.00 0.0017241 102.95 104.38 0.61898 1.4506 2.2488 1157.8 -0.0051068 194.60 0.12884
-39.625 265.20 undefined 104.40 107.55 0.62521 580.00 0.0017241 104.40 107.55 0.62521 1.4541 2.2479 1160.5 -0.0051278 194.47 0.12896 580.00 0.0017241 104.40 107.55 0.62521 1.4541 2.2479 1160.5 -0.0051278 194.47 0.12896
-38.625 409.88 undefined 105.85 110.73 0.63143 580.00 0.0017241 105.85 110.73 0.63143 1.4575 2.2471 1163.2 -0.0051481 194.33 0.12909 580.00 0.0017241 105.85 110.73 0.63143 1.4575 2.2471 1163.2 -0.0051481 194.33 0.12909
-37.625 554.39 undefined 107.31 113.90 0.63764 580.00 0.0017241 107.31 113.90 0.63764 1.4610 2.2464 1165.8 -0.0051680 194.20 0.12921 580.00 0.0017241 107.31 113.90 0.63764 1.4610 2.2464 1165.8 -0.0051680 194.20 0.12921
-36.625 698.73 undefined 108.78 117.08 0.64384 580.00 0.0017241 108.78 117.08 0.64384 1.4644 2.2457 1168.5 -0.0051873 194.07 0.12934 580.00 0.0017241 108.78 117.08 0.64384 1.4644 2.2457 1168.5 -0.0051873 194.07 0.12934
-35.625 842.91 undefined 110.24 120.26 0.65002 580.00 0.0017241 110.24 120.26 0.65002 1.4679 2.2451 1171.1 -0.0052061 193.94 0.12946 580.00 0.0017241 110.24 120.26 0.65002 1.4679 2.2451 1171.1 -0.0052061 193.94 0.12946
-34.625 986.92 undefined 111.71 123.44 0.65620 580.00 0.0017241 111.71 123.44 0.65620 1.4714 2.2447 1173.7 -0.0052244 193.81 0.12959 580.00 0.0017241 111.71 123.44 0.65620 1.4714 2.2447 1173.7 -0.0052244 193.81 0.12959
-33.625 1130.8 undefined 113.19 126.63 0.66236 580.00 0.0017241 113.19 126.63 0.66236 1.4749 2.2442 1176.2 -0.0052422 193.68 0.12972 580.00 0.0017241 113.19 126.63 0.66236 1.4749 2.2442 1176.2 -0.0052422 193.68 0.12972
-32.625 1274.4 undefined 114.66 129.81 0.66851 580.00 0.0017241 114.66 129.81 0.66851 1.4785 2.2439 1178.8 -0.0052596 193.56 0.12984 580.00 0.0017241 114.66 129.81 0.66851 1.4785 2.2439 1178.8 -0.0052596 193.56 0.12984
-31.625 1417.9 undefined 116.14 133.00 0.67465 580.00 0.0017241 116.14 133.00 0.67465 1.4820 2.2437 1181.3 -0.0052764 193.44 0.12997 580.00 0.0017241 116.14 133.00 0.67465 1.4820 2.2437 1181.3 -0.0052764 193.44 0.12997
-30.625 1561.3 undefined 117.63 136.19 0.68078 580.00 0.0017241 117.63 136.19 0.68078 1.4856 2.2435 1183.8 -0.0052928 193.31 0.13010 580.00 0.0017241 117.63 136.19 0.68078 1.4856 2.2435 1183.8 -0.0052928 193.31 0.13010
-29.625 1704.4 undefined 119.11 139.38 0.68691 580.00 0.0017241 119.11 139.38 0.68691 1.4891 2.2434 1186.3 -0.0053088 193.19 0.13023 580.00 0.0017241 119.11 139.38 0.68691 1.4891 2.2434 1186.3 -0.0053088 193.19 0.13023
-28.625 1847.4 undefined 120.60 142.57 0.69301 580.00 0.0017241 120.60 142.57 0.69301 1.4927 2.2433 1188.8 -0.0053243 193.07 0.13036 580.00 0.0017241 120.60 142.57 0.69301 1.4927 2.2433 1188.8 -0.0053243 193.07 0.13036
-27.625 1990.3 undefined 122.10 145.76 0.69911 580.00 0.0017241 122.10 145.76 0.69911 1.4963 2.2433 1191.2 -0.0053394 192.95 0.13048 580.00 0.0017241 122.10 145.76 0.69911 1.4963 2.2433 1191.2 -0.0053394 192.95 0.13048
-26.625 2132.9 undefined 123.60 148.95 0.70520 580.00 0.0017241 123.60 148.95 0.70520 1.5000 2.2434 1193.6 -0.0053541 192.84 0.13061 580.00 0.0017241 123.60 148.95 0.70520 1.5000 2.2434 1193.6 -0.0053541 192.84 0.13061
-25.625 2275.4 undefined 125.10 152.15 0.71128 580.00 0.0017241 125.10 152.15 0.71128 1.5036 2.2436 1196.1 -0.0053684 192.72 0.13074 580.00 0.0017241 125.10 152.15 0.71128 1.5036 2.2436 1196.1 -0.0053684 192.72 0.13074
-24.625 2417.8 undefined 126.60 155.35 0.71735 580.00 0.0017241 126.60 155.35 0.71735 1.5072 2.2438 1198.4 -0.0053822 192.61 0.13087 580.00 0.0017241 126.60 155.35 0.71735 1.5072 2.2438 1198.4 -0.0053822 192.61 0.13087
-23.625 2559.9 undefined 128.11 158.54 0.72341 580.00 0.0017241 128.11 158.54 0.72341 1.5109 2.2441 1200.8 -0.0053957 192.50 0.13100 580.00 0.0017241 128.11 158.54 0.72341 1.5109 2.2441 1200.8 -0.0053957 192.50 0.13100
-22.625 2701.9 undefined 129.63 161.75 0.72946 580.00 0.0017241 129.63 161.75 0.72946 1.5146 2.2445 1203.2 -0.0054088 192.38 0.13113 580.00 0.0017241 129.63 161.75 0.72946 1.5146 2.2445 1203.2 -0.0054088 192.38 0.13113
-21.625 2843.8 undefined 131.14 164.95 0.73550 580.00 0.0017241 131.14 164.95 0.73550 1.5183 2.2449 1205.5 -0.0054215 192.27 0.13126 580.00 0.0017241 131.14 164.95 0.73550 1.5183 2.2449 1205.5 -0.0054215 192.27 0.13126
-20.625 2985.4 undefined 132.66 168.15 0.74154 580.00 0.0017241 132.66 168.15 0.74154 1.5220 2.2454 1207.8 -0.0054339 192.16 0.13139 580.00 0.0017241 132.66 168.15 0.74154 1.5220 2.2454 1207.8 -0.0054339 192.16 0.13139
-19.625 3126.9 undefined 134.19 171.36 0.74756 580.00 0.0017241 134.19 171.36 0.74756 1.5257 2.2459 1210.1 -0.0054458 192.06 0.13152 580.00 0.0017241 134.19 171.36 0.74756 1.5257 2.2459 1210.1 -0.0054458 192.06 0.13152
-18.625 3268.3 undefined 135.71 174.57 0.75357 580.00 0.0017241 135.71 174.57 0.75357 1.5295 2.2465 1212.4 -0.0054575 191.95 0.13165 580.00 0.0017241 135.71 174.57 0.75357 1.5295 2.2465 1212.4 -0.0054575 191.95 0.13165
-17.625 3409.4 undefined 137.25 177.78 0.75958 580.00 0.0017241 137.25 177.78 0.75958 1.5332 2.2471 1214.7 -0.0054687 191.85 0.13178 580.00 0.0017241 137.25 177.78 0.75958 1.5332 2.2471 1214.7 -0.0054687 191.85 0.13178
-16.625 3550.4 undefined 138.78 180.99 0.76557 580.00 0.0017241 138.78 180.99 0.76557 1.5370 2.2479 1217.0 -0.0054797 191.74 0.13192 580.00 0.0017241 138.78 180.99 0.76557 1.5370 2.2479 1217.0 -0.0054797 191.74 0.13192
-15.625 3691.3 undefined 140.32 184.20 0.77156 580.00 0.0017241 140.32 184.20 0.77156 1.5408 2.2486 1219.2 -0.0054903 191.64 0.13205 580.00 0.0017241 140.32 184.20 0.77156 1.5408 2.2486 1219.2 -0.0054903 191.64 0.13205
-14.625 3831.9 undefined 141.86 187.41 0.77754 580.00 0.0017241 141.86 187.41 0.77754 1.5446 2.2494 1221.4 -0.0055006 191.54 0.13218 580.00 0.0017241 141.86 187.41 0.77754 1.5446 2.2494 1221.4 -0.0055006 191.54 0.13218
-13.625 3972.4 undefined 143.41 190.63 0.78351 580.00 0.0017241 143.41 190.63 0.78351 1.5484 2.2503 1223.6 -0.0055105 191.44 0.13231 580.00 0.0017241 143.41 190.63 0.78351 1.5484 2.2503 1223.6 -0.0055105 191.44 0.13231
-12.625 4112.8 undefined 144.96 193.85 0.78947 580.00 0.0017241 144.96 193.85 0.78947 1.5522 2.2512 1225.8 -0.0055202 191.34 0.13244 580.00 0.0017241 144.96 193.85 0.78947 1.5522 2.2512 1225.8 -0.0055202 191.34 0.13244
-11.625 4253.0 undefined 146.51 197.07 0.79543 580.00 0.0017241 146.51 197.07 0.79543 1.5561 2.2522 1228.0 -0.0055295 191.24 0.13258 580.00 0.0017241 146.51 197.07 0.79543 1.5561 2.2522 1228.0 -0.0055295 191.24 0.13258
-10.625 4393.0 undefined 148.07 200.29 0.80137 580.00 0.0017241 148.07 200.29 0.80137 1.5600 2.2532 1230.2 -0.0055385 191.14 0.13271 580.00 0.0017241 148.07 200.29 0.80137 1.5600 2.2532 1230.2 -0.0055385 191.14 0.13271
-9.6250 4532.8 undefined 149.63 203.52 0.80731 580.00 0.0017241 149.63 203.52 0.80731 1.5638 2.2543 1232.3 -0.0055473 191.05 0.13285 580.00 0.0017241 149.63 203.52 0.80731 1.5638 2.2543 1232.3 -0.0055473 191.05 0.13285
-8.6250 4672.5 undefined 151.20 206.74 0.81324 580.00 0.0017241 151.20 206.74 0.81324 1.5677 2.2554 1234.5 -0.0055557 190.95 0.13298 580.00 0.0017241 151.20 206.74 0.81324 1.5677 2.2554 1234.5 -0.0055557 190.95 0.13298
-7.6250 4812.0 undefined 152.77 209.97 0.81916 580.00 0.0017241 152.77 209.97 0.81916 1.5716 2.2565 1236.6 -0.0055639 190.86 0.13311 580.00 0.0017241 152.77 209.97 0.81916 1.5716 2.2565 1236.6 -0.0055639 190.86 0.13311
-6.6250 4951.3 undefined 154.34 213.20 0.82508 580.00 0.0017241 154.34 213.20 0.82508 1.5755 2.2578 1238.7 -0.0055718 190.77 0.13325 580.00 0.0017241 154.34 213.20 0.82508 1.5755 2.2578 1238.7 -0.0055718 190.77 0.13325
-5.6250 5090.5 undefined 155.92 216.43 0.83099 580.00 0.0017241 155.92 216.43 0.83099 1.5795 2.2590 1240.8 -0.0055794 190.68 0.13338 580.00 0.0017241 155.92 216.43 0.83099 1.5795 2.2590 1240.8 -0.0055794 190.68 0.13338
-4.6250 5229.5 undefined 157.50 219.67 0.83689 580.00 0.0017241 157.50 219.67 0.83689 1.5834 2.2603 1242.9 -0.0055868 190.59 0.13352 580.00 0.0017241 157.50 219.67 0.83689 1.5834 2.2603 1242.9 -0.0055868 190.59 0.13352
-3.6250 5368.4 undefined 159.09 222.90 0.84278 580.00 0.0017241 159.09 222.90 0.84278 1.5874 2.2617 1244.9 -0.0055939 190.50 0.13365 580.00 0.0017241 159.09 222.90 0.84278 1.5874 2.2617 1244.9 -0.0055939 190.50 0.13365
-2.6250 5507.1 undefined 160.68 226.14 0.84867 580.00 0.0017241 160.68 226.14 0.84867 1.5913 2.2630 1247.0 -0.0056007 190.41 0.13379 580.00 0.0017241 160.68 226.14 0.84867 1.5913 2.2630 1247.0 -0.0056007 190.41 0.13379
-1.6250 5645.6 undefined 162.27 229.38 0.85454 580.00 0.0017241 162.27 229.38 0.85454 1.5953 2.2645 1249.0 -0.0056073 190.32 0.13393 580.00 0.0017241 162.27 229.38 0.85454 1.5953 2.2645 1249.0 -0.0056073 190.32 0.13393
-0.62500 5784.0 undefined 163.87 232.62 0.86042 580.00 0.0017241 163.87 232.62 0.86042 1.5993 2.2659 1251.1 -0.0056136 190.24 0.13406 580.00 0.0017241 163.87 232.62 0.86042 1.5993 2.2659 1251.1 -0.0056136 190.24 0.13406
0.37500 5922.2 undefined 165.47 235.87 0.86628 580.00 0.0017241 165.47 235.87 0.86628 1.6033 2.2674 1253.1 -0.0056197 190.15 0.13420 580.00 0.0017241 165.47 235.87 0.86628 1.6033 2.2674 1253.1 -0.0056197 190.15 0.13420
1.3750 6060.2 undefined 167.07 239.11 0.87214 580.00 0.0017241 167.07 239.11 0.87214 1.6073 2.2690 1255.1 -0.0056256 190.07 0.13434 580.00 0.0017241 167.07 239.11 0.87214 1.6073 2.2690 1255.1 -0.0056256 190.07 0.13434
2.3750 6198.1 undefined 168.68 242.36 0.87799 580.00 0.0017241 168.68 242.36 0.87799 1.6114 2.2706 1257.1 -0.0056312 189.98 0.13447 580.00 0.0017241 168.68 242.36 0.87799 1.6114 2.2706 1257.1 -0.0056312 189.98 0.13447
3.3750 6335.8 undefined 170.30 245.61 0.88384 580.00 0.0017241 170.30 245.61 0.88384 1.6154 2.2722 1259.1 -0.0056366 189.90 0.13461 580.00 0.0017241 170.30 245.61 0.88384 1.6154 2.2722 1259.1 -0.0056366 189.90 0.13461
4.3750 6473.4 undefined 171.91 248.87 0.88967 580.00 0.0017241 171.91 248.87 0.88967 1.6194 2.2739 1261.0 -0.0056417 189.82 0.13475 580.00 0.0017241 171.91 248.87 0.88967 1.6194 2.2739 1261.0 -0.0056417 189.82 0.13475
5.3750 6610.8 undefined 173.53 252.12 0.89551 580.00 0.0017241 173.53 252.12 0.89551 1.6235 2.2756 1263.0 -0.0056467 189.74 0.13489 580.00 0.0017241 173.53 252.12 0.89551 1.6235 2.2756 1263.0 -0.0056467 189.74 0.13489
6.3750 6748.0 undefined 175.16 255.38 0.90133 580.00 0.0017241 175.16 255.38 0.90133 1.6276 2.2773 1264.9 -0.0056514 189.66 0.13502 580.00 0.0017241 175.16 255.38 0.90133 1.6276 2.2773 1264.9 -0.0056514 189.66 0.13502
7.3750 6885.1 undefined 176.79 258.64 0.90715 580.00 0.0017241 176.79 258.64 0.90715 1.6317 2.2791 1266.9 -0.0056559 189.58 0.13516 580.00 0.0017241 176.79 258.64 0.90715 1.6317 2.2791 1266.9 -0.0056559 189.58 0.13516
8.3750 7022.0 undefined 178.42 261.90 0.91297 580.00 0.0017241 178.42 261.90 0.91297 1.6358 2.2809 1268.8 -0.0056603 189.50 0.13530 580.00 0.0017241 178.42 261.90 0.91297 1.6358 2.2809 1268.8 -0.0056603 189.50 0.13530
9.3750 7158.7 undefined 180.06 265.16 0.91877 580.00 0.0017241 180.06 265.16 0.91877 1.6399 2.2828 1270.7 -0.0056644 189.43 0.13544 580.00 0.0017241 180.06 265.16 0.91877 1.6399 2.2828 1270.7 -0.0056644 189.43 0.13544
10.375 7295.3 undefined 181.70 268.43 0.92457 580.00 0.0017241 181.70 268.43 0.92457 1.6440 2.2846 1272.6 -0.0056683 189.35 0.13558 580.00 0.0017241 181.70 268.43 0.92457 1.6440 2.2846 1272.6 -0.0056683 189.35 0.13558
11.375 7431.8 undefined 183.35 271.69 0.93037 580.00 0.0017241 183.35 271.69 0.93037 1.6481 2.2866 1274.5 -0.0056720 189.28 0.13572 580.00 0.0017241 183.35 271.69 0.93037 1.6481 2.2866 1274.5 -0.0056720 189.28 0.13572
12.375 7568.0 undefined 185.00 274.96 0.93616 580.00 0.0017241 185.00 274.96 0.93616 1.6522 2.2885 1276.4 -0.0056755 189.20 0.13586 580.00 0.0017241 185.00 274.96 0.93616 1.6522 2.2885 1276.4 -0.0056755 189.20 0.13586
13.375 7704.1 undefined 186.65 278.24 0.94194 580.00 0.0017241 186.65 278.24 0.94194 1.6564 2.2905 1278.3 -0.0056788 189.13 0.13600 580.00 0.0017241 186.65 278.24 0.94194 1.6564 2.2905 1278.3 -0.0056788 189.13 0.13600
14.375 7840.1 undefined 188.31 281.51 0.94772 580.00 0.0017241 188.31 281.51 0.94772 1.6605 2.2925 1280.2 -0.0056820 189.06 0.13614 580.00 0.0017241 188.31 281.51 0.94772 1.6605 2.2925 1280.2 -0.0056820 189.06 0.13614
15.375 7975.9 undefined 189.97 284.79 0.95349 580.00 0.0017241 189.97 284.79 0.95349 1.6647 2.2945 1282.0 -0.0056850 188.99 0.13628 580.00 0.0017241 189.97 284.79 0.95349 1.6647 2.2945 1282.0 -0.0056850 188.99 0.13628
16.375 8111.6 undefined 191.64 288.07 0.95926 580.00 0.0017241 191.64 288.07 0.95926 1.6689 2.2966 1283.9 -0.0056878 188.92 0.13642 580.00 0.0017241 191.64 288.07 0.95926 1.6689 2.2966 1283.9 -0.0056878 188.92 0.13642
17.375 8247.0 undefined 193.31 291.35 0.96502 580.00 0.0017241 193.31 291.35 0.96502 1.6731 2.2987 1285.7 -0.0056904 188.85 0.13657 580.00 0.0017241 193.31 291.35 0.96502 1.6731 2.2987 1285.7 -0.0056904 188.85 0.13657
18.375 8382.4 undefined 194.99 294.63 0.97078 580.00 0.0017241 194.99 294.63 0.97078 1.6772 2.3008 1287.6 -0.0056928 188.78 0.13671 580.00 0.0017241 194.99 294.63 0.97078 1.6772 2.3008 1287.6 -0.0056928 188.78 0.13671
19.375 8517.5 undefined 196.67 297.92 0.97653 580.00 0.0017241 196.67 297.92 0.97653 1.6814 2.3030 1289.4 -0.0056951 188.71 0.13685 580.00 0.0017241 196.67 297.92 0.97653 1.6814 2.3030 1289.4 -0.0056951 188.71 0.13685
20.375 8652.6 undefined 198.35 301.21 0.98227 580.00 0.0017241 198.35 301.21 0.98227 1.6856 2.3052 1291.2 -0.0056972 188.64 0.13699 580.00 0.0017241 198.35 301.21 0.98227 1.6856 2.3052 1291.2 -0.0056972 188.64 0.13699
21.375 8787.4 undefined 200.04 304.50 0.98801 580.00 0.0017241 200.04 304.50 0.98801 1.6899 2.3074 1293.0 -0.0056992 188.57 0.13713 580.00 0.0017241 200.04 304.50 0.98801 1.6899 2.3074 1293.0 -0.0056992 188.57 0.13713
22.375 8922.1 undefined 201.73 307.79 0.99375 580.00 0.0017241 201.73 307.79 0.99375 1.6941 2.3097 1294.8 -0.0057010 188.51 0.13728 580.00 0.0017241 201.73 307.79 0.99375 1.6941 2.3097 1294.8 -0.0057010 188.51 0.13728
23.375 9056.7 undefined 203.43 311.09 0.99948 580.00 0.0017241 203.43 311.09 0.99948 1.6983 2.3119 1296.6 -0.0057026 188.44 0.13742 580.00 0.0017241 203.43 311.09 0.99948 1.6983 2.3119 1296.6 -0.0057026 188.44 0.13742
24.375 9191.1 undefined 205.13 314.39 1.0052 580.00 0.0017241 205.13 314.39 1.0052 1.7025 2.3142 1298.4 -0.0057041 188.38 0.13756 580.00 0.0017241 205.13 314.39 1.0052 1.7025 2.3142 1298.4 -0.0057041 188.38 0.13756
25.375 9325.3 undefined 206.83 317.69 1.0109 580.00 0.0017241 206.83 317.69 1.0109 1.7068 2.3166 1300.1 -0.0057055 188.32 0.13771 580.00 0.0017241 206.83 317.69 1.0109 1.7068 2.3166 1300.1 -0.0057055 188.32 0.13771
26.375 9459.4 undefined 208.54 320.99 1.0166 580.00 0.0017241 208.54 320.99 1.0166 1.7110 2.3189 1301.9 -0.0057067 188.25 0.13785 580.00 0.0017241 208.54 320.99 1.0166 1.7110 2.3189 1301.9 -0.0057067 188.25 0.13785
27.375 9593.4 undefined 210.25 324.30 1.0223 580.00 0.0017241 210.25 324.30 1.0223 1.7153 2.3213 1303.7 -0.0057077 188.19 0.13800 580.00 0.0017241 210.25 324.30 1.0223 1.7153 2.3213 1303.7 -0.0057077 188.19 0.13800
28.375 9727.2 undefined 211.97 327.60 1.0281 580.00 0.0017241 211.97 327.60 1.0281 1.7196 2.3237 1305.4 -0.0057086 188.13 0.13814 580.00 0.0017241 211.97 327.60 1.0281 1.7196 2.3237 1305.4 -0.0057086 188.13 0.13814
29.375 9860.8 undefined 213.69 330.91 1.0338 580.00 0.0017241 213.69 330.91 1.0338 1.7238 2.3261 1307.1 -0.0057094 188.07 0.13829 580.00 0.0017241 213.69 330.91 1.0338 1.7238 2.3261 1307.1 -0.0057094 188.07 0.13829
30.375 9994.3 undefined 215.42 334.23 1.0395 580.00 0.0017241 215.42 334.23 1.0395 1.7281 2.3286 1308.9 -0.0057100 188.01 0.13843 580.00 0.0017241 215.42 334.23 1.0395 1.7281 2.3286 1308.9 -0.0057100 188.01 0.13843
31.375 10128. undefined 217.15 337.54 1.0451 580.00 0.0017241 217.15 337.54 1.0451 1.7324 2.3310 1310.6 -0.0057105 187.95 0.13858 580.00 0.0017241 217.15 337.54 1.0451 1.7324 2.3310 1310.6 -0.0057105 187.95 0.13858
32.375 10261. undefined 218.88 340.86 1.0508 580.00 0.0017241 218.88 340.86 1.0508 1.7367 2.3335 1312.3 -0.0057109 187.89 0.13872 580.00 0.0017241 218.88 340.86 1.0508 1.7367 2.3335 1312.3 -0.0057109 187.89 0.13872
33.375 10394. undefined 220.62 344.18 1.0565 580.00 0.0017241 220.62 344.18 1.0565 1.7410 2.3360 1314.0 -0.0057112 187.83 0.13887 580.00 0.0017241 220.62 344.18 1.0565 1.7410 2.3360 1314.0 -0.0057112 187.83 0.13887
34.375 10527. undefined 222.37 347.50 1.0622 580.00 0.0017241 222.37 347.50 1.0622 1.7453 2.3386 1315.8 -0.0057113 187.78 0.13902 580.00 0.0017241 222.37 347.50 1.0622 1.7453 2.3386 1315.8 -0.0057113 187.78 0.13902
35.375 10659. undefined 224.11 350.83 1.0679 580.00 0.0017241 224.11 350.83 1.0679 1.7496 2.3411 1317.5 -0.0057113 187.72 0.13916 580.00 0.0017241 224.11 350.83 1.0679 1.7496 2.3411 1317.5 -0.0057113 187.72 0.13916
36.375 10792. undefined 225.86 354.16 1.0735 580.00 0.0017241 225.86 354.16 1.0735 1.7539 2.3437 1319.1 -0.0057112 187.66 0.13931 580.00 0.0017241 225.86 354.16 1.0735 1.7539 2.3437 1319.1 -0.0057112 187.66 0.13931
37.375 10925. undefined 227.62 357.49 1.0792 580.00 0.0017241 227.62 357.49 1.0792 1.7582 2.3463 1320.8 -0.0057110 187.61 0.13946 580.00 0.0017241 227.62 357.49 1.0792 1.7582 2.3463 1320.8 -0.0057110 187.61 0.13946
38.375 11057. undefined 229.38 360.82 1.0849 580.00 0.0017241 229.38 360.82 1.0849 1.7625 2.3490 1322.5 -0.0057106 187.55 0.13961 580.00 0.0017241 229.38 360.82 1.0849 1.7625 2.3490 1322.5 -0.0057106 187.55 0.13961
39.375 11189. undefined 231.15 364.15 1.0905 580.00 0.0017241 231.15 364.15 1.0905 1.7668 2.3516 1324.2 -0.0057102 187.50 0.13975 580.00 0.0017241 231.15 364.15 1.0905 1.7668 2.3516 1324.2 -0.0057102 187.50 0.13975
40.375 11321. undefined 232.91 367.49 1.0962 580.00 0.0017241 232.91 367.49 1.0962 1.7712 2.3543 1325.8 -0.0057096 187.45 0.13990 580.00 0.0017241 232.91 367.49 1.0962 1.7712 2.3543 1325.8 -0.0057096 187.45 0.13990
41.375 11453. undefined 234.69 370.83 1.1018 580.00 0.0017241 234.69 370.83 1.1018 1.7755 2.3569 1327.5 -0.0057089 187.39 0.14005 580.00 0.0017241 234.69 370.83 1.1018 1.7755 2.3569 1327.5 -0.0057089 187.39 0.14005
42.375 11585. undefined 236.47 374.18 1.1074 580.00 0.0017241 236.47 374.18 1.1074 1.7798 2.3596 1329.2 -0.0057081 187.34 0.14020 580.00 0.0017241 236.47 374.18 1.1074 1.7798 2.3596 1329.2 -0.0057081 187.34 0.14020
43.375 11716. undefined 238.25 377.52 1.1131 580.00 0.0017241 238.25 377.52 1.1131 1.7842 2.3624 1330.8 -0.0057073 187.29 0.14035 580.00 0.0017241 238.25 377.52 1.1131 1.7842 2.3624 1330.8 -0.0057073 187.29 0.14035
44.375 11848. undefined 240.03 380.87 1.1187 580.00 0.0017241 240.03 380.87 1.1187 1.7885 2.3651 1332.5 -0.0057063 187.24 0.14050 580.00 0.0017241 240.03 380.87 1.1187 1.7885 2.3651 1332.5 -0.0057063 187.24 0.14050
45.375 11979. undefined 241.82 384.22 1.1244 580.00 0.0017241 241.82 384.22 1.1244 1.7929 2.3679 1334.1 -0.0057052 187.19 0.14065 580.00 0.0017241 241.82 384.22 1.1244 1.7929 2.3679 1334.1 -0.0057052 187.19 0.14065
46.375 12110. undefined 243.62 387.58 1.1300 580.00 0.0017241 243.62 387.58 1.1300 1.7972 2.3706 1335.7 -0.0057040 187.14 0.14080 580.00 0.0017241 243.62 387.58 1.1300 1.7972 2.3706 1335.7 -0.0057040 187.14 0.14080
47.375 12241. undefined 245.42 390.93 1.1356 580.00 0.0017241 245.42 390.93 1.1356 1.8016 2.3734 1337.3 -0.0057027 187.09 0.14095 580.00 0.0017241 245.42 390.93 1.1356 1.8016 2.3734 1337.3 -0.0057027 187.09 0.14095
48.375 12372. undefined 247.22 394.29 1.1412 580.00 0.0017241 247.22 394.29 1.1412 1.8059 2.3762 1339.0 -0.0057014 187.04 0.14110 580.00 0.0017241 247.22 394.29 1.1412 1.8059 2.3762 1339.0 -0.0057014 187.04 0.14110
49.375 12502. undefined 249.03 397.65 1.1468 580.00 0.0017241 249.03 397.65 1.1468 1.8103 2.3791 1340.6 -0.0056999 186.99 0.14125 580.00 0.0017241 249.03 397.65 1.1468 1.8103 2.3791 1340.6 -0.0056999 186.99 0.14125
50.375 12633. undefined 250.84 401.02 1.1524 580.00 0.0017241 250.84 401.02 1.1524 1.8146 2.3819 1342.2 -0.0056984 186.95 0.14140 580.00 0.0017241 250.84 401.02 1.1524 1.8146 2.3819 1342.2 -0.0056984 186.95 0.14140
51.375 12763. undefined 252.66 404.39 1.1581 580.00 0.0017241 252.66 404.39 1.1581 1.8190 2.3848 1343.8 -0.0056967 186.90 0.14155 580.00 0.0017241 252.66 404.39 1.1581 1.8190 2.3848 1343.8 -0.0056967 186.90 0.14155
52.375 12894. undefined 254.48 407.76 1.1637 580.00 0.0017241 254.48 407.76 1.1637 1.8234 2.3876 1345.4 -0.0056950 186.85 0.14171 580.00 0.0017241 254.48 407.76 1.1637 1.8234 2.3876 1345.4 -0.0056950 186.85 0.14171
53.375 13024. undefined 256.31 411.13 1.1693 580.00 0.0017241 256.31 411.13 1.1693 1.8278 2.3905 1347.0 -0.0056932 186.81 0.14186 580.00 0.0017241 256.31 411.13 1.1693 1.8278 2.3905 1347.0 -0.0056932 186.81 0.14186
54.375 13154. undefined 258.14 414.50 1.1749 580.00 0.0017241 258.14 414.50 1.1749 1.8321 2.3934 1348.6 -0.0056913 186.76 0.14201 580.00 0.0017241 258.14 414.50 1.1749 1.8321 2.3934 1348.6 -0.0056913 186.76 0.14201
55.375 13284. undefined 259.97 417.88 1.1804 580.00 0.0017241 259.97 417.88 1.1804 1.8365 2.3964 1350.1 -0.0056893 186.72 0.14216 580.00 0.0017241 259.97 417.88 1.1804 1.8365 2.3964 1350.1 -0.0056893 186.72 0.14216
56.375 13413. undefined 261.81 421.26 1.1860 580.00 0.0017241 261.81 421.26 1.1860 1.8409 2.3993 1351.7 -0.0056873 186.67 0.14232 580.00 0.0017241 261.81 421.26 1.1860 1.8409 2.3993 1351.7 -0.0056873 186.67 0.14232
57.375 13543. undefined 263.65 424.65 1.1916 580.00 0.0017241 263.65 424.65 1.1916 1.8453 2.4022 1353.3 -0.0056852 186.63 0.14247 580.00 0.0017241 263.65 424.65 1.1916 1.8453 2.4022 1353.3 -0.0056852 186.63 0.14247
58.375 13673. undefined 265.50 428.03 1.1972 580.00 0.0017241 265.50 428.03 1.1972 1.8496 2.4052 1354.9 -0.0056830 186.59 0.14262 580.00 0.0017241 265.50 428.03 1.1972 1.8496 2.4052 1354.9 -0.0056830 186.59 0.14262
59.375 13802. undefined 267.35 431.42 1.2028 580.00 0.0017241 267.35 431.42 1.2028 1.8540 2.4082 1356.4 -0.0056807 186.55 0.14278 580.00 0.0017241 267.35 431.42 1.2028 1.8540 2.4082 1356.4 -0.0056807 186.55 0.14278
60.375 13931. undefined 269.21 434.81 1.2084 580.00 0.0017241 269.21 434.81 1.2084 1.8584 2.4112 1358.0 -0.0056783 186.50 0.14293 580.00 0.0017241 269.21 434.81 1.2084 1.8584 2.4112 1358.0 -0.0056783 186.50 0.14293
61.375 14060. undefined 271.07 438.21 1.2139 580.00 0.0017241 271.07 438.21 1.2139 1.8628 2.4142 1359.5 -0.0056759 186.46 0.14309 580.00 0.0017241 271.07 438.21 1.2139 1.8628 2.4142 1359.5 -0.0056759 186.46 0.14309
62.375 14189. undefined 272.93 441.61 1.2195 580.00 0.0017241 272.93 441.61 1.2195 1.8672 2.4172 1361.1 -0.0056734 186.42 0.14324 580.00 0.0017241 272.93 441.61 1.2195 1.8672 2.4172 1361.1 -0.0056734 186.42 0.14324
63.375 14318. undefined 274.80 445.01 1.2251 580.00 0.0017241 274.80 445.01 1.2251 1.8716 2.4202 1362.6 -0.0056709 186.38 0.14340 580.00 0.0017241 274.80 445.01 1.2251 1.8716 2.4202 1362.6 -0.0056709 186.38 0.14340
64.375 14446. undefined 276.68 448.41 1.2306 580.00 0.0017241 276.68 448.41 1.2306 1.8760 2.4232 1364.2 -0.0056683 186.34 0.14355 580.00 0.0017241 276.68 448.41 1.2306 1.8760 2.4232 1364.2 -0.0056683 186.34 0.14355
65.375 14575. undefined 278.56 451.81 1.2362 580.00 0.0017241 278.56 451.81 1.2362 1.8804 2.4263 1365.7 -0.0056656 186.30 0.14371 580.00 0.0017241 278.56 451.81 1.2362 1.8804 2.4263 1365.7 -0.0056656 186.30 0.14371
66.375 14703. undefined 280.44 455.22 1.2417 580.00 0.0017241 280.44 455.22 1.2417 1.8848 2.4293 1367.2 -0.0056629 186.26 0.14386 580.00 0.0017241 280.44 455.22 1.2417 1.8848 2.4293 1367.2 -0.0056629 186.26 0.14386
67.375 14831. undefined 282.33 458.63 1.2473 580.00 0.0017241 282.33 458.63 1.2473 1.8891 2.4324 1368.7 -0.0056601 186.22 0.14402 580.00 0.0017241 282.33 458.63 1.2473 1.8891 2.4324 1368.7 -0.0056601 186.22 0.14402
68.375 14960. undefined 284.22 462.05 1.2528 580.00 0.0017241 284.22 462.05 1.2528 1.8935 2.4355 1370.3 -0.0056572 186.19 0.14418 580.00 0.0017241 284.22 462.05 1.2528 1.8935 2.4355 1370.3 -0.0056572 186.19 0.14418
69.375 15088. undefined 286.11 465.47 1.2584 580.00 0.0017241 286.11 465.47 1.2584 1.8979 2.4386 1371.8 -0.0056543 186.15 0.14433 580.00 0.0017241 286.11 465.47 1.2584 1.8979 2.4386 1371.8 -0.0056543 186.15 0.14433
70.375 15215. undefined 288.01 468.89 1.2639 580.00 0.0017241 288.01 468.89 1.2639 1.9023 2.4417 1373.3 -0.0056513 186.11 0.14449 580.00 0.0017241 288.01 468.89 1.2639 1.9023 2.4417 1373.3 -0.0056513 186.11 0.14449
71.375 15343. undefined 289.92 472.31 1.2694 580.00 0.0017241 289.92 472.31 1.2694 1.9067 2.4448 1374.8 -0.0056483 186.07 0.14465 580.00 0.0017241 289.92 472.31 1.2694 1.9067 2.4448 1374.8 -0.0056483 186.07 0.14465
72.375 15471. undefined 291.83 475.73 1.2750 580.00 0.0017241 291.83 475.73 1.2750 1.9111 2.4480 1376.3 -0.0056452 186.04 0.14480 580.00 0.0017241 291.83 475.73 1.2750 1.9111 2.4480 1376.3 -0.0056452 186.04 0.14480
73.375 15598. undefined 293.74 479.16 1.2805 580.00 0.0017241 293.74 479.16 1.2805 1.9155 2.4511 1377.8 -0.0056420 186.00 0.14496 580.00 0.0017241 293.74 479.16 1.2805 1.9155 2.4511 1377.8 -0.0056420 186.00 0.14496
74.375 15725. undefined 295.66 482.59 1.2860 580.00 0.0017241 295.66 482.59 1.2860 1.9199 2.4542 1379.3 -0.0056388 185.97 0.14512 580.00 0.0017241 295.66 482.59 1.2860 1.9199 2.4542 1379.3 -0.0056388 185.97 0.14512
75.375 15853. undefined 297.58 486.03 1.2915 580.00 0.0017241 297.58 486.03 1.2915 1.9243 2.4574 1380.8 -0.0056356 185.93 0.14528 580.00 0.0017241 297.58 486.03 1.2915 1.9243 2.4574 1380.8 -0.0056356 185.93 0.14528
76.375 15980. undefined 299.51 489.46 1.2971 580.00 0.0017241 299.51 489.46 1.2971 1.9287 2.4606 1382.2 -0.0056323 185.90 0.14544 580.00 0.0017241 299.51 489.46 1.2971 1.9287 2.4606 1382.2 -0.0056323 185.90 0.14544
77.375 16107. undefined 301.44 492.90 1.3026 580.00 0.0017241 301.44 492.90 1.3026 1.9331 2.4637 1383.7 -0.0056290 185.86 0.14560 580.00 0.0017241 301.44 492.90 1.3026 1.9331 2.4637 1383.7 -0.0056290 185.86 0.14560
78.375 16233. undefined 303.37 496.35 1.3081 580.00 0.0017241 303.37 496.35 1.3081 1.9375 2.4669 1385.2 -0.0056256 185.83 0.14576 580.00 0.0017241 303.37 496.35 1.3081 1.9375 2.4669 1385.2 -0.0056256 185.83 0.14576
79.375 16360. undefined 305.31 499.79 1.3136 580.00 0.0017241 305.31 499.79 1.3136 1.9419 2.4701 1386.7 -0.0056221 185.80 0.14592 580.00 0.0017241 305.31 499.79 1.3136 1.9419 2.4701 1386.7 -0.0056221 185.80 0.14592
80.375 16487. undefined 307.26 503.24 1.3191 580.00 0.0017241 307.26 503.24 1.3191 1.9463 2.4733 1388.1 -0.0056187 185.76 0.14608 580.00 0.0017241 307.26 503.24 1.3191 1.9463 2.4733 1388.1 -0.0056187 185.76 0.14608
81.375 16613. undefined 309.20 506.69 1.3246 580.00 0.0017241 309.20 506.69 1.3246 1.9507 2.4765 1389.6 -0.0056151 185.73 0.14624 580.00 0.0017241 309.20 506.69 1.3246 1.9507 2.4765 1389.6 -0.0056151 185.73 0.14624
82.375 16739. undefined 311.16 510.15 1.3301 580.00 0.0017241 311.16 510.15 1.3301 1.9551 2.4797 1391.1 -0.0056116 185.70 0.14640 580.00 0.0017241 311.16 510.15 1.3301 1.9551 2.4797 1391.1 -0.0056116 185.70 0.14640
83.375 16865. undefined 313.11 513.60 1.3356 580.00 0.0017241 313.11 513.60 1.3356 1.9595 2.4830 1392.5 -0.0056080 185.67 0.14656 580.00 0.0017241 313.11 513.60 1.3356 1.9595 2.4830 1392.5 -0.0056080 185.67 0.14656
84.375 16991. undefined 315.08 517.06 1.3411 580.00 0.0017241 315.08 517.06 1.3411 1.9638 2.4862 1394.0 -0.0056043 185.64 0.14672 580.00 0.0017241 315.08 517.06 1.3411 1.9638 2.4862 1394.0 -0.0056043 185.64 0.14672
85.375 17117. undefined 317.04 520.52 1.3466 580.00 0.0017241 317.04 520.52 1.3466 1.9682 2.4895 1395.4 -0.0056006 185.61 0.14688 580.00 0.0017241 317.04 520.52 1.3466 1.9682 2.4895 1395.4 -0.0056006 185.61 0.14688
86.375 17243. undefined 319.01 523.99 1.3521 580.00 0.0017241 319.01 523.99 1.3521 1.9726 2.4927 1396.9 -0.0055969 185.58 0.14704 580.00 0.0017241 319.01 523.99 1.3521 1.9726 2.4927 1396.9 -0.0055969 185.58 0.14704
87.375 17369. undefined 320.99 527.46 1.3576 580.00 0.0017241 320.99 527.46 1.3576 1.9770 2.4960 1398.3 -0.0055932 185.55 0.14721 580.00 0.0017241 320.99 527.46 1.3576 1.9770 2.4960 1398.3 -0.0055932 185.55 0.14721
88.375 17494. undefined 322.97 530.93 1.3631 580.00 0.0017241 322.97 530.93 1.3631 1.9814 2.4992 1399.7 -0.0055894 185.52 0.14737 580.00 0.0017241 322.97 530.93 1.3631 1.9814 2.4992 1399.7 -0.0055894 185.52 0.14737
89.375 17620. undefined 324.95 534.41 1.3685 580.00 0.0017241 324.95 534.41 1.3685 1.9858 2.5025 1401.2 -0.0055855 185.49 0.14753 580.00 0.0017241 324.95 534.41 1.3685 1.9858 2.5025 1401.2 -0.0055855 185.49 0.14753
90.375 17745. undefined 326.94 537.88 1.3740 580.00 0.0017241 326.94 537.88 1.3740 1.9902 2.5058 1402.6 -0.0055817 185.46 0.14769 580.00 0.0017241 326.94 537.88 1.3740 1.9902 2.5058 1402.6 -0.0055817 185.46 0.14769
91.375 17870. undefined 328.93 541.36 1.3795 580.00 0.0017241 328.93 541.36 1.3795 1.9945 2.5091 1404.0 -0.0055777 185.43 0.14786 580.00 0.0017241 328.93 541.36 1.3795 1.9945 2.5091 1404.0 -0.0055777 185.43 0.14786
92.375 17995. undefined 330.93 544.85 1.3850 580.00 0.0017241 330.93 544.85 1.3850 1.9989 2.5123 1405.4 -0.0055738 185.40 0.14802 580.00 0.0017241 330.93 544.85 1.3850 1.9989 2.5123 1405.4 -0.0055738 185.40 0.14802
93.375 18120. undefined 332.93 548.33 1.3904 580.00 0.0017241 332.93 548.33 1.3904 2.0033 2.5156 1406.8 -0.0055698 185.37 0.14818 580.00 0.0017241 332.93 548.33 1.3904 2.0033 2.5156 1406.8 -0.0055698 185.37 0.14818
94.375 18245. undefined 334.93 551.82 1.3959 580.00 0.0017241 334.93 551.82 1.3959 2.0077 2.5189 1408.3 -0.0055658 185.35 0.14835 580.00 0.0017241 334.93 551.82 1.3959 2.0077 2.5189 1408.3 -0.0055658 185.35 0.14835
95.375 18370. undefined 336.94 555.31 1.4013 580.00 0.0017241 336.94 555.31 1.4013 2.0121 2.5223 1409.7 -0.0055618 185.32 0.14851 580.00 0.0017241 336.94 555.31 1.4013 2.0121 2.5223 1409.7 -0.0055618 185.32 0.14851
96.375 18494. undefined 338.96 558.81 1.4068 580.00 0.0017241 338.96 558.81 1.4068 2.0164 2.5256 1411.1 -0.0055578 185.29 0.14868 580.00 0.0017241 338.96 558.81 1.4068 2.0164 2.5256 1411.1 -0.0055578 185.29 0.14868
97.375 18619. undefined 340.98 562.31 1.4123 580.00 0.0017241 340.98 562.31 1.4123 2.0208 2.5289 1412.5 -0.0055537 185.27 0.14884 580.00 0.0017241 340.98 562.31 1.4123 2.0208 2.5289 1412.5 -0.0055537 185.27 0.14884
98.375 18743. undefined 343.00 565.81 1.4177 580.00 0.0017241 343.00 565.81 1.4177 2.0252 2.5322 1413.9 -0.0055496 185.24 0.14901 580.00 0.0017241 343.00 565.81 1.4177 2.0252 2.5322 1413.9 -0.0055496 185.24 0.14901
99.375 18867. undefined 345.03 569.31 1.4232 580.00 0.0017241 345.03 569.31 1.4232 2.0295 2.5355 1415.3 -0.0055454 185.21 0.14917 580.00 0.0017241 345.03 569.31 1.4232 2.0295 2.5355 1415.3 -0.0055454 185.21 0.14917
100.38 18991. undefined 347.06 572.82 1.4286 580.00 0.0017241 347.06 572.82 1.4286 2.0339 2.5389 1416.7 -0.0055413 185.19 0.14934 580.00 0.0017241 347.06 572.82 1.4286 2.0339 2.5389 1416.7 -0.0055413 185.19 0.14934
101.38 19115. undefined 349.09 576.33 1.4341 580.00 0.0017241 349.09 576.33 1.4341 2.0383 2.5422 1418.1 -0.0055371 185.16 0.14951 580.00 0.0017241 349.09 576.33 1.4341 2.0383 2.5422 1418.1 -0.0055371 185.16 0.14951
102.38 19239. undefined 351.13 579.84 1.4395 580.00 0.0017241 351.13 579.84 1.4395 2.0426 2.5456 1419.4 -0.0055329 185.14 0.14967 580.00 0.0017241 351.13 579.84 1.4395 2.0426 2.5456 1419.4 -0.0055329 185.14 0.14967
103.38 19363. undefined 353.18 583.36 1.4449 580.00 0.0017241 353.18 583.36 1.4449 2.0470 2.5489 1420.8 -0.0055286 185.11 0.14984 580.00 0.0017241 353.18 583.36 1.4449 2.0470 2.5489 1420.8 -0.0055286 185.11 0.14984
104.38 19486. undefined 355.23 586.87 1.4504 580.00 0.0017241 355.23 586.87 1.4504 2.0514 2.5523 1422.2 -0.0055243 185.09 0.15001 580.00 0.0017241 355.23 586.87 1.4504 2.0514 2.5523 1422.2 -0.0055243 185.09 0.15001
105.38 19610. undefined 357.28 590.40 1.4558 580.00 0.0017241 357.28 590.40 1.4558 2.0557 2.5556 1423.6 -0.0055201 185.07 0.15017 580.00 0.0017241 357.28 590.40 1.4558 2.0557 2.5556 1423.6 -0.0055201 185.07 0.15017
106.38 19733. undefined 359.34 593.92 1.4612 580.00 0.0017241 359.34 593.92 1.4612 2.0601 2.5590 1425.0 -0.0055158 185.04 0.15034 580.00 0.0017241 359.34 593.92 1.4612 2.0601 2.5590 1425.0 -0.0055158 185.04 0.15034
107.38 19857. undefined 361.40 597.45 1.4667 580.00 0.0017241 361.40 597.45 1.4667 2.0644 2.5624 1426.3 -0.0055114 185.02 0.15051 580.00 0.0017241 361.40 597.45 1.4667 2.0644 2.5624 1426.3 -0.0055114 185.02 0.15051
108.38 19980. undefined 363.47 600.98 1.4721 580.00 0.0017241 363.47 600.98 1.4721 2.0688 2.5657 1427.7 -0.0055071 185.00 0.15068 580.00 0.0017241 363.47 600.98 1.4721 2.0688 2.5657 1427.7 -0.0055071 185.00 0.15068
109.38 20103. undefined 365.54 604.51 1.4775 580.00 0.0017241 365.54 604.51 1.4775 2.0731 2.5691 1429.1 -0.0055027 184.97 0.15085 580.00 0.0017241 365.54 604.51 1.4775 2.0731 2.5691 1429.1 -0.0055027 184.97 0.15085
110.38 20226. undefined 367.62 608.05 1.4829 580.00 0.0017241 367.62 608.05 1.4829 2.0775 2.5725 1430.4 -0.0054983 184.95 0.15101 580.00 0.0017241 367.62 608.05 1.4829 2.0775 2.5725 1430.4 -0.0054983 184.95 0.15101
111.38 20348. undefined 369.69 611.59 1.4883 580.00 0.0017241 369.69 611.59 1.4883 2.0818 2.5759 1431.8 -0.0054939 184.93 0.15118 580.00 0.0017241 369.69 611.59 1.4883 2.0818 2.5759 1431.8 -0.0054939 184.93 0.15118
112.38 20471. undefined 371.78 615.13 1.4937 580.00 0.0017241 371.78 615.13 1.4937 2.0861 2.5793 1433.1 -0.0054895 184.91 0.15135 580.00 0.0017241 371.78 615.13 1.4937 2.0861 2.5793 1433.1 -0.0054895 184.91 0.15135
113.38 20594. undefined 373.87 618.67 1.4992 580.00 0.0017241 373.87 618.67 1.4992 2.0905 2.5826 1434.5 -0.0054851 184.89 0.15152 580.00 0.0017241 373.87 618.67 1.4992 2.0905 2.5826 1434.5 -0.0054851 184.89 0.15152
114.38 20716. undefined 375.96 622.22 1.5046 580.00 0.0017241 375.96 622.22 1.5046 2.0948 2.5860 1435.8 -0.0054806 184.87 0.15169 580.00 0.0017241 375.96 622.22 1.5046 2.0948 2.5860 1435.8 -0.0054806 184.87 0.15169
115.38 20838. undefined 378.06 625.77 1.5100 580.00 0.0017241 378.06 625.77 1.5100 2.0991 2.5894 1437.2 -0.0054761 184.85 0.15186 580.00 0.0017241 378.06 625.77 1.5100 2.0991 2.5894 1437.2 -0.0054761 184.85 0.15186
116.38 20961. undefined 380.16 629.33 1.5154 580.00 0.0017241 380.16 629.33 1.5154 2.1034 2.5928 1438.5 -0.0054716 184.83 0.15203 580.00 0.0017241 380.16 629.33 1.5154 2.1034 2.5928 1438.5 -0.0054716 184.83 0.15203
117.38 21083. undefined 382.26 632.89 1.5208 580.00 0.0017241 382.26 632.89 1.5208 2.1078 2.5962 1439.8 -0.0054671 184.81 0.15220 580.00 0.0017241 382.26 632.89 1.5208 2.1078 2.5962 1439.8 -0.0054671 184.81 0.15220
118.38 21205. undefined 384.37 636.45 1.5262 580.00 0.0017241 384.37 636.45 1.5262 2.1121 2.5996 1441.2 -0.0054626 184.79 0.15238 580.00 0.0017241 384.37 636.45 1.5262 2.1121 2.5996 1441.2 -0.0054626 184.79 0.15238
119.38 21327. undefined 386.49 640.01 1.5316 580.00 0.0017241 386.49 640.01 1.5316 2.1164 2.6030 1442.5 -0.0054581 184.77 0.15255 580.00 0.0017241 386.49 640.01 1.5316 2.1164 2.6030 1442.5 -0.0054581 184.77 0.15255
120.38 21448. undefined 388.61 643.57 1.5369 580.00 0.0017241 388.61 643.57 1.5369 2.1207 2.6065 1443.8 -0.0054535 184.75 0.15272 580.00 0.0017241 388.61 643.57 1.5369 2.1207 2.6065 1443.8 -0.0054535 184.75 0.15272
121.38 21570. undefined 390.73 647.14 1.5423 580.00 0.0017241 390.73 647.14 1.5423 2.1250 2.6099 1445.2 -0.0054490 184.73 0.15289 580.00 0.0017241 390.73 647.14 1.5423 2.1250 2.6099 1445.2 -0.0054490 184.73 0.15289
122.38 21692. undefined 392.86 650.72 1.5477 580.00 0.0017241 392.86 650.72 1.5477 2.1293 2.6133 1446.5 -0.0054444 184.71 0.15306 580.00 0.0017241 392.86 650.72 1.5477 2.1293 2.6133 1446.5 -0.0054444 184.71 0.15306
123.38 21813. undefined 394.99 654.29 1.5531 580.00 0.0017241 394.99 654.29 1.5531 2.1336 2.6167 1447.8 -0.0054398 184.69 0.15324 580.00 0.0017241 394.99 654.29 1.5531 2.1336 2.6167 1447.8 -0.0054398 184.69 0.15324
124.38 21934. undefined 397.12 657.87 1.5585 580.00 0.0017241 397.12 657.87 1.5585 2.1379 2.6201 1449.1 -0.0054352 184.67 0.15341 580.00 0.0017241 397.12 657.87 1.5585 2.1379 2.6201 1449.1 -0.0054352 184.67 0.15341
125.38 22056. undefined 399.26 661.45 1.5639 580.00 0.0017241 399.26 661.45 1.5639 2.1422 2.6235 1450.4 -0.0054306 184.66 0.15358 580.00 0.0017241 399.26 661.45 1.5639 2.1422 2.6235 1450.4 -0.0054306 184.66 0.15358
126.38 22177. undefined 401.41 665.03 1.5692 580.00 0.0017241 401.41 665.03 1.5692 2.1465 2.6270 1451.7 -0.0054260 184.64 0.15376 580.00 0.0017241 401.41 665.03 1.5692 2.1465 2.6270 1451.7 -0.0054260 184.64 0.15376
127.38 22298. undefined 403.56 668.62 1.5746 580.00 0.0017241 403.56 668.62 1.5746 2.1508 2.6304 1453.1 -0.0054214 184.62 0.15393 580.00 0.0017241 403.56 668.62 1.5746 2.1508 2.6304 1453.1 -0.0054214 184.62 0.15393
128.38 22419. undefined 405.71 672.21 1.5800 580.00 0.0017241 405.71 672.21 1.5800 2.1551 2.6338 1454.4 -0.0054168 184.60 0.15410 580.00 0.0017241 405.71 672.21 1.5800 2.1551 2.6338 1454.4 -0.0054168 184.60 0.15410
129.38 22539. undefined 407.87 675.80 1.5853 580.00 0.0017241 407.87 675.80 1.5853 2.1594 2.6372 1455.7 -0.0054121 184.59 0.15428 580.00 0.0017241 407.87 675.80 1.5853 2.1594 2.6372 1455.7 -0.0054121 184.59 0.15428
130.38 22660. undefined 410.03 679.40 1.5907 580.00 0.0017241 410.03 679.40 1.5907 2.1637 2.6407 1457.0 -0.0054075 184.57 0.15445 580.00 0.0017241 410.03 679.40 1.5907 2.1637 2.6407 1457.0 -0.0054075 184.57 0.15445
131.38 22781. undefined 412.19 683.00 1.5961 580.00 0.0017241 412.19 683.00 1.5961 2.1679 2.6441 1458.3 -0.0054028 184.55 0.15463 580.00 0.0017241 412.19 683.00 1.5961 2.1679 2.6441 1458.3 -0.0054028 184.55 0.15463
132.38 22901. undefined 414.36 686.60 1.6014 580.00 0.0017241 414.36 686.60 1.6014 2.1722 2.6475 1459.5 -0.0053982 184.54 0.15480 580.00 0.0017241 414.36 686.60 1.6014 2.1722 2.6475 1459.5 -0.0053982 184.54 0.15480
133.38 23021. undefined 416.54 690.21 1.6068 580.00 0.0017241 416.54 690.21 1.6068 2.1765 2.6510 1460.8 -0.0053935 184.52 0.15498 580.00 0.0017241 416.54 690.21 1.6068 2.1765 2.6510 1460.8 -0.0053935 184.52 0.15498
134.38 23142. undefined 418.72 693.81 1.6121 580.00 0.0017241 418.72 693.81 1.6121 2.1807 2.6544 1462.1 -0.0053888 184.51 0.15515 580.00 0.0017241 418.72 693.81 1.6121 2.1807 2.6544 1462.1 -0.0053888 184.51 0.15515
135.38 23262. undefined 420.90 697.43 1.6175 580.00 0.0017241 420.90 697.43 1.6175 2.1850 2.6578 1463.4 -0.0053841 184.49 0.15533 580.00 0.0017241 420.90 697.43 1.6175 2.1850 2.6578 1463.4 -0.0053841 184.49 0.15533
136.38 23382. undefined 423.09 701.04 1.6228 580.00 0.0017241 423.09 701.04 1.6228 2.1893 2.6613 1464.7 -0.0053794 184.48 0.15551 580.00 0.0017241 423.09 701.04 1.6228 2.1893 2.6613 1464.7 -0.0053794 184.48 0.15551
137.38 23502. undefined 425.28 704.66 1.6282 580.00 0.0017241 425.28 704.66 1.6282 2.1935 2.6647 1466.0 -0.0053747 184.46 0.15568 580.00 0.0017241 425.28 704.66 1.6282 2.1935 2.6647 1466.0 -0.0053747 184.46 0.15568
138.38 23622. undefined 427.47 708.28 1.6335 580.00 0.0017241 427.47 708.28 1.6335 2.1978 2.6681 1467.3 -0.0053700 184.45 0.15586 580.00 0.0017241 427.47 708.28 1.6335 2.1978 2.6681 1467.3 -0.0053700 184.45 0.15586
139.38 23741. undefined 429.67 711.90 1.6388 580.00 0.0017241 429.67 711.90 1.6388 2.2020 2.6716 1468.5 -0.0053653 184.43 0.15604 580.00 0.0017241 429.67 711.90 1.6388 2.2020 2.6716 1468.5 -0.0053653 184.43 0.15604
140.38 23861. undefined 431.88 715.53 1.6442 580.00 0.0017241 431.88 715.53 1.6442 2.2062 2.6750 1469.8 -0.0053606 184.42 0.15622 580.00 0.0017241 431.88 715.53 1.6442 2.2062 2.6750 1469.8 -0.0053606 184.42 0.15622
141.38 23980. undefined 434.09 719.15 1.6495 580.00 0.0017241 434.09 719.15 1.6495 2.2105 2.6785 1471.1 -0.0053559 184.40 0.15639 580.00 0.0017241 434.09 719.15 1.6495 2.2105 2.6785 1471.1 -0.0053559 184.40 0.15639
142.38 24100. undefined 436.30 722.79 1.6548 580.00 0.0017241 436.30 722.79 1.6548 2.2147 2.6819 1472.3 -0.0053512 184.39 0.15657 580.00 0.0017241 436.30 722.79 1.6548 2.2147 2.6819 1472.3 -0.0053512 184.39 0.15657
143.38 24219. undefined 438.52 726.42 1.6602 580.00 0.0017241 438.52 726.42 1.6602 2.2189 2.6853 1473.6 -0.0053464 184.38 0.15675 580.00 0.0017241 438.52 726.42 1.6602 2.2189 2.6853 1473.6 -0.0053464 184.38 0.15675
144.38 24338. undefined 440.74 730.06 1.6655 580.00 0.0017241 440.74 730.06 1.6655 2.2232 2.6888 1474.9 -0.0053417 184.36 0.15693 580.00 0.0017241 440.74 730.06 1.6655 2.2232 2.6888 1474.9 -0.0053417 184.36 0.15693
145.38 24457. undefined 442.96 733.70 1.6708 580.00 0.0017241 442.96 733.70 1.6708 2.2274 2.6922 1476.1 -0.0053370 184.35 0.15711 580.00 0.0017241 442.96 733.70 1.6708 2.2274 2.6922 1476.1 -0.0053370 184.35 0.15711
146.38 24576. undefined 445.19 737.34 1.6761 580.00 0.0017241 445.19 737.34 1.6761 2.2316 2.6957 1477.4 -0.0053322 184.34 0.15729 580.00 0.0017241 445.19 737.34 1.6761 2.2316 2.6957 1477.4 -0.0053322 184.34 0.15729
147.38 24695. undefined 447.43 740.99 1.6815 580.00 0.0017241 447.43 740.99 1.6815 2.2358 2.6991 1478.6 -0.0053275 184.32 0.15747 580.00 0.0017241 447.43 740.99 1.6815 2.2358 2.6991 1478.6 -0.0053275 184.32 0.15747
148.38 24814. undefined 449.66 744.64 1.6868 580.00 0.0017241 449.66 744.64 1.6868 2.2400 2.7025 1479.9 -0.0053228 184.31 0.15765 580.00 0.0017241 449.66 744.64 1.6868 2.2400 2.7025 1479.9 -0.0053228 184.31 0.15765
149.38 24933. undefined 451.91 748.29 1.6921 580.00 0.0017241 451.91 748.29 1.6921 2.2442 2.7060 1481.1 -0.0053180 184.30 0.15783 580.00 0.0017241 451.91 748.29 1.6921 2.2442 2.7060 1481.1 -0.0053180 184.30 0.15783
150.38 25051. undefined 454.15 751.95 1.6974 580.00 0.0017241 454.15 751.95 1.6974 2.2484 2.7094 1482.4 -0.0053133 184.29 0.15801 580.00 0.0017241 454.15 751.95 1.6974 2.2484 2.7094 1482.4 -0.0053133 184.29 0.15801
151.38 25170. undefined 456.40 755.61 1.7027 580.00 0.0017241 456.40 755.61 1.7027 2.2526 2.7129 1483.6 -0.0053085 184.28 0.15819 580.00 0.0017241 456.40 755.61 1.7027 2.2526 2.7129 1483.6 -0.0053085 184.28 0.15819
152.38 25288. undefined 458.66 759.27 1.7080 580.00 0.0017241 458.66 759.27 1.7080 2.2568 2.7163 1484.9 -0.0053038 184.26 0.15837 580.00 0.0017241 458.66 759.27 1.7080 2.2568 2.7163 1484.9 -0.0053038 184.26 0.15837
153.38 25406. undefined 460.92 762.93 1.7133 580.00 0.0017241 460.92 762.93 1.7133 2.2610 2.7198 1486.1 -0.0052990 184.25 0.15855 580.00 0.0017241 460.92 762.93 1.7133 2.2610 2.7198 1486.1 -0.0052990 184.25 0.15855
154.38 25525. undefined 463.18 766.60 1.7186 580.00 0.0017241 463.18 766.60 1.7186 2.2652 2.7232 1487.3 -0.0052943 184.24 0.15873 580.00 0.0017241 463.18 766.60 1.7186 2.2652 2.7232 1487.3 -0.0052943 184.24 0.15873
155.38 25643. undefined 465.45 770.27 1.7239 580.00 0.0017241 465.45 770.27 1.7239 2.2694 2.7266 1488.6 -0.0052896 184.23 0.15891 580.00 0.0017241 465.45 770.27 1.7239 2.2694 2.7266 1488.6 -0.0052896 184.23 0.15891
156.38 25761. undefined 467.72 773.95 1.7292 580.00 0.0017241 467.72 773.95 1.7292 2.2735 2.7301 1489.8 -0.0052848 184.22 0.15910 580.00 0.0017241 467.72 773.95 1.7292 2.2735 2.7301 1489.8 -0.0052848 184.22 0.15910
157.38 25878. undefined 469.99 777.62 1.7345 580.00 0.0017241 469.99 777.62 1.7345 2.2777 2.7335 1491.0 -0.0052801 184.21 0.15928 580.00 0.0017241 469.99 777.62 1.7345 2.2777 2.7335 1491.0 -0.0052801 184.21 0.15928
158.38 25996. undefined 472.27 781.30 1.7398 580.00 0.0017241 472.27 781.30 1.7398 2.2819 2.7370 1492.3 -0.0052753 184.20 0.15946 580.00 0.0017241 472.27 781.30 1.7398 2.2819 2.7370 1492.3 -0.0052753 184.20 0.15946
159.38 26114. undefined 474.56 784.99 1.7451 580.00 0.0017241 474.56 784.99 1.7451 2.2860 2.7404 1493.5 -0.0052706 184.19 0.15964 580.00 0.0017241 474.56 784.99 1.7451 2.2860 2.7404 1493.5 -0.0052706 184.19 0.15964
160.38 26231. undefined 476.85 788.67 1.7504 580.00 0.0017241 476.85 788.67 1.7504 2.2902 2.7438 1494.7 -0.0052658 184.18 0.15983 580.00 0.0017241 476.85 788.67 1.7504 2.2902 2.7438 1494.7 -0.0052658 184.18 0.15983
161.38 26349. undefined 479.14 792.36 1.7556 580.00 0.0017241 479.14 792.36 1.7556 2.2943 2.7473 1495.9 -0.0052611 184.17 0.16001 580.00 0.0017241 479.14 792.36 1.7556 2.2943 2.7473 1495.9 -0.0052611 184.17 0.16001
162.38 26466. undefined 481.43 796.05 1.7609 580.00 0.0017241 481.43 796.05 1.7609 2.2985 2.7507 1497.1 -0.0052563 184.16 0.16020 580.00 0.0017241 481.43 796.05 1.7609 2.2985 2.7507 1497.1 -0.0052563 184.16 0.16020
163.38 26583. undefined 483.73 799.75 1.7662 580.00 0.0017241 483.73 799.75 1.7662 2.3026 2.7541 1498.4 -0.0052516 184.15 0.16038 580.00 0.0017241 483.73 799.75 1.7662 2.3026 2.7541 1498.4 -0.0052516 184.15 0.16038
164.38 26701. undefined 486.04 803.44 1.7715 580.00 0.0017241 486.04 803.44 1.7715 2.3067 2.7576 1499.6 -0.0052469 184.14 0.16057 580.00 0.0017241 486.04 803.44 1.7715 2.3067 2.7576 1499.6 -0.0052469 184.14 0.16057
165.38 26818. undefined 488.35 807.14 1.7767 580.00 0.0017241 488.35 807.14 1.7767 2.3109 2.7610 1500.8 -0.0052421 184.13 0.16075 580.00 0.0017241 488.35 807.14 1.7767 2.3109 2.7610 1500.8 -0.0052421 184.13 0.16075
166.38 26935. undefined 490.66 810.85 1.7820 580.00 0.0017241 490.66 810.85 1.7820 2.3150 2.7644 1502.0 -0.0052374 184.12 0.16094 580.00 0.0017241 490.66 810.85 1.7820 2.3150 2.7644 1502.0 -0.0052374 184.12 0.16094
167.38 27052. undefined 492.98 814.55 1.7873 580.00 0.0017241 492.98 814.55 1.7873 2.3191 2.7679 1503.2 -0.0052327 184.11 0.16112 580.00 0.0017241 492.98 814.55 1.7873 2.3191 2.7679 1503.2 -0.0052327 184.11 0.16112
168.38 27168. undefined 495.30 818.26 1.7925 580.00 0.0017241 495.30 818.26 1.7925 2.3232 2.7713 1504.4 -0.0052279 184.11 0.16131 580.00 0.0017241 495.30 818.26 1.7925 2.3232 2.7713 1504.4 -0.0052279 184.11 0.16131
169.38 27285. undefined 497.62 821.98 1.7978 580.00 0.0017241 497.62 821.98 1.7978 2.3273 2.7747 1505.6 -0.0052232 184.10 0.16149 580.00 0.0017241 497.62 821.98 1.7978 2.3273 2.7747 1505.6 -0.0052232 184.10 0.16149
170.38 27402. undefined 499.95 825.69 1.8031 580.00 0.0017241 499.95 825.69 1.8031 2.3315 2.7781 1506.8 -0.0052185 184.09 0.16168 580.00 0.0017241 499.95 825.69 1.8031 2.3315 2.7781 1506.8 -0.0052185 184.09 0.16168
171.38 27518. undefined 502.29 829.41 1.8083 580.00 0.0017241 502.29 829.41 1.8083 2.3356 2.7816 1508.0 -0.0052138 184.08 0.16187 580.00 0.0017241 502.29 829.41 1.8083 2.3356 2.7816 1508.0 -0.0052138 184.08 0.16187
172.38 27634. undefined 504.63 833.13 1.8136 580.00 0.0017241 504.63 833.13 1.8136 2.3397 2.7850 1509.2 -0.0052091 184.07 0.16205 580.00 0.0017241 504.63 833.13 1.8136 2.3397 2.7850 1509.2 -0.0052091 184.07 0.16205
173.38 27751. undefined 506.97 836.85 1.8188 580.00 0.0017241 506.97 836.85 1.8188 2.3437 2.7884 1510.4 -0.0052044 184.07 0.16224 580.00 0.0017241 506.97 836.85 1.8188 2.3437 2.7884 1510.4 -0.0052044 184.07 0.16224
174.38 27867. undefined 509.31 840.58 1.8241 580.00 0.0017241 509.31 840.58 1.8241 2.3478 2.7918 1511.6 -0.0051997 184.06 0.16243 580.00 0.0017241 509.31 840.58 1.8241 2.3478 2.7918 1511.6 -0.0051997 184.06 0.16243
175.38 27983. undefined 511.66 844.31 1.8293 580.00 0.0017241 511.66 844.31 1.8293 2.3519 2.7953 1512.8 -0.0051949 184.05 0.16262 580.00 0.0017241 511.66 844.31 1.8293 2.3519 2.7953 1512.8 -0.0051949 184.05 0.16262
176.38 28099. undefined 514.02 848.04 1.8346 580.00 0.0017241 514.02 848.04 1.8346 2.3560 2.7987 1513.9 -0.0051902 184.04 0.16280 580.00 0.0017241 514.02 848.04 1.8346 2.3560 2.7987 1513.9 -0.0051902 184.04 0.16280
177.38 28215. undefined 516.37 851.78 1.8398 580.00 0.0017241 516.37 851.78 1.8398 2.3601 2.8021 1515.1 -0.0051856 184.04 0.16299 580.00 0.0017241 516.37 851.78 1.8398 2.3601 2.8021 1515.1 -0.0051856 184.04 0.16299
178.38 28331. undefined 518.74 855.52 1.8450 580.00 0.0017241 518.74 855.52 1.8450 2.3641 2.8055 1516.3 -0.0051809 184.03 0.16318 580.00 0.0017241 518.74 855.52 1.8450 2.3641 2.8055 1516.3 -0.0051809 184.03 0.16318
179.38 28446. undefined 521.10 859.26 1.8503 580.00 0.0017241 521.10 859.26 1.8503 2.3682 2.8089 1517.5 -0.0051762 184.02 0.16337 580.00 0.0017241 521.10 859.26 1.8503 2.3682 2.8089 1517.5 -0.0051762 184.02 0.16337
180.38 28562. undefined 523.47 863.01 1.8555 580.00 0.0017241 523.47 863.01 1.8555 2.3723 2.8123 1518.7 -0.0051715 184.02 0.16356 580.00 0.0017241 523.47 863.01 1.8555 2.3723 2.8123 1518.7 -0.0051715 184.02 0.16356
181.38 28678. undefined 525.85 866.75 1.8607 580.00 0.0017241 525.85 866.75 1.8607 2.3763 2.8157 1519.8 -0.0051668 184.01 0.16375 580.00 0.0017241 525.85 866.75 1.8607 2.3763 2.8157 1519.8 -0.0051668 184.01 0.16375
182.38 28793. undefined 528.23 870.50 1.8660 580.00 0.0017241 528.23 870.50 1.8660 2.3804 2.8191 1521.0 -0.0051621 184.00 0.16394 580.00 0.0017241 528.23 870.50 1.8660 2.3804 2.8191 1521.0 -0.0051621 184.00 0.16394
183.38 28908. undefined 530.61 874.26 1.8712 580.00 0.0017241 530.61 874.26 1.8712 2.3844 2.8225 1522.2 -0.0051575 184.00 0.16413 580.00 0.0017241 530.61 874.26 1.8712 2.3844 2.8225 1522.2 -0.0051575 184.00 0.16413
184.38 29024. undefined 532.99 878.01 1.8764 580.00 0.0017241 532.99 878.01 1.8764 2.3884 2.8260 1523.4 -0.0051528 183.99 0.16432 580.00 0.0017241 532.99 878.01 1.8764 2.3884 2.8260 1523.4 -0.0051528 183.99 0.16432
185.38 29139. undefined 535.38 881.77 1.8816 580.00 0.0017241 535.38 881.77 1.8816 2.3925 2.8294 1524.5 -0.0051482 183.99 0.16451 580.00 0.0017241 535.38 881.77 1.8816 2.3925 2.8294 1524.5 -0.0051482 183.99 0.16451
186.38 29254. undefined 537.78 885.54 1.8868 580.00 0.0017241 537.78 885.54 1.8868 2.3965 2.8328 1525.7 -0.0051435 183.98 0.16470 580.00 0.0017241 537.78 885.54 1.8868 2.3965 2.8328 1525.7 -0.0051435 183.98 0.16470
187.38 29369. undefined 540.18 889.30 1.8920 580.00 0.0017241 540.18 889.30 1.8920 2.4005 2.8362 1526.8 -0.0051389 183.98 0.16489 580.00 0.0017241 540.18 889.30 1.8920 2.4005 2.8362 1526.8 -0.0051389 183.98 0.16489
188.38 29484. undefined 542.58 893.07 1.8973 580.00 0.0017241 542.58 893.07 1.8973 2.4045 2.8395 1528.0 -0.0051342 183.97 0.16508 580.00 0.0017241 542.58 893.07 1.8973 2.4045 2.8395 1528.0 -0.0051342 183.97 0.16508
189.38 29599. undefined 544.99 896.84 1.9025 580.00 0.0017241 544.99 896.84 1.9025 2.4085 2.8429 1529.2 -0.0051296 183.97 0.16528 580.00 0.0017241 544.99 896.84 1.9025 2.4085 2.8429 1529.2 -0.0051296 183.97 0.16528
190.38 29713. undefined 547.40 900.61 1.9077 580.00 0.0017241 547.40 900.61 1.9077 2.4126 2.8463 1530.3 -0.0051250 183.96 0.16547 580.00 0.0017241 547.40 900.61 1.9077 2.4126 2.8463 1530.3 -0.0051250 183.96 0.16547
191.38 29828. undefined 549.81 904.39 1.9129 580.00 0.0017241 549.81 904.39 1.9129 2.4166 2.8497 1531.5 -0.0051203 183.96 0.16566 580.00 0.0017241 549.81 904.39 1.9129 2.4166 2.8497 1531.5 -0.0051203 183.96 0.16566
192.38 29942. undefined 552.23 908.17 1.9181 580.00 0.0017241 552.23 908.17 1.9181 2.4206 2.8531 1532.6 -0.0051157 183.95 0.16585 580.00 0.0017241 552.23 908.17 1.9181 2.4206 2.8531 1532.6 -0.0051157 183.95 0.16585
193.38 30057. undefined 554.65 911.95 1.9233 580.00 0.0017241 554.65 911.95 1.9233 2.4245 2.8565 1533.8 -0.0051111 183.95 0.16605 580.00 0.0017241 554.65 911.95 1.9233 2.4245 2.8565 1533.8 -0.0051111 183.95 0.16605
194.38 30171. undefined 557.08 915.74 1.9285 580.00 0.0017241 557.08 915.74 1.9285 2.4285 2.8599 1534.9 -0.0051065 183.94 0.16624 580.00 0.0017241 557.08 915.74 1.9285 2.4285 2.8599 1534.9 -0.0051065 183.94 0.16624
195.38 30285. undefined 559.51 919.53 1.9337 580.00 0.0017241 559.51 919.53 1.9337 2.4325 2.8633 1536.1 -0.0051019 183.94 0.16643 580.00 0.0017241 559.51 919.53 1.9337 2.4325 2.8633 1536.1 -0.0051019 183.94 0.16643
196.38 30400. undefined 561.94 923.32 1.9389 580.00 0.0017241 561.94 923.32 1.9389 2.4365 2.8666 1537.2 -0.0050973 183.93 0.16663 580.00 0.0017241 561.94 923.32 1.9389 2.4365 2.8666 1537.2 -0.0050973 183.93 0.16663
197.38 30514. undefined 564.38 927.11 1.9440 580.00 0.0017241 564.38 927.11 1.9440 2.4405 2.8700 1538.4 -0.0050928 183.93 0.16682 580.00 0.0017241 564.38 927.11 1.9440 2.4405 2.8700 1538.4 -0.0050928 183.93 0.16682
198.38 30628. undefined 566.83 930.91 1.9492 580.00 0.0017241 566.83 930.91 1.9492 2.4444 2.8734 1539.5 -0.0050882 183.93 0.16702 580.00 0.0017241 566.83 930.91 1.9492 2.4444 2.8734 1539.5 -0.0050882 183.93 0.16702
199.38 30741. undefined 569.27 934.71 1.9544 580.00 0.0017241 569.27 934.71 1.9544 2.4484 2.8768 1540.6 -0.0050836 183.92 0.16721 580.00 0.0017241 569.27 934.71 1.9544 2.4484 2.8768 1540.6 -0.0050836 183.92 0.16721
200.38 30855. undefined 571.72 938.51 1.9596 580.00 0.0017241 571.72 938.51 1.9596 2.4523 2.8801 1541.8 -0.0050790 183.92 0.16741 580.00 0.0017241 571.72 938.51 1.9596 2.4523 2.8801 1541.8 -0.0050790 183.92 0.16741
201.38 30969. undefined 574.18 942.32 1.9648 580.00 0.0017241 574.18 942.32 1.9648 2.4563 2.8835 1542.9 -0.0050745 183.91 0.16760 580.00 0.0017241 574.18 942.32 1.9648 2.4563 2.8835 1542.9 -0.0050745 183.91 0.16760
202.38 31083. undefined 576.63 946.13 1.9699 580.00 0.0017241 576.63 946.13 1.9699 2.4602 2.8869 1544.0 -0.0050699 183.91 0.16780 580.00 0.0017241 576.63 946.13 1.9699 2.4602 2.8869 1544.0 -0.0050699 183.91 0.16780
203.38 31196. undefined 579.10 949.94 1.9751 580.00 0.0017241 579.10 949.94 1.9751 2.4642 2.8902 1545.2 -0.0050654 183.91 0.16799 580.00 0.0017241 579.10 949.94 1.9751 2.4642 2.8902 1545.2 -0.0050654 183.91 0.16799
204.38 31310. undefined 581.56 953.76 1.9803 580.00 0.0017241 581.56 953.76 1.9803 2.4681 2.8936 1546.3 -0.0050609 183.91 0.16819 580.00 0.0017241 581.56 953.76 1.9803 2.4681 2.8936 1546.3 -0.0050609 183.91 0.16819
205.38 31423. undefined 584.03 957.57 1.9855 580.00 0.0017241 584.03 957.57 1.9855 2.4720 2.8969 1547.4 -0.0050563 183.90 0.16839 580.00 0.0017241 584.03 957.57 1.9855 2.4720 2.8969 1547.4 -0.0050563 183.90 0.16839
206.38 31536. undefined 586.51 961.39 1.9906 580.00 0.0017241 586.51 961.39 1.9906 2.4760 2.9003 1548.5 -0.0050518 183.90 0.16858 580.00 0.0017241 586.51 961.39 1.9906 2.4760 2.9003 1548.5 -0.0050518 183.90 0.16858
207.38 31649. undefined 588.99 965.22 1.9958 580.00 0.0017241 588.99 965.22 1.9958 2.4799 2.9036 1549.7 -0.0050473 183.90 0.16878 580.00 0.0017241 588.99 965.22 1.9958 2.4799 2.9036 1549.7 -0.0050473 183.90 0.16878
208.38 31762. undefined 591.47 969.04 2.0009 580.00 0.0017241 591.47 969.04 2.0009 2.4838 2.9070 1550.8 -0.0050428 183.89 0.16898 580.00 0.0017241 591.47 969.04 2.0009 2.4838 2.9070 1550.8 -0.0050428 183.89 0.16898
209.38 31875. undefined 593.95 972.87 2.0061 580.00 0.0017241 593.95 972.87 2.0061 2.4877 2.9103 1551.9 -0.0050383 183.89 0.16917 580.00 0.0017241 593.95 972.87 2.0061 2.4877 2.9103 1551.9 -0.0050383 183.89 0.16917
210.38 31988. undefined 596.44 976.70 2.0113 580.00 0.0017241 596.44 976.70 2.0113 2.4916 2.9137 1553.0 -0.0050338 183.89 0.16937 580.00 0.0017241 596.44 976.70 2.0113 2.4916 2.9137 1553.0 -0.0050338 183.89 0.16937
211.38 32101. undefined 598.94 980.54 2.0164 580.00 0.0017241 598.94 980.54 2.0164 2.4955 2.9170 1554.1 -0.0050293 183.89 0.16957 580.00 0.0017241 598.94 980.54 2.0164 2.4955 2.9170 1554.1 -0.0050293 183.89 0.16957
212.38 32214. undefined 601.43 984.38 2.0216 580.00 0.0017241 601.43 984.38 2.0216 2.4994 2.9203 1555.2 -0.0050249 183.89 0.16977 580.00 0.0017241 601.43 984.38 2.0216 2.4994 2.9203 1555.2 -0.0050249 183.89 0.16977
213.38 32327. undefined 603.93 988.22 2.0267 580.00 0.0017241 603.93 988.22 2.0267 2.5033 2.9237 1556.4 -0.0050204 183.88 0.16997 580.00 0.0017241 603.93 988.22 2.0267 2.5033 2.9237 1556.4 -0.0050204 183.88 0.16997
214.38 32439. undefined 606.44 992.06 2.0318 580.00 0.0017241 606.44 992.06 2.0318 2.5072 2.9270 1557.5 -0.0050159 183.88 0.17017 580.00 0.0017241 606.44 992.06 2.0318 2.5072 2.9270 1557.5 -0.0050159 183.88 0.17017
215.38 32552. undefined 608.95 995.91 2.0370 580.00 0.0017241 608.95 995.91 2.0370 2.5111 2.9303 1558.6 -0.0050115 183.88 0.17037 580.00 0.0017241 608.95 995.91 2.0370 2.5111 2.9303 1558.6 -0.0050115 183.88 0.17037
216.38 32664. undefined 611.46 999.76 2.0421 580.00 0.0017241 611.46 999.76 2.0421 2.5149 2.9337 1559.7 -0.0050070 183.88 0.17057 580.00 0.0017241 611.46 999.76 2.0421 2.5149 2.9337 1559.7 -0.0050070 183.88 0.17057
217.38 32776. undefined 613.98 1003.6 2.0473 580.00 0.0017241 613.98 1003.6 2.0473 2.5188 2.9370 1560.8 -0.0050026 183.88 0.17077 580.00 0.0017241 613.98 1003.6 2.0473 2.5188 2.9370 1560.8 -0.0050026 183.88 0.17077
218.38 32889. undefined 616.50 1007.5 2.0524 580.00 0.0017241 616.50 1007.5 2.0524 2.5227 2.9403 1561.9 -0.0049982 183.88 0.17097 580.00 0.0017241 616.50 1007.5 2.0524 2.5227 2.9403 1561.9 -0.0049982 183.88 0.17097
219.38 33001. undefined 619.02 1011.3 2.0575 580.00 0.0017241 619.02 1011.3 2.0575 2.5265 2.9436 1563.0 -0.0049938 183.87 0.17117 580.00 0.0017241 619.02 1011.3 2.0575 2.5265 2.9436 1563.0 -0.0049938 183.87 0.17117
220.38 33113. undefined 621.55 1015.2 2.0627 580.00 0.0017241 621.55 1015.2 2.0627 2.5304 2.9469 1564.1 -0.0049894 183.87 0.17137 580.00 0.0017241 621.55 1015.2 2.0627 2.5304 2.9469 1564.1 -0.0049894 183.87 0.17137
221.38 33225. undefined 624.09 1019.0 2.0678 580.00 0.0017241 624.09 1019.0 2.0678 2.5342 2.9502 1565.2 -0.0049850 183.87 0.17157 580.00 0.0017241 624.09 1019.0 2.0678 2.5342 2.9502 1565.2 -0.0049850 183.87 0.17157
222.38 33337. undefined 626.62 1022.9 2.0729 580.00 0.0017241 626.62 1022.9 2.0729 2.5380 2.9536 1566.3 -0.0049806 183.87 0.17177 580.00 0.0017241 626.62 1022.9 2.0729 2.5380 2.9536 1566.3 -0.0049806 183.87 0.17177
223.38 33448. undefined 629.16 1026.8 2.0780 580.00 0.0017241 629.16 1026.8 2.0780 2.5419 2.9569 1567.4 -0.0049762 183.87 0.17197 580.00 0.0017241 629.16 1026.8 2.0780 2.5419 2.9569 1567.4 -0.0049762 183.87 0.17197
224.38 33560. undefined 631.71 1030.7 2.0831 580.00 0.0017241 631.71 1030.7 2.0831 2.5457 2.9602 1568.5 -0.0049718 183.87 0.17218 580.00 0.0017241 631.71 1030.7 2.0831 2.5457 2.9602 1568.5 -0.0049718 183.87 0.17218
225.38 33672. undefined 634.25 1034.5 2.0883 580.00 0.0017241 634.25 1034.5 2.0883 2.5495 2.9635 1569.5 -0.0049674 183.87 0.17238 580.00 0.0017241 634.25 1034.5 2.0883 2.5495 2.9635 1569.5 -0.0049674 183.87 0.17238
226.38 33783. undefined 636.80 1038.4 2.0934 580.00 0.0017241 636.80 1038.4 2.0934 2.5534 2.9668 1570.6 -0.0049631 183.87 0.17258 580.00 0.0017241 636.80 1038.4 2.0934 2.5534 2.9668 1570.6 -0.0049631 183.87 0.17258
227.38 33895. undefined 639.36 1042.3 2.0985 580.00 0.0017241 639.36 1042.3 2.0985 2.5572 2.9701 1571.7 -0.0049587 183.87 0.17278 580.00 0.0017241 639.36 1042.3 2.0985 2.5572 2.9701 1571.7 -0.0049587 183.87 0.17278
228.38 34006. undefined 641.92 1046.2 2.1036 580.00 0.0017241 641.92 1046.2 2.1036 2.5610 2.9733 1572.8 -0.0049544 183.87 0.17299 580.00 0.0017241 641.92 1046.2 2.1036 2.5610 2.9733 1572.8 -0.0049544 183.87 0.17299
229.38 34117. undefined 644.48 1050.1 2.1087 580.00 0.0017241 644.48 1050.1 2.1087 2.5648 2.9766 1573.9 -0.0049500 183.87 0.17319 580.00 0.0017241 644.48 1050.1 2.1087 2.5648 2.9766 1573.9 -0.0049500 183.87 0.17319
230.38 34229. undefined 647.05 1053.9 2.1138 580.00 0.0017241 647.05 1053.9 2.1138 2.5686 2.9799 1575.0 -0.0049457 183.87 0.17340 580.00 0.0017241 647.05 1053.9 2.1138 2.5686 2.9799 1575.0 -0.0049457 183.87 0.17340
231.38 34340. undefined 649.62 1057.8 2.1189 580.00 0.0017241 649.62 1057.8 2.1189 2.5724 2.9832 1576.0 -0.0049414 183.87 0.17360 580.00 0.0017241 649.62 1057.8 2.1189 2.5724 2.9832 1576.0 -0.0049414 183.87 0.17360
232.38 34451. undefined 652.19 1061.7 2.1240 580.00 0.0017241 652.19 1061.7 2.1240 2.5762 2.9865 1577.1 -0.0049371 183.87 0.17380 580.00 0.0017241 652.19 1061.7 2.1240 2.5762 2.9865 1577.1 -0.0049371 183.87 0.17380
233.38 34562. undefined 654.77 1065.6 2.1291 580.00 0.0017241 654.77 1065.6 2.1291 2.5799 2.9897 1578.2 -0.0049328 183.87 0.17401 580.00 0.0017241 654.77 1065.6 2.1291 2.5799 2.9897 1578.2 -0.0049328 183.87 0.17401
234.38 34673. undefined 657.35 1069.5 2.1342 580.00 0.0017241 657.35 1069.5 2.1342 2.5837 2.9930 1579.3 -0.0049285 183.87 0.17421 580.00 0.0017241 657.35 1069.5 2.1342 2.5837 2.9930 1579.3 -0.0049285 183.87 0.17421
235.38 34783. undefined 659.94 1073.4 2.1393 580.00 0.0017241 659.94 1073.4 2.1393 2.5875 2.9963 1580.3 -0.0049242 183.87 0.17442 580.00 0.0017241 659.94 1073.4 2.1393 2.5875 2.9963 1580.3 -0.0049242 183.87 0.17442
236.38 34894. undefined 662.53 1077.3 2.1444 580.00 0.0017241 662.53 1077.3 2.1444 2.5912 2.9995 1581.4 -0.0049199 183.87 0.17462 580.00 0.0017241 662.53 1077.3 2.1444 2.5912 2.9995 1581.4 -0.0049199 183.87 0.17462
237.38 35005. undefined 665.12 1081.2 2.1494 580.00 0.0017241 665.12 1081.2 2.1494 2.5950 3.0028 1582.5 -0.0049157 183.87 0.17483 580.00 0.0017241 665.12 1081.2 2.1494 2.5950 3.0028 1582.5 -0.0049157 183.87 0.17483
238.38 35115. undefined 667.72 1085.2 2.1545 580.00 0.0017241 667.72 1085.2 2.1545 2.5988 3.0061 1583.6 -0.0049114 183.87 0.17504 580.00 0.0017241 667.72 1085.2 2.1545 2.5988 3.0061 1583.6 -0.0049114 183.87 0.17504
239.38 35226. undefined 670.32 1089.1 2.1596 580.00 0.0017241 670.32 1089.1 2.1596 2.6025 3.0093 1584.6 -0.0049072 183.87 0.17524 580.00 0.0017241 670.32 1089.1 2.1596 2.6025 3.0093 1584.6 -0.0049072 183.87 0.17524
240.38 35336. undefined 672.92 1093.0 2.1647 580.00 0.0017241 672.92 1093.0 2.1647 2.6063 3.0126 1585.7 -0.0049029 183.87 0.17545 580.00 0.0017241 672.92 1093.0 2.1647 2.6063 3.0126 1585.7 -0.0049029 183.87 0.17545
241.38 35447. undefined 675.53 1096.9 2.1697 580.00 0.0017241 675.53 1096.9 2.1697 2.6100 3.0158 1586.7 -0.0048987 183.88 0.17566 580.00 0.0017241 675.53 1096.9 2.1697 2.6100 3.0158 1586.7 -0.0048987 183.88 0.17566
242.38 35557. undefined 678.14 1100.8 2.1748 580.00 0.0017241 678.14 1100.8 2.1748 2.6137 3.0191 1587.8 -0.0048945 183.88 0.17586 580.00 0.0017241 678.14 1100.8 2.1748 2.6137 3.0191 1587.8 -0.0048945 183.88 0.17586
243.38 35667. undefined 680.76 1104.8 2.1799 580.00 0.0017241 680.76 1104.8 2.1799 2.6175 3.0223 1588.9 -0.0048903 183.88 0.17607 580.00 0.0017241 680.76 1104.8 2.1799 2.6175 3.0223 1588.9 -0.0048903 183.88 0.17607
244.38 35777. undefined 683.38 1108.7 2.1850 580.00 0.0017241 683.38 1108.7 2.1850 2.6212 3.0255 1589.9 -0.0048861 183.88 0.17628 580.00 0.0017241 683.38 1108.7 2.1850 2.6212 3.0255 1589.9 -0.0048861 183.88 0.17628
245.38 35887. undefined 686.00 1112.6 2.1900 580.00 0.0017241 686.00 1112.6 2.1900 2.6249 3.0288 1591.0 -0.0048819 183.88 0.17649 580.00 0.0017241 686.00 1112.6 2.1900 2.6249 3.0288 1591.0 -0.0048819 183.88 0.17649
246.38 35997. undefined 688.63 1116.5 2.1951 580.00 0.0017241 688.63 1116.5 2.1951 2.6286 3.0320 1592.0 -0.0048777 183.88 0.17670 580.00 0.0017241 688.63 1116.5 2.1951 2.6286 3.0320 1592.0 -0.0048777 183.88 0.17670
247.38 36107. undefined 691.26 1120.5 2.2001 580.00 0.0017241 691.26 1120.5 2.2001 2.6323 3.0352 1593.1 -0.0048735 183.88 0.17691 580.00 0.0017241 691.26 1120.5 2.2001 2.6323 3.0352 1593.1 -0.0048735 183.88 0.17691
248.38 36217. undefined 693.89 1124.4 2.2052 580.00 0.0017241 693.89 1124.4 2.2052 2.6360 3.0385 1594.1 -0.0048693 183.89 0.17712 580.00 0.0017241 693.89 1124.4 2.2052 2.6360 3.0385 1594.1 -0.0048693 183.89 0.17712
249.38 36326. undefined 696.53 1128.4 2.2102 580.00 0.0017241 696.53 1128.4 2.2102 2.6397 3.0417 1595.2 -0.0048652 183.89 0.17732 580.00 0.0017241 696.53 1128.4 2.2102 2.6397 3.0417 1595.2 -0.0048652 183.89 0.17732
250.38 36436. undefined 699.17 1132.3 2.2153 580.00 0.0017241 699.17 1132.3 2.2153 2.6434 3.0449 1596.2 -0.0048610 183.89 0.17753 580.00 0.0017241 699.17 1132.3 2.2153 2.6434 3.0449 1596.2 -0.0048610 183.89 0.17753
251.38 36545. undefined 701.82 1136.3 2.2203 580.00 0.0017241 701.82 1136.3 2.2203 2.6471 3.0481 1597.3 -0.0048569 183.89 0.17774 580.00 0.0017241 701.82 1136.3 2.2203 2.6471 3.0481 1597.3 -0.0048569 183.89 0.17774
252.38 36655. undefined 704.47 1140.2 2.2254 580.00 0.0017241 704.47 1140.2 2.2254 2.6508 3.0513 1598.3 -0.0048528 183.89 0.17795 580.00 0.0017241 704.47 1140.2 2.2254 2.6508 3.0513 1598.3 -0.0048528 183.89 0.17795
253.38 36764. undefined 707.12 1144.2 2.2304 580.00 0.0017241 707.12 1144.2 2.2304 2.6544 3.0545 1599.4 -0.0048486 183.90 0.17817 580.00 0.0017241 707.12 1144.2 2.2304 2.6544 3.0545 1599.4 -0.0048486 183.90 0.17817
254.38 36874. undefined 709.77 1148.1 2.2355 580.00 0.0017241 709.77 1148.1 2.2355 2.6581 3.0578 1600.4 -0.0048445 183.90 0.17838 580.00 0.0017241 709.77 1148.1 2.2355 2.6581 3.0578 1600.4 -0.0048445 183.90 0.17838
255.38 36983. undefined 712.43 1152.1 2.2405 580.00 0.0017241 712.43 1152.1 2.2405 2.6618 3.0610 1601.4 -0.0048404 183.90 0.17859 580.00 0.0017241 712.43 1152.1 2.2405 2.6618 3.0610 1601.4 -0.0048404 183.90 0.17859
256.38 37092. undefined 715.10 1156.0 2.2455 580.00 0.0017241 715.10 1156.0 2.2455 2.6654 3.0642 1602.5 -0.0048363 183.90 0.17880 580.00 0.0017241 715.10 1156.0 2.2455 2.6654 3.0642 1602.5 -0.0048363 183.90 0.17880
257.38 37201. undefined 717.77 1160.0 2.2506 580.00 0.0017241 717.77 1160.0 2.2506 2.6691 3.0673 1603.5 -0.0048322 183.90 0.17901 580.00 0.0017241 717.77 1160.0 2.2506 2.6691 3.0673 1603.5 -0.0048322 183.90 0.17901
258.38 37310. undefined 720.44 1164.0 2.2556 580.00 0.0017241 720.44 1164.0 2.2556 2.6727 3.0705 1604.6 -0.0048282 183.91 0.17922 580.00 0.0017241 720.44 1164.0 2.2556 2.6727 3.0705 1604.6 -0.0048282 183.91 0.17922
259.38 37419. undefined 723.11 1167.9 2.2606 580.00 0.0017241 723.11 1167.9 2.2606 2.6764 3.0737 1605.6 -0.0048241 183.91 0.17943 580.00 0.0017241 723.11 1167.9 2.2606 2.6764 3.0737 1605.6 -0.0048241 183.91 0.17943
260.38 37528. undefined 725.79 1171.9 2.2657 580.00 0.0017241 725.79 1171.9 2.2657 2.6800 3.0769 1606.6 -0.0048200 183.91 0.17965 580.00 0.0017241 725.79 1171.9 2.2657 2.6800 3.0769 1606.6 -0.0048200 183.91 0.17965
261.38 37636. undefined 728.47 1175.9 2.2707 580.00 0.0017241 728.47 1175.9 2.2707 2.6837 3.0801 1607.7 -0.0048160 183.92 0.17986 580.00 0.0017241 728.47 1175.9 2.2707 2.6837 3.0801 1607.7 -0.0048160 183.92 0.17986
262.38 37745. undefined 731.16 1179.9 2.2757 580.00 0.0017241 731.16 1179.9 2.2757 2.6873 3.0833 1608.7 -0.0048119 183.92 0.18007 580.00 0.0017241 731.16 1179.9 2.2757 2.6873 3.0833 1608.7 -0.0048119 183.92 0.18007
263.38 37854. undefined 733.85 1183.8 2.2807 580.00 0.0017241 733.85 1183.8 2.2807 2.6909 3.0864 1609.7 -0.0048079 183.92 0.18029 580.00 0.0017241 733.85 1183.8 2.2807 2.6909 3.0864 1609.7 -0.0048079 183.92 0.18029
264.38 37962. undefined 736.54 1187.8 2.2857 580.00 0.0017241 736.54 1187.8 2.2857 2.6945 3.0896 1610.7 -0.0048039 183.92 0.18050 580.00 0.0017241 736.54 1187.8 2.2857 2.6945 3.0896 1610.7 -0.0048039 183.92 0.18050
265.38 38071. undefined 739.23 1191.8 2.2907 580.00 0.0017241 739.23 1191.8 2.2907 2.6981 3.0928 1611.8 -0.0047999 183.93 0.18072 580.00 0.0017241 739.23 1191.8 2.2907 2.6981 3.0928 1611.8 -0.0047999 183.93 0.18072
266.38 38179. undefined 741.93 1195.8 2.2958 580.00 0.0017241 741.93 1195.8 2.2958 2.7018 3.0960 1612.8 -0.0047959 183.93 0.18093 580.00 0.0017241 741.93 1195.8 2.2958 2.7018 3.0960 1612.8 -0.0047959 183.93 0.18093
267.38 38287. undefined 744.64 1199.8 2.3008 580.00 0.0017241 744.64 1199.8 2.3008 2.7054 3.0991 1613.8 -0.0047919 183.93 0.18114 580.00 0.0017241 744.64 1199.8 2.3008 2.7054 3.0991 1613.8 -0.0047919 183.93 0.18114
268.38 38396. undefined 747.35 1203.8 2.3058 580.00 0.0017241 747.35 1203.8 2.3058 2.7090 3.1023 1614.8 -0.0047879 183.94 0.18136 580.00 0.0017241 747.35 1203.8 2.3058 2.7090 3.1023 1614.8 -0.0047879 183.94 0.18136
269.38 38504. undefined 750.06 1207.8 2.3108 580.00 0.0017241 750.06 1207.8 2.3108 2.7125 3.1054 1615.8 -0.0047839 183.94 0.18157 580.00 0.0017241 750.06 1207.8 2.3108 2.7125 3.1054 1615.8 -0.0047839 183.94 0.18157
270.38 38612. undefined 752.77 1211.8 2.3158 580.00 0.0017241 752.77 1211.8 2.3158 2.7161 3.1086 1616.9 -0.0047799 183.94 0.18179 580.00 0.0017241 752.77 1211.8 2.3158 2.7161 3.1086 1616.9 -0.0047799 183.94 0.18179
271.38 38720. undefined 755.49 1215.8 2.3208 580.00 0.0017241 755.49 1215.8 2.3208 2.7197 3.1117 1617.9 -0.0047760 183.95 0.18201 580.00 0.0017241 755.49 1215.8 2.3208 2.7197 3.1117 1617.9 -0.0047760 183.95 0.18201
272.38 38828. undefined 758.21 1219.8 2.3258 580.00 0.0017241 758.21 1219.8 2.3258 2.7233 3.1149 1618.9 -0.0047720 183.95 0.18222 580.00 0.0017241 758.21 1219.8 2.3258 2.7233 3.1149 1618.9 -0.0047720 183.95 0.18222
273.38 38936. undefined 760.93 1223.8 2.3307 580.00 0.0017241 760.93 1223.8 2.3307 2.7269 3.1180 1619.9 -0.0047681 183.96 0.18244 580.00 0.0017241 760.93 1223.8 2.3307 2.7269 3.1180 1619.9 -0.0047681 183.96 0.18244
274.38 39043. undefined 763.66 1227.8 2.3357 580.00 0.0017241 763.66 1227.8 2.3357 2.7304 3.1211 1620.9 -0.0047642 183.96 0.18266 580.00 0.0017241 763.66 1227.8 2.3357 2.7304 3.1211 1620.9 -0.0047642 183.96 0.18266
275.38 39151. undefined 766.40 1231.8 2.3407 580.00 0.0017241 766.40 1231.8 2.3407 2.7340 3.1243 1621.9 -0.0047602 183.96 0.18287 580.00 0.0017241 766.40 1231.8 2.3407 2.7340 3.1243 1621.9 -0.0047602 183.96 0.18287
276.38 39259. undefined 769.13 1235.8 2.3457 580.00 0.0017241 769.13 1235.8 2.3457 2.7375 3.1274 1622.9 -0.0047563 183.97 0.18309 580.00 0.0017241 769.13 1235.8 2.3457 2.7375 3.1274 1622.9 -0.0047563 183.97 0.18309
277.38 39366. undefined 771.87 1239.8 2.3507 580.00 0.0017241 771.87 1239.8 2.3507 2.7411 3.1305 1623.9 -0.0047524 183.97 0.18331 580.00 0.0017241 771.87 1239.8 2.3507 2.7411 3.1305 1623.9 -0.0047524 183.97 0.18331
278.38 39474. undefined 774.61 1243.9 2.3557 580.00 0.0017241 774.61 1243.9 2.3557 2.7446 3.1336 1624.9 -0.0047485 183.98 0.18353 580.00 0.0017241 774.61 1243.9 2.3557 2.7446 3.1336 1624.9 -0.0047485 183.98 0.18353
279.38 39581. undefined 777.36 1247.9 2.3606 580.00 0.0017241 777.36 1247.9 2.3606 2.7482 3.1368 1625.9 -0.0047446 183.98 0.18374 580.00 0.0017241 777.36 1247.9 2.3606 2.7482 3.1368 1625.9 -0.0047446 183.98 0.18374
280.38 39688. undefined 780.11 1251.9 2.3656 580.00 0.0017241 780.11 1251.9 2.3656 2.7517 3.1399 1626.9 -0.0047407 183.98 0.18396 580.00 0.0017241 780.11 1251.9 2.3656 2.7517 3.1399 1626.9 -0.0047407 183.98 0.18396
281.38 39796. undefined 782.86 1255.9 2.3706 580.00 0.0017241 782.86 1255.9 2.3706 2.7552 3.1430 1627.9 -0.0047369 183.99 0.18418 580.00 0.0017241 782.86 1255.9 2.3706 2.7552 3.1430 1627.9 -0.0047369 183.99 0.18418
282.38 39903. undefined 785.62 1260.0 2.3755 580.00 0.0017241 785.62 1260.0 2.3755 2.7588 3.1461 1628.9 -0.0047330 183.99 0.18419 580.00 0.0017241 785.62 1260.0 2.3755 2.7588 3.1461 1628.9 -0.0047330 183.99 0.18419
283.38 40010. undefined 788.38 1264.0 2.3805 580.00 0.0017241 788.38 1264.0 2.3805 2.7623 3.1492 1629.9 -0.0047292 184.00 0.18441 580.00 0.0017241 788.38 1264.0 2.3805 2.7623 3.1492 1629.9 -0.0047292 184.00 0.18441
284.38 40117. undefined 791.14 1268.0 2.3855 580.00 0.0017241 791.14 1268.0 2.3855 2.7658 3.1523 1630.9 -0.0047253 184.00 0.18463 580.00 0.0017241 791.14 1268.0 2.3855 2.7658 3.1523 1630.9 -0.0047253 184.00 0.18463
285.38 40224. undefined 793.91 1272.1 2.3904 580.00 0.0017241 793.91 1272.1 2.3904 2.7693 3.1554 1631.9 -0.0047215 184.01 0.18485 580.00 0.0017241 793.91 1272.1 2.3904 2.7693 3.1554 1631.9 -0.0047215 184.01 0.18485
286.38 40331. undefined 796.68 1276.1 2.3954 580.00 0.0017241 796.68 1276.1 2.3954 2.7728 3.1585 1632.9 -0.0047177 184.01 0.18507 580.00 0.0017241 796.68 1276.1 2.3954 2.7728 3.1585 1632.9 -0.0047177 184.01 0.18507
287.38 40438. undefined 799.46 1280.2 2.4003 580.00 0.0017241 799.46 1280.2 2.4003 2.7763 3.1616 1633.9 -0.0047138 184.01 0.18529 580.00 0.0017241 799.46 1280.2 2.4003 2.7763 3.1616 1633.9 -0.0047138 184.01 0.18529
288.38 40544. undefined 802.24 1284.2 2.4053 580.00 0.0017241 802.24 1284.2 2.4053 2.7798 3.1647 1634.9 -0.0047100 184.02 0.18551 580.00 0.0017241 802.24 1284.2 2.4053 2.7798 3.1647 1634.9 -0.0047100 184.02 0.18551
289.38 40651. undefined 805.02 1288.3 2.4102 580.00 0.0017241 805.02 1288.3 2.4102 2.7833 3.1678 1635.9 -0.0047062 184.02 0.18573 580.00 0.0017241 805.02 1288.3 2.4102 2.7833 3.1678 1635.9 -0.0047062 184.02 0.18573
290.38 40758. undefined 807.80 1292.3 2.4152 580.00 0.0017241 807.80 1292.3 2.4152 2.7868 3.1708 1636.9 -0.0047024 184.03 0.18595 580.00 0.0017241 807.80 1292.3 2.4152 2.7868 3.1708 1636.9 -0.0047024 184.03 0.18595
291.38 40864. undefined 810.59 1296.4 2.4201 580.00 0.0017241 810.59 1296.4 2.4201 2.7903 3.1739 1637.9 -0.0046987 184.03 0.18617 580.00 0.0017241 810.59 1296.4 2.4201 2.7903 3.1739 1637.9 -0.0046987 184.03 0.18617
292.38 40971. undefined 813.38 1300.4 2.4251 580.00 0.0017241 813.38 1300.4 2.4251 2.7937 3.1770 1638.9 -0.0046949 184.04 0.18639 580.00 0.0017241 813.38 1300.4 2.4251 2.7937 3.1770 1638.9 -0.0046949 184.04 0.18639
293.38 41077. undefined 816.18 1304.5 2.4300 580.00 0.0017241 816.18 1304.5 2.4300 2.7972 3.1801 1639.9 -0.0046911 184.04 0.18661 580.00 0.0017241 816.18 1304.5 2.4300 2.7972 3.1801 1639.9 -0.0046911 184.04 0.18661
294.38 41183. undefined 818.98 1308.5 2.4349 580.00 0.0017241 818.98 1308.5 2.4349 2.8007 3.1831 1640.8 -0.0046874 184.05 0.18683 580.00 0.0017241 818.98 1308.5 2.4349 2.8007 3.1831 1640.8 -0.0046874 184.05 0.18683
295.38 41290. undefined 821.78 1312.6 2.4399 580.00 0.0017241 821.78 1312.6 2.4399 2.8041 3.1862 1641.8 -0.0046836 184.05 0.18706 580.00 0.0017241 821.78 1312.6 2.4399 2.8041 3.1862 1641.8 -0.0046836 184.05 0.18706
296.38 41396. undefined 824.59 1316.7 2.4448 580.00 0.0017241 824.59 1316.7 2.4448 2.8076 3.1892 1642.8 -0.0046799 184.06 0.18728 580.00 0.0017241 824.59 1316.7 2.4448 2.8076 3.1892 1642.8 -0.0046799 184.06 0.18728
297.38 41502. undefined 827.40 1320.8 2.4497 580.00 0.0017241 827.40 1320.8 2.4497 2.8110 3.1923 1643.8 -0.0046762 184.06 0.18750 580.00 0.0017241 827.40 1320.8 2.4497 2.8110 3.1923 1643.8 -0.0046762 184.06 0.18750
298.38 41608. undefined 830.21 1324.8 2.4547 580.00 0.0017241 830.21 1324.8 2.4547 2.8145 3.1953 1644.8 -0.0046724 184.07 0.18772 580.00 0.0017241 830.21 1324.8 2.4547 2.8145 3.1953 1644.8 -0.0046724 184.07 0.18772
299.38 41714. undefined 833.02 1328.9 2.4596 580.00 0.0017241 833.02 1328.9 2.4596 2.8179 3.1984 1645.7 -0.0046687 184.08 0.18795 580.00 0.0017241 833.02 1328.9 2.4596 2.8179 3.1984 1645.7 -0.0046687 184.08 0.18795
300.38 41820. undefined 835.84 1333.0 2.4645 580.00 0.0017241 835.84 1333.0 2.4645 2.8213 3.2014 1646.7 -0.0046650 184.08 0.18817 580.00 0.0017241 835.84 1333.0 2.4645 2.8213 3.2014 1646.7 -0.0046650 184.08 0.18817