Temperature (C) Pressure (psia) Quality (l+v) Internal Energy (l+v, kJ/kg) Enthalpy (l+v, kJ/kg) Entropy (l+v, J/g*K) Density (l, kg/m3) Volume (l, m3/kg) Internal Energy (l, kJ/kg) Enthalpy (l, kJ/kg) Entropy (l, J/g*K) Cv (l, J/g*K) Cp (l, J/g*K) Sound Spd. (l, m/s) Joule-Thomson (l, F/psia) Viscosity (l, uPa*s) Therm. Cond. (l, W/m*K) Density (v, kg/m3) Volume (v, m3/kg) Internal Energy (v, kJ/kg) Enthalpy (v, kJ/kg) Entropy (v, J/g*K) Cv (v, J/g*K) Cp (v, J/g*K) Sound Spd. (v, m/s) Joule-Thomson (v, F/psia) Viscosity (v, uPa*s) Therm. Cond. (v, W/m*K)
-187.62 2.4953e-08 3.6847e-12 -196.64 -196.64 -1.3959 733.13 0.0013640 -196.64 -196.64 -1.3959 1.3553 1.9158 2136.4 -0.0077592 10960. 0.20792 1.0669e-08 9.3732e+07 350.13 366.26 5.1858 0.69067 0.87923 143.28 6.1051 2.3259 0.0017061
-186.62 3.7339e-08 5.4194e-12 -194.73 -194.73 -1.3736 732.08 0.0013660 -194.73 -194.73 -1.3736 1.3539 1.9166 2129.6 -0.0077546 10073. 0.20765 1.5780e-08 6.3371e+07 350.82 367.14 5.1200 0.69462 0.88317 144.03 5.9178 2.3534 0.0017533
-185.62 5.5322e-08 7.8926e-12 -192.81 -192.81 -1.3516 731.04 0.0013679 -192.81 -192.81 -1.3516 1.3525 1.9174 2122.9 -0.0077498 9276.1 0.20737 2.3112e-08 4.3267e+07 351.52 368.02 5.0561 0.69857 0.88713 144.77 5.7383 2.3808 0.0018007
-184.62 8.1182e-08 1.1386e-11 -190.89 -190.89 -1.3298 730.00 0.0013699 -190.89 -190.89 -1.3298 1.3513 1.9182 2116.1 -0.0077448 8557.8 0.20708 3.3533e-08 2.9821e+07 352.22 368.91 4.9939 0.70253 0.89108 145.51 5.5662 2.4083 0.0018485
-183.62 1.1803e-07 1.6275e-11 -188.97 -188.97 -1.3083 728.96 0.0013718 -188.97 -188.97 -1.3083 1.3501 1.9191 2109.3 -0.0077395 7909.8 0.20678 4.8211e-08 2.0742e+07 352.92 369.81 4.9333 0.70648 0.89504 146.24 5.4011 2.4357 0.0018965
-182.62 1.7009e-07 2.3059e-11 -187.05 -187.05 -1.2869 727.92 0.0013738 -187.05 -187.05 -1.2869 1.3490 1.9201 2102.5 -0.0077340 7324.3 0.20647 6.8704e-08 1.4555e+07 353.63 370.70 4.8744 0.71043 0.89899 146.97 5.2426 2.4632 0.0019448
-181.62 2.4299e-07 3.2392e-11 -185.13 -185.13 -1.2658 726.88 0.0013757 -185.13 -185.13 -1.2658 1.3480 1.9210 2095.7 -0.0077283 6794.5 0.20616 9.7079e-08 1.0301e+07 354.35 371.60 4.8170 0.71438 0.90294 147.69 5.0904 2.4906 0.0019934
-180.62 3.4425e-07 4.5128e-11 -183.21 -183.21 -1.2450 725.85 0.0013777 -183.21 -183.21 -1.2450 1.3470 1.9220 2088.9 -0.0077225 6314.4 0.20584 1.3605e-07 7.3504e+06 355.06 372.51 4.7612 0.71833 0.90688 148.41 4.9442 2.5181 0.0020423
-179.62 4.8378e-07 6.2370e-11 -181.29 -181.29 -1.2243 724.81 0.0013797 -181.29 -181.29 -1.2243 1.3461 1.9231 2082.0 -0.0077164 5878.8 0.20551 1.8915e-07 5.2868e+06 355.78 373.42 4.7068 0.72227 0.91082 149.13 4.8038 2.5456 0.0020915
-178.62 6.7459e-07 8.5535e-11 -179.37 -179.37 -1.2038 723.78 0.0013816 -179.37 -179.37 -1.2038 1.3453 1.9241 2075.2 -0.0077102 5482.9 0.20517 2.6096e-07 3.8320e+06 356.51 374.33 4.6538 0.72620 0.91475 149.84 4.6688 2.5731 0.0021410
-177.62 9.3358e-07 1.1643e-10 -177.44 -177.44 -1.1836 722.75 0.0013836 -177.44 -177.44 -1.1836 1.3445 1.9252 2068.4 -0.0077039 5122.6 0.20483 3.5737e-07 2.7982e+06 357.23 375.25 4.6022 0.73012 0.91867 150.54 4.5390 2.6005 0.0021907
-176.62 1.2826e-06 1.5734e-10 -175.52 -175.52 -1.1635 721.72 0.0013856 -175.52 -175.52 -1.1635 1.3437 1.9263 2061.5 -0.0076973 4794.1 0.20447 4.8588e-07 2.0581e+06 357.97 376.17 4.5519 0.73403 0.92258 151.25 4.4142 2.6280 0.0022408
-175.62 1.7496e-06 2.1113e-10 -173.59 -173.59 -1.1437 720.69 0.0013876 -173.59 -173.59 -1.1437 1.3430 1.9274 2054.7 -0.0076907 4494.3 0.20411 6.5601e-07 1.5244e+06 358.70 377.09 4.5029 0.73792 0.92648 151.95 4.2941 2.6555 0.0022912
-174.62 2.3705e-06 2.8140e-10 -171.66 -171.66 -1.1240 719.66 0.0013895 -171.66 -171.66 -1.1240 1.3423 1.9286 2047.9 -0.0076838 4220.2 0.20375 8.7976e-07 1.1367e+06 359.44 378.02 4.4551 0.74181 0.93036 152.64 4.1784 2.6830 0.0023418
-173.62 3.1903e-06 3.7259e-10 -169.73 -169.73 -1.1045 718.64 0.0013915 -169.73 -169.73 -1.1045 1.3417 1.9298 2041.0 -0.0076769 3969.3 0.20338 1.1721e-06 8.5314e+05 360.19 378.95 4.4085 0.74568 0.93423 153.33 4.0671 2.7105 0.0023928
-172.62 4.2661e-06 4.9020e-10 -167.80 -167.80 -1.0852 717.61 0.0013935 -167.80 -167.80 -1.0852 1.3411 1.9310 2034.2 -0.0076698 3739.3 0.20300 1.5518e-06 6.4441e+05 360.93 379.89 4.3631 0.74953 0.93809 154.02 3.9599 2.7379 0.0024440
-171.62 5.6692e-06 6.4094e-10 -165.87 -165.87 -1.0661 716.58 0.0013955 -165.87 -165.87 -1.0661 1.3405 1.9322 2027.3 -0.0076625 3528.0 0.20261 2.0419e-06 4.8974e+05 361.69 380.83 4.3188 0.75337 0.94193 154.71 3.8566 2.7654 0.0024955
-170.62 7.4884e-06 8.3301e-10 -163.94 -163.94 -1.0472 715.56 0.0013975 -163.94 -163.94 -1.0472 1.3400 1.9334 2020.5 -0.0076552 3333.8 0.20222 2.6708e-06 3.7442e+05 362.44 381.77 4.2755 0.75720 0.94575 155.39 3.7570 2.7929 0.0025473
-169.62 9.8334e-06 1.0764e-09 -162.00 -162.00 -1.0284 714.54 0.0013995 -162.00 -162.00 -1.0284 1.3395 1.9347 2013.6 -0.0076477 3154.9 0.20182 3.4733e-06 2.8791e+05 363.20 382.72 4.2334 0.76100 0.94956 156.07 3.6609 2.8204 0.0025994
-168.62 1.2839e-05 1.3829e-09 -160.07 -160.07 -1.0098 713.52 0.0014015 -160.07 -160.07 -1.0098 1.3390 1.9359 2006.8 -0.0076401 2989.9 0.20141 4.4917e-06 2.2263e+05 363.96 383.67 4.1922 0.76479 0.95335 156.74 3.5683 2.8479 0.0026518
-167.62 1.6672e-05 1.7671e-09 -158.13 -158.13 -0.99134 712.49 0.0014035 -158.13 -158.13 -0.99134 1.3386 1.9372 2000.0 -0.0076323 2837.5 0.20100 5.7771e-06 1.7310e+05 364.73 384.63 4.1521 0.76856 0.95712 157.41 3.4790 2.8754 0.0027045
-166.62 2.1533e-05 2.2460e-09 -156.19 -156.19 -0.97306 711.47 0.0014055 -156.19 -156.19 -0.97306 1.3382 1.9385 1993.1 -0.0076245 2696.5 0.20058 7.3914e-06 1.3529e+05 365.50 385.59 4.1129 0.77232 0.96087 158.08 3.3927 2.9029 0.0027575
-165.62 2.7666e-05 2.8399e-09 -154.25 -154.25 -0.95494 710.45 0.0014075 -154.25 -154.25 -0.95494 1.3378 1.9398 1986.3 -0.0076165 2566.0 0.20016 9.4084e-06 1.0629e+05 366.27 386.55 4.0746 0.77605 0.96460 158.75 3.3095 2.9304 0.0028108
-164.62 3.5367e-05 3.5729e-09 -152.31 -152.31 -0.93698 709.44 0.0014096 -152.31 -152.31 -0.93698 1.3375 1.9411 1979.4 -0.0076084 2444.9 0.19973 1.1916e-05 83918. 367.05 387.52 4.0372 0.77976 0.96832 159.41 3.2291 2.9579 0.0028643
-163.62 4.4989e-05 4.4731e-09 -150.37 -150.37 -0.91917 708.42 0.0014116 -150.37 -150.37 -0.91917 1.3371 1.9424 1972.6 -0.0076002 2332.3 0.19930 1.5020e-05 66577. 367.83 388.49 4.0008 0.78346 0.97201 160.07 3.1514 2.9854 0.0029182
-162.62 5.6956e-05 5.5735e-09 -148.43 -148.43 -0.90151 707.40 0.0014136 -148.43 -148.43 -0.90151 1.3368 1.9437 1965.8 -0.0075919 2227.7 0.19886 1.8844e-05 53068. 368.62 389.46 3.9651 0.78713 0.97569 160.72 3.0764 3.0129 0.0029723
-161.62 7.1773e-05 6.9125e-09 -146.48 -146.48 -0.88400 706.38 0.0014157 -146.48 -146.48 -0.88400 1.3365 1.9451 1959.0 -0.0075834 2130.2 0.19841 2.3533e-05 42494. 369.41 390.44 3.9304 0.79079 0.97935 161.38 3.0038 3.0404 0.0030268
-160.62 9.0036e-05 8.5348e-09 -144.54 -144.54 -0.86663 705.37 0.0014177 -144.54 -144.54 -0.86663 1.3363 1.9465 1952.1 -0.0075748 2039.2 0.19796 2.9258e-05 34178. 370.20 391.42 3.8964 0.79443 0.98298 162.03 2.9337 3.0679 0.0030815
-159.62 0.00011245 1.0492e-08 -142.59 -142.59 -0.84940 704.35 0.0014197 -142.59 -142.59 -0.84940 1.3360 1.9478 1945.3 -0.0075661 1954.2 0.19751 3.6221e-05 27609. 371.00 392.40 3.8632 0.79805 0.98660 162.68 2.8658 3.0955 0.0031365
-158.62 0.00013985 1.2842e-08 -140.64 -140.64 -0.83231 703.34 0.0014218 -140.64 -140.64 -0.83231 1.3358 1.9492 1938.5 -0.0075573 1874.8 0.19705 4.4652e-05 22395. 371.80 393.39 3.8307 0.80164 0.99020 163.32 2.8002 3.1230 0.0031918
-157.62 0.00017320 1.5655e-08 -138.69 -138.69 -0.81536 702.32 0.0014238 -138.69 -138.69 -0.81536 1.3356 1.9506 1931.7 -0.0075484 1800.3 0.19658 5.4822e-05 18241. 372.60 394.38 3.7990 0.80522 0.99378 163.96 2.7367 3.1505 0.0032474
-156.62 0.00021364 1.9006e-08 -136.74 -136.74 -0.79854 701.31 0.0014259 -136.74 -136.74 -0.79854 1.3354 1.9520 1924.9 -0.0075393 1730.5 0.19611 6.7040e-05 14916. 373.41 395.38 3.7680 0.80878 0.99734 164.60 2.6752 3.1780 0.0033033
-155.62 0.00026248 2.2984e-08 -134.79 -134.79 -0.78185 700.30 0.0014280 -134.79 -134.79 -0.78185 1.3352 1.9534 1918.1 -0.0075302 1664.9 0.19564 8.1666e-05 12245. 374.22 396.38 3.7377 0.81232 1.0009 165.24 2.6157 3.2055 0.0033595
-154.62 0.00032125 2.7688e-08 -132.83 -132.83 -0.76530 699.29 0.0014300 -132.83 -132.83 -0.76530 1.3350 1.9548 1911.3 -0.0075209 1603.3 0.19516 9.9109e-05 10090. 375.03 397.38 3.7081 0.81585 1.0044 165.87 2.5580 3.2330 0.0034160
-153.62 0.00039171 3.3231e-08 -130.88 -130.88 -0.74887 698.27 0.0014321 -130.88 -130.88 -0.74887 1.3349 1.9563 1904.5 -0.0075114 1545.3 0.19468 0.00011984 8344.6 375.85 398.39 3.6792 0.81935 1.0079 166.50 2.5022 3.2606 0.0034727
-152.62 0.00047590 3.9738e-08 -128.92 -128.92 -0.73256 697.26 0.0014342 -128.92 -128.92 -0.73256 1.3348 1.9577 1897.8 -0.0075019 1490.6 0.19419 0.00014439 6925.9 376.67 399.40 3.6509 0.82284 1.0114 167.13 2.4481 3.2881 0.0035298
-151.62 0.00057613 4.7350e-08 -126.96 -126.96 -0.71638 696.25 0.0014363 -126.96 -126.96 -0.71638 1.3346 1.9592 1891.0 -0.0074922 1438.9 0.19370 0.00017336 5768.4 377.49 400.41 3.6232 0.82631 1.0149 167.76 2.3957 3.3156 0.0035872
-150.62 0.00069507 5.6226e-08 -125.00 -125.00 -0.70032 695.24 0.0014384 -125.00 -125.00 -0.70032 1.3345 1.9606 1884.2 -0.0074824 1390.2 0.19320 0.00020744 4820.7 378.32 401.42 3.5962 0.82976 1.0183 168.38 2.3448 3.3431 0.0036448
-149.62 0.00083574 6.6540e-08 -123.04 -123.04 -0.68438 694.23 0.0014404 -123.04 -123.04 -0.68438 1.3345 1.9621 1877.4 -0.0074724 1344.0 0.19270 0.00024740 4042.0 379.15 402.44 3.5697 0.83319 1.0218 169.00 2.2956 3.3706 0.0037027
-148.62 0.0010016 7.8486e-08 -121.08 -121.08 -0.66855 693.22 0.0014425 -121.08 -121.08 -0.66855 1.3344 1.9636 1870.7 -0.0074623 1300.3 0.19220 0.00029412 3400.0 379.99 403.47 3.5438 0.83661 1.0252 169.62 2.2478 3.3982 0.0037610
-147.62 0.0011965 9.2280e-08 -119.11 -119.11 -0.65284 692.21 0.0014447 -119.11 -119.11 -0.65284 1.3343 1.9651 1863.9 -0.0074521 1258.9 0.19169 0.00034856 2869.0 380.83 404.49 3.5185 0.84001 1.0286 170.24 2.2014 3.4257 0.0038195
-146.62 0.0014249 1.0816e-07 -117.15 -117.15 -0.63724 691.20 0.0014468 -117.15 -117.15 -0.63724 1.3343 1.9666 1857.2 -0.0074417 1219.6 0.19117 0.00041181 2428.3 381.67 405.52 3.4938 0.84340 1.0320 170.85 2.1565 3.4532 0.0038783
-145.62 0.0016917 1.2638e-07 -115.18 -115.18 -0.62175 690.19 0.0014489 -115.18 -115.18 -0.62175 1.3343 1.9682 1850.4 -0.0074312 1182.3 0.19066 0.00048510 2061.4 382.51 406.56 3.4695 0.84677 1.0353 171.46 2.1128 3.4807 0.0039374
-144.62 0.0020026 1.4722e-07 -113.21 -113.21 -0.60637 689.18 0.0014510 -113.21 -113.21 -0.60637 1.3343 1.9697 1843.7 -0.0074206 1146.8 0.19014 0.00056976 1755.1 383.36 407.59 3.4458 0.85012 1.0387 172.07 2.0705 3.5082 0.0039967
-143.62 0.0023637 1.7101e-07 -111.24 -111.24 -0.59110 688.17 0.0014531 -111.24 -111.24 -0.59110 1.3343 1.9713 1836.9 -0.0074098 1113.0 0.18962 0.00066731 1498.6 384.21 408.63 3.4226 0.85346 1.0420 172.68 2.0294 3.5358 0.0040564
-142.62 0.0027820 1.9807e-07 -109.27 -109.27 -0.57593 687.16 0.0014553 -109.27 -109.27 -0.57593 1.3343 1.9728 1830.2 -0.0073988 1080.8 0.18909 0.00077939 1283.1 385.07 409.68 3.3999 0.85679 1.0454 173.28 1.9896 3.5633 0.0041164
-141.62 0.0032653 2.2877e-07 -107.30 -107.30 -0.56087 686.15 0.0014574 -107.30 -107.30 -0.56087 1.3343 1.9744 1823.5 -0.0073878 1050.1 0.18856 0.00090784 1101.5 385.93 410.72 3.3777 0.86011 1.0487 173.88 1.9508 3.5908 0.0041766
-140.62 0.0038222 2.6350e-07 -105.32 -105.32 -0.54591 685.14 0.0014596 -105.32 -105.32 -0.54591 1.3344 1.9760 1816.7 -0.0073765 1020.7 0.18803 0.0010547 948.16 386.79 411.77 3.3560 0.86341 1.0520 174.48 1.9133 3.6183 0.0042372
-139.62 0.0044623 3.0270e-07 -103.34 -103.34 -0.53105 684.13 0.0014617 -103.34 -103.34 -0.53105 1.3344 1.9776 1810.0 -0.0073651 992.74 0.18749 0.0012221 818.26 387.65 412.83 3.3347 0.86670 1.0553 175.08 1.8768 3.6459 0.0042980
-138.62 0.0051963 3.4682e-07 -101.37 -101.37 -0.51628 683.12 0.0014639 -101.37 -101.37 -0.51629 1.3345 1.9792 1803.3 -0.0073536 965.97 0.18695 0.0014125 707.94 388.52 413.88 3.3139 0.86998 1.0586 175.67 1.8413 3.6734 0.0043592
-137.62 0.0060358 3.9635e-07 -99.386 -99.386 -0.50162 682.11 0.0014660 -99.386 -99.386 -0.50162 1.3346 1.9808 1796.6 -0.0073419 940.35 0.18641 0.0016287 614.00 389.39 414.94 3.2935 0.87325 1.0619 176.26 1.8069 3.7009 0.0044206
-136.62 0.0069938 4.5182e-07 -97.404 -97.404 -0.48705 681.10 0.0014682 -97.404 -97.404 -0.48705 1.3347 1.9825 1789.9 -0.0073301 915.81 0.18586 0.0018733 533.80 390.26 416.00 3.2735 0.87650 1.0651 176.85 1.7734 3.7284 0.0044823
-135.62 0.0080843 5.1380e-07 -95.421 -95.421 -0.47258 680.09 0.0014704 -95.421 -95.421 -0.47258 1.3348 1.9841 1783.2 -0.0073180 892.30 0.18531 0.0021497 465.17 391.14 417.07 3.2540 0.87975 1.0684 177.44 1.7409 3.7559 0.0045443
-134.62 0.0093230 5.8287e-07 -93.436 -93.436 -0.45820 679.08 0.0014726 -93.436 -93.436 -0.45820 1.3350 1.9858 1776.5 -0.0073059 869.75 0.18476 0.0024613 406.30 392.02 418.14 3.2348 0.88299 1.0716 178.02 1.7093 3.7834 0.0046066
-133.62 0.010727 6.5967e-07 -91.449 -91.449 -0.44391 678.07 0.0014748 -91.450 -91.449 -0.44391 1.3351 1.9875 1769.8 -0.0072935 848.11 0.18421 0.0028116 355.67 392.91 419.21 3.2161 0.88622 1.0749 178.61 1.6786 3.8109 0.0046691
-132.62 0.012315 7.4487e-07 -89.461 -89.461 -0.42971 677.06 0.0014770 -89.461 -89.461 -0.42971 1.3353 1.9892 1763.1 -0.0072810 827.32 0.18365 0.0032049 312.03 393.79 420.29 3.1977 0.88944 1.0781 179.19 1.6488 3.8385 0.0047320
-131.62 0.014106 8.3917e-07 -87.471 -87.471 -0.41559 676.04 0.0014792 -87.471 -87.471 -0.41560 1.3354 1.9909 1756.4 -0.0072684 807.34 0.18309 0.0036453 274.33 394.68 421.36 3.1798 0.89266 1.0813 179.76 1.6197 3.8660 0.0047951
-130.62 0.016124 9.4333e-07 -85.479 -85.479 -0.40157 675.03 0.0014814 -85.479 -85.479 -0.40157 1.3356 1.9926 1749.7 -0.0072555 788.12 0.18253 0.0041375 241.69 395.58 422.44 3.1622 0.89586 1.0846 180.34 1.5915 3.8935 0.0048586
-129.62 0.018392 1.0581e-06 -83.485 -83.485 -0.38763 674.02 0.0014836 -83.486 -83.486 -0.38763 1.3358 1.9944 1743.0 -0.0072425 769.63 0.18196 0.0046867 213.37 396.47 423.53 3.1450 0.89906 1.0878 180.91 1.5641 3.9210 0.0049223
-128.62 0.020935 1.1843e-06 -81.490 -81.490 -0.37378 673.01 0.0014859 -81.491 -81.490 -0.37378 1.3360 1.9961 1736.3 -0.0072294 751.83 0.18140 0.0052981 188.75 397.37 424.62 3.1281 0.90226 1.0910 181.48 1.5374 3.9485 0.0049863
-127.62 0.023783 1.3228e-06 -79.493 -79.493 -0.36001 672.00 0.0014881 -79.494 -79.493 -0.36001 1.3363 1.9979 1729.6 -0.0072160 734.67 0.18083 0.0059776 167.29 398.27 425.71 3.1116 0.90545 1.0942 182.05 1.5114 3.9760 0.0050506
-126.62 0.026966 1.4745e-06 -77.494 -77.494 -0.34632 670.98 0.0014904 -77.495 -77.495 -0.34632 1.3365 1.9997 1722.9 -0.0072025 718.14 0.18025 0.0067313 148.56 399.18 426.80 3.0954 0.90863 1.0974 182.62 1.4861 4.0035 0.0051152
-125.62 0.030515 1.6403e-06 -75.493 -75.493 -0.33271 669.97 0.0014926 -75.494 -75.494 -0.33272 1.3368 2.0015 1716.2 -0.0071888 702.18 0.17968 0.0075660 132.17 400.09 427.89 3.0795 0.91181 1.1006 183.18 1.4615 4.0310 0.0051800
-124.62 0.034467 1.8211e-06 -73.491 -73.491 -0.31918 668.95 0.0014949 -73.492 -73.492 -0.31919 1.3371 2.0033 1709.5 -0.0071749 686.79 0.17910 0.0084885 117.81 401.00 428.99 3.0640 0.91499 1.1038 183.74 1.4375 4.0584 0.0052452
-123.62 0.038859 2.0179e-06 -71.487 -71.486 -0.30573 667.94 0.0014971 -71.488 -71.487 -0.30574 1.3374 2.0051 1702.8 -0.0071609 671.93 0.17852 0.0095065 105.19 401.91 430.10 3.0488 0.91816 1.1070 184.30 1.4141 4.0859 0.0053106
-122.62 0.043731 2.2317e-06 -69.481 -69.480 -0.29236 666.92 0.0014994 -69.482 -69.481 -0.29237 1.3377 2.0070 1696.2 -0.0071466 657.57 0.17794 0.010628 94.092 402.83 431.20 3.0339 0.92134 1.1102 184.86 1.3913 4.1134 0.0053764
-121.62 0.049128 2.4635e-06 -67.473 -67.472 -0.27906 665.91 0.0015017 -67.474 -67.473 -0.27907 1.3380 2.0089 1689.5 -0.0071322 643.70 0.17736 0.011861 84.309 403.75 432.31 3.0193 0.92451 1.1134 185.41 1.3691 4.1409 0.0054424
-120.62 0.055096 2.7145e-06 -65.463 -65.462 -0.26584 664.89 0.0015040 -65.464 -65.463 -0.26585 1.3384 2.0107 1682.8 -0.0071176 630.28 0.17678 0.013215 75.669 404.67 433.42 3.0050 0.92767 1.1166 185.96 1.3475 4.1683 0.0055087
-119.62 0.061684 2.9855e-06 -63.451 -63.450 -0.25270 663.87 0.0015063 -63.452 -63.452 -0.25271 1.3387 2.0126 1676.1 -0.0071028 617.30 0.17619 0.014700 68.027 405.60 434.53 2.9909 0.93084 1.1198 186.51 1.3264 4.1958 0.0055752
-118.62 0.068946 3.2778e-06 -61.437 -61.436 -0.23962 662.86 0.0015086 -61.439 -61.438 -0.23963 1.3391 2.0146 1669.4 -0.0070878 604.74 0.17560 0.016325 61.255 406.53 435.64 2.9772 0.93401 1.1231 187.06 1.3058 4.2233 0.0056421
-117.62 0.076937 3.5925e-06 -59.421 -59.421 -0.22662 661.84 0.0015109 -59.423 -59.422 -0.22663 1.3395 2.0165 1662.8 -0.0070726 592.58 0.17501 0.018101 55.245 407.46 436.76 2.9638 0.93718 1.1263 187.60 1.2857 4.2507 0.0057092
-116.62 0.085718 3.9305e-06 -57.404 -57.403 -0.21369 660.82 0.0015133 -57.406 -57.405 -0.21370 1.3400 2.0184 1656.1 -0.0070573 580.80 0.17442 0.020040 49.901 408.39 437.88 2.9506 0.94035 1.1295 188.14 1.2660 4.2782 0.0057767
-115.62 0.095353 4.2930e-06 -55.384 -55.383 -0.20083 659.80 0.0015156 -55.386 -55.385 -0.20084 1.3404 2.0204 1649.4 -0.0070417 569.38 0.17383 0.022152 45.142 409.33 439.01 2.9377 0.94352 1.1327 188.68 1.2468 4.3056 0.0058444
-114.62 0.10591 4.6811e-06 -53.363 -53.362 -0.18804 658.78 0.0015180 -53.365 -53.364 -0.18805 1.3409 2.0224 1642.7 -0.0070260 558.32 0.17323 0.024451 40.898 410.27 440.13 2.9250 0.94669 1.1360 189.22 1.2281 4.3330 0.0059123
-113.62 0.11746 5.0959e-06 -51.339 -51.338 -0.17531 657.76 0.0015203 -51.342 -51.340 -0.17533 1.3413 2.0244 1636.0 -0.0070100 547.59 0.17264 0.026949 37.107 411.21 441.26 2.9126 0.94987 1.1392 189.75 1.2097 4.3604 0.0059806
-112.62 0.13008 5.5384e-06 -49.314 -49.312 -0.16265 656.73 0.0015227 -49.316 -49.315 -0.16267 1.3418 2.0264 1629.3 -0.0069938 537.18 0.17204 0.029661 33.715 412.16 442.39 2.9005 0.95305 1.1424 190.28 1.1918 4.3879 0.0060491
-111.62 0.14384 6.0097e-06 -47.286 -47.284 -0.15006 655.71 0.0015251 -47.289 -47.287 -0.15008 1.3424 2.0285 1622.7 -0.0069774 527.08 0.17144 0.032600 30.675 413.10 443.53 2.8885 0.95623 1.1457 190.81 1.1742 4.4153 0.0061180
-110.62 0.15884 6.5108e-06 -45.256 -45.254 -0.13753 654.69 0.0015274 -45.259 -45.258 -0.13755 1.3429 2.0305 1616.0 -0.0069609 517.28 0.17084 0.035781 27.948 414.06 444.66 2.8769 0.95942 1.1490 191.34 1.1570 4.4427 0.0061871
-109.62 0.17516 7.0427e-06 -43.225 -43.222 -0.12507 653.66 0.0015298 -43.228 -43.226 -0.12509 1.3435 2.0326 1609.3 -0.0069441 507.76 0.17024 0.039220 25.497 415.01 445.80 2.8654 0.96261 1.1522 191.86 1.1402 4.4701 0.0062564
-108.62 0.19290 7.6062e-06 -41.191 -41.188 -0.11267 652.64 0.0015322 -41.194 -41.192 -0.11269 1.3441 2.0347 1602.6 -0.0069271 498.51 0.16964 0.042933 23.292 415.96 446.94 2.8542 0.96581 1.1555 192.38 1.1236 4.4974 0.0063261
-107.62 0.21215 8.2023e-06 -39.155 -39.152 -0.10033 651.61 0.0015347 -39.158 -39.156 -0.10036 1.3447 2.0369 1595.9 -0.0069098 489.52 0.16903 0.046937 21.305 416.92 448.09 2.8433 0.96901 1.1588 192.90 1.1075 4.5248 0.0063960
-106.62 0.23301 8.8318e-06 -37.116 -37.114 -0.088057 650.58 0.0015371 -37.120 -37.118 -0.088082 1.3453 2.0390 1589.2 -0.0068924 480.79 0.16843 0.051250 19.512 417.88 449.23 2.8325 0.97222 1.1621 193.41 1.0916 4.5522 0.0064662
-105.62 0.25561 9.4955e-06 -35.076 -35.073 -0.075841 649.55 0.0015395 -35.080 -35.078 -0.075868 1.3460 2.0412 1582.6 -0.0068747 472.30 0.16782 0.055891 17.892 418.85 450.38 2.8220 0.97544 1.1655 193.93 1.0760 4.5795 0.0065367
-104.62 0.28004 1.0194e-05 -33.034 -33.030 -0.063685 648.52 0.0015420 -33.038 -33.035 -0.063714 1.3467 2.0434 1575.9 -0.0068569 464.04 0.16721 0.060878 16.426 419.81 451.53 2.8116 0.97867 1.1688 194.44 1.0608 4.6069 0.0066074
-103.62 0.30643 1.0928e-05 -30.989 -30.985 -0.051588 647.49 0.0015444 -30.994 -30.991 -0.051619 1.3474 2.0456 1569.2 -0.0068387 456.00 0.16660 0.066231 15.099 420.78 452.68 2.8015 0.98191 1.1722 194.94 1.0458 4.6342 0.0066785
-102.62 0.33490 1.1698e-05 -28.942 -28.938 -0.039549 646.46 0.0015469 -28.947 -28.944 -0.039582 1.3481 2.0478 1562.5 -0.0068204 448.18 0.16600 0.071971 13.894 421.75 453.84 2.7916 0.98516 1.1755 195.44 1.0310 4.6615 0.0067498
-101.62 0.36558 1.2503e-05 -26.893 -26.888 -0.027567 645.43 0.0015494 -26.898 -26.894 -0.027602 1.3489 2.0501 1555.8 -0.0068018 440.57 0.16539 0.078120 12.801 422.73 454.99 2.7818 0.98841 1.1789 195.95 1.0166 4.6888 0.0068213
-100.62 0.39862 1.3346e-05 -24.841 -24.837 -0.015641 644.39 0.0015519 -24.847 -24.843 -0.015678 1.3497 2.0524 1549.1 -0.0067830 433.16 0.16478 0.084699 11.807 423.70 456.15 2.7723 0.99168 1.1823 196.44 1.0024 4.7161 0.0068932
-99.625 0.43414 1.4225e-05 -22.787 -22.782 -0.0037709 643.36 0.0015544 -22.794 -22.789 -0.0038103 1.3505 2.0547 1542.4 -0.0067639 425.95 0.16416 0.091731 10.901 424.68 457.31 2.7630 0.99496 1.1858 196.94 0.98838 4.7434 0.0069653
-98.625 0.47230 1.5141e-05 -20.731 -20.726 0.0080443 642.32 0.0015569 -20.738 -20.733 0.0080027 1.3514 2.0570 1535.7 -0.0067447 418.92 0.16355 0.099240 10.077 425.66 458.48 2.7538 0.99825 1.1892 197.43 0.97464 4.7707 0.0070377
-97.625 0.51325 1.6093e-05 -18.673 -18.667 0.019805 641.28 0.0015594 -18.680 -18.674 0.019762 1.3522 2.0594 1529.0 -0.0067251 412.07 0.16294 0.10725 9.3239 426.65 459.64 2.7448 1.0016 1.1927 197.92 0.96112 4.7979 0.0071103
-96.625 0.55714 1.7081e-05 -16.612 -16.605 0.031513 640.24 0.0015619 -16.620 -16.614 0.031467 1.3531 2.0618 1522.3 -0.0067053 405.39 0.16233 0.11579 8.6365 427.63 460.81 2.7360 1.0049 1.1962 198.40 0.94783 4.8251 0.0071832
-95.625 0.60416 1.8104e-05 -14.549 -14.542 0.043169 639.20 0.0015645 -14.557 -14.550 0.043120 1.3540 2.0642 1515.7 -0.0066853 398.88 0.16171 0.12488 8.0078 428.62 461.98 2.7274 1.0082 1.1997 198.88 0.93475 4.8524 0.0072564
-94.625 0.65446 1.9163e-05 -12.483 -12.475 0.054772 638.16 0.0015670 -12.491 -12.484 0.054721 1.3550 2.0667 1509.0 -0.0066650 392.53 0.16110 0.13455 7.4323 429.61 463.15 2.7189 1.0116 1.2032 199.36 0.92188 4.8796 0.0073299
-93.625 0.70822 2.0255e-05 -10.415 -10.406 0.066325 637.12 0.0015696 -10.424 -10.416 0.066271 1.3560 2.0691 1502.3 -0.0066444 386.34 0.16048 0.14482 6.9050 430.60 464.32 2.7107 1.0149 1.2068 199.83 0.90921 4.9068 0.0074036
-92.625 0.76564 2.1380e-05 -8.3441 -8.3351 0.077827 636.07 0.0015722 -8.3535 -8.3452 0.077771 1.3570 2.0716 1495.6 -0.0066236 380.31 0.15987 0.15573 6.4212 431.60 465.49 2.7025 1.0183 1.2104 200.30 0.89673 4.9340 0.0074776
-91.625 0.82689 2.2536e-05 -6.2710 -6.2612 0.089279 635.02 0.0015747 -6.2808 -6.2719 0.089220 1.3580 2.0742 1488.9 -0.0066025 374.41 0.15925 0.16731 5.9769 432.59 466.67 2.6946 1.0217 1.2140 200.77 0.88445 4.9611 0.0075518
-90.625 0.89218 2.3722e-05 -4.1952 -4.1847 0.10068 633.98 0.0015773 -4.2056 -4.1959 0.10062 1.3591 2.0767 1482.2 -0.0065811 368.66 0.15864 0.17958 5.5685 433.59 467.84 2.6868 1.0251 1.2177 201.24 0.87236 4.9883 0.0076263
-89.625 0.96172 2.4935e-05 -2.1170 -2.1056 0.11204 632.93 0.0015800 -2.1279 -2.1174 0.11197 1.3602 2.0793 1475.5 -0.0065595 363.05 0.15802 0.19258 5.1928 434.59 469.02 2.6791 1.0285 1.2213 201.70 0.86045 5.0154 0.0077011
-88.625 1.0357 2.6175e-05 -0.036114 -0.023907 0.12335 631.88 0.0015826 -0.047516 -0.036215 0.12328 1.3613 2.0819 1468.8 -0.0065375 357.56 0.15740 0.20633 4.8466 435.59 470.20 2.6717 1.0320 1.2250 202.15 0.84873 5.0425 0.0077761
-87.625 1.1144 2.7437e-05 2.0474 2.0605 0.13461 630.83 0.0015852 2.0355 2.0476 0.13454 1.3625 2.0846 1462.1 -0.0065153 352.21 0.15679 0.22087 4.5276 436.60 471.39 2.6643 1.0354 1.2288 202.61 0.83718 5.0696 0.0078514
-86.625 1.1979 2.8720e-05 4.1335 4.1476 0.14582 629.77 0.0015879 4.1211 4.1342 0.14575 1.3637 2.0873 1455.4 -0.0064928 346.98 0.15617 0.23623 4.2331 437.61 472.57 2.6571 1.0389 1.2325 203.06 0.82580 5.0967 0.0079270
-85.625 1.2866 3.0020e-05 6.2223 6.2375 0.15699 628.72 0.0015905 6.2094 6.2235 0.15691 1.3649 2.0900 1448.8 -0.0064701 341.87 0.15555 0.25245 3.9612 438.61 473.75 2.6501 1.0424 1.2363 203.50 0.81460 5.1237 0.0080028
-84.625 1.3806 3.1333e-05 8.3139 8.3301 0.16811 627.66 0.0015932 8.3004 8.3155 0.16803 1.3661 2.0927 1442.1 -0.0064470 336.87 0.15494 0.26956 3.7097 439.63 474.94 2.6432 1.0460 1.2402 203.95 0.80356 5.1508 0.0080789
-83.625 1.4803 3.2657e-05 10.408 10.426 0.17919 626.60 0.0015959 10.394 10.410 0.17911 1.3674 2.0955 1435.4 -0.0064236 331.99 0.15432 0.28760 3.4771 440.64 476.13 2.6364 1.0495 1.2440 204.38 0.79269 5.1778 0.0081553
-82.625 1.5858 3.3986e-05 12.505 12.524 0.19023 625.54 0.0015986 12.491 12.508 0.19014 1.3687 2.0983 1428.7 -0.0063999 327.22 0.15370 0.30659 3.2616 441.65 477.31 2.6298 1.0531 1.2479 204.82 0.78199 5.2048 0.0082319
-81.625 1.6975 3.5316e-05 14.605 14.625 0.20122 624.48 0.0016013 14.590 14.609 0.20113 1.3700 2.1012 1422.0 -0.0063759 322.55 0.15309 0.32659 3.0619 442.67 478.50 2.6233 1.0567 1.2519 205.25 0.77144 5.2318 0.0083088
-80.625 1.8155 3.6643e-05 16.708 16.729 0.21217 623.42 0.0016041 16.692 16.712 0.21208 1.3714 2.1041 1415.4 -0.0063516 317.99 0.15247 0.34763 2.8766 443.69 479.70 2.6169 1.0603 1.2558 205.67 0.76106 5.2587 0.0083860
-79.625 1.9402 3.7960e-05 18.813 18.836 0.22308 622.36 0.0016068 18.797 18.819 0.22299 1.3728 2.1070 1408.7 -0.0063270 313.52 0.15186 0.36974 2.7046 444.71 480.89 2.6106 1.0639 1.2598 206.10 0.75083 5.2857 0.0084634
-78.625 2.0718 3.9261e-05 20.922 20.946 0.23394 621.29 0.0016096 20.905 20.928 0.23385 1.3742 2.1099 1402.0 -0.0063021 309.15 0.15124 0.39296 2.5448 445.73 482.08 2.6045 1.0676 1.2639 206.51 0.74076 5.3126 0.0085411
-77.625 2.2107 4.0542e-05 23.033 23.059 0.24477 620.22 0.0016123 23.016 23.040 0.24468 1.3757 2.1129 1395.3 -0.0062768 304.88 0.15062 0.41735 2.3961 446.75 483.27 2.5985 1.0712 1.2680 206.93 0.73084 5.3395 0.0086190
-76.625 2.3571 4.1793e-05 25.147 25.175 0.25556 619.15 0.0016151 25.130 25.156 0.25546 1.3772 2.1159 1388.7 -0.0062512 300.69 0.15001 0.44292 2.2577 447.78 484.47 2.5926 1.0749 1.2721 207.34 0.72107 5.3664 0.0086972
-75.625 2.5113 4.3009e-05 27.265 27.294 0.26630 618.08 0.0016179 27.247 27.275 0.26620 1.3787 2.1190 1382.0 -0.0062253 296.59 0.14939 0.46974 2.1288 448.81 485.67 2.5869 1.0787 1.2762 207.74 0.71146 5.3933 0.0087757
-74.625 2.6736 4.4181e-05 29.385 29.416 0.27701 617.01 0.0016207 29.366 29.396 0.27691 1.3802 2.1221 1375.4 -0.0061990 292.58 0.14878 0.49783 2.0087 449.83 486.86 2.5812 1.0824 1.2804 208.14 0.70200 5.4201 0.0088544
-73.625 2.8444 4.5301e-05 31.508 31.542 0.28768 615.93 0.0016236 31.489 31.521 0.28758 1.3818 2.1252 1368.7 -0.0061724 288.65 0.14816 0.52725 1.8966 450.86 488.06 2.5757 1.0862 1.2847 208.54 0.69268 5.4469 0.0089334
-72.625 3.0240 4.6360e-05 33.635 33.670 0.29831 614.85 0.0016264 33.615 33.649 0.29821 1.3834 2.1284 1362.0 -0.0061454 284.81 0.14755 0.55804 1.7920 451.90 489.26 2.5703 1.0900 1.2889 208.93 0.68351 5.4737 0.0090126
-71.625 3.2127 4.7349e-05 35.764 35.802 0.30890 613.78 0.0016293 35.745 35.781 0.30880 1.3851 2.1316 1355.4 -0.0061181 281.03 0.14694 0.59024 1.6942 452.93 490.46 2.5650 1.0938 1.2932 209.32 0.67448 5.5005 0.0090922
-70.625 3.4108 4.8256e-05 37.897 37.937 0.31946 612.69 0.0016321 37.877 37.915 0.31935 1.3867 2.1349 1348.7 -0.0060904 277.34 0.14632 0.62390 1.6028 453.96 491.66 2.5598 1.0976 1.2976 209.70 0.66560 5.5273 0.0091720
-69.625 3.6187 4.9071e-05 40.033 40.076 0.32998 611.61 0.0016350 40.013 40.053 0.32987 1.3884 2.1382 1342.1 -0.0060624 273.72 0.14571 0.65906 1.5173 455.00 492.86 2.5547 1.1015 1.3020 210.08 0.65687 5.5540 0.0092520
-68.625 3.8367 4.9784e-05 42.172 42.217 0.34047 610.53 0.0016379 42.152 42.195 0.34036 1.3902 2.1415 1335.5 -0.0060339 270.17 0.14510 0.69577 1.4372 456.04 494.06 2.5497 1.1054 1.3064 210.45 0.64827 5.5807 0.0093324
-67.625 4.0652 5.0381e-05 44.314 44.362 0.35092 609.44 0.0016409 44.294 44.340 0.35080 1.3919 2.1449 1328.8 -0.0060051 266.69 0.14449 0.73408 1.3622 457.08 495.26 2.5448 1.1093 1.3109 210.82 0.63981 5.6074 0.0094130
-66.625 4.3046 5.0850e-05 46.460 46.511 0.36133 608.35 0.0016438 46.439 46.488 0.36122 1.3937 2.1483 1322.2 -0.0059760 263.28 0.14388 0.77404 1.2919 458.12 496.46 2.5400 1.1133 1.3154 211.18 0.63150 5.6341 0.0094939
-65.625 4.5551 5.1177e-05 48.609 48.663 0.37171 607.26 0.0016467 48.588 48.640 0.37160 1.3955 2.1518 1315.6 -0.0059464 259.93 0.14327 0.81570 1.2259 459.16 497.67 2.5353 1.1172 1.3200 211.54 0.62332 5.6608 0.0095750
-64.625 4.8173 5.1347e-05 50.761 50.818 0.38206 606.16 0.0016497 50.740 50.795 0.38195 1.3974 2.1553 1308.9 -0.0059164 256.65 0.14266 0.85910 1.1640 460.21 498.87 2.5307 1.1212 1.3246 211.89 0.61527 5.6874 0.0096564
-63.625 5.0915 5.1347e-05 52.917 52.977 0.39237 605.07 0.0016527 52.896 52.954 0.39226 1.3993 2.1588 1302.3 -0.0058861 253.42 0.14205 0.90429 1.1058 461.25 500.07 2.5262 1.1252 1.3293 212.24 0.60736 5.7140 0.0097382
-62.625 5.3781 5.1159e-05 55.076 55.140 0.40265 603.97 0.0016557 55.055 55.117 0.40254 1.4012 2.1624 1295.7 -0.0058553 250.26 0.14144 0.95134 1.0511 462.30 501.28 2.5218 1.1293 1.3340 212.58 0.59958 5.7406 0.0098201
-61.625 5.6774 5.0768e-05 57.239 57.306 0.41290 602.87 0.0016587 57.218 57.283 0.41279 1.4031 2.1660 1289.1 -0.0058241 247.16 0.14084 1.0003 0.99972 463.35 502.48 2.5175 1.1333 1.3387 212.92 0.59194 5.7672 0.0099024
-60.625 5.9899 5.0155e-05 59.405 59.475 0.42311 601.77 0.0016618 59.385 59.453 0.42301 1.4051 2.1697 1282.5 -0.0057925 244.12 0.14023 1.0512 0.95131 464.40 503.68 2.5133 1.1374 1.3435 213.26 0.58442 5.7938 0.0099850
-59.625 6.3160 4.9302e-05 61.574 61.649 0.43330 600.66 0.0016648 61.554 61.627 0.43320 1.4071 2.1734 1275.9 -0.0057605 241.13 0.13962 1.1041 0.90573 465.45 504.89 2.5091 1.1415 1.3483 213.58 0.57704 5.8203 0.010068
-58.625 6.6561 4.8190e-05 63.748 63.826 0.44345 599.55 0.0016679 63.728 63.805 0.44335 1.4091 2.1772 1269.3 -0.0057280 238.19 0.13902 1.1591 0.86277 466.50 506.09 2.5051 1.1457 1.3532 213.90 0.56978 5.8468 0.010151
-57.625 7.0107 4.6799e-05 65.924 66.007 0.45357 598.44 0.0016710 65.905 65.986 0.45348 1.4111 2.1810 1262.7 -0.0056951 235.31 0.13842 1.2161 0.82228 467.55 507.30 2.5011 1.1498 1.3581 214.22 0.56265 5.8733 0.010234
-56.625 7.3801 4.5106e-05 68.105 68.191 0.46367 597.33 0.0016741 68.086 68.172 0.46358 1.4132 2.1848 1256.1 -0.0056617 232.48 0.13781 1.2754 0.78408 468.60 508.50 2.4972 1.1540 1.3631 214.53 0.55564 5.8998 0.010318
-55.625 7.7648 4.3091e-05 70.288 70.380 0.47373 596.22 0.0016772 70.271 70.361 0.47364 1.4153 2.1887 1249.5 -0.0056279 229.69 0.13721 1.3369 0.74802 469.66 509.71 2.4934 1.1582 1.3681 214.84 0.54875 5.9263 0.010402
-54.625 8.1652 4.0730e-05 72.476 72.572 0.48376 595.10 0.0016804 72.460 72.554 0.48368 1.4174 2.1927 1242.9 -0.0055937 226.96 0.13661 1.4006 0.71396 470.72 510.91 2.4897 1.1624 1.3731 215.14 0.54199 5.9527 0.010486
-53.625 8.5819 3.7998e-05 74.667 74.769 0.49377 593.98 0.0016836 74.652 74.752 0.49369 1.4196 2.1967 1236.3 -0.0055589 224.27 0.13601 1.4667 0.68178 471.77 512.11 2.4860 1.1667 1.3782 215.43 0.53535 5.9792 0.010571
-52.625 9.0151 3.4869e-05 76.863 76.969 0.50375 592.86 0.0016867 76.849 76.954 0.50368 1.4218 2.2007 1229.8 -0.0055237 221.63 0.13541 1.5353 0.65136 472.83 513.32 2.4824 1.1710 1.3834 215.72 0.52882 6.0056 0.010656
-51.625 9.4655 3.1319e-05 79.061 79.173 0.51369 591.73 0.0016900 79.049 79.159 0.51363 1.4240 2.2048 1223.2 -0.0054880 219.04 0.13482 1.6062 0.62258 473.89 514.52 2.4789 1.1752 1.3886 216.00 0.52241 6.0320 0.010741
-50.625 9.9335 2.7318e-05 81.264 81.381 0.52362 590.60 0.0016932 81.253 81.369 0.52356 1.4262 2.2089 1216.6 -0.0054519 216.48 0.13422 1.6797 0.59534 474.95 515.73 2.4755 1.1796 1.3938 216.28 0.51612 6.0584 0.010827
-49.625 10.419 2.2838e-05 83.471 83.593 0.53351 589.47 0.0016964 83.462 83.584 0.53347 1.4285 2.2131 1210.1 -0.0054152 213.98 0.13363 1.7558 0.56954 476.01 516.93 2.4722 1.1839 1.3991 216.55 0.50994 6.0848 0.010913
-48.625 10.924 1.7849e-05 85.681 85.810 0.54338 588.34 0.0016997 85.674 85.802 0.54334 1.4308 2.2173 1203.5 -0.0053780 211.51 0.13303 1.8345 0.54510 477.07 518.13 2.4689 1.1883 1.4044 216.82 0.50387 6.1112 0.010999
-47.625 11.448 1.2319e-05 87.895 88.030 0.55322 587.20 0.0017030 87.891 88.025 0.55319 1.4331 2.2216 1196.9 -0.0053403 209.08 0.13244 1.9159 0.52194 478.14 519.33 2.4657 1.1927 1.4098 217.08 0.49792 6.1375 0.011085
-46.625 11.991 6.2161e-06 90.114 90.255 0.56303 586.06 0.0017063 90.111 90.252 0.56302 1.4354 2.2259 1190.4 -0.0053020 206.69 0.13185 2.0001 0.49997 479.20 520.53 2.4625 1.1971 1.4153 217.33 0.49207 6.1639 0.011172
-45.625 23.141 undefined 92.280 92.553 0.57258 585.00 0.0017094 92.280 92.553 0.57258 1.4378 2.2299 1184.5 -0.0052674 204.49 0.13131 585.00 0.0017094 92.280 92.553 0.57258 1.4378 2.2299 1184.5 -0.0052674 204.49 0.13131
-44.625 173.62 undefined 93.720 95.766 0.57889 585.00 0.0017094 93.720 95.766 0.57889 1.4412 2.2290 1187.2 -0.0052872 204.33 0.13143 585.00 0.0017094 93.720 95.766 0.57889 1.4412 2.2290 1187.2 -0.0052872 204.33 0.13143
-43.625 323.91 undefined 95.163 98.980 0.58519 585.00 0.0017094 95.163 98.980 0.58519 1.4446 2.2282 1189.8 -0.0053065 204.16 0.13156 585.00 0.0017094 95.163 98.980 0.58519 1.4446 2.2282 1189.8 -0.0053065 204.16 0.13156
-42.625 474.01 undefined 96.609 102.20 0.59148 585.00 0.0017094 96.609 102.20 0.59148 1.4480 2.2274 1192.5 -0.0053252 204.00 0.13169 585.00 0.0017094 96.609 102.20 0.59148 1.4480 2.2274 1192.5 -0.0053252 204.00 0.13169
-41.625 623.92 undefined 98.059 105.41 0.59775 585.00 0.0017094 98.059 105.41 0.59775 1.4514 2.2268 1195.1 -0.0053435 203.84 0.13182 585.00 0.0017094 98.059 105.41 0.59775 1.4514 2.2268 1195.1 -0.0053435 203.84 0.13182
-40.625 773.64 undefined 99.512 108.63 0.60401 585.00 0.0017094 99.512 108.63 0.60401 1.4548 2.2262 1197.7 -0.0053612 203.69 0.13195 585.00 0.0017094 99.512 108.63 0.60401 1.4548 2.2262 1197.7 -0.0053612 203.69 0.13195
-39.625 923.18 undefined 100.97 111.85 0.61027 585.00 0.0017094 100.97 111.85 0.61027 1.4583 2.2257 1200.3 -0.0053784 203.53 0.13208 585.00 0.0017094 100.97 111.85 0.61027 1.4583 2.2257 1200.3 -0.0053784 203.53 0.13208
-38.625 1072.5 undefined 102.43 115.07 0.61650 585.00 0.0017094 102.43 115.07 0.61650 1.4617 2.2253 1202.9 -0.0053952 203.38 0.13221 585.00 0.0017094 102.43 115.07 0.61650 1.4617 2.2253 1202.9 -0.0053952 203.38 0.13221
-37.625 1221.7 undefined 103.89 118.29 0.62273 585.00 0.0017094 103.89 118.29 0.62273 1.4652 2.2250 1205.4 -0.0054115 203.22 0.13234 585.00 0.0017094 103.89 118.29 0.62273 1.4652 2.2250 1205.4 -0.0054115 203.22 0.13234
-36.625 1370.7 undefined 105.36 121.51 0.62895 585.00 0.0017094 105.36 121.51 0.62895 1.4687 2.2247 1208.0 -0.0054274 203.07 0.13247 585.00 0.0017094 105.36 121.51 0.62895 1.4687 2.2247 1208.0 -0.0054274 203.07 0.13247
-35.625 1519.5 undefined 106.83 124.74 0.63515 585.00 0.0017094 106.83 124.74 0.63515 1.4722 2.2245 1210.5 -0.0054428 202.92 0.13260 585.00 0.0017094 106.83 124.74 0.63515 1.4722 2.2245 1210.5 -0.0054428 202.92 0.13260
-34.625 1668.1 undefined 108.30 127.96 0.64134 585.00 0.0017094 108.30 127.96 0.64134 1.4757 2.2244 1213.0 -0.0054578 202.78 0.13273 585.00 0.0017094 108.30 127.96 0.64134 1.4757 2.2244 1213.0 -0.0054578 202.78 0.13273
-33.625 1816.5 undefined 109.78 131.19 0.64752 585.00 0.0017094 109.78 131.19 0.64752 1.4792 2.2243 1215.4 -0.0054723 202.63 0.13286 585.00 0.0017094 109.78 131.19 0.64752 1.4792 2.2243 1215.4 -0.0054723 202.63 0.13286
-32.625 1964.7 undefined 111.26 134.42 0.65369 585.00 0.0017094 111.26 134.42 0.65369 1.4828 2.2244 1217.9 -0.0054865 202.49 0.13299 585.00 0.0017094 111.26 134.42 0.65369 1.4828 2.2244 1217.9 -0.0054865 202.49 0.13299
-31.625 2112.8 undefined 112.75 137.65 0.65985 585.00 0.0017094 112.75 137.65 0.65985 1.4863 2.2244 1220.3 -0.0055002 202.34 0.13312 585.00 0.0017094 112.75 137.65 0.65985 1.4863 2.2244 1220.3 -0.0055002 202.34 0.13312
-30.625 2260.6 undefined 114.23 140.88 0.66600 585.00 0.0017094 114.23 140.88 0.66600 1.4899 2.2246 1222.7 -0.0055135 202.20 0.13326 585.00 0.0017094 114.23 140.88 0.66600 1.4899 2.2246 1222.7 -0.0055135 202.20 0.13326
-29.625 2408.3 undefined 115.73 144.11 0.67214 585.00 0.0017094 115.73 144.11 0.67214 1.4935 2.2248 1225.1 -0.0055265 202.07 0.13339 585.00 0.0017094 115.73 144.11 0.67214 1.4935 2.2248 1225.1 -0.0055265 202.07 0.13339
-28.625 2555.8 undefined 117.22 147.34 0.67827 585.00 0.0017094 117.22 147.34 0.67827 1.4971 2.2251 1227.5 -0.0055391 201.93 0.13352 585.00 0.0017094 117.22 147.34 0.67827 1.4971 2.2251 1227.5 -0.0055391 201.93 0.13352
-27.625 2703.1 undefined 118.72 150.58 0.68438 585.00 0.0017094 118.72 150.58 0.68438 1.5007 2.2254 1229.9 -0.0055513 201.79 0.13365 585.00 0.0017094 118.72 150.58 0.68438 1.5007 2.2254 1229.9 -0.0055513 201.79 0.13365
-26.625 2850.3 undefined 120.22 153.82 0.69049 585.00 0.0017094 120.22 153.82 0.69049 1.5043 2.2258 1232.2 -0.0055631 201.66 0.13379 585.00 0.0017094 120.22 153.82 0.69049 1.5043 2.2258 1232.2 -0.0055631 201.66 0.13379
-25.625 2997.2 undefined 121.73 157.05 0.69659 585.00 0.0017094 121.73 157.05 0.69659 1.5080 2.2263 1234.5 -0.0055746 201.53 0.13392 585.00 0.0017094 121.73 157.05 0.69659 1.5080 2.2263 1234.5 -0.0055746 201.53 0.13392
-24.625 3144.0 undefined 123.24 160.29 0.70268 585.00 0.0017094 123.24 160.29 0.70268 1.5117 2.2268 1236.8 -0.0055857 201.40 0.13405 585.00 0.0017094 123.24 160.29 0.70268 1.5117 2.2268 1236.8 -0.0055857 201.40 0.13405
-23.625 3290.6 undefined 124.75 163.53 0.70875 585.00 0.0017094 124.75 163.53 0.70875 1.5153 2.2274 1239.1 -0.0055965 201.27 0.13419 585.00 0.0017094 124.75 163.53 0.70875 1.5153 2.2274 1239.1 -0.0055965 201.27 0.13419
-22.625 3437.0 undefined 126.27 166.78 0.71482 585.00 0.0017094 126.27 166.78 0.71482 1.5190 2.2280 1241.4 -0.0056069 201.14 0.13432 585.00 0.0017094 126.27 166.78 0.71482 1.5190 2.2280 1241.4 -0.0056069 201.14 0.13432
-21.625 3583.2 undefined 127.79 170.02 0.72088 585.00 0.0017094 127.79 170.02 0.72088 1.5227 2.2287 1243.7 -0.0056170 201.01 0.13446 585.00 0.0017094 127.79 170.02 0.72088 1.5227 2.2287 1243.7 -0.0056170 201.01 0.13446
-20.625 3729.2 undefined 129.32 173.27 0.72693 585.00 0.0017094 129.32 173.27 0.72693 1.5265 2.2294 1245.9 -0.0056268 200.89 0.13459 585.00 0.0017094 129.32 173.27 0.72693 1.5265 2.2294 1245.9 -0.0056268 200.89 0.13459
-19.625 3875.1 undefined 130.84 176.51 0.73297 585.00 0.0017094 130.84 176.51 0.73297 1.5302 2.2302 1248.1 -0.0056363 200.76 0.13473 585.00 0.0017094 130.84 176.51 0.73297 1.5302 2.2302 1248.1 -0.0056363 200.76 0.13473
-18.625 4020.7 undefined 132.38 179.76 0.73900 585.00 0.0017094 132.38 179.76 0.73900 1.5340 2.2311 1250.4 -0.0056454 200.64 0.13486 585.00 0.0017094 132.38 179.76 0.73900 1.5340 2.2311 1250.4 -0.0056454 200.64 0.13486
-17.625 4166.2 undefined 133.91 183.01 0.74502 585.00 0.0017094 133.91 183.01 0.74502 1.5377 2.2320 1252.6 -0.0056543 200.52 0.13500 585.00 0.0017094 133.91 183.01 0.74502 1.5377 2.2320 1252.6 -0.0056543 200.52 0.13500
-16.625 4311.5 undefined 135.45 186.27 0.75104 585.00 0.0017094 135.45 186.27 0.75104 1.5415 2.2329 1254.7 -0.0056628 200.40 0.13513 585.00 0.0017094 135.45 186.27 0.75104 1.5415 2.2329 1254.7 -0.0056628 200.40 0.13513
-15.625 4456.7 undefined 136.99 189.52 0.75704 585.00 0.0017094 136.99 189.52 0.75704 1.5453 2.2339 1256.9 -0.0056711 200.28 0.13527 585.00 0.0017094 136.99 189.52 0.75704 1.5453 2.2339 1256.9 -0.0056711 200.28 0.13527
-14.625 4601.6 undefined 138.54 192.78 0.76304 585.00 0.0017094 138.54 192.78 0.76304 1.5491 2.2350 1259.1 -0.0056791 200.17 0.13541 585.00 0.0017094 138.54 192.78 0.76304 1.5491 2.2350 1259.1 -0.0056791 200.17 0.13541
-13.625 4746.4 undefined 140.09 196.03 0.76903 585.00 0.0017094 140.09 196.03 0.76903 1.5530 2.2361 1261.2 -0.0056868 200.05 0.13554 585.00 0.0017094 140.09 196.03 0.76903 1.5530 2.2361 1261.2 -0.0056868 200.05 0.13554
-12.625 4891.0 undefined 141.65 199.29 0.77501 585.00 0.0017094 141.65 199.29 0.77501 1.5568 2.2372 1263.3 -0.0056942 199.94 0.13568 585.00 0.0017094 141.65 199.29 0.77501 1.5568 2.2372 1263.3 -0.0056942 199.94 0.13568
-11.625 5035.4 undefined 143.21 202.55 0.78098 585.00 0.0017094 143.21 202.55 0.78098 1.5607 2.2384 1265.4 -0.0057013 199.82 0.13582 585.00 0.0017094 143.21 202.55 0.78098 1.5607 2.2384 1265.4 -0.0057013 199.82 0.13582
-10.625 5179.6 undefined 144.77 205.82 0.78694 585.00 0.0017094 144.77 205.82 0.78694 1.5645 2.2396 1267.5 -0.0057082 199.71 0.13596 585.00 0.0017094 144.77 205.82 0.78694 1.5645 2.2396 1267.5 -0.0057082 199.71 0.13596
-9.6250 5323.7 undefined 146.34 209.08 0.79290 585.00 0.0017094 146.34 209.08 0.79290 1.5684 2.2409 1269.6 -0.0057148 199.60 0.13609 585.00 0.0017094 146.34 209.08 0.79290 1.5684 2.2409 1269.6 -0.0057148 199.60 0.13609
-8.6250 5467.6 undefined 147.91 212.35 0.79885 585.00 0.0017094 147.91 212.35 0.79885 1.5723 2.2422 1271.7 -0.0057212 199.49 0.13623 585.00 0.0017094 147.91 212.35 0.79885 1.5723 2.2422 1271.7 -0.0057212 199.49 0.13623
-7.6250 5611.3 undefined 149.48 215.61 0.80479 585.00 0.0017094 149.48 215.61 0.80479 1.5762 2.2436 1273.7 -0.0057273 199.39 0.13637 585.00 0.0017094 149.48 215.61 0.80479 1.5762 2.2436 1273.7 -0.0057273 199.39 0.13637
-6.6250 5754.8 undefined 151.06 218.88 0.81072 585.00 0.0017094 151.06 218.88 0.81072 1.5802 2.2450 1275.8 -0.0057332 199.28 0.13651 585.00 0.0017094 151.06 218.88 0.81072 1.5802 2.2450 1275.8 -0.0057332 199.28 0.13651
-5.6250 5898.1 undefined 152.64 222.16 0.81664 585.00 0.0017094 152.64 222.16 0.81664 1.5841 2.2465 1277.8 -0.0057388 199.18 0.13665 585.00 0.0017094 152.64 222.16 0.81664 1.5841 2.2465 1277.8 -0.0057388 199.18 0.13665
-4.6250 6041.3 undefined 154.23 225.43 0.82256 585.00 0.0017094 154.23 225.43 0.82256 1.5880 2.2480 1279.8 -0.0057442 199.07 0.13679 585.00 0.0017094 154.23 225.43 0.82256 1.5880 2.2480 1279.8 -0.0057442 199.07 0.13679
-3.6250 6184.3 undefined 155.82 228.70 0.82847 585.00 0.0017094 155.82 228.70 0.82847 1.5920 2.2495 1281.8 -0.0057494 198.97 0.13693 585.00 0.0017094 155.82 228.70 0.82847 1.5920 2.2495 1281.8 -0.0057494 198.97 0.13693
-2.6250 6327.1 undefined 157.41 231.98 0.83437 585.00 0.0017094 157.41 231.98 0.83437 1.5960 2.2511 1283.8 -0.0057543 198.87 0.13707 585.00 0.0017094 157.41 231.98 0.83437 1.5960 2.2511 1283.8 -0.0057543 198.87 0.13707
-1.6250 6469.7 undefined 159.01 235.26 0.84027 585.00 0.0017094 159.01 235.26 0.84027 1.6000 2.2527 1285.8 -0.0057591 198.77 0.13721 585.00 0.0017094 159.01 235.26 0.84027 1.6000 2.2527 1285.8 -0.0057591 198.77 0.13721
-0.62500 6612.2 undefined 160.61 238.54 0.84616 585.00 0.0017094 160.61 238.54 0.84616 1.6040 2.2543 1287.8 -0.0057635 198.67 0.13735 585.00 0.0017094 160.61 238.54 0.84616 1.6040 2.2543 1287.8 -0.0057635 198.67 0.13735
0.37500 6754.5 undefined 162.22 241.82 0.85204 585.00 0.0017094 162.22 241.82 0.85204 1.6080 2.2560 1289.8 -0.0057678 198.57 0.13749 585.00 0.0017094 162.22 241.82 0.85204 1.6080 2.2560 1289.8 -0.0057678 198.57 0.13749
1.3750 6896.6 undefined 163.83 245.11 0.85792 585.00 0.0017094 163.83 245.11 0.85792 1.6120 2.2577 1291.7 -0.0057719 198.47 0.13763 585.00 0.0017094 163.83 245.11 0.85792 1.6120 2.2577 1291.7 -0.0057719 198.47 0.13763
2.3750 7038.6 undefined 165.44 248.40 0.86379 585.00 0.0017094 165.44 248.40 0.86379 1.6160 2.2595 1293.6 -0.0057758 198.38 0.13777 585.00 0.0017094 165.44 248.40 0.86379 1.6160 2.2595 1293.6 -0.0057758 198.38 0.13777
3.3750 7180.3 undefined 167.06 251.69 0.86965 585.00 0.0017094 167.06 251.69 0.86965 1.6201 2.2613 1295.6 -0.0057794 198.28 0.13792 585.00 0.0017094 167.06 251.69 0.86965 1.6201 2.2613 1295.6 -0.0057794 198.28 0.13792
4.3750 7321.9 undefined 168.68 254.98 0.87550 585.00 0.0017094 168.68 254.98 0.87550 1.6241 2.2631 1297.5 -0.0057829 198.19 0.13806 585.00 0.0017094 168.68 254.98 0.87550 1.6241 2.2631 1297.5 -0.0057829 198.19 0.13806
5.3750 7463.3 undefined 170.31 258.27 0.88135 585.00 0.0017094 170.31 258.27 0.88135 1.6282 2.2650 1299.4 -0.0057862 198.10 0.13820 585.00 0.0017094 170.31 258.27 0.88135 1.6282 2.2650 1299.4 -0.0057862 198.10 0.13820
6.3750 7604.6 undefined 171.94 261.56 0.88719 585.00 0.0017094 171.94 261.56 0.88719 1.6323 2.2669 1301.3 -0.0057892 198.00 0.13834 585.00 0.0017094 171.94 261.56 0.88719 1.6323 2.2669 1301.3 -0.0057892 198.00 0.13834
7.3750 7745.7 undefined 173.57 264.86 0.89303 585.00 0.0017094 173.57 264.86 0.89303 1.6364 2.2688 1303.2 -0.0057921 197.91 0.13849 585.00 0.0017094 173.57 264.86 0.89303 1.6364 2.2688 1303.2 -0.0057921 197.91 0.13849
8.3750 7886.6 undefined 175.21 268.16 0.89886 585.00 0.0017094 175.21 268.16 0.89886 1.6405 2.2707 1305.1 -0.0057948 197.82 0.13863 585.00 0.0017094 175.21 268.16 0.89886 1.6405 2.2707 1305.1 -0.0057948 197.82 0.13863
9.3750 8027.3 undefined 176.85 271.46 0.90469 585.00 0.0017094 176.85 271.46 0.90469 1.6446 2.2727 1306.9 -0.0057974 197.74 0.13877 585.00 0.0017094 176.85 271.46 0.90469 1.6446 2.2727 1306.9 -0.0057974 197.74 0.13877
10.375 8167.9 undefined 178.50 274.76 0.91050 585.00 0.0017094 178.50 274.76 0.91050 1.6487 2.2748 1308.8 -0.0057997 197.65 0.13892 585.00 0.0017094 178.50 274.76 0.91050 1.6487 2.2748 1308.8 -0.0057997 197.65 0.13892
11.375 8308.3 undefined 180.15 278.07 0.91632 585.00 0.0017094 180.15 278.07 0.91632 1.6528 2.2768 1310.6 -0.0058019 197.56 0.13906 585.00 0.0017094 180.15 278.07 0.91632 1.6528 2.2768 1310.6 -0.0058019 197.56 0.13906
12.375 8448.5 undefined 181.80 281.38 0.92212 585.00 0.0017094 181.80 281.38 0.92212 1.6570 2.2789 1312.5 -0.0058039 197.48 0.13921 585.00 0.0017094 181.80 281.38 0.92212 1.6570 2.2789 1312.5 -0.0058039 197.48 0.13921
13.375 8588.6 undefined 183.46 284.69 0.92792 585.00 0.0017094 183.46 284.69 0.92792 1.6611 2.2810 1314.3 -0.0058058 197.39 0.13935 585.00 0.0017094 183.46 284.69 0.92792 1.6611 2.2810 1314.3 -0.0058058 197.39 0.13935
14.375 8728.5 undefined 185.13 288.00 0.93372 585.00 0.0017094 185.13 288.00 0.93372 1.6653 2.2832 1316.1 -0.0058074 197.31 0.13950 585.00 0.0017094 185.13 288.00 0.93372 1.6653 2.2832 1316.1 -0.0058074 197.31 0.13950
15.375 8868.2 undefined 186.79 291.31 0.93951 585.00 0.0017094 186.79 291.31 0.93951 1.6695 2.2854 1317.9 -0.0058089 197.23 0.13964 585.00 0.0017094 186.79 291.31 0.93951 1.6695 2.2854 1317.9 -0.0058089 197.23 0.13964
16.375 9007.7 undefined 188.47 294.63 0.94529 585.00 0.0017094 188.47 294.63 0.94529 1.6736 2.2876 1319.7 -0.0058103 197.14 0.13979 585.00 0.0017094 188.47 294.63 0.94529 1.6736 2.2876 1319.7 -0.0058103 197.14 0.13979
17.375 9147.1 undefined 190.14 297.95 0.95107 585.00 0.0017094 190.14 297.95 0.95107 1.6778 2.2898 1321.5 -0.0058115 197.06 0.13993 585.00 0.0017094 190.14 297.95 0.95107 1.6778 2.2898 1321.5 -0.0058115 197.06 0.13993
18.375 9286.3 undefined 191.82 301.27 0.95684 585.00 0.0017094 191.82 301.27 0.95684 1.6820 2.2920 1323.3 -0.0058126 196.98 0.14008 585.00 0.0017094 191.82 301.27 0.95684 1.6820 2.2920 1323.3 -0.0058126 196.98 0.14008
19.375 9425.4 undefined 193.51 304.59 0.96261 585.00 0.0017094 193.51 304.59 0.96261 1.6862 2.2943 1325.1 -0.0058135 196.90 0.14023 585.00 0.0017094 193.51 304.59 0.96261 1.6862 2.2943 1325.1 -0.0058135 196.90 0.14023
20.375 9564.3 undefined 195.19 307.92 0.96837 585.00 0.0017094 195.19 307.92 0.96837 1.6904 2.2966 1326.9 -0.0058142 196.83 0.14037 585.00 0.0017094 195.19 307.92 0.96837 1.6904 2.2966 1326.9 -0.0058142 196.83 0.14037
21.375 9703.0 undefined 196.89 311.25 0.97412 585.00 0.0017094 196.89 311.25 0.97412 1.6946 2.2990 1328.6 -0.0058149 196.75 0.14052 585.00 0.0017094 196.89 311.25 0.97412 1.6946 2.2990 1328.6 -0.0058149 196.75 0.14052
22.375 9841.6 undefined 198.58 314.58 0.97988 585.00 0.0017094 198.58 314.58 0.97988 1.6989 2.3014 1330.4 -0.0058153 196.67 0.14067 585.00 0.0017094 198.58 314.58 0.97988 1.6989 2.3014 1330.4 -0.0058153 196.67 0.14067
23.375 9980.0 undefined 200.28 317.91 0.98562 585.00 0.0017094 200.28 317.91 0.98562 1.7031 2.3037 1332.1 -0.0058157 196.60 0.14082 585.00 0.0017094 200.28 317.91 0.98562 1.7031 2.3037 1332.1 -0.0058157 196.60 0.14082
24.375 10118. undefined 201.99 321.24 0.99136 585.00 0.0017094 201.99 321.24 0.99136 1.7073 2.3062 1333.9 -0.0058159 196.52 0.14096 585.00 0.0017094 201.99 321.24 0.99136 1.7073 2.3062 1333.9 -0.0058159 196.52 0.14096
25.375 10256. undefined 203.70 324.58 0.99710 585.00 0.0017094 203.70 324.58 0.99710 1.7116 2.3086 1335.6 -0.0058160 196.45 0.14111 585.00 0.0017094 203.70 324.58 0.99710 1.7116 2.3086 1335.6 -0.0058160 196.45 0.14111
26.375 10394. undefined 205.41 327.92 1.0028 585.00 0.0017094 205.41 327.92 1.0028 1.7158 2.3111 1337.3 -0.0058159 196.38 0.14126 585.00 0.0017094 205.41 327.92 1.0028 1.7158 2.3111 1337.3 -0.0058159 196.38 0.14126
27.375 10532. undefined 207.13 331.26 1.0086 585.00 0.0017094 207.13 331.26 1.0086 1.7201 2.3135 1339.1 -0.0058157 196.30 0.14141 585.00 0.0017094 207.13 331.26 1.0086 1.7201 2.3135 1339.1 -0.0058157 196.30 0.14141
28.375 10670. undefined 208.85 334.60 1.0143 585.00 0.0017094 208.85 334.60 1.0143 1.7243 2.3161 1340.8 -0.0058154 196.23 0.14156 585.00 0.0017094 208.85 334.60 1.0143 1.7243 2.3161 1340.8 -0.0058154 196.23 0.14156
29.375 10807. undefined 210.58 337.95 1.0200 585.00 0.0017094 210.58 337.95 1.0200 1.7286 2.3186 1342.5 -0.0058150 196.16 0.14171 585.00 0.0017094 210.58 337.95 1.0200 1.7286 2.3186 1342.5 -0.0058150 196.16 0.14171
30.375 10944. undefined 212.31 341.30 1.0257 585.00 0.0017094 212.31 341.30 1.0257 1.7329 2.3211 1344.2 -0.0058145 196.09 0.14186 585.00 0.0017094 212.31 341.30 1.0257 1.7329 2.3211 1344.2 -0.0058145 196.09 0.14186
31.375 11081. undefined 214.04 344.65 1.0314 585.00 0.0017094 214.04 344.65 1.0314 1.7372 2.3237 1345.8 -0.0058138 196.02 0.14201 585.00 0.0017094 214.04 344.65 1.0314 1.7372 2.3237 1345.8 -0.0058138 196.02 0.14201
32.375 11218. undefined 215.78 348.00 1.0371 585.00 0.0017094 215.78 348.00 1.0371 1.7415 2.3263 1347.5 -0.0058131 195.96 0.14216 585.00 0.0017094 215.78 348.00 1.0371 1.7415 2.3263 1347.5 -0.0058131 195.96 0.14216
33.375 11355. undefined 217.53 351.36 1.0428 585.00 0.0017094 217.53 351.36 1.0428 1.7457 2.3289 1349.2 -0.0058122 195.89 0.14231 585.00 0.0017094 217.53 351.36 1.0428 1.7457 2.3289 1349.2 -0.0058122 195.89 0.14231
34.375 11492. undefined 219.28 354.72 1.0485 585.00 0.0017094 219.28 354.72 1.0485 1.7500 2.3316 1350.9 -0.0058112 195.82 0.14246 585.00 0.0017094 219.28 354.72 1.0485 1.7500 2.3316 1350.9 -0.0058112 195.82 0.14246
35.375 11628. undefined 221.03 358.08 1.0542 585.00 0.0017094 221.03 358.08 1.0542 1.7544 2.3342 1352.5 -0.0058101 195.76 0.14261 585.00 0.0017094 221.03 358.08 1.0542 1.7544 2.3342 1352.5 -0.0058101 195.76 0.14261
36.375 11764. undefined 222.78 361.44 1.0599 585.00 0.0017094 222.78 361.44 1.0599 1.7587 2.3369 1354.2 -0.0058089 195.69 0.14276 585.00 0.0017094 222.78 361.44 1.0599 1.7587 2.3369 1354.2 -0.0058089 195.69 0.14276
37.375 11901. undefined 224.55 364.80 1.0656 585.00 0.0017094 224.55 364.80 1.0656 1.7630 2.3396 1355.8 -0.0058076 195.63 0.14291 585.00 0.0017094 224.55 364.80 1.0656 1.7630 2.3396 1355.8 -0.0058076 195.63 0.14291
38.375 12037. undefined 226.31 368.17 1.0712 585.00 0.0017094 226.31 368.17 1.0712 1.7673 2.3423 1357.5 -0.0058062 195.56 0.14307 585.00 0.0017094 226.31 368.17 1.0712 1.7673 2.3423 1357.5 -0.0058062 195.56 0.14307
39.375 12172. undefined 228.08 371.54 1.0769 585.00 0.0017094 228.08 371.54 1.0769 1.7716 2.3451 1359.1 -0.0058047 195.50 0.14322 585.00 0.0017094 228.08 371.54 1.0769 1.7716 2.3451 1359.1 -0.0058047 195.50 0.14322
40.375 12308. undefined 229.85 374.92 1.0826 585.00 0.0017094 229.85 374.92 1.0826 1.7759 2.3478 1360.8 -0.0058031 195.44 0.14337 585.00 0.0017094 229.85 374.92 1.0826 1.7759 2.3478 1360.8 -0.0058031 195.44 0.14337
41.375 12444. undefined 231.63 378.29 1.0882 585.00 0.0017094 231.63 378.29 1.0882 1.7803 2.3506 1362.4 -0.0058014 195.38 0.14353 585.00 0.0017094 231.63 378.29 1.0882 1.7803 2.3506 1362.4 -0.0058014 195.38 0.14353
42.375 12579. undefined 233.41 381.67 1.0939 585.00 0.0017094 233.41 381.67 1.0939 1.7846 2.3534 1364.0 -0.0057996 195.32 0.14368 585.00 0.0017094 233.41 381.67 1.0939 1.7846 2.3534 1364.0 -0.0057996 195.32 0.14368
43.375 12714. undefined 235.20 385.05 1.0995 585.00 0.0017094 235.20 385.05 1.0995 1.7889 2.3562 1365.6 -0.0057977 195.26 0.14383 585.00 0.0017094 235.20 385.05 1.0995 1.7889 2.3562 1365.6 -0.0057977 195.26 0.14383
44.375 12849. undefined 236.99 388.43 1.1052 585.00 0.0017094 236.99 388.43 1.1052 1.7933 2.3590 1367.2 -0.0057957 195.20 0.14399 585.00 0.0017094 236.99 388.43 1.1052 1.7933 2.3590 1367.2 -0.0057957 195.20 0.14399
45.375 12984. undefined 238.79 391.82 1.1108 585.00 0.0017094 238.79 391.82 1.1108 1.7976 2.3618 1368.8 -0.0057937 195.14 0.14414 585.00 0.0017094 238.79 391.82 1.1108 1.7976 2.3618 1368.8 -0.0057937 195.14 0.14414
46.375 13119. undefined 240.59 395.21 1.1165 585.00 0.0017094 240.59 395.21 1.1165 1.8020 2.3647 1370.4 -0.0057915 195.08 0.14429 585.00 0.0017094 240.59 395.21 1.1165 1.8020 2.3647 1370.4 -0.0057915 195.08 0.14429
47.375 13254. undefined 242.39 398.60 1.1221 585.00 0.0017094 242.39 398.60 1.1221 1.8063 2.3676 1372.0 -0.0057893 195.02 0.14445 585.00 0.0017094 242.39 398.60 1.1221 1.8063 2.3676 1372.0 -0.0057893 195.02 0.14445
48.375 13388. undefined 244.20 401.99 1.1278 585.00 0.0017094 244.20 401.99 1.1278 1.8107 2.3705 1373.6 -0.0057870 194.97 0.14460 585.00 0.0017094 244.20 401.99 1.1278 1.8107 2.3705 1373.6 -0.0057870 194.97 0.14460
49.375 13523. undefined 246.01 405.39 1.1334 585.00 0.0017094 246.01 405.39 1.1334 1.8150 2.3734 1375.2 -0.0057846 194.91 0.14476 585.00 0.0017094 246.01 405.39 1.1334 1.8150 2.3734 1375.2 -0.0057846 194.91 0.14476
50.375 13657. undefined 247.83 408.79 1.1390 585.00 0.0017094 247.83 408.79 1.1390 1.8194 2.3763 1376.8 -0.0057821 194.86 0.14492 585.00 0.0017094 247.83 408.79 1.1390 1.8194 2.3763 1376.8 -0.0057821 194.86 0.14492
51.375 13791. undefined 249.65 412.19 1.1446 585.00 0.0017094 249.65 412.19 1.1446 1.8238 2.3792 1378.3 -0.0057796 194.80 0.14507 585.00 0.0017094 249.65 412.19 1.1446 1.8238 2.3792 1378.3 -0.0057796 194.80 0.14507
52.375 13925. undefined 251.48 415.59 1.1502 585.00 0.0017094 251.48 415.59 1.1502 1.8281 2.3822 1379.9 -0.0057770 194.75 0.14523 585.00 0.0017094 251.48 415.59 1.1502 1.8281 2.3822 1379.9 -0.0057770 194.75 0.14523
53.375 14058. undefined 253.31 419.00 1.1559 585.00 0.0017094 253.31 419.00 1.1559 1.8325 2.3851 1381.5 -0.0057743 194.69 0.14538 585.00 0.0017094 253.31 419.00 1.1559 1.8325 2.3851 1381.5 -0.0057743 194.69 0.14538
54.375 14192. undefined 255.14 422.41 1.1615 585.00 0.0017094 255.14 422.41 1.1615 1.8369 2.3881 1383.0 -0.0057716 194.64 0.14554 585.00 0.0017094 255.14 422.41 1.1615 1.8369 2.3881 1383.0 -0.0057716 194.64 0.14554
55.375 14325. undefined 256.98 425.82 1.1671 585.00 0.0017094 256.98 425.82 1.1671 1.8413 2.3911 1384.6 -0.0057687 194.59 0.14570 585.00 0.0017094 256.98 425.82 1.1671 1.8413 2.3911 1384.6 -0.0057687 194.59 0.14570
56.375 14459. undefined 258.83 429.23 1.1727 585.00 0.0017094 258.83 429.23 1.1727 1.8456 2.3941 1386.1 -0.0057658 194.54 0.14586 585.00 0.0017094 258.83 429.23 1.1727 1.8456 2.3941 1386.1 -0.0057658 194.54 0.14586
57.375 14592. undefined 260.67 432.65 1.1783 585.00 0.0017094 260.67 432.65 1.1783 1.8500 2.3971 1387.7 -0.0057629 194.49 0.14601 585.00 0.0017094 260.67 432.65 1.1783 1.8500 2.3971 1387.7 -0.0057629 194.49 0.14601
58.375 14725. undefined 262.53 436.07 1.1839 585.00 0.0017094 262.53 436.07 1.1839 1.8544 2.4002 1389.2 -0.0057599 194.44 0.14617 585.00 0.0017094 262.53 436.07 1.1839 1.8544 2.4002 1389.2 -0.0057599 194.44 0.14617
59.375 14858. undefined 264.38 439.49 1.1895 585.00 0.0017094 264.38 439.49 1.1895 1.8588 2.4032 1390.7 -0.0057568 194.39 0.14633 585.00 0.0017094 264.38 439.49 1.1895 1.8588 2.4032 1390.7 -0.0057568 194.39 0.14633
60.375 14990. undefined 266.24 442.92 1.1951 585.00 0.0017094 266.24 442.92 1.1951 1.8631 2.4063 1392.3 -0.0057536 194.34 0.14649 585.00 0.0017094 266.24 442.92 1.1951 1.8631 2.4063 1392.3 -0.0057536 194.34 0.14649
61.375 15123. undefined 268.11 446.35 1.2006 585.00 0.0017094 268.11 446.35 1.2006 1.8675 2.4093 1393.8 -0.0057504 194.29 0.14665 585.00 0.0017094 268.11 446.35 1.2006 1.8675 2.4093 1393.8 -0.0057504 194.29 0.14665
62.375 15255. undefined 269.98 449.78 1.2062 585.00 0.0017094 269.98 449.78 1.2062 1.8719 2.4124 1395.3 -0.0057471 194.24 0.14681 585.00 0.0017094 269.98 449.78 1.2062 1.8719 2.4124 1395.3 -0.0057471 194.24 0.14681
63.375 15388. undefined 271.85 453.21 1.2118 585.00 0.0017094 271.85 453.21 1.2118 1.8763 2.4155 1396.8 -0.0057438 194.19 0.14697 585.00 0.0017094 271.85 453.21 1.2118 1.8763 2.4155 1396.8 -0.0057438 194.19 0.14697
64.375 15520. undefined 273.73 456.65 1.2174 585.00 0.0017094 273.73 456.65 1.2174 1.8807 2.4186 1398.3 -0.0057404 194.14 0.14713 585.00 0.0017094 273.73 456.65 1.2174 1.8807 2.4186 1398.3 -0.0057404 194.14 0.14713
65.375 15652. undefined 275.61 460.08 1.2229 585.00 0.0017094 275.61 460.08 1.2229 1.8851 2.4217 1399.8 -0.0057370 194.10 0.14729 585.00 0.0017094 275.61 460.08 1.2229 1.8851 2.4217 1399.8 -0.0057370 194.10 0.14729
66.375 15784. undefined 277.50 463.53 1.2285 585.00 0.0017094 277.50 463.53 1.2285 1.8895 2.4248 1401.3 -0.0057335 194.05 0.14745 585.00 0.0017094 277.50 463.53 1.2285 1.8895 2.4248 1401.3 -0.0057335 194.05 0.14745
67.375 15915. undefined 279.39 466.97 1.2341 585.00 0.0017094 279.39 466.97 1.2341 1.8939 2.4280 1402.8 -0.0057300 194.01 0.14761 585.00 0.0017094 279.39 466.97 1.2341 1.8939 2.4280 1402.8 -0.0057300 194.01 0.14761
68.375 16047. undefined 281.29 470.42 1.2396 585.00 0.0017094 281.29 470.42 1.2396 1.8982 2.4311 1404.3 -0.0057264 193.96 0.14777 585.00 0.0017094 281.29 470.42 1.2396 1.8982 2.4311 1404.3 -0.0057264 193.96 0.14777
69.375 16178. undefined 283.19 473.87 1.2452 585.00 0.0017094 283.19 473.87 1.2452 1.9026 2.4343 1405.8 -0.0057227 193.92 0.14793 585.00 0.0017094 283.19 473.87 1.2452 1.9026 2.4343 1405.8 -0.0057227 193.92 0.14793
70.375 16310. undefined 285.09 477.32 1.2507 585.00 0.0017094 285.09 477.32 1.2507 1.9070 2.4374 1407.3 -0.0057190 193.87 0.14809 585.00 0.0017094 285.09 477.32 1.2507 1.9070 2.4374 1407.3 -0.0057190 193.87 0.14809
71.375 16441. undefined 287.00 480.77 1.2563 585.00 0.0017094 287.00 480.77 1.2563 1.9114 2.4406 1408.8 -0.0057153 193.83 0.14825 585.00 0.0017094 287.00 480.77 1.2563 1.9114 2.4406 1408.8 -0.0057153 193.83 0.14825
72.375 16572. undefined 288.92 484.23 1.2618 585.00 0.0017094 288.92 484.23 1.2618 1.9158 2.4438 1410.2 -0.0057115 193.79 0.14841 585.00 0.0017094 288.92 484.23 1.2618 1.9158 2.4438 1410.2 -0.0057115 193.79 0.14841
73.375 16703. undefined 290.83 487.69 1.2674 585.00 0.0017094 290.83 487.69 1.2674 1.9202 2.4470 1411.7 -0.0057077 193.74 0.14858 585.00 0.0017094 290.83 487.69 1.2674 1.9202 2.4470 1411.7 -0.0057077 193.74 0.14858
74.375 16834. undefined 292.76 491.16 1.2729 585.00 0.0017094 292.76 491.16 1.2729 1.9246 2.4502 1413.2 -0.0057038 193.70 0.14874 585.00 0.0017094 292.76 491.16 1.2729 1.9246 2.4502 1413.2 -0.0057038 193.70 0.14874
75.375 16964. undefined 294.68 494.62 1.2785 585.00 0.0017094 294.68 494.62 1.2785 1.9290 2.4534 1414.6 -0.0056999 193.66 0.14890 585.00 0.0017094 294.68 494.62 1.2785 1.9290 2.4534 1414.6 -0.0056999 193.66 0.14890
76.375 17095. undefined 296.61 498.09 1.2840 585.00 0.0017094 296.61 498.09 1.2840 1.9334 2.4566 1416.1 -0.0056959 193.62 0.14907 585.00 0.0017094 296.61 498.09 1.2840 1.9334 2.4566 1416.1 -0.0056959 193.62 0.14907
77.375 17225. undefined 298.55 501.56 1.2895 585.00 0.0017094 298.55 501.56 1.2895 1.9378 2.4599 1417.5 -0.0056919 193.58 0.14923 585.00 0.0017094 298.55 501.56 1.2895 1.9378 2.4599 1417.5 -0.0056919 193.58 0.14923
78.375 17355. undefined 300.49 505.04 1.2950 585.00 0.0017094 300.49 505.04 1.2950 1.9422 2.4631 1419.0 -0.0056879 193.54 0.14939 585.00 0.0017094 300.49 505.04 1.2950 1.9422 2.4631 1419.0 -0.0056879 193.54 0.14939
79.375 17485. undefined 302.43 508.52 1.3006 585.00 0.0017094 302.43 508.52 1.3006 1.9466 2.4663 1420.4 -0.0056838 193.50 0.14956 585.00 0.0017094 302.43 508.52 1.3006 1.9466 2.4663 1420.4 -0.0056838 193.50 0.14956
80.375 17615. undefined 304.38 512.00 1.3061 585.00 0.0017094 304.38 512.00 1.3061 1.9509 2.4696 1421.9 -0.0056797 193.46 0.14972 585.00 0.0017094 304.38 512.00 1.3061 1.9509 2.4696 1421.9 -0.0056797 193.46 0.14972
81.375 17745. undefined 306.34 515.48 1.3116 585.00 0.0017094 306.34 515.48 1.3116 1.9553 2.4729 1423.3 -0.0056755 193.42 0.14989 585.00 0.0017094 306.34 515.48 1.3116 1.9553 2.4729 1423.3 -0.0056755 193.42 0.14989
82.375 17875. undefined 308.29 518.97 1.3171 585.00 0.0017094 308.29 518.97 1.3171 1.9597 2.4761 1424.8 -0.0056714 193.38 0.15005 585.00 0.0017094 308.29 518.97 1.3171 1.9597 2.4761 1424.8 -0.0056714 193.38 0.15005
83.375 18004. undefined 310.26 522.45 1.3226 585.00 0.0017094 310.26 522.45 1.3226 1.9641 2.4794 1426.2 -0.0056671 193.35 0.15022 585.00 0.0017094 310.26 522.45 1.3226 1.9641 2.4794 1426.2 -0.0056671 193.35 0.15022
84.375 18134. undefined 312.22 525.95 1.3281 585.00 0.0017094 312.22 525.95 1.3281 1.9685 2.4827 1427.6 -0.0056629 193.31 0.15038 585.00 0.0017094 312.22 525.95 1.3281 1.9685 2.4827 1427.6 -0.0056629 193.31 0.15038
85.375 18263. undefined 314.19 529.44 1.3336 585.00 0.0017094 314.19 529.44 1.3336 1.9729 2.4860 1429.0 -0.0056586 193.27 0.15055 585.00 0.0017094 314.19 529.44 1.3336 1.9729 2.4860 1429.0 -0.0056586 193.27 0.15055
86.375 18392. undefined 316.17 532.94 1.3391 585.00 0.0017094 316.17 532.94 1.3391 1.9773 2.4893 1430.5 -0.0056543 193.24 0.15071 585.00 0.0017094 316.17 532.94 1.3391 1.9773 2.4893 1430.5 -0.0056543 193.24 0.15071
87.375 18521. undefined 318.15 536.44 1.3446 585.00 0.0017094 318.15 536.44 1.3446 1.9817 2.4926 1431.9 -0.0056499 193.20 0.15088 585.00 0.0017094 318.15 536.44 1.3446 1.9817 2.4926 1431.9 -0.0056499 193.20 0.15088
88.375 18650. undefined 320.13 539.94 1.3501 585.00 0.0017094 320.13 539.94 1.3501 1.9860 2.4959 1433.3 -0.0056456 193.16 0.15105 585.00 0.0017094 320.13 539.94 1.3501 1.9860 2.4959 1433.3 -0.0056456 193.16 0.15105
89.375 18779. undefined 322.12 543.45 1.3556 585.00 0.0017094 322.12 543.45 1.3556 1.9904 2.4992 1434.7 -0.0056411 193.13 0.15121 585.00 0.0017094 322.12 543.45 1.3556 1.9904 2.4992 1434.7 -0.0056411 193.13 0.15121
90.375 18908. undefined 324.11 546.95 1.3611 585.00 0.0017094 324.11 546.95 1.3611 1.9948 2.5025 1436.1 -0.0056367 193.09 0.15138 585.00 0.0017094 324.11 546.95 1.3611 1.9948 2.5025 1436.1 -0.0056367 193.09 0.15138
91.375 19036. undefined 326.11 550.47 1.3666 585.00 0.0017094 326.11 550.47 1.3666 1.9992 2.5059 1437.5 -0.0056322 193.06 0.15155 585.00 0.0017094 326.11 550.47 1.3666 1.9992 2.5059 1437.5 -0.0056322 193.06 0.15155
92.375 19164. undefined 328.11 553.98 1.3721 585.00 0.0017094 328.11 553.98 1.3721 2.0036 2.5092 1438.9 -0.0056278 193.03 0.15172 585.00 0.0017094 328.11 553.98 1.3721 2.0036 2.5092 1438.9 -0.0056278 193.03 0.15172
93.375 19293. undefined 330.12 557.50 1.3776 585.00 0.0017094 330.12 557.50 1.3776 2.0079 2.5126 1440.3 -0.0056232 192.99 0.15189 585.00 0.0017094 330.12 557.50 1.3776 2.0079 2.5126 1440.3 -0.0056232 192.99 0.15189
94.375 19421. undefined 332.13 561.02 1.3830 585.00 0.0017094 332.13 561.02 1.3830 2.0123 2.5159 1441.7 -0.0056187 192.96 0.15205 585.00 0.0017094 332.13 561.02 1.3830 2.0123 2.5159 1441.7 -0.0056187 192.96 0.15205
95.375 19549. undefined 334.14 564.54 1.3885 585.00 0.0017094 334.14 564.54 1.3885 2.0167 2.5193 1443.1 -0.0056141 192.93 0.15222 585.00 0.0017094 334.14 564.54 1.3885 2.0167 2.5193 1443.1 -0.0056141 192.93 0.15222
96.375 19677. undefined 336.16 568.07 1.3940 585.00 0.0017094 336.16 568.07 1.3940 2.0211 2.5226 1444.5 -0.0056095 192.89 0.15239 585.00 0.0017094 336.16 568.07 1.3940 2.0211 2.5226 1444.5 -0.0056095 192.89 0.15239
97.375 19804. undefined 338.18 571.60 1.3995 585.00 0.0017094 338.18 571.60 1.3995 2.0254 2.5260 1445.8 -0.0056049 192.86 0.15256 585.00 0.0017094 338.18 571.60 1.3995 2.0254 2.5260 1445.8 -0.0056049 192.86 0.15256
98.375 19932. undefined 340.21 575.13 1.4049 585.00 0.0017094 340.21 575.13 1.4049 2.0298 2.5293 1447.2 -0.0056003 192.83 0.15273 585.00 0.0017094 340.21 575.13 1.4049 2.0298 2.5293 1447.2 -0.0056003 192.83 0.15273
99.375 20059. undefined 342.24 578.66 1.4104 585.00 0.0017094 342.24 578.66 1.4104 2.0342 2.5327 1448.6 -0.0055956 192.80 0.15290 585.00 0.0017094 342.24 578.66 1.4104 2.0342 2.5327 1448.6 -0.0055956 192.80 0.15290
100.38 20187. undefined 344.28 582.20 1.4158 585.00 0.0017094 344.28 582.20 1.4158 2.0385 2.5361 1450.0 -0.0055910 192.77 0.15307 585.00 0.0017094 344.28 582.20 1.4158 2.0385 2.5361 1450.0 -0.0055910 192.77 0.15307
101.38 20314. undefined 346.32 585.74 1.4213 585.00 0.0017094 346.32 585.74 1.4213 2.0429 2.5395 1451.3 -0.0055863 192.74 0.15324 585.00 0.0017094 346.32 585.74 1.4213 2.0429 2.5395 1451.3 -0.0055863 192.74 0.15324
102.38 20441. undefined 348.36 589.28 1.4267 585.00 0.0017094 348.36 589.28 1.4267 2.0473 2.5429 1452.7 -0.0055816 192.71 0.15341 585.00 0.0017094 348.36 589.28 1.4267 2.0473 2.5429 1452.7 -0.0055816 192.71 0.15341
103.38 20568. undefined 350.41 592.83 1.4322 585.00 0.0017094 350.41 592.83 1.4322 2.0516 2.5463 1454.1 -0.0055768 192.68 0.15358 585.00 0.0017094 350.41 592.83 1.4322 2.0516 2.5463 1454.1 -0.0055768 192.68 0.15358
104.38 20695. undefined 352.47 596.38 1.4376 585.00 0.0017094 352.47 596.38 1.4376 2.0560 2.5497 1455.4 -0.0055721 192.65 0.15376 585.00 0.0017094 352.47 596.38 1.4376 2.0560 2.5497 1455.4 -0.0055721 192.65 0.15376
105.38 20822. undefined 354.53 599.93 1.4431 585.00 0.0017094 354.53 599.93 1.4431 2.0603 2.5531 1456.8 -0.0055673 192.62 0.15393 585.00 0.0017094 354.53 599.93 1.4431 2.0603 2.5531 1456.8 -0.0055673 192.62 0.15393
106.38 20948. undefined 356.59 603.49 1.4485 585.00 0.0017094 356.59 603.49 1.4485 2.0647 2.5565 1458.1 -0.0055625 192.59 0.15410 585.00 0.0017094 356.59 603.49 1.4485 2.0647 2.5565 1458.1 -0.0055625 192.59 0.15410
107.38 21075. undefined 358.66 607.04 1.4540 585.00 0.0017094 358.66 607.04 1.4540 2.0690 2.5599 1459.5 -0.0055577 192.56 0.15427 585.00 0.0017094 358.66 607.04 1.4540 2.0690 2.5599 1459.5 -0.0055577 192.56 0.15427
108.38 21201. undefined 360.73 610.60 1.4594 585.00 0.0017094 360.73 610.60 1.4594 2.0734 2.5633 1460.8 -0.0055529 192.54 0.15444 585.00 0.0017094 360.73 610.60 1.4594 2.0734 2.5633 1460.8 -0.0055529 192.54 0.15444
109.38 21328. undefined 362.80 614.17 1.4648 585.00 0.0017094 362.80 614.17 1.4648 2.0777 2.5667 1462.2 -0.0055481 192.51 0.15462 585.00 0.0017094 362.80 614.17 1.4648 2.0777 2.5667 1462.2 -0.0055481 192.51 0.15462
110.38 21454. undefined 364.88 617.73 1.4703 585.00 0.0017094 364.88 617.73 1.4703 2.0820 2.5701 1463.5 -0.0055432 192.48 0.15479 585.00 0.0017094 364.88 617.73 1.4703 2.0820 2.5701 1463.5 -0.0055432 192.48 0.15479
111.38 21580. undefined 366.97 621.30 1.4757 585.00 0.0017094 366.97 621.30 1.4757 2.0864 2.5735 1464.8 -0.0055384 192.46 0.15496 585.00 0.0017094 366.97 621.30 1.4757 2.0864 2.5735 1464.8 -0.0055384 192.46 0.15496
112.38 21706. undefined 369.05 624.88 1.4811 585.00 0.0017094 369.05 624.88 1.4811 2.0907 2.5769 1466.2 -0.0055335 192.43 0.15514 585.00 0.0017094 369.05 624.88 1.4811 2.0907 2.5769 1466.2 -0.0055335 192.43 0.15514
113.38 21831. undefined 371.15 628.45 1.4865 585.00 0.0017094 371.15 628.45 1.4865 2.0950 2.5804 1467.5 -0.0055286 192.40 0.15531 585.00 0.0017094 371.15 628.45 1.4865 2.0950 2.5804 1467.5 -0.0055286 192.40 0.15531
114.38 21957. undefined 373.25 632.03 1.4920 585.00 0.0017094 373.25 632.03 1.4920 2.0994 2.5838 1468.8 -0.0055237 192.38 0.15549 585.00 0.0017094 373.25 632.03 1.4920 2.0994 2.5838 1468.8 -0.0055237 192.38 0.15549
115.38 22083. undefined 375.35 635.61 1.4974 585.00 0.0017094 375.35 635.61 1.4974 2.1037 2.5872 1470.2 -0.0055188 192.35 0.15566 585.00 0.0017094 375.35 635.61 1.4974 2.1037 2.5872 1470.2 -0.0055188 192.35 0.15566
116.38 22208. undefined 377.45 639.19 1.5028 585.00 0.0017094 377.45 639.19 1.5028 2.1080 2.5907 1471.5 -0.0055139 192.33 0.15584 585.00 0.0017094 377.45 639.19 1.5028 2.1080 2.5907 1471.5 -0.0055139 192.33 0.15584
117.38 22333. undefined 379.56 642.78 1.5082 585.00 0.0017094 379.56 642.78 1.5082 2.1123 2.5941 1472.8 -0.0055090 192.30 0.15601 585.00 0.0017094 379.56 642.78 1.5082 2.1123 2.5941 1472.8 -0.0055090 192.30 0.15601
118.38 22459. undefined 381.68 646.37 1.5136 585.00 0.0017094 381.68 646.37 1.5136 2.1167 2.5975 1474.1 -0.0055040 192.28 0.15619 585.00 0.0017094 381.68 646.37 1.5136 2.1167 2.5975 1474.1 -0.0055040 192.28 0.15619
119.38 22584. undefined 383.80 649.96 1.5190 585.00 0.0017094 383.80 649.96 1.5190 2.1210 2.6010 1475.4 -0.0054991 192.25 0.15636 585.00 0.0017094 383.80 649.96 1.5190 2.1210 2.6010 1475.4 -0.0054991 192.25 0.15636
120.38 22709. undefined 385.92 653.56 1.5244 585.00 0.0017094 385.92 653.56 1.5244 2.1253 2.6044 1476.7 -0.0054941 192.23 0.15654 585.00 0.0017094 385.92 653.56 1.5244 2.1253 2.6044 1476.7 -0.0054941 192.23 0.15654
121.38 22833. undefined 388.05 657.16 1.5298 585.00 0.0017094 388.05 657.16 1.5298 2.1296 2.6079 1478.0 -0.0054892 192.21 0.15672 585.00 0.0017094 388.05 657.16 1.5298 2.1296 2.6079 1478.0 -0.0054892 192.21 0.15672
122.38 22958. undefined 390.18 660.76 1.5352 585.00 0.0017094 390.18 660.76 1.5352 2.1339 2.6113 1479.3 -0.0054842 192.18 0.15689 585.00 0.0017094 390.18 660.76 1.5352 2.1339 2.6113 1479.3 -0.0054842 192.18 0.15689
123.38 23083. undefined 392.31 664.36 1.5406 585.00 0.0017094 392.31 664.36 1.5406 2.1382 2.6148 1480.6 -0.0054792 192.16 0.15707 585.00 0.0017094 392.31 664.36 1.5406 2.1382 2.6148 1480.6 -0.0054792 192.16 0.15707
124.38 23207. undefined 394.45 667.97 1.5460 585.00 0.0017094 394.45 667.97 1.5460 2.1425 2.6182 1481.9 -0.0054742 192.14 0.15725 585.00 0.0017094 394.45 667.97 1.5460 2.1425 2.6182 1481.9 -0.0054742 192.14 0.15725
125.38 23332. undefined 396.60 671.58 1.5514 585.00 0.0017094 396.60 671.58 1.5514 2.1468 2.6217 1483.2 -0.0054692 192.12 0.15742 585.00 0.0017094 396.60 671.58 1.5514 2.1468 2.6217 1483.2 -0.0054692 192.12 0.15742
126.38 23456. undefined 398.75 675.20 1.5568 585.00 0.0017094 398.75 675.20 1.5568 2.1511 2.6251 1484.5 -0.0054642 192.09 0.15760 585.00 0.0017094 398.75 675.20 1.5568 2.1511 2.6251 1484.5 -0.0054642 192.09 0.15760
127.38 23580. undefined 400.90 678.81 1.5622 585.00 0.0017094 400.90 678.81 1.5622 2.1554 2.6286 1485.8 -0.0054592 192.07 0.15778 585.00 0.0017094 400.90 678.81 1.5622 2.1554 2.6286 1485.8 -0.0054592 192.07 0.15778
128.38 23704. undefined 403.06 682.43 1.5675 585.00 0.0017094 403.06 682.43 1.5675 2.1596 2.6320 1487.1 -0.0054542 192.05 0.15796 585.00 0.0017094 403.06 682.43 1.5675 2.1596 2.6320 1487.1 -0.0054542 192.05 0.15796
129.38 23828. undefined 405.22 686.05 1.5729 585.00 0.0017094 405.22 686.05 1.5729 2.1639 2.6355 1488.4 -0.0054492 192.03 0.15814 585.00 0.0017094 405.22 686.05 1.5729 2.1639 2.6355 1488.4 -0.0054492 192.03 0.15814
130.38 23952. undefined 407.39 689.68 1.5783 585.00 0.0017094 407.39 689.68 1.5783 2.1682 2.6390 1489.7 -0.0054442 192.01 0.15832 585.00 0.0017094 407.39 689.68 1.5783 2.1682 2.6390 1489.7 -0.0054442 192.01 0.15832
131.38 24075. undefined 409.56 693.31 1.5837 585.00 0.0017094 409.56 693.31 1.5837 2.1725 2.6424 1490.9 -0.0054391 191.99 0.15850 585.00 0.0017094 409.56 693.31 1.5837 2.1725 2.6424 1490.9 -0.0054391 191.99 0.15850
132.38 24199. undefined 411.73 696.94 1.5890 585.00 0.0017094 411.73 696.94 1.5890 2.1767 2.6459 1492.2 -0.0054341 191.97 0.15868 585.00 0.0017094 411.73 696.94 1.5890 2.1767 2.6459 1492.2 -0.0054341 191.97 0.15868
133.38 24322. undefined 413.91 700.57 1.5944 585.00 0.0017094 413.91 700.57 1.5944 2.1810 2.6493 1493.5 -0.0054291 191.95 0.15886 585.00 0.0017094 413.91 700.57 1.5944 2.1810 2.6493 1493.5 -0.0054291 191.95 0.15886
134.38 24446. undefined 416.09 704.21 1.5998 585.00 0.0017094 416.09 704.21 1.5998 2.1853 2.6528 1494.8 -0.0054240 191.93 0.15904 585.00 0.0017094 416.09 704.21 1.5998 2.1853 2.6528 1494.8 -0.0054240 191.93 0.15904
135.38 24569. undefined 418.28 707.85 1.6051 585.00 0.0017094 418.28 707.85 1.6051 2.1895 2.6563 1496.0 -0.0054190 191.91 0.15922 585.00 0.0017094 418.28 707.85 1.6051 2.1895 2.6563 1496.0 -0.0054190 191.91 0.15922
136.38 24692. undefined 420.47 711.49 1.6105 585.00 0.0017094 420.47 711.49 1.6105 2.1938 2.6597 1497.3 -0.0054140 191.89 0.15940 585.00 0.0017094 420.47 711.49 1.6105 2.1938 2.6597 1497.3 -0.0054140 191.89 0.15940
137.38 24815. undefined 422.67 715.14 1.6158 585.00 0.0017094 422.67 715.14 1.6158 2.1980 2.6632 1498.6 -0.0054089 191.87 0.15958 585.00 0.0017094 422.67 715.14 1.6158 2.1980 2.6632 1498.6 -0.0054089 191.87 0.15958
138.38 24938. undefined 424.87 718.79 1.6212 585.00 0.0017094 424.87 718.79 1.6212 2.2023 2.6667 1499.8 -0.0054039 191.85 0.15976 585.00 0.0017094 424.87 718.79 1.6212 2.2023 2.6667 1499.8 -0.0054039 191.85 0.15976
139.38 25061. undefined 427.07 722.44 1.6265 585.00 0.0017094 427.07 722.44 1.6265 2.2065 2.6701 1501.1 -0.0053988 191.83 0.15994 585.00 0.0017094 427.07 722.44 1.6265 2.2065 2.6701 1501.1 -0.0053988 191.83 0.15994
140.38 25184. undefined 429.28 726.09 1.6319 585.00 0.0017094 429.28 726.09 1.6319 2.2108 2.6736 1502.3 -0.0053938 191.81 0.16012 585.00 0.0017094 429.28 726.09 1.6319 2.2108 2.6736 1502.3 -0.0053938 191.81 0.16012
141.38 25306. undefined 431.49 729.75 1.6372 585.00 0.0017094 431.49 729.75 1.6372 2.2150 2.6771 1503.6 -0.0053887 191.80 0.16031 585.00 0.0017094 431.49 729.75 1.6372 2.2150 2.6771 1503.6 -0.0053887 191.80 0.16031
142.38 25429. undefined 433.71 733.41 1.6426 585.00 0.0017094 433.71 733.41 1.6426 2.2192 2.6805 1504.8 -0.0053837 191.78 0.16049 585.00 0.0017094 433.71 733.41 1.6426 2.2192 2.6805 1504.8 -0.0053837 191.78 0.16049
143.38 25551. undefined 435.93 737.07 1.6479 585.00 0.0017094 435.93 737.07 1.6479 2.2235 2.6840 1506.1 -0.0053786 191.76 0.16067 585.00 0.0017094 435.93 737.07 1.6479 2.2235 2.6840 1506.1 -0.0053786 191.76 0.16067
144.38 25673. undefined 438.16 740.74 1.6532 585.00 0.0017094 438.16 740.74 1.6532 2.2277 2.6875 1507.3 -0.0053735 191.74 0.16085 585.00 0.0017094 438.16 740.74 1.6532 2.2277 2.6875 1507.3 -0.0053735 191.74 0.16085
145.38 25795. undefined 440.39 744.41 1.6586 585.00 0.0017094 440.39 744.41 1.6586 2.2319 2.6909 1508.6 -0.0053685 191.73 0.16104 585.00 0.0017094 440.39 744.41 1.6586 2.2319 2.6909 1508.6 -0.0053685 191.73 0.16104
146.38 25917. undefined 442.62 748.08 1.6639 585.00 0.0017094 442.62 748.08 1.6639 2.2361 2.6944 1509.8 -0.0053634 191.71 0.16122 585.00 0.0017094 442.62 748.08 1.6639 2.2361 2.6944 1509.8 -0.0053634 191.71 0.16122
147.38 26039. undefined 444.86 751.76 1.6692 585.00 0.0017094 444.86 751.76 1.6692 2.2403 2.6979 1511.1 -0.0053584 191.69 0.16141 585.00 0.0017094 444.86 751.76 1.6692 2.2403 2.6979 1511.1 -0.0053584 191.69 0.16141
148.38 26161. undefined 447.10 755.44 1.6746 585.00 0.0017094 447.10 755.44 1.6746 2.2445 2.7014 1512.3 -0.0053533 191.68 0.16159 585.00 0.0017094 447.10 755.44 1.6746 2.2445 2.7014 1512.3 -0.0053533 191.68 0.16159
149.38 26283. undefined 449.35 759.12 1.6799 585.00 0.0017094 449.35 759.12 1.6799 2.2487 2.7048 1513.5 -0.0053483 191.66 0.16177 585.00 0.0017094 449.35 759.12 1.6799 2.2487 2.7048 1513.5 -0.0053483 191.66 0.16177
150.38 26404. undefined 451.60 762.80 1.6852 585.00 0.0017094 451.60 762.80 1.6852 2.2529 2.7083 1514.8 -0.0053432 191.65 0.16196 585.00 0.0017094 451.60 762.80 1.6852 2.2529 2.7083 1514.8 -0.0053432 191.65 0.16196
151.38 26526. undefined 453.86 766.49 1.6905 585.00 0.0017094 453.86 766.49 1.6905 2.2571 2.7118 1516.0 -0.0053382 191.63 0.16214 585.00 0.0017094 453.86 766.49 1.6905 2.2571 2.7118 1516.0 -0.0053382 191.63 0.16214
152.38 26647. undefined 456.11 770.18 1.6958 585.00 0.0017094 456.11 770.18 1.6958 2.2613 2.7152 1517.2 -0.0053331 191.62 0.16233 585.00 0.0017094 456.11 770.18 1.6958 2.2613 2.7152 1517.2 -0.0053331 191.62 0.16233
153.38 26769. undefined 458.38 773.87 1.7012 585.00 0.0017094 458.38 773.87 1.7012 2.2655 2.7187 1518.4 -0.0053281 191.60 0.16252 585.00 0.0017094 458.38 773.87 1.7012 2.2655 2.7187 1518.4 -0.0053281 191.60 0.16252
154.38 26890. undefined 460.65 777.57 1.7065 585.00 0.0017094 460.65 777.57 1.7065 2.2697 2.7222 1519.6 -0.0053231 191.59 0.16270 585.00 0.0017094 460.65 777.57 1.7065 2.2697 2.7222 1519.6 -0.0053231 191.59 0.16270
155.38 27011. undefined 462.92 781.26 1.7118 585.00 0.0017094 462.92 781.26 1.7118 2.2738 2.7256 1520.9 -0.0053180 191.57 0.16289 585.00 0.0017094 462.92 781.26 1.7118 2.2738 2.7256 1520.9 -0.0053180 191.57 0.16289
156.38 27132. undefined 465.19 784.97 1.7171 585.00 0.0017094 465.19 784.97 1.7171 2.2780 2.7291 1522.1 -0.0053130 191.56 0.16308 585.00 0.0017094 465.19 784.97 1.7171 2.2780 2.7291 1522.1 -0.0053130 191.56 0.16308
157.38 27253. undefined 467.47 788.67 1.7224 585.00 0.0017094 467.47 788.67 1.7224 2.2822 2.7325 1523.3 -0.0053079 191.54 0.16326 585.00 0.0017094 467.47 788.67 1.7224 2.2822 2.7325 1523.3 -0.0053079 191.54 0.16326
158.38 27373. undefined 469.76 792.38 1.7277 585.00 0.0017094 469.76 792.38 1.7277 2.2863 2.7360 1524.5 -0.0053029 191.53 0.16345 585.00 0.0017094 469.76 792.38 1.7277 2.2863 2.7360 1524.5 -0.0053029 191.53 0.16345
159.38 27494. undefined 472.05 796.09 1.7330 585.00 0.0017094 472.05 796.09 1.7330 2.2905 2.7395 1525.7 -0.0052979 191.51 0.16364 585.00 0.0017094 472.05 796.09 1.7330 2.2905 2.7395 1525.7 -0.0052979 191.51 0.16364
160.38 27615. undefined 474.34 799.80 1.7383 585.00 0.0017094 474.34 799.80 1.7383 2.2946 2.7429 1526.9 -0.0052929 191.50 0.16382 585.00 0.0017094 474.34 799.80 1.7383 2.2946 2.7429 1526.9 -0.0052929 191.50 0.16382
161.38 27735. undefined 476.64 803.52 1.7436 585.00 0.0017094 476.64 803.52 1.7436 2.2988 2.7464 1528.1 -0.0052879 191.49 0.16401 585.00 0.0017094 476.64 803.52 1.7436 2.2988 2.7464 1528.1 -0.0052879 191.49 0.16401
162.38 27855. undefined 478.94 807.24 1.7489 585.00 0.0017094 478.94 807.24 1.7489 2.3029 2.7498 1529.3 -0.0052828 191.47 0.16420 585.00 0.0017094 478.94 807.24 1.7489 2.3029 2.7498 1529.3 -0.0052828 191.47 0.16420
163.38 27976. undefined 481.24 810.96 1.7541 585.00 0.0017094 481.24 810.96 1.7541 2.3071 2.7533 1530.5 -0.0052778 191.46 0.16439 585.00 0.0017094 481.24 810.96 1.7541 2.3071 2.7533 1530.5 -0.0052778 191.46 0.16439
164.38 28096. undefined 483.55 814.68 1.7594 585.00 0.0017094 483.55 814.68 1.7594 2.3112 2.7568 1531.7 -0.0052728 191.45 0.16458 585.00 0.0017094 483.55 814.68 1.7594 2.3112 2.7568 1531.7 -0.0052728 191.45 0.16458
165.38 28216. undefined 485.86 818.41 1.7647 585.00 0.0017094 485.86 818.41 1.7647 2.3153 2.7602 1532.9 -0.0052678 191.44 0.16477 585.00 0.0017094 485.86 818.41 1.7647 2.3153 2.7602 1532.9 -0.0052678 191.44 0.16477
166.38 28336. undefined 488.18 822.14 1.7700 585.00 0.0017094 488.18 822.14 1.7700 2.3194 2.7637 1534.1 -0.0052628 191.42 0.16496 585.00 0.0017094 488.18 822.14 1.7700 2.3194 2.7637 1534.1 -0.0052628 191.42 0.16496
167.38 28456. undefined 490.50 825.88 1.7753 585.00 0.0017094 490.50 825.88 1.7753 2.3236 2.7671 1535.3 -0.0052578 191.41 0.16515 585.00 0.0017094 490.50 825.88 1.7753 2.3236 2.7671 1535.3 -0.0052578 191.41 0.16515
168.38 28575. undefined 492.83 829.61 1.7805 585.00 0.0017094 492.83 829.61 1.7805 2.3277 2.7706 1536.5 -0.0052528 191.40 0.16534 585.00 0.0017094 492.83 829.61 1.7805 2.3277 2.7706 1536.5 -0.0052528 191.40 0.16534
169.38 28695. undefined 495.16 833.35 1.7858 585.00 0.0017094 495.16 833.35 1.7858 2.3318 2.7740 1537.7 -0.0052479 191.39 0.16553 585.00 0.0017094 495.16 833.35 1.7858 2.3318 2.7740 1537.7 -0.0052479 191.39 0.16553
170.38 28814. undefined 497.49 837.10 1.7911 585.00 0.0017094 497.49 837.10 1.7911 2.3359 2.7775 1538.9 -0.0052429 191.38 0.16572 585.00 0.0017094 497.49 837.10 1.7911 2.3359 2.7775 1538.9 -0.0052429 191.38 0.16572
171.38 28934. undefined 499.83 840.84 1.7963 585.00 0.0017094 499.83 840.84 1.7963 2.3400 2.7809 1540.1 -0.0052379 191.37 0.16591 585.00 0.0017094 499.83 840.84 1.7963 2.3400 2.7809 1540.1 -0.0052379 191.37 0.16591
172.38 29053. undefined 502.17 844.59 1.8016 585.00 0.0017094 502.17 844.59 1.8016 2.3441 2.7844 1541.2 -0.0052329 191.36 0.16610 585.00 0.0017094 502.17 844.59 1.8016 2.3441 2.7844 1541.2 -0.0052329 191.36 0.16610
173.38 29172. undefined 504.52 848.34 1.8069 585.00 0.0017094 504.52 848.34 1.8069 2.3482 2.7878 1542.4 -0.0052280 191.34 0.16629 585.00 0.0017094 504.52 848.34 1.8069 2.3482 2.7878 1542.4 -0.0052280 191.34 0.16629
174.38 29292. undefined 506.87 852.10 1.8121 585.00 0.0017094 506.87 852.10 1.8121 2.3523 2.7912 1543.6 -0.0052230 191.33 0.16648 585.00 0.0017094 506.87 852.10 1.8121 2.3523 2.7912 1543.6 -0.0052230 191.33 0.16648
175.38 29411. undefined 509.22 855.85 1.8174 585.00 0.0017094 509.22 855.85 1.8174 2.3563 2.7947 1544.8 -0.0052181 191.32 0.16668 585.00 0.0017094 509.22 855.85 1.8174 2.3563 2.7947 1544.8 -0.0052181 191.32 0.16668
176.38 29529. undefined 511.58 859.61 1.8226 585.00 0.0017094 511.58 859.61 1.8226 2.3604 2.7981 1545.9 -0.0052131 191.31 0.16687 585.00 0.0017094 511.58 859.61 1.8226 2.3604 2.7981 1545.9 -0.0052131 191.31 0.16687
177.38 29648. undefined 513.94 863.38 1.8279 585.00 0.0017094 513.94 863.38 1.8279 2.3645 2.8016 1547.1 -0.0052082 191.30 0.16706 585.00 0.0017094 513.94 863.38 1.8279 2.3645 2.8016 1547.1 -0.0052082 191.30 0.16706
178.38 29767. undefined 516.31 867.14 1.8331 585.00 0.0017094 516.31 867.14 1.8331 2.3686 2.8050 1548.3 -0.0052033 191.29 0.16726 585.00 0.0017094 516.31 867.14 1.8331 2.3686 2.8050 1548.3 -0.0052033 191.29 0.16726
179.38 29886. undefined 518.68 870.91 1.8384 585.00 0.0017094 518.68 870.91 1.8384 2.3726 2.8084 1549.4 -0.0051984 191.28 0.16745 585.00 0.0017094 518.68 870.91 1.8384 2.3726 2.8084 1549.4 -0.0051984 191.28 0.16745
180.38 30004. undefined 521.06 874.68 1.8436 585.00 0.0017094 521.06 874.68 1.8436 2.3767 2.8119 1550.6 -0.0051934 191.27 0.16764 585.00 0.0017094 521.06 874.68 1.8436 2.3767 2.8119 1550.6 -0.0051934 191.27 0.16764
181.38 30123. undefined 523.43 878.46 1.8488 585.00 0.0017094 523.43 878.46 1.8488 2.3807 2.8153 1551.8 -0.0051885 191.26 0.16784 585.00 0.0017094 523.43 878.46 1.8488 2.3807 2.8153 1551.8 -0.0051885 191.26 0.16784
182.38 30241. undefined 525.82 882.23 1.8541 585.00 0.0017094 525.82 882.23 1.8541 2.3848 2.8187 1552.9 -0.0051836 191.26 0.16803 585.00 0.0017094 525.82 882.23 1.8541 2.3848 2.8187 1552.9 -0.0051836 191.26 0.16803
183.38 30359. undefined 528.20 886.01 1.8593 585.00 0.0017094 528.20 886.01 1.8593 2.3888 2.8221 1554.1 -0.0051787 191.25 0.16823 585.00 0.0017094 528.20 886.01 1.8593 2.3888 2.8221 1554.1 -0.0051787 191.25 0.16823
184.38 30477. undefined 530.59 889.80 1.8645 585.00 0.0017094 530.59 889.80 1.8645 2.3928 2.8256 1555.2 -0.0051739 191.24 0.16842 585.00 0.0017094 530.59 889.80 1.8645 2.3928 2.8256 1555.2 -0.0051739 191.24 0.16842
185.38 30595. undefined 532.99 893.58 1.8698 585.00 0.0017094 532.99 893.58 1.8698 2.3969 2.8290 1556.4 -0.0051690 191.23 0.16862 585.00 0.0017094 532.99 893.58 1.8698 2.3969 2.8290 1556.4 -0.0051690 191.23 0.16862
186.38 30713. undefined 535.39 897.37 1.8750 585.00 0.0017094 535.39 897.37 1.8750 2.4009 2.8324 1557.5 -0.0051641 191.22 0.16881 585.00 0.0017094 535.39 897.37 1.8750 2.4009 2.8324 1557.5 -0.0051641 191.22 0.16881
187.38 30831. undefined 537.79 901.16 1.8802 585.00 0.0017094 537.79 901.16 1.8802 2.4049 2.8358 1558.7 -0.0051592 191.21 0.16901 585.00 0.0017094 537.79 901.16 1.8802 2.4049 2.8358 1558.7 -0.0051592 191.21 0.16901
188.38 30949. undefined 540.20 904.96 1.8854 585.00 0.0017094 540.20 904.96 1.8854 2.4089 2.8392 1559.8 -0.0051544 191.20 0.16920 585.00 0.0017094 540.20 904.96 1.8854 2.4089 2.8392 1559.8 -0.0051544 191.20 0.16920
189.38 31067. undefined 542.61 908.76 1.8907 585.00 0.0017094 542.61 908.76 1.8907 2.4129 2.8427 1561.0 -0.0051495 191.20 0.16940 585.00 0.0017094 542.61 908.76 1.8907 2.4129 2.8427 1561.0 -0.0051495 191.20 0.16940
190.38 31184. undefined 545.02 912.56 1.8959 585.00 0.0017094 545.02 912.56 1.8959 2.4170 2.8461 1562.1 -0.0051447 191.19 0.16960 585.00 0.0017094 545.02 912.56 1.8959 2.4170 2.8461 1562.1 -0.0051447 191.19 0.16960
191.38 31302. undefined 547.44 916.36 1.9011 585.00 0.0017094 547.44 916.36 1.9011 2.4210 2.8495 1563.3 -0.0051399 191.18 0.16979 585.00 0.0017094 547.44 916.36 1.9011 2.4210 2.8495 1563.3 -0.0051399 191.18 0.16979
192.38 31419. undefined 549.87 920.17 1.9063 585.00 0.0017094 549.87 920.17 1.9063 2.4249 2.8529 1564.4 -0.0051350 191.17 0.16999 585.00 0.0017094 549.87 920.17 1.9063 2.4249 2.8529 1564.4 -0.0051350 191.17 0.16999
193.38 31536. undefined 552.29 923.98 1.9115 585.00 0.0017094 552.29 923.98 1.9115 2.4289 2.8563 1565.5 -0.0051302 191.17 0.17019 585.00 0.0017094 552.29 923.98 1.9115 2.4289 2.8563 1565.5 -0.0051302 191.17 0.17019
194.38 31654. undefined 554.72 927.79 1.9167 585.00 0.0017094 554.72 927.79 1.9167 2.4329 2.8597 1566.7 -0.0051254 191.16 0.17038 585.00 0.0017094 554.72 927.79 1.9167 2.4329 2.8597 1566.7 -0.0051254 191.16 0.17038
195.38 31771. undefined 557.16 931.60 1.9219 585.00 0.0017094 557.16 931.60 1.9219 2.4369 2.8631 1567.8 -0.0051206 191.15 0.17058 585.00 0.0017094 557.16 931.60 1.9219 2.4369 2.8631 1567.8 -0.0051206 191.15 0.17058
196.38 31888. undefined 559.60 935.42 1.9271 585.00 0.0017094 559.60 935.42 1.9271 2.4409 2.8665 1568.9 -0.0051158 191.14 0.17078 585.00 0.0017094 559.60 935.42 1.9271 2.4409 2.8665 1568.9 -0.0051158 191.14 0.17078
197.38 32005. undefined 562.04 939.24 1.9323 585.00 0.0017094 562.04 939.24 1.9323 2.4448 2.8699 1570.1 -0.0051110 191.14 0.17098 585.00 0.0017094 562.04 939.24 1.9323 2.4448 2.8699 1570.1 -0.0051110 191.14 0.17098
198.38 32121. undefined 564.49 943.07 1.9375 585.00 0.0017094 564.49 943.07 1.9375 2.4488 2.8733 1571.2 -0.0051063 191.13 0.17118 585.00 0.0017094 564.49 943.07 1.9375 2.4488 2.8733 1571.2 -0.0051063 191.13 0.17118
199.38 32238. undefined 566.94 946.89 1.9427 585.00 0.0017094 566.94 946.89 1.9427 2.4528 2.8766 1572.3 -0.0051015 191.12 0.17138 585.00 0.0017094 566.94 946.89 1.9427 2.4528 2.8766 1572.3 -0.0051015 191.12 0.17138
200.38 32355. undefined 569.39 950.72 1.9479 585.00 0.0017094 569.39 950.72 1.9479 2.4567 2.8800 1573.4 -0.0050967 191.12 0.17158 585.00 0.0017094 569.39 950.72 1.9479 2.4567 2.8800 1573.4 -0.0050967 191.12 0.17158
201.38 32471. undefined 571.85 954.55 1.9531 585.00 0.0017094 571.85 954.55 1.9531 2.4607 2.8834 1574.6 -0.0050920 191.11 0.17178 585.00 0.0017094 571.85 954.55 1.9531 2.4607 2.8834 1574.6 -0.0050920 191.11 0.17178
202.38 32588. undefined 574.31 958.39 1.9583 585.00 0.0017094 574.31 958.39 1.9583 2.4646 2.8868 1575.7 -0.0050872 191.11 0.17198 585.00 0.0017094 574.31 958.39 1.9583 2.4646 2.8868 1575.7 -0.0050872 191.11 0.17198
203.38 32704. undefined 576.78 962.23 1.9634 585.00 0.0017094 576.78 962.23 1.9634 2.4685 2.8902 1576.8 -0.0050825 191.10 0.17218 585.00 0.0017094 576.78 962.23 1.9634 2.4685 2.8902 1576.8 -0.0050825 191.10 0.17218
204.38 32820. undefined 579.25 966.07 1.9686 585.00 0.0017094 579.25 966.07 1.9686 2.4725 2.8935 1577.9 -0.0050778 191.10 0.17238 585.00 0.0017094 579.25 966.07 1.9686 2.4725 2.8935 1577.9 -0.0050778 191.10 0.17238
205.38 32936. undefined 581.73 969.91 1.9738 585.00 0.0017094 581.73 969.91 1.9738 2.4764 2.8969 1579.0 -0.0050731 191.09 0.17258 585.00 0.0017094 581.73 969.91 1.9738 2.4764 2.8969 1579.0 -0.0050731 191.09 0.17258
206.38 33053. undefined 584.20 973.76 1.9790 585.00 0.0017094 584.20 973.76 1.9790 2.4803 2.9003 1580.1 -0.0050683 191.08 0.17278 585.00 0.0017094 584.20 973.76 1.9790 2.4803 2.9003 1580.1 -0.0050683 191.08 0.17278
207.38 33168. undefined 586.69 977.61 1.9841 585.00 0.0017094 586.69 977.61 1.9841 2.4842 2.9037 1581.2 -0.0050637 191.08 0.17298 585.00 0.0017094 586.69 977.61 1.9841 2.4842 2.9037 1581.2 -0.0050637 191.08 0.17298
208.38 33284. undefined 589.17 981.46 1.9893 585.00 0.0017094 589.17 981.46 1.9893 2.4882 2.9070 1582.4 -0.0050590 191.07 0.17318 585.00 0.0017094 589.17 981.46 1.9893 2.4882 2.9070 1582.4 -0.0050590 191.07 0.17318
209.38 33400. undefined 591.66 985.31 1.9945 585.00 0.0017094 591.66 985.31 1.9945 2.4921 2.9104 1583.5 -0.0050543 191.07 0.17339 585.00 0.0017094 591.66 985.31 1.9945 2.4921 2.9104 1583.5 -0.0050543 191.07 0.17339
210.38 33516. undefined 594.16 989.17 1.9996 585.00 0.0017094 594.16 989.17 1.9996 2.4960 2.9137 1584.6 -0.0050496 191.06 0.17359 585.00 0.0017094 594.16 989.17 1.9996 2.4960 2.9137 1584.6 -0.0050496 191.06 0.17359
211.38 33632. undefined 596.65 993.03 2.0048 585.00 0.0017094 596.65 993.03 2.0048 2.4999 2.9171 1585.7 -0.0050450 191.06 0.17379 585.00 0.0017094 596.65 993.03 2.0048 2.4999 2.9171 1585.7 -0.0050450 191.06 0.17379
212.38 33747. undefined 599.16 996.90 2.0100 585.00 0.0017094 599.16 996.90 2.0100 2.5038 2.9204 1586.8 -0.0050403 191.05 0.17399 585.00 0.0017094 599.16 996.90 2.0100 2.5038 2.9204 1586.8 -0.0050403 191.05 0.17399
213.38 33862. undefined 601.66 1000.8 2.0151 585.00 0.0017094 601.66 1000.8 2.0151 2.5076 2.9238 1587.9 -0.0050357 191.05 0.17420 585.00 0.0017094 601.66 1000.8 2.0151 2.5076 2.9238 1587.9 -0.0050357 191.05 0.17420
214.38 33978. undefined 604.17 1004.6 2.0203 585.00 0.0017094 604.17 1004.6 2.0203 2.5115 2.9271 1589.0 -0.0050310 191.05 0.17440 585.00 0.0017094 604.17 1004.6 2.0203 2.5115 2.9271 1589.0 -0.0050310 191.05 0.17440
215.38 34093. undefined 606.68 1008.5 2.0254 585.00 0.0017094 606.68 1008.5 2.0254 2.5154 2.9305 1590.1 -0.0050264 191.04 0.17461 585.00 0.0017094 606.68 1008.5 2.0254 2.5154 2.9305 1590.1 -0.0050264 191.04 0.17461
216.38 34208. undefined 609.20 1012.4 2.0306 585.00 0.0017094 609.20 1012.4 2.0306 2.5193 2.9338 1591.2 -0.0050218 191.04 0.17481 585.00 0.0017094 609.20 1012.4 2.0306 2.5193 2.9338 1591.2 -0.0050218 191.04 0.17481
217.38 34323. undefined 611.72 1016.3 2.0357 585.00 0.0017094 611.72 1016.3 2.0357 2.5231 2.9372 1592.3 -0.0050172 191.03 0.17501 585.00 0.0017094 611.72 1016.3 2.0357 2.5231 2.9372 1592.3 -0.0050172 191.03 0.17501
218.38 34438. undefined 614.25 1020.1 2.0409 585.00 0.0017094 614.25 1020.1 2.0409 2.5270 2.9405 1593.3 -0.0050126 191.03 0.17522 585.00 0.0017094 614.25 1020.1 2.0409 2.5270 2.9405 1593.3 -0.0050126 191.03 0.17522
219.38 34553. undefined 616.78 1024.0 2.0460 585.00 0.0017094 616.78 1024.0 2.0460 2.5308 2.9438 1594.4 -0.0050080 191.03 0.17542 585.00 0.0017094 616.78 1024.0 2.0460 2.5308 2.9438 1594.4 -0.0050080 191.03 0.17542
220.38 34668. undefined 619.31 1027.9 2.0511 585.00 0.0017094 619.31 1027.9 2.0511 2.5347 2.9472 1595.5 -0.0050034 191.02 0.17563 585.00 0.0017094 619.31 1027.9 2.0511 2.5347 2.9472 1595.5 -0.0050034 191.02 0.17563
221.38 34783. undefined 621.85 1031.8 2.0563 585.00 0.0017094 621.85 1031.8 2.0563 2.5385 2.9505 1596.6 -0.0049989 191.02 0.17583 585.00 0.0017094 621.85 1031.8 2.0563 2.5385 2.9505 1596.6 -0.0049989 191.02 0.17583
222.38 34897. undefined 624.39 1035.7 2.0614 585.00 0.0017094 624.39 1035.7 2.0614 2.5424 2.9538 1597.7 -0.0049943 191.02 0.17604 585.00 0.0017094 624.39 1035.7 2.0614 2.5424 2.9538 1597.7 -0.0049943 191.02 0.17604
223.38 35012. undefined 626.93 1039.6 2.0665 585.00 0.0017094 626.93 1039.6 2.0665 2.5462 2.9571 1598.8 -0.0049897 191.01 0.17625 585.00 0.0017094 626.93 1039.6 2.0665 2.5462 2.9571 1598.8 -0.0049897 191.01 0.17625
224.38 35126. undefined 629.48 1043.5 2.0717 585.00 0.0017094 629.48 1043.5 2.0717 2.5500 2.9604 1599.9 -0.0049852 191.01 0.17645 585.00 0.0017094 629.48 1043.5 2.0717 2.5500 2.9604 1599.9 -0.0049852 191.01 0.17645
225.38 35241. undefined 632.03 1047.4 2.0768 585.00 0.0017094 632.03 1047.4 2.0768 2.5538 2.9638 1600.9 -0.0049807 191.01 0.17666 585.00 0.0017094 632.03 1047.4 2.0768 2.5538 2.9638 1600.9 -0.0049807 191.01 0.17666
226.38 35355. undefined 634.59 1051.3 2.0819 585.00 0.0017094 634.59 1051.3 2.0819 2.5577 2.9671 1602.0 -0.0049762 191.00 0.17687 585.00 0.0017094 634.59 1051.3 2.0819 2.5577 2.9671 1602.0 -0.0049762 191.00 0.17687
227.38 35469. undefined 637.15 1055.2 2.0870 585.00 0.0017094 637.15 1055.2 2.0870 2.5615 2.9704 1603.1 -0.0049717 191.00 0.17707 585.00 0.0017094 637.15 1055.2 2.0870 2.5615 2.9704 1603.1 -0.0049717 191.00 0.17707
228.38 35583. undefined 639.71 1059.1 2.0921 585.00 0.0017094 639.71 1059.1 2.0921 2.5653 2.9737 1604.2 -0.0049672 191.00 0.17728 585.00 0.0017094 639.71 1059.1 2.0921 2.5653 2.9737 1604.2 -0.0049672 191.00 0.17728
229.38 35697. undefined 642.28 1063.0 2.0972 585.00 0.0017094 642.28 1063.0 2.0972 2.5691 2.9770 1605.2 -0.0049627 191.00 0.17749 585.00 0.0017094 642.28 1063.0 2.0972 2.5691 2.9770 1605.2 -0.0049627 191.00 0.17749
230.38 35811. undefined 644.85 1066.9 2.1024 585.00 0.0017094 644.85 1066.9 2.1024 2.5729 2.9803 1606.3 -0.0049582 191.00 0.17770 585.00 0.0017094 644.85 1066.9 2.1024 2.5729 2.9803 1606.3 -0.0049582 191.00 0.17770
231.38 35925. undefined 647.42 1070.8 2.1075 585.00 0.0017094 647.42 1070.8 2.1075 2.5767 2.9836 1607.4 -0.0049537 190.99 0.17791 585.00 0.0017094 647.42 1070.8 2.1075 2.5767 2.9836 1607.4 -0.0049537 190.99 0.17791
232.38 36039. undefined 650.00 1074.8 2.1126 585.00 0.0017094 650.00 1074.8 2.1126 2.5805 2.9869 1608.4 -0.0049493 190.99 0.17812 585.00 0.0017094 650.00 1074.8 2.1126 2.5805 2.9869 1608.4 -0.0049493 190.99 0.17812
233.38 36153. undefined 652.58 1078.7 2.1177 585.00 0.0017094 652.58 1078.7 2.1177 2.5842 2.9901 1609.5 -0.0049448 190.99 0.17833 585.00 0.0017094 652.58 1078.7 2.1177 2.5842 2.9901 1609.5 -0.0049448 190.99 0.17833
234.38 36266. undefined 655.17 1082.6 2.1228 585.00 0.0017094 655.17 1082.6 2.1228 2.5880 2.9934 1610.6 -0.0049404 190.99 0.17853 585.00 0.0017094 655.17 1082.6 2.1228 2.5880 2.9934 1610.6 -0.0049404 190.99 0.17853
235.38 36380. undefined 657.76 1086.5 2.1279 585.00 0.0017094 657.76 1086.5 2.1279 2.5918 2.9967 1611.6 -0.0049359 190.99 0.17874 585.00 0.0017094 657.76 1086.5 2.1279 2.5918 2.9967 1611.6 -0.0049359 190.99 0.17874
236.38 36493. undefined 660.35 1090.5 2.1330 585.00 0.0017094 660.35 1090.5 2.1330 2.5955 3.0000 1612.7 -0.0049315 190.98 0.17895 585.00 0.0017094 660.35 1090.5 2.1330 2.5955 3.0000 1612.7 -0.0049315 190.98 0.17895
237.38 36607. undefined 662.95 1094.4 2.1381 585.00 0.0017094 662.95 1094.4 2.1381 2.5993 3.0033 1613.7 -0.0049271 190.98 0.17916 585.00 0.0017094 662.95 1094.4 2.1381 2.5993 3.0033 1613.7 -0.0049271 190.98 0.17916
238.38 36720. undefined 665.55 1098.3 2.1432 585.00 0.0017094 665.55 1098.3 2.1432 2.6030 3.0065 1614.8 -0.0049227 190.98 0.17938 585.00 0.0017094 665.55 1098.3 2.1432 2.6030 3.0065 1614.8 -0.0049227 190.98 0.17938
239.38 36833. undefined 668.16 1102.3 2.1482 585.00 0.0017094 668.16 1102.3 2.1482 2.6068 3.0098 1615.9 -0.0049183 190.98 0.17959 585.00 0.0017094 668.16 1102.3 2.1482 2.6068 3.0098 1615.9 -0.0049183 190.98 0.17959
240.38 36946. undefined 670.77 1106.2 2.1533 585.00 0.0017094 670.77 1106.2 2.1533 2.6105 3.0131 1616.9 -0.0049139 190.98 0.17980 585.00 0.0017094 670.77 1106.2 2.1533 2.6105 3.0131 1616.9 -0.0049139 190.98 0.17980
241.38 37059. undefined 673.38 1110.2 2.1584 585.00 0.0017094 673.38 1110.2 2.1584 2.6143 3.0163 1618.0 -0.0049096 190.98 0.18001 585.00 0.0017094 673.38 1110.2 2.1584 2.6143 3.0163 1618.0 -0.0049096 190.98 0.18001
242.38 37172. undefined 675.99 1114.1 2.1635 585.00 0.0017094 675.99 1114.1 2.1635 2.6180 3.0196 1619.0 -0.0049052 190.98 0.18022 585.00 0.0017094 675.99 1114.1 2.1635 2.6180 3.0196 1619.0 -0.0049052 190.98 0.18022
243.38 37285. undefined 678.61 1118.1 2.1686 585.00 0.0017094 678.61 1118.1 2.1686 2.6217 3.0228 1620.1 -0.0049008 190.98 0.18043 585.00 0.0017094 678.61 1118.1 2.1686 2.6217 3.0228 1620.1 -0.0049008 190.98 0.18043
244.38 37398. undefined 681.24 1122.0 2.1736 585.00 0.0017094 681.24 1122.0 2.1736 2.6255 3.0261 1621.1 -0.0048965 190.98 0.18065 585.00 0.0017094 681.24 1122.0 2.1736 2.6255 3.0261 1621.1 -0.0048965 190.98 0.18065
245.38 37510. undefined 683.87 1126.0 2.1787 585.00 0.0017094 683.87 1126.0 2.1787 2.6292 3.0293 1622.2 -0.0048922 190.97 0.18086 585.00 0.0017094 683.87 1126.0 2.1787 2.6292 3.0293 1622.2 -0.0048922 190.97 0.18086
246.38 37623. undefined 686.50 1129.9 2.1838 585.00 0.0017094 686.50 1129.9 2.1838 2.6329 3.0326 1623.2 -0.0048878 190.97 0.18107 585.00 0.0017094 686.50 1129.9 2.1838 2.6329 3.0326 1623.2 -0.0048878 190.97 0.18107
247.38 37736. undefined 689.13 1133.9 2.1888 585.00 0.0017094 689.13 1133.9 2.1888 2.6366 3.0358 1624.2 -0.0048835 190.97 0.18128 585.00 0.0017094 689.13 1133.9 2.1888 2.6366 3.0358 1624.2 -0.0048835 190.97 0.18128
248.38 37848. undefined 691.77 1137.8 2.1939 585.00 0.0017094 691.77 1137.8 2.1939 2.6403 3.0391 1625.3 -0.0048792 190.97 0.18150 585.00 0.0017094 691.77 1137.8 2.1939 2.6403 3.0391 1625.3 -0.0048792 190.97 0.18150
249.38 37960. undefined 694.41 1141.8 2.1990 585.00 0.0017094 694.41 1141.8 2.1990 2.6440 3.0423 1626.3 -0.0048749 190.97 0.18171 585.00 0.0017094 694.41 1141.8 2.1990 2.6440 3.0423 1626.3 -0.0048749 190.97 0.18171
250.38 38073. undefined 697.06 1145.8 2.2040 585.00 0.0017094 697.06 1145.8 2.2040 2.6477 3.0455 1627.4 -0.0048707 190.97 0.18193 585.00 0.0017094 697.06 1145.8 2.2040 2.6477 3.0455 1627.4 -0.0048707 190.97 0.18193
251.38 38185. undefined 699.71 1149.7 2.2091 585.00 0.0017094 699.71 1149.7 2.2091 2.6513 3.0487 1628.4 -0.0048664 190.97 0.18214 585.00 0.0017094 699.71 1149.7 2.2091 2.6513 3.0487 1628.4 -0.0048664 190.97 0.18214
252.38 38297. undefined 702.36 1153.7 2.2141 585.00 0.0017094 702.36 1153.7 2.2141 2.6550 3.0520 1629.4 -0.0048621 190.97 0.18235 585.00 0.0017094 702.36 1153.7 2.2141 2.6550 3.0520 1629.4 -0.0048621 190.97 0.18235
253.38 38409. undefined 705.02 1157.7 2.2192 585.00 0.0017094 705.02 1157.7 2.2192 2.6587 3.0552 1630.5 -0.0048579 190.97 0.18257 585.00 0.0017094 705.02 1157.7 2.2192 2.6587 3.0552 1630.5 -0.0048579 190.97 0.18257
254.38 38521. undefined 707.68 1161.7 2.2242 585.00 0.0017094 707.68 1161.7 2.2242 2.6624 3.0584 1631.5 -0.0048536 190.97 0.18279 585.00 0.0017094 707.68 1161.7 2.2242 2.6624 3.0584 1631.5 -0.0048536 190.97 0.18279
255.38 38633. undefined 710.34 1165.7 2.2293 585.00 0.0017094 710.34 1165.7 2.2293 2.6660 3.0616 1632.5 -0.0048494 190.97 0.18300 585.00 0.0017094 710.34 1165.7 2.2293 2.6660 3.0616 1632.5 -0.0048494 190.97 0.18300
256.38 38745. undefined 713.01 1169.6 2.2343 585.00 0.0017094 713.01 1169.6 2.2343 2.6697 3.0648 1633.6 -0.0048452 190.97 0.18322 585.00 0.0017094 713.01 1169.6 2.2343 2.6697 3.0648 1633.6 -0.0048452 190.97 0.18322
257.38 38856. undefined 715.68 1173.6 2.2394 585.00 0.0017094 715.68 1173.6 2.2394 2.6733 3.0680 1634.6 -0.0048410 190.97 0.18343 585.00 0.0017094 715.68 1173.6 2.2394 2.6733 3.0680 1634.6 -0.0048410 190.97 0.18343
258.38 38968. undefined 718.36 1177.6 2.2444 585.00 0.0017094 718.36 1177.6 2.2444 2.6770 3.0712 1635.6 -0.0048368 190.98 0.18365 585.00 0.0017094 718.36 1177.6 2.2444 2.6770 3.0712 1635.6 -0.0048368 190.98 0.18365
259.38 39079. undefined 721.03 1181.6 2.2494 585.00 0.0017094 721.03 1181.6 2.2494 2.6806 3.0744 1636.6 -0.0048326 190.98 0.18387 585.00 0.0017094 721.03 1181.6 2.2494 2.6806 3.0744 1636.6 -0.0048326 190.98 0.18387
260.38 39191. undefined 723.72 1185.6 2.2545 585.00 0.0017094 723.72 1185.6 2.2545 2.6843 3.0776 1637.6 -0.0048284 190.98 0.18408 585.00 0.0017094 723.72 1185.6 2.2545 2.6843 3.0776 1637.6 -0.0048284 190.98 0.18408
261.38 39302. undefined 726.40 1189.6 2.2595 585.00 0.0017094 726.40 1189.6 2.2595 2.6879 3.0808 1638.7 -0.0048242 190.98 0.18430 585.00 0.0017094 726.40 1189.6 2.2595 2.6879 3.0808 1638.7 -0.0048242 190.98 0.18430
262.38 39414. undefined 729.09 1193.6 2.2645 585.00 0.0017094 729.09 1193.6 2.2645 2.6915 3.0840 1639.7 -0.0048201 190.98 0.18452 585.00 0.0017094 729.09 1193.6 2.2645 2.6915 3.0840 1639.7 -0.0048201 190.98 0.18452
263.38 39525. undefined 731.79 1197.6 2.2696 585.00 0.0017094 731.79 1197.6 2.2696 2.6951 3.0872 1640.7 -0.0048159 190.98 0.18474 585.00 0.0017094 731.79 1197.6 2.2696 2.6951 3.0872 1640.7 -0.0048159 190.98 0.18474
264.38 39636. undefined 734.48 1201.6 2.2746 585.00 0.0017094 734.48 1201.6 2.2746 2.6988 3.0904 1641.7 -0.0048118 190.98 0.18495 585.00 0.0017094 734.48 1201.6 2.2746 2.6988 3.0904 1641.7 -0.0048118 190.98 0.18495
265.38 39747. undefined 737.18 1205.6 2.2796 585.00 0.0017094 737.18 1205.6 2.2796 2.7024 3.0936 1642.7 -0.0048076 190.98 0.18517 585.00 0.0017094 737.18 1205.6 2.2796 2.7024 3.0936 1642.7 -0.0048076 190.98 0.18517
266.38 39858. undefined 739.89 1209.7 2.2846 585.00 0.0017094 739.89 1209.7 2.2846 2.7060 3.0967 1643.8 -0.0048035 190.98 0.18539 585.00 0.0017094 739.89 1209.7 2.2846 2.7060 3.0967 1643.8 -0.0048035 190.98 0.18539
267.38 39969. undefined 742.60 1213.7 2.2896 585.00 0.0017094 742.60 1213.7 2.2896 2.7096 3.0999 1644.8 -0.0047994 190.98 0.18561 585.00 0.0017094 742.60 1213.7 2.2896 2.7096 3.0999 1644.8 -0.0047994 190.98 0.18561
268.38 40080. undefined 745.31 1217.7 2.2946 585.00 0.0017094 745.31 1217.7 2.2946 2.7132 3.1031 1645.8 -0.0047953 190.99 0.18583 585.00 0.0017094 745.31 1217.7 2.2946 2.7132 3.1031 1645.8 -0.0047953 190.99 0.18583
269.38 40191. undefined 748.02 1221.7 2.2996 585.00 0.0017094 748.02 1221.7 2.2996 2.7168 3.1062 1646.8 -0.0047912 190.99 0.18605 585.00 0.0017094 748.02 1221.7 2.2996 2.7168 3.1062 1646.8 -0.0047912 190.99 0.18605
270.38 40301. undefined 750.74 1225.7 2.3047 585.00 0.0017094 750.74 1225.7 2.3047 2.7203 3.1094 1647.8 -0.0047871 190.99 0.18627 585.00 0.0017094 750.74 1225.7 2.3047 2.7203 3.1094 1647.8 -0.0047871 190.99 0.18627
271.38 40412. undefined 753.46 1229.8 2.3097 585.00 0.0017094 753.46 1229.8 2.3097 2.7239 3.1126 1648.8 -0.0047830 190.99 0.18649 585.00 0.0017094 753.46 1229.8 2.3097 2.7239 3.1126 1648.8 -0.0047830 190.99 0.18649
272.38 40522. undefined 756.19 1233.8 2.3147 585.00 0.0017094 756.19 1233.8 2.3147 2.7275 3.1157 1649.8 -0.0047790 190.99 0.18671 585.00 0.0017094 756.19 1233.8 2.3147 2.7275 3.1157 1649.8 -0.0047790 190.99 0.18671
273.38 40633. undefined 758.92 1237.8 2.3197 585.00 0.0017094 758.92 1237.8 2.3197 2.7311 3.1189 1650.8 -0.0047749 191.00 0.18693 585.00 0.0017094 758.92 1237.8 2.3197 2.7311 3.1189 1650.8 -0.0047749 191.00 0.18693
274.38 40743. undefined 761.65 1241.8 2.3247 585.00 0.0017094 761.65 1241.8 2.3247 2.7346 3.1220 1651.8 -0.0047709 191.00 0.18715 585.00 0.0017094 761.65 1241.8 2.3247 2.7346 3.1220 1651.8 -0.0047709 191.00 0.18715
275.38 40853. undefined 764.39 1245.9 2.3296 585.00 0.0017094 764.39 1245.9 2.3296 2.7382 3.1251 1652.8 -0.0047668 191.00 0.18737 585.00 0.0017094 764.39 1245.9 2.3296 2.7382 3.1251 1652.8 -0.0047668 191.00 0.18737
276.38 40964. undefined 767.13 1249.9 2.3346 585.00 0.0017094 767.13 1249.9 2.3346 2.7417 3.1283 1653.8 -0.0047628 191.00 0.18760 585.00 0.0017094 767.13 1249.9 2.3346 2.7417 3.1283 1653.8 -0.0047628 191.00 0.18760
277.38 41074. undefined 769.87 1254.0 2.3396 585.00 0.0017094 769.87 1254.0 2.3396 2.7453 3.1314 1654.8 -0.0047588 191.00 0.18782 585.00 0.0017094 769.87 1254.0 2.3396 2.7453 3.1314 1654.8 -0.0047588 191.00 0.18782
278.38 41184. undefined 772.62 1258.0 2.3446 585.00 0.0017094 772.62 1258.0 2.3446 2.7488 3.1346 1655.8 -0.0047548 191.01 0.18804 585.00 0.0017094 772.62 1258.0 2.3446 2.7488 3.1346 1655.8 -0.0047548 191.01 0.18804
279.38 41294. undefined 775.37 1262.1 2.3496 585.00 0.0017094 775.37 1262.1 2.3496 2.7524 3.1377 1656.8 -0.0047508 191.01 0.18826 585.00 0.0017094 775.37 1262.1 2.3496 2.7524 3.1377 1656.8 -0.0047508 191.01 0.18826
280.38 41404. undefined 778.12 1266.1 2.3546 585.00 0.0017094 778.12 1266.1 2.3546 2.7559 3.1408 1657.8 -0.0047468 191.01 0.18849 585.00 0.0017094 778.12 1266.1 2.3546 2.7559 3.1408 1657.8 -0.0047468 191.01 0.18849
281.38 41514. undefined 780.88 1270.2 2.3596 585.00 0.0017094 780.88 1270.2 2.3596 2.7594 3.1439 1658.8 -0.0047428 191.01 0.18871 585.00 0.0017094 780.88 1270.2 2.3596 2.7594 3.1439 1658.8 -0.0047428 191.01 0.18871
282.38 41623. undefined 783.64 1274.2 2.3645 585.00 0.0017094 783.64 1274.2 2.3645 2.7629 3.1470 1659.8 -0.0047389 191.02 0.18873 585.00 0.0017094 783.64 1274.2 2.3645 2.7629 3.1470 1659.8 -0.0047389 191.02 0.18873
283.38 41733. undefined 786.41 1278.3 2.3695 585.00 0.0017094 786.41 1278.3 2.3695 2.7665 3.1502 1660.8 -0.0047349 191.02 0.18895 585.00 0.0017094 786.41 1278.3 2.3695 2.7665 3.1502 1660.8 -0.0047349 191.02 0.18895
284.38 41843. undefined 789.17 1282.3 2.3745 585.00 0.0017094 789.17 1282.3 2.3745 2.7700 3.1533 1661.8 -0.0047310 191.02 0.18917 585.00 0.0017094 789.17 1282.3 2.3745 2.7700 3.1533 1661.8 -0.0047310 191.02 0.18917
285.38 41952. undefined 791.95 1286.4 2.3794 585.00 0.0017094 791.95 1286.4 2.3794 2.7735 3.1564 1662.7 -0.0047270 191.02 0.18940 585.00 0.0017094 791.95 1286.4 2.3794 2.7735 3.1564 1662.7 -0.0047270 191.02 0.18940
286.38 42062. undefined 794.72 1290.5 2.3844 585.00 0.0017094 794.72 1290.5 2.3844 2.7770 3.1595 1663.7 -0.0047231 191.03 0.18962 585.00 0.0017094 794.72 1290.5 2.3844 2.7770 3.1595 1663.7 -0.0047231 191.03 0.18962
287.38 42171. undefined 797.50 1294.5 2.3894 585.00 0.0017094 797.50 1294.5 2.3894 2.7805 3.1626 1664.7 -0.0047192 191.03 0.18985 585.00 0.0017094 797.50 1294.5 2.3894 2.7805 3.1626 1664.7 -0.0047192 191.03 0.18985
288.38 42280. undefined 800.28 1298.6 2.3943 585.00 0.0017094 800.28 1298.6 2.3943 2.7840 3.1657 1665.7 -0.0047153 191.03 0.19007 585.00 0.0017094 800.28 1298.6 2.3943 2.7840 3.1657 1665.7 -0.0047153 191.03 0.19007
289.38 42390. undefined 803.07 1302.7 2.3993 585.00 0.0017094 803.07 1302.7 2.3993 2.7875 3.1688 1666.7 -0.0047114 191.04 0.19030 585.00 0.0017094 803.07 1302.7 2.3993 2.7875 3.1688 1666.7 -0.0047114 191.04 0.19030
290.38 42499. undefined 805.86 1306.7 2.4042 585.00 0.0017094 805.86 1306.7 2.4042 2.7909 3.1719 1667.7 -0.0047075 191.04 0.19052 585.00 0.0017094 805.86 1306.7 2.4042 2.7909 3.1719 1667.7 -0.0047075 191.04 0.19052
291.38 42608. undefined 808.65 1310.8 2.4092 585.00 0.0017094 808.65 1310.8 2.4092 2.7944 3.1749 1668.6 -0.0047036 191.04 0.19075 585.00 0.0017094 808.65 1310.8 2.4092 2.7944 3.1749 1668.6 -0.0047036 191.04 0.19075
292.38 42717. undefined 811.45 1314.9 2.4141 585.00 0.0017094 811.45 1314.9 2.4141 2.7979 3.1780 1669.6 -0.0046998 191.05 0.19097 585.00 0.0017094 811.45 1314.9 2.4141 2.7979 3.1780 1669.6 -0.0046998 191.05 0.19097
293.38 42826. undefined 814.25 1319.0 2.4191 585.00 0.0017094 814.25 1319.0 2.4191 2.8014 3.1811 1670.6 -0.0046959 191.05 0.19120 585.00 0.0017094 814.25 1319.0 2.4191 2.8014 3.1811 1670.6 -0.0046959 191.05 0.19120
294.38 42935. undefined 817.05 1323.1 2.4240 585.00 0.0017094 817.05 1323.1 2.4240 2.8048 3.1842 1671.6 -0.0046920 191.05 0.19142 585.00 0.0017094 817.05 1323.1 2.4240 2.8048 3.1842 1671.6 -0.0046920 191.05 0.19142
295.38 43043. undefined 819.86 1327.2 2.4290 585.00 0.0017094 819.86 1327.2 2.4290 2.8083 3.1872 1672.5 -0.0046882 191.06 0.19165 585.00 0.0017094 819.86 1327.2 2.4290 2.8083 3.1872 1672.5 -0.0046882 191.06 0.19165
296.38 43152. undefined 822.67 1331.3 2.4339 585.00 0.0017094 822.67 1331.3 2.4339 2.8117 3.1903 1673.5 -0.0046844 191.06 0.19188 585.00 0.0017094 822.67 1331.3 2.4339 2.8117 3.1903 1673.5 -0.0046844 191.06 0.19188
297.38 43261. undefined 825.48 1335.3 2.4388 585.00 0.0017094 825.48 1335.3 2.4388 2.8152 3.1934 1674.5 -0.0046805 191.06 0.19211 585.00 0.0017094 825.48 1335.3 2.4388 2.8152 3.1934 1674.5 -0.0046805 191.06 0.19211
298.38 43369. undefined 828.30 1339.4 2.4438 585.00 0.0017094 828.30 1339.4 2.4438 2.8186 3.1964 1675.4 -0.0046767 191.07 0.19233 585.00 0.0017094 828.30 1339.4 2.4438 2.8186 3.1964 1675.4 -0.0046767 191.07 0.19233
299.38 43478. undefined 831.12 1343.5 2.4487 585.00 0.0017094 831.12 1343.5 2.4487 2.8221 3.1995 1676.4 -0.0046729 191.07 0.19256 585.00 0.0017094 831.12 1343.5 2.4487 2.8221 3.1995 1676.4 -0.0046729 191.07 0.19256
300.38 43586. undefined 833.94 1347.6 2.4536 585.00 0.0017094 833.94 1347.6 2.4536 2.8255 3.2025 1677.4 -0.0046691 191.08 0.19279 585.00 0.0017094 833.94 1347.6 2.4536 2.8255 3.2025 1677.4 -0.0046691 191.08 0.19279