Temperature (C) Pressure (psia) Quality (l+v) Internal Energy (l+v, kJ/kg) Enthalpy (l+v, kJ/kg) Entropy (l+v, J/g*K) Density (l, kg/m3) Volume (l, m3/kg) Internal Energy (l, kJ/kg) Enthalpy (l, kJ/kg) Entropy (l, J/g*K) Cv (l, J/g*K) Cp (l, J/g*K) Sound Spd. (l, m/s) Joule-Thomson (l, F/psia) Viscosity (l, uPa*s) Therm. Cond. (l, W/m*K) Density (v, kg/m3) Volume (v, m3/kg) Internal Energy (v, kJ/kg) Enthalpy (v, kJ/kg) Entropy (v, J/g*K) Cv (v, J/g*K) Cp (v, J/g*K) Sound Spd. (v, m/s) Joule-Thomson (v, F/psia) Viscosity (v, uPa*s) Therm. Cond. (v, W/m*K)
-187.62 2.4953e-08 3.3782e-12 -196.64 -196.64 -1.3959 733.13 0.0013640 -196.64 -196.64 -1.3959 1.3553 1.9158 2136.4 -0.0077592 10960. 0.20792 1.0669e-08 9.3732e+07 350.13 366.26 5.1858 0.69067 0.87923 143.28 6.1051 2.3259 0.0017061
-186.62 3.7339e-08 4.9660e-12 -194.73 -194.73 -1.3736 732.08 0.0013660 -194.73 -194.73 -1.3736 1.3539 1.9166 2129.6 -0.0077546 10073. 0.20765 1.5780e-08 6.3371e+07 350.82 367.14 5.1200 0.69462 0.88317 144.03 5.9178 2.3534 0.0017533
-185.62 5.5322e-08 7.2285e-12 -192.81 -192.81 -1.3516 731.04 0.0013679 -192.81 -192.81 -1.3516 1.3525 1.9174 2122.9 -0.0077498 9276.1 0.20737 2.3112e-08 4.3267e+07 351.52 368.02 5.0561 0.69857 0.88713 144.77 5.7383 2.3808 0.0018007
-184.62 8.1182e-08 1.0422e-11 -190.89 -190.89 -1.3298 730.00 0.0013699 -190.89 -190.89 -1.3298 1.3513 1.9182 2116.1 -0.0077448 8557.8 0.20708 3.3533e-08 2.9821e+07 352.22 368.91 4.9939 0.70253 0.89108 145.51 5.5662 2.4083 0.0018485
-183.62 1.1803e-07 1.4890e-11 -188.97 -188.97 -1.3083 728.96 0.0013718 -188.97 -188.97 -1.3083 1.3501 1.9191 2109.3 -0.0077395 7909.8 0.20678 4.8211e-08 2.0742e+07 352.92 369.81 4.9333 0.70648 0.89504 146.24 5.4011 2.4357 0.0018965
-182.62 1.7009e-07 2.1085e-11 -187.05 -187.05 -1.2869 727.92 0.0013738 -187.05 -187.05 -1.2869 1.3490 1.9201 2102.5 -0.0077340 7324.3 0.20647 6.8704e-08 1.4555e+07 353.63 370.70 4.8744 0.71043 0.89899 146.97 5.2426 2.4632 0.0019448
-181.62 2.4299e-07 2.9603e-11 -185.13 -185.13 -1.2658 726.88 0.0013757 -185.13 -185.13 -1.2658 1.3480 1.9210 2095.7 -0.0077283 6794.5 0.20616 9.7079e-08 1.0301e+07 354.35 371.60 4.8170 0.71438 0.90294 147.69 5.0904 2.4906 0.0019934
-180.62 3.4425e-07 4.1219e-11 -183.21 -183.21 -1.2450 725.85 0.0013777 -183.21 -183.21 -1.2450 1.3470 1.9220 2088.9 -0.0077225 6314.4 0.20584 1.3605e-07 7.3504e+06 355.06 372.51 4.7612 0.71833 0.90688 148.41 4.9442 2.5181 0.0020423
-179.62 4.8378e-07 5.6936e-11 -181.29 -181.29 -1.2243 724.81 0.0013797 -181.29 -181.29 -1.2243 1.3461 1.9231 2082.0 -0.0077164 5878.8 0.20551 1.8915e-07 5.2868e+06 355.78 373.42 4.7068 0.72227 0.91082 149.13 4.8038 2.5456 0.0020915
-178.62 6.7459e-07 7.8038e-11 -179.37 -179.37 -1.2038 723.78 0.0013816 -179.37 -179.37 -1.2038 1.3453 1.9241 2075.2 -0.0077102 5482.9 0.20517 2.6096e-07 3.8320e+06 356.51 374.33 4.6538 0.72620 0.91475 149.84 4.6688 2.5731 0.0021410
-177.62 9.3358e-07 1.0616e-10 -177.44 -177.44 -1.1836 722.75 0.0013836 -177.44 -177.44 -1.1836 1.3445 1.9252 2068.4 -0.0077039 5122.6 0.20483 3.5737e-07 2.7982e+06 357.23 375.25 4.6022 0.73012 0.91867 150.54 4.5390 2.6005 0.0021907
-176.62 1.2826e-06 1.4338e-10 -175.52 -175.52 -1.1635 721.72 0.0013856 -175.52 -175.52 -1.1635 1.3437 1.9263 2061.5 -0.0076973 4794.1 0.20447 4.8588e-07 2.0581e+06 357.97 376.17 4.5519 0.73403 0.92258 151.25 4.4142 2.6280 0.0022408
-175.62 1.7496e-06 1.9229e-10 -173.59 -173.59 -1.1437 720.69 0.0013876 -173.59 -173.59 -1.1437 1.3430 1.9274 2054.7 -0.0076907 4494.3 0.20411 6.5601e-07 1.5244e+06 358.70 377.09 4.5029 0.73792 0.92648 151.95 4.2941 2.6555 0.0022912
-174.62 2.3705e-06 2.5613e-10 -171.66 -171.66 -1.1240 719.66 0.0013895 -171.66 -171.66 -1.1240 1.3423 1.9286 2047.9 -0.0076838 4220.2 0.20375 8.7976e-07 1.1367e+06 359.44 378.02 4.4551 0.74181 0.93036 152.64 4.1784 2.6830 0.0023418
-173.62 3.1903e-06 3.3892e-10 -169.73 -169.73 -1.1045 718.64 0.0013915 -169.73 -169.73 -1.1045 1.3417 1.9298 2041.0 -0.0076769 3969.3 0.20338 1.1721e-06 8.5314e+05 360.19 378.95 4.4085 0.74568 0.93423 153.33 4.0671 2.7105 0.0023928
-172.62 4.2661e-06 4.4561e-10 -167.80 -167.80 -1.0852 717.61 0.0013935 -167.80 -167.80 -1.0852 1.3411 1.9310 2034.2 -0.0076698 3739.3 0.20300 1.5518e-06 6.4441e+05 360.93 379.89 4.3631 0.74953 0.93809 154.02 3.9599 2.7379 0.0024440
-171.62 5.6692e-06 5.8227e-10 -165.87 -165.87 -1.0661 716.58 0.0013955 -165.87 -165.87 -1.0661 1.3405 1.9322 2027.3 -0.0076625 3528.0 0.20261 2.0419e-06 4.8974e+05 361.69 380.83 4.3188 0.75337 0.94193 154.71 3.8566 2.7654 0.0024955
-170.62 7.4884e-06 7.5628e-10 -163.94 -163.94 -1.0472 715.56 0.0013975 -163.94 -163.94 -1.0472 1.3400 1.9334 2020.5 -0.0076552 3333.8 0.20222 2.6708e-06 3.7442e+05 362.44 381.77 4.2755 0.75720 0.94575 155.39 3.7570 2.7929 0.0025473
-169.62 9.8334e-06 9.7657e-10 -162.00 -162.00 -1.0284 714.54 0.0013995 -162.00 -162.00 -1.0284 1.3395 1.9347 2013.6 -0.0076477 3154.9 0.20182 3.4733e-06 2.8791e+05 363.20 382.72 4.2334 0.76100 0.94956 156.07 3.6609 2.8204 0.0025994
-168.62 1.2839e-05 1.2539e-09 -160.07 -160.07 -1.0098 713.52 0.0014015 -160.07 -160.07 -1.0098 1.3390 1.9359 2006.8 -0.0076401 2989.9 0.20141 4.4917e-06 2.2263e+05 363.96 383.67 4.1922 0.76479 0.95335 156.74 3.5683 2.8479 0.0026518
-167.62 1.6672e-05 1.6011e-09 -158.13 -158.13 -0.99134 712.49 0.0014035 -158.13 -158.13 -0.99134 1.3386 1.9372 2000.0 -0.0076323 2837.5 0.20100 5.7771e-06 1.7310e+05 364.73 384.63 4.1521 0.76856 0.95712 157.41 3.4790 2.8754 0.0027045
-166.62 2.1533e-05 2.0337e-09 -156.19 -156.19 -0.97306 711.47 0.0014055 -156.19 -156.19 -0.97306 1.3382 1.9385 1993.1 -0.0076245 2696.5 0.20058 7.3914e-06 1.3529e+05 365.50 385.59 4.1129 0.77232 0.96087 158.08 3.3927 2.9029 0.0027575
-165.62 2.7666e-05 2.5697e-09 -154.25 -154.25 -0.95494 710.45 0.0014075 -154.25 -154.25 -0.95494 1.3378 1.9398 1986.3 -0.0076165 2566.0 0.20016 9.4084e-06 1.0629e+05 366.27 386.55 4.0746 0.77605 0.96460 158.75 3.3095 2.9304 0.0028108
-164.62 3.5367e-05 3.2306e-09 -152.31 -152.31 -0.93698 709.44 0.0014096 -152.31 -152.31 -0.93698 1.3375 1.9411 1979.4 -0.0076084 2444.9 0.19973 1.1916e-05 83918. 367.05 387.52 4.0372 0.77976 0.96832 159.41 3.2291 2.9579 0.0028643
-163.62 4.4989e-05 4.0416e-09 -150.37 -150.37 -0.91917 708.42 0.0014116 -150.37 -150.37 -0.91917 1.3371 1.9424 1972.6 -0.0076002 2332.3 0.19930 1.5020e-05 66577. 367.83 388.49 4.0008 0.78346 0.97201 160.07 3.1514 2.9854 0.0029182
-162.62 5.6956e-05 5.0321e-09 -148.43 -148.43 -0.90151 707.40 0.0014136 -148.43 -148.43 -0.90151 1.3368 1.9437 1965.8 -0.0075919 2227.7 0.19886 1.8844e-05 53068. 368.62 389.46 3.9651 0.78713 0.97569 160.72 3.0764 3.0129 0.0029723
-161.62 7.1773e-05 6.2364e-09 -146.48 -146.48 -0.88400 706.38 0.0014157 -146.48 -146.48 -0.88400 1.3365 1.9451 1959.0 -0.0075834 2130.2 0.19841 2.3533e-05 42494. 369.41 390.44 3.9304 0.79079 0.97935 161.38 3.0038 3.0404 0.0030268
-160.62 9.0036e-05 7.6942e-09 -144.54 -144.54 -0.86663 705.37 0.0014177 -144.54 -144.54 -0.86663 1.3363 1.9465 1952.1 -0.0075748 2039.2 0.19796 2.9258e-05 34178. 370.20 391.42 3.8964 0.79443 0.98298 162.03 2.9337 3.0679 0.0030815
-159.62 0.00011245 9.4511e-09 -142.59 -142.59 -0.84940 704.35 0.0014197 -142.59 -142.59 -0.84940 1.3360 1.9478 1945.3 -0.0075661 1954.2 0.19751 3.6221e-05 27609. 371.00 392.40 3.8632 0.79805 0.98660 162.68 2.8658 3.0955 0.0031365
-158.62 0.00013985 1.1560e-08 -140.64 -140.64 -0.83231 703.34 0.0014218 -140.64 -140.64 -0.83231 1.3358 1.9492 1938.5 -0.0075573 1874.8 0.19705 4.4652e-05 22395. 371.80 393.39 3.8307 0.80164 0.99020 163.32 2.8002 3.1230 0.0031918
-157.62 0.00017320 1.4080e-08 -138.69 -138.69 -0.81536 702.32 0.0014238 -138.69 -138.69 -0.81536 1.3356 1.9506 1931.7 -0.0075484 1800.3 0.19658 5.4822e-05 18241. 372.60 394.38 3.7990 0.80522 0.99378 163.96 2.7367 3.1505 0.0032474
-156.62 0.00021364 1.7080e-08 -136.74 -136.74 -0.79854 701.31 0.0014259 -136.74 -136.74 -0.79854 1.3354 1.9520 1924.9 -0.0075393 1730.5 0.19611 6.7040e-05 14916. 373.41 395.38 3.7680 0.80878 0.99734 164.60 2.6752 3.1780 0.0033033
-155.62 0.00026248 2.0638e-08 -134.79 -134.79 -0.78185 700.30 0.0014280 -134.79 -134.79 -0.78185 1.3352 1.9534 1918.1 -0.0075302 1664.9 0.19564 8.1666e-05 12245. 374.22 396.38 3.7377 0.81232 1.0009 165.24 2.6157 3.2055 0.0033595
-154.62 0.00032125 2.4841e-08 -132.83 -132.83 -0.76530 699.29 0.0014300 -132.83 -132.83 -0.76530 1.3350 1.9548 1911.3 -0.0075209 1603.3 0.19516 9.9109e-05 10090. 375.03 397.38 3.7081 0.81585 1.0044 165.87 2.5580 3.2330 0.0034160
-153.62 0.00039171 2.9788e-08 -130.88 -130.88 -0.74887 698.27 0.0014321 -130.88 -130.88 -0.74887 1.3349 1.9563 1904.5 -0.0075114 1545.3 0.19468 0.00011984 8344.6 375.85 398.39 3.6792 0.81935 1.0079 166.50 2.5022 3.2606 0.0034727
-152.62 0.00047590 3.5590e-08 -128.92 -128.92 -0.73256 697.26 0.0014342 -128.92 -128.92 -0.73256 1.3348 1.9577 1897.8 -0.0075019 1490.6 0.19419 0.00014439 6925.9 376.67 399.40 3.6509 0.82284 1.0114 167.13 2.4481 3.2881 0.0035298
-151.62 0.00057613 4.2370e-08 -126.96 -126.96 -0.71638 696.25 0.0014363 -126.96 -126.96 -0.71638 1.3346 1.9592 1891.0 -0.0074922 1438.9 0.19370 0.00017336 5768.4 377.49 400.41 3.6232 0.82631 1.0149 167.76 2.3957 3.3156 0.0035872
-150.62 0.00069507 5.0266e-08 -125.00 -125.00 -0.70032 695.24 0.0014384 -125.00 -125.00 -0.70032 1.3345 1.9606 1884.2 -0.0074824 1390.2 0.19320 0.00020744 4820.7 378.32 401.42 3.5962 0.82976 1.0183 168.38 2.3448 3.3431 0.0036448
-149.62 0.00083574 5.9432e-08 -123.04 -123.04 -0.68438 694.23 0.0014404 -123.04 -123.04 -0.68438 1.3345 1.9621 1877.4 -0.0074724 1344.0 0.19270 0.00024740 4042.0 379.15 402.44 3.5697 0.83319 1.0218 169.00 2.2956 3.3706 0.0037027
-148.62 0.0010016 7.0036e-08 -121.08 -121.08 -0.66855 693.22 0.0014425 -121.08 -121.08 -0.66855 1.3344 1.9636 1870.7 -0.0074623 1300.3 0.19220 0.00029412 3400.0 379.99 403.47 3.5438 0.83661 1.0252 169.62 2.2478 3.3982 0.0037610
-147.62 0.0011965 8.2266e-08 -119.11 -119.11 -0.65284 692.21 0.0014447 -119.11 -119.11 -0.65284 1.3343 1.9651 1863.9 -0.0074521 1258.9 0.19169 0.00034856 2869.0 380.83 404.49 3.5185 0.84001 1.0286 170.24 2.2014 3.4257 0.0038195
-146.62 0.0014249 9.6325e-08 -117.15 -117.15 -0.63724 691.20 0.0014468 -117.15 -117.15 -0.63724 1.3343 1.9666 1857.2 -0.0074417 1219.6 0.19117 0.00041181 2428.3 381.67 405.52 3.4938 0.84340 1.0320 170.85 2.1565 3.4532 0.0038783
-145.62 0.0016917 1.1244e-07 -115.18 -115.18 -0.62175 690.19 0.0014489 -115.18 -115.18 -0.62175 1.3343 1.9682 1850.4 -0.0074312 1182.3 0.19066 0.00048510 2061.4 382.51 406.56 3.4695 0.84677 1.0353 171.46 2.1128 3.4807 0.0039374
-144.62 0.0020026 1.3086e-07 -113.21 -113.21 -0.60637 689.18 0.0014510 -113.21 -113.21 -0.60637 1.3343 1.9697 1843.7 -0.0074206 1146.8 0.19014 0.00056976 1755.1 383.36 407.59 3.4458 0.85012 1.0387 172.07 2.0705 3.5082 0.0039967
-143.62 0.0023637 1.5184e-07 -111.24 -111.24 -0.59110 688.17 0.0014531 -111.24 -111.24 -0.59110 1.3343 1.9713 1836.9 -0.0074098 1113.0 0.18962 0.00066731 1498.6 384.21 408.63 3.4226 0.85346 1.0420 172.68 2.0294 3.5358 0.0040564
-142.62 0.0027820 1.7568e-07 -109.27 -109.27 -0.57593 687.16 0.0014553 -109.27 -109.27 -0.57593 1.3343 1.9728 1830.2 -0.0073988 1080.8 0.18909 0.00077939 1283.1 385.07 409.68 3.3999 0.85679 1.0454 173.28 1.9896 3.5633 0.0041164
-141.62 0.0032653 2.0268e-07 -107.30 -107.30 -0.56087 686.15 0.0014574 -107.30 -107.30 -0.56087 1.3343 1.9744 1823.5 -0.0073878 1050.1 0.18856 0.00090784 1101.5 385.93 410.72 3.3777 0.86011 1.0487 173.88 1.9508 3.5908 0.0041766
-140.62 0.0038222 2.3320e-07 -105.32 -105.32 -0.54591 685.14 0.0014596 -105.32 -105.32 -0.54591 1.3344 1.9760 1816.7 -0.0073765 1020.7 0.18803 0.0010547 948.16 386.79 411.77 3.3560 0.86341 1.0520 174.48 1.9133 3.6183 0.0042372
-139.62 0.0044623 2.6759e-07 -103.34 -103.34 -0.53105 684.13 0.0014617 -103.34 -103.34 -0.53105 1.3344 1.9776 1810.0 -0.0073651 992.74 0.18749 0.0012221 818.26 387.65 412.83 3.3347 0.86670 1.0553 175.08 1.8768 3.6459 0.0042980
-138.62 0.0051963 3.0624e-07 -101.37 -101.37 -0.51628 683.12 0.0014639 -101.37 -101.37 -0.51629 1.3345 1.9792 1803.3 -0.0073536 965.97 0.18695 0.0014125 707.94 388.52 413.88 3.3139 0.86998 1.0586 175.67 1.8413 3.6734 0.0043592
-137.62 0.0060358 3.4956e-07 -99.386 -99.386 -0.50162 682.11 0.0014660 -99.386 -99.386 -0.50162 1.3346 1.9808 1796.6 -0.0073419 940.35 0.18641 0.0016287 614.00 389.39 414.94 3.2935 0.87325 1.0619 176.26 1.8069 3.7009 0.0044206
-136.62 0.0069938 3.9800e-07 -97.404 -97.404 -0.48705 681.10 0.0014682 -97.404 -97.404 -0.48705 1.3347 1.9825 1789.9 -0.0073301 915.81 0.18586 0.0018733 533.80 390.26 416.00 3.2735 0.87650 1.0651 176.85 1.7734 3.7284 0.0044823
-135.62 0.0080843 4.5203e-07 -95.421 -95.421 -0.47258 680.09 0.0014704 -95.421 -95.421 -0.47258 1.3348 1.9841 1783.2 -0.0073180 892.30 0.18531 0.0021497 465.17 391.14 417.07 3.2540 0.87975 1.0684 177.44 1.7409 3.7559 0.0045443
-134.62 0.0093230 5.1216e-07 -93.436 -93.436 -0.45820 679.08 0.0014726 -93.436 -93.436 -0.45820 1.3350 1.9858 1776.5 -0.0073059 869.75 0.18476 0.0024613 406.30 392.02 418.14 3.2348 0.88299 1.0716 178.02 1.7093 3.7834 0.0046066
-133.62 0.010727 5.7889e-07 -91.449 -91.449 -0.44391 678.07 0.0014748 -91.450 -91.449 -0.44391 1.3351 1.9875 1769.8 -0.0072935 848.11 0.18421 0.0028116 355.67 392.91 419.21 3.2161 0.88622 1.0749 178.61 1.6786 3.8109 0.0046691
-132.62 0.012315 6.5279e-07 -89.461 -89.461 -0.42971 677.06 0.0014770 -89.461 -89.461 -0.42971 1.3353 1.9892 1763.1 -0.0072810 827.32 0.18365 0.0032049 312.03 393.79 420.29 3.1977 0.88944 1.0781 179.19 1.6488 3.8385 0.0047320
-131.62 0.014106 7.3445e-07 -87.471 -87.471 -0.41559 676.04 0.0014792 -87.471 -87.471 -0.41560 1.3354 1.9909 1756.4 -0.0072684 807.34 0.18309 0.0036453 274.33 394.68 421.36 3.1798 0.89266 1.0813 179.76 1.6197 3.8660 0.0047951
-130.62 0.016124 8.2446e-07 -85.479 -85.479 -0.40157 675.03 0.0014814 -85.479 -85.479 -0.40157 1.3356 1.9926 1749.7 -0.0072555 788.12 0.18253 0.0041375 241.69 395.58 422.44 3.1622 0.89586 1.0846 180.34 1.5915 3.8935 0.0048586
-129.62 0.018392 9.2346e-07 -83.485 -83.485 -0.38763 674.02 0.0014836 -83.486 -83.486 -0.38763 1.3358 1.9944 1743.0 -0.0072425 769.63 0.18196 0.0046867 213.37 396.47 423.53 3.1450 0.89906 1.0878 180.91 1.5641 3.9210 0.0049223
-128.62 0.020935 1.0321e-06 -81.490 -81.490 -0.37378 673.01 0.0014859 -81.491 -81.490 -0.37378 1.3360 1.9961 1736.3 -0.0072294 751.83 0.18140 0.0052981 188.75 397.37 424.62 3.1281 0.90226 1.0910 181.48 1.5374 3.9485 0.0049863
-127.62 0.023783 1.1511e-06 -79.493 -79.493 -0.36001 672.00 0.0014881 -79.494 -79.493 -0.36001 1.3363 1.9979 1729.6 -0.0072160 734.67 0.18083 0.0059776 167.29 398.27 425.71 3.1116 0.90545 1.0942 182.05 1.5114 3.9760 0.0050506
-126.62 0.026966 1.2811e-06 -77.494 -77.494 -0.34632 670.98 0.0014904 -77.495 -77.495 -0.34632 1.3365 1.9997 1722.9 -0.0072025 718.14 0.18025 0.0067313 148.56 399.18 426.80 3.0954 0.90863 1.0974 182.62 1.4861 4.0035 0.0051152
-125.62 0.030515 1.4229e-06 -75.494 -75.493 -0.33271 669.97 0.0014926 -75.494 -75.494 -0.33272 1.3368 2.0015 1716.2 -0.0071888 702.18 0.17968 0.0075660 132.17 400.09 427.89 3.0795 0.91181 1.1006 183.18 1.4615 4.0310 0.0051800
-124.62 0.034467 1.5772e-06 -73.491 -73.491 -0.31918 668.95 0.0014949 -73.492 -73.492 -0.31919 1.3371 2.0033 1709.5 -0.0071749 686.79 0.17910 0.0084885 117.81 401.00 428.99 3.0640 0.91499 1.1038 183.74 1.4375 4.0584 0.0052452
-123.62 0.038859 1.7448e-06 -71.487 -71.486 -0.30573 667.94 0.0014971 -71.488 -71.487 -0.30574 1.3374 2.0051 1702.8 -0.0071609 671.93 0.17852 0.0095065 105.19 401.91 430.10 3.0488 0.91816 1.1070 184.30 1.4141 4.0859 0.0053106
-122.62 0.043731 1.9264e-06 -69.481 -69.480 -0.29236 666.92 0.0014994 -69.482 -69.481 -0.29237 1.3377 2.0070 1696.2 -0.0071466 657.57 0.17794 0.010628 94.092 402.83 431.20 3.0339 0.92134 1.1102 184.86 1.3913 4.1134 0.0053764
-121.62 0.049128 2.1228e-06 -67.473 -67.472 -0.27907 665.91 0.0015017 -67.474 -67.473 -0.27907 1.3380 2.0089 1689.5 -0.0071322 643.70 0.17736 0.011861 84.309 403.75 432.31 3.0193 0.92451 1.1134 185.41 1.3691 4.1409 0.0054424
-120.62 0.055096 2.3348e-06 -65.463 -65.462 -0.26584 664.89 0.0015040 -65.464 -65.463 -0.26585 1.3384 2.0107 1682.8 -0.0071176 630.28 0.17678 0.013215 75.669 404.67 433.42 3.0050 0.92767 1.1166 185.96 1.3475 4.1683 0.0055087
-119.62 0.061684 2.5632e-06 -63.451 -63.450 -0.25270 663.87 0.0015063 -63.452 -63.452 -0.25271 1.3387 2.0126 1676.1 -0.0071028 617.30 0.17619 0.014700 68.027 405.60 434.53 2.9909 0.93084 1.1198 186.51 1.3264 4.1958 0.0055752
-118.62 0.068946 2.8088e-06 -61.437 -61.437 -0.23962 662.86 0.0015086 -61.439 -61.438 -0.23963 1.3391 2.0146 1669.4 -0.0070878 604.74 0.17560 0.016325 61.255 406.53 435.64 2.9772 0.93401 1.1231 187.06 1.3058 4.2233 0.0056421
-117.62 0.076937 3.0724e-06 -59.422 -59.421 -0.22662 661.84 0.0015109 -59.423 -59.422 -0.22663 1.3395 2.0165 1662.8 -0.0070726 592.58 0.17501 0.018101 55.245 407.46 436.76 2.9638 0.93718 1.1263 187.60 1.2857 4.2507 0.0057092
-116.62 0.085718 3.3547e-06 -57.404 -57.403 -0.21369 660.82 0.0015133 -57.406 -57.405 -0.21370 1.3400 2.0184 1656.1 -0.0070573 580.80 0.17442 0.020040 49.901 408.39 437.88 2.9506 0.94035 1.1295 188.14 1.2660 4.2782 0.0057767
-115.62 0.095353 3.6566e-06 -55.385 -55.383 -0.20083 659.80 0.0015156 -55.386 -55.385 -0.20084 1.3404 2.0204 1649.4 -0.0070417 569.38 0.17383 0.022152 45.142 409.33 439.01 2.9377 0.94352 1.1327 188.68 1.2468 4.3056 0.0058444
-114.62 0.10591 3.9786e-06 -53.363 -53.362 -0.18804 658.78 0.0015180 -53.365 -53.364 -0.18805 1.3409 2.0224 1642.7 -0.0070260 558.32 0.17323 0.024451 40.898 410.27 440.13 2.9250 0.94669 1.1360 189.22 1.2281 4.3330 0.0059123
-113.62 0.11746 4.3216e-06 -51.340 -51.338 -0.17531 657.76 0.0015203 -51.342 -51.340 -0.17533 1.3413 2.0244 1636.0 -0.0070100 547.59 0.17264 0.026949 37.107 411.21 441.26 2.9126 0.94987 1.1392 189.75 1.2097 4.3604 0.0059806
-112.62 0.13008 4.6862e-06 -49.314 -49.312 -0.16266 656.73 0.0015227 -49.316 -49.315 -0.16267 1.3418 2.0264 1629.3 -0.0069938 537.18 0.17204 0.029661 33.715 412.16 442.39 2.9005 0.95305 1.1424 190.28 1.1918 4.3879 0.0060491
-111.62 0.14384 5.0731e-06 -47.286 -47.285 -0.15006 655.71 0.0015251 -47.289 -47.287 -0.15008 1.3424 2.0285 1622.7 -0.0069774 527.08 0.17144 0.032600 30.675 413.10 443.53 2.8885 0.95623 1.1457 190.81 1.1742 4.4153 0.0061180
-110.62 0.15884 5.4828e-06 -45.257 -45.255 -0.13754 654.69 0.0015274 -45.259 -45.258 -0.13755 1.3429 2.0305 1616.0 -0.0069609 517.28 0.17084 0.035781 27.948 414.06 444.66 2.8769 0.95942 1.1490 191.34 1.1570 4.4427 0.0061871
-109.62 0.17516 5.9158e-06 -43.225 -43.223 -0.12507 653.66 0.0015298 -43.228 -43.226 -0.12509 1.3435 2.0326 1609.3 -0.0069441 507.76 0.17024 0.039220 25.497 415.01 445.80 2.8654 0.96261 1.1522 191.86 1.1402 4.4701 0.0062564
-108.62 0.19290 6.3727e-06 -41.191 -41.189 -0.11267 652.64 0.0015322 -41.194 -41.192 -0.11269 1.3441 2.0347 1602.6 -0.0069271 498.51 0.16964 0.042933 23.292 415.96 446.94 2.8542 0.96581 1.1555 192.38 1.1236 4.4974 0.0063261
-107.62 0.21215 6.8538e-06 -39.155 -39.153 -0.10034 651.61 0.0015347 -39.158 -39.156 -0.10036 1.3447 2.0369 1595.9 -0.0069098 489.52 0.16903 0.046937 21.305 416.92 448.09 2.8433 0.96901 1.1588 192.90 1.1075 4.5248 0.0063960
-106.62 0.23301 7.3593e-06 -37.117 -37.114 -0.088061 650.58 0.0015371 -37.120 -37.118 -0.088082 1.3453 2.0390 1589.2 -0.0068924 480.79 0.16843 0.051250 19.512 417.88 449.23 2.8325 0.97222 1.1621 193.41 1.0916 4.5522 0.0064662
-105.62 0.25561 7.8897e-06 -35.077 -35.074 -0.075846 649.55 0.0015395 -35.080 -35.078 -0.075868 1.3460 2.0412 1582.6 -0.0068747 472.30 0.16782 0.055891 17.892 418.85 450.38 2.8220 0.97544 1.1655 193.93 1.0760 4.5795 0.0065367
-104.62 0.28004 8.4448e-06 -33.034 -33.031 -0.063690 648.52 0.0015420 -33.038 -33.035 -0.063714 1.3467 2.0434 1575.9 -0.0068569 464.04 0.16721 0.060878 16.426 419.81 451.53 2.8116 0.97867 1.1688 194.44 1.0608 4.6069 0.0066074
-103.62 0.30643 9.0248e-06 -30.990 -30.986 -0.051593 647.49 0.0015444 -30.994 -30.991 -0.051619 1.3474 2.0456 1569.2 -0.0068387 456.00 0.16660 0.066231 15.099 420.78 452.68 2.8015 0.98191 1.1722 194.94 1.0458 4.6342 0.0066785
-102.62 0.33490 9.6296e-06 -28.943 -28.939 -0.039554 646.46 0.0015469 -28.947 -28.944 -0.039582 1.3481 2.0478 1562.5 -0.0068204 448.18 0.16600 0.071971 13.894 421.75 453.84 2.7916 0.98516 1.1755 195.44 1.0310 4.6615 0.0067498
-101.62 0.36558 1.0259e-05 -26.894 -26.890 -0.027573 645.43 0.0015494 -26.898 -26.894 -0.027602 1.3489 2.0501 1555.8 -0.0068018 440.57 0.16539 0.078120 12.801 422.73 454.99 2.7818 0.98841 1.1789 195.95 1.0166 4.6888 0.0068213
-100.62 0.39862 1.0912e-05 -24.842 -24.838 -0.015648 644.39 0.0015519 -24.847 -24.843 -0.015678 1.3497 2.0524 1549.1 -0.0067830 433.16 0.16478 0.084699 11.807 423.70 456.15 2.7723 0.99168 1.1823 196.44 1.0024 4.7161 0.0068932
-99.625 0.43414 1.1589e-05 -22.789 -22.784 -0.0037782 643.36 0.0015544 -22.794 -22.789 -0.0038103 1.3505 2.0547 1542.4 -0.0067639 425.95 0.16416 0.091731 10.901 424.68 457.31 2.7630 0.99496 1.1858 196.94 0.98838 4.7434 0.0069653
-98.625 0.47230 1.2289e-05 -20.733 -20.727 0.0080365 642.32 0.0015569 -20.738 -20.733 0.0080027 1.3514 2.0570 1535.7 -0.0067447 418.92 0.16355 0.099240 10.077 425.66 458.48 2.7538 0.99825 1.1892 197.43 0.97464 4.7707 0.0070377
-97.625 0.51325 1.3011e-05 -18.674 -18.668 0.019797 641.28 0.0015594 -18.680 -18.674 0.019762 1.3522 2.0594 1529.0 -0.0067251 412.07 0.16294 0.10725 9.3239 426.65 459.64 2.7448 1.0016 1.1927 197.92 0.96112 4.7979 0.0071103
-96.625 0.55714 1.3753e-05 -16.613 -16.607 0.031504 640.24 0.0015619 -16.620 -16.614 0.031467 1.3531 2.0618 1522.3 -0.0067053 405.39 0.16233 0.11579 8.6365 427.63 460.81 2.7360 1.0049 1.1962 198.40 0.94783 4.8251 0.0071832
-95.625 0.60416 1.4516e-05 -14.550 -14.543 0.043159 639.20 0.0015645 -14.557 -14.550 0.043120 1.3540 2.0642 1515.7 -0.0066853 398.88 0.16171 0.12488 8.0078 428.62 461.98 2.7274 1.0082 1.1997 198.88 0.93475 4.8524 0.0072564
-94.625 0.65446 1.5296e-05 -12.485 -12.477 0.054762 638.16 0.0015670 -12.491 -12.484 0.054721 1.3550 2.0667 1509.0 -0.0066650 392.53 0.16110 0.13455 7.4323 429.61 463.15 2.7189 1.0116 1.2032 199.36 0.92188 4.8796 0.0073299
-93.625 0.70822 1.6093e-05 -10.417 -10.408 0.066314 637.12 0.0015696 -10.424 -10.416 0.066271 1.3560 2.0691 1502.3 -0.0066444 386.34 0.16048 0.14482 6.9050 430.60 464.32 2.7107 1.0149 1.2068 199.83 0.90921 4.9068 0.0074036
-92.625 0.76564 1.6904e-05 -8.3461 -8.3372 0.077815 636.07 0.0015722 -8.3535 -8.3452 0.077771 1.3570 2.0716 1495.6 -0.0066236 380.31 0.15987 0.15573 6.4212 431.60 465.49 2.7025 1.0183 1.2104 200.30 0.89673 4.9340 0.0074776
-91.625 0.82689 1.7728e-05 -6.2731 -6.2635 0.089266 635.02 0.0015747 -6.2808 -6.2719 0.089220 1.3580 2.0742 1488.9 -0.0066025 374.41 0.15925 0.16731 5.9769 432.59 466.67 2.6946 1.0217 1.2140 200.77 0.88445 4.9611 0.0075518
-90.625 0.89218 1.8561e-05 -4.1975 -4.1872 0.10067 633.98 0.0015773 -4.2056 -4.1959 0.10062 1.3591 2.0767 1482.2 -0.0065811 368.66 0.15864 0.17958 5.5685 433.59 467.84 2.6868 1.0251 1.2177 201.24 0.87236 4.9883 0.0076263
-89.625 0.96172 1.9401e-05 -2.1194 -2.1083 0.11202 632.93 0.0015800 -2.1279 -2.1174 0.11197 1.3602 2.0793 1475.5 -0.0065595 363.05 0.15802 0.19258 5.1928 434.59 469.02 2.6791 1.0285 1.2213 201.70 0.86045 5.0154 0.0077011
-88.625 1.0357 2.0245e-05 -0.038697 -0.026695 0.12333 631.88 0.0015826 -0.047516 -0.036215 0.12328 1.3613 2.0819 1468.8 -0.0065375 357.56 0.15740 0.20633 4.8466 435.59 470.20 2.6717 1.0320 1.2250 202.15 0.84873 5.0425 0.0077761
-87.625 1.1144 2.1089e-05 2.0446 2.0575 0.13459 630.83 0.0015852 2.0355 2.0476 0.13454 1.3625 2.0846 1462.1 -0.0065153 352.21 0.15679 0.22087 4.5276 436.60 471.39 2.6643 1.0354 1.2288 202.61 0.83718 5.0696 0.0078514
-86.625 1.1979 2.1930e-05 4.1306 4.1445 0.14580 629.77 0.0015879 4.1211 4.1342 0.14575 1.3637 2.0873 1455.4 -0.0064928 346.98 0.15617 0.23623 4.2331 437.61 472.57 2.6571 1.0389 1.2325 203.06 0.82580 5.0967 0.0079270
-85.625 1.2866 2.2764e-05 6.2192 6.2341 0.15697 628.72 0.0015905 6.2094 6.2235 0.15691 1.3649 2.0900 1448.8 -0.0064701 341.87 0.15555 0.25245 3.9612 438.61 473.75 2.6501 1.0424 1.2363 203.50 0.81460 5.1237 0.0080028
-84.625 1.3806 2.3586e-05 8.3105 8.3265 0.16809 627.66 0.0015932 8.3004 8.3155 0.16803 1.3661 2.0927 1442.1 -0.0064470 336.87 0.15494 0.26956 3.7097 439.63 474.94 2.6432 1.0460 1.2402 203.95 0.80356 5.1508 0.0080789
-83.625 1.4803 2.4390e-05 10.405 10.422 0.17917 626.60 0.0015959 10.394 10.410 0.17911 1.3674 2.0955 1435.4 -0.0064236 331.99 0.15432 0.28760 3.4771 440.64 476.13 2.6364 1.0495 1.2440 204.38 0.79269 5.1778 0.0081553
-82.625 1.5858 2.5173e-05 12.501 12.520 0.19021 625.54 0.0015986 12.491 12.508 0.19014 1.3687 2.0983 1428.7 -0.0063999 327.22 0.15370 0.30659 3.2616 441.65 477.31 2.6298 1.0531 1.2479 204.82 0.78199 5.2048 0.0082319
-81.625 1.6975 2.5928e-05 14.601 14.621 0.20120 624.48 0.0016013 14.590 14.609 0.20113 1.3700 2.1012 1422.0 -0.0063759 322.55 0.15309 0.32659 3.0619 442.67 478.50 2.6233 1.0567 1.2519 205.25 0.77144 5.2318 0.0083088
-80.625 1.8155 2.6650e-05 16.703 16.724 0.21215 623.42 0.0016041 16.692 16.712 0.21208 1.3714 2.1041 1415.4 -0.0063516 317.99 0.15247 0.34763 2.8766 443.69 479.70 2.6169 1.0603 1.2558 205.67 0.76106 5.2587 0.0083860
-79.625 1.9402 2.7331e-05 18.809 18.831 0.22305 622.36 0.0016068 18.797 18.819 0.22299 1.3728 2.1070 1408.7 -0.0063270 313.52 0.15186 0.36974 2.7046 444.71 480.89 2.6106 1.0639 1.2598 206.10 0.75083 5.2857 0.0084634
-78.625 2.0718 2.7965e-05 20.917 20.941 0.23392 621.29 0.0016096 20.905 20.928 0.23385 1.3742 2.1099 1402.0 -0.0063021 309.15 0.15124 0.39296 2.5448 445.73 482.08 2.6045 1.0676 1.2639 206.51 0.74076 5.3126 0.0085411
-77.625 2.2107 2.8543e-05 23.028 23.054 0.24474 620.22 0.0016123 23.016 23.040 0.24468 1.3757 2.1129 1395.3 -0.0062768 304.88 0.15062 0.41735 2.3961 446.75 483.27 2.5985 1.0712 1.2680 206.93 0.73084 5.3395 0.0086190
-76.625 2.3571 2.9059e-05 25.142 25.169 0.25553 619.15 0.0016151 25.130 25.156 0.25546 1.3772 2.1159 1388.7 -0.0062512 300.69 0.15001 0.44292 2.2577 447.78 484.47 2.5926 1.0749 1.2721 207.34 0.72107 5.3664 0.0086972
-75.625 2.5113 2.9504e-05 27.259 27.288 0.26627 618.08 0.0016179 27.247 27.275 0.26620 1.3787 2.1190 1382.0 -0.0062253 296.59 0.14939 0.46974 2.1288 448.81 485.67 2.5869 1.0787 1.2762 207.74 0.71146 5.3933 0.0087757
-74.625 2.6736 2.9867e-05 29.379 29.410 0.27698 617.01 0.0016207 29.366 29.396 0.27691 1.3802 2.1221 1375.4 -0.0061990 292.58 0.14878 0.49783 2.0087 449.83 486.86 2.5812 1.0824 1.2804 208.14 0.70200 5.4201 0.0088544
-73.625 2.8444 3.0141e-05 31.502 31.535 0.28764 615.93 0.0016236 31.489 31.521 0.28758 1.3818 2.1252 1368.7 -0.0061724 288.65 0.14816 0.52725 1.8966 450.86 488.06 2.5757 1.0862 1.2847 208.54 0.69268 5.4469 0.0089334
-72.625 3.0240 3.0314e-05 33.628 33.663 0.29827 614.85 0.0016264 33.615 33.649 0.29821 1.3834 2.1284 1362.0 -0.0061454 284.81 0.14755 0.55804 1.7920 451.90 489.26 2.5703 1.0900 1.2889 208.93 0.68351 5.4737 0.0090126
-71.625 3.2127 3.0375e-05 35.757 35.795 0.30887 613.78 0.0016293 35.745 35.781 0.30880 1.3851 2.1316 1355.4 -0.0061181 281.03 0.14694 0.59024 1.6942 452.93 490.46 2.5650 1.0938 1.2932 209.32 0.67448 5.5005 0.0090922
-70.625 3.4108 3.0313e-05 37.890 37.929 0.31942 612.69 0.0016321 37.877 37.915 0.31935 1.3867 2.1349 1348.7 -0.0060904 277.34 0.14632 0.62390 1.6028 453.96 491.66 2.5598 1.0976 1.2976 209.70 0.66560 5.5273 0.0091720
-69.625 3.6187 3.0117e-05 40.025 40.067 0.32994 611.61 0.0016350 40.013 40.053 0.32987 1.3884 2.1382 1342.1 -0.0060624 273.72 0.14571 0.65906 1.5173 455.00 492.86 2.5547 1.1015 1.3020 210.08 0.65687 5.5540 0.0092520
-68.625 3.8367 2.9772e-05 42.164 42.208 0.34042 610.53 0.0016379 42.152 42.195 0.34036 1.3902 2.1415 1335.5 -0.0060339 270.17 0.14510 0.69577 1.4372 456.04 494.06 2.5497 1.1054 1.3064 210.45 0.64827 5.5807 0.0093324
-67.625 4.0652 2.9266e-05 44.306 44.353 0.35087 609.44 0.0016409 44.294 44.340 0.35080 1.3919 2.1449 1328.8 -0.0060051 266.69 0.14449 0.73408 1.3622 457.08 495.26 2.5448 1.1093 1.3109 210.82 0.63981 5.6074 0.0094130
-66.625 4.3046 2.8583e-05 46.451 46.501 0.36128 608.35 0.0016438 46.439 46.488 0.36122 1.3937 2.1483 1322.2 -0.0059760 263.28 0.14388 0.77404 1.2919 458.12 496.46 2.5400 1.1133 1.3154 211.18 0.63150 5.6341 0.0094939
-65.625 4.5551 2.7710e-05 48.599 48.652 0.37166 607.26 0.0016467 48.588 48.640 0.37160 1.3955 2.1518 1315.6 -0.0059464 259.93 0.14327 0.81570 1.2259 459.16 497.67 2.5353 1.1172 1.3200 211.54 0.62332 5.6608 0.0095750
-64.625 4.8173 2.6631e-05 50.751 50.807 0.38200 606.16 0.0016497 50.740 50.795 0.38195 1.3974 2.1553 1308.9 -0.0059164 256.65 0.14266 0.85910 1.1640 460.21 498.87 2.5307 1.1212 1.3246 211.89 0.61527 5.6874 0.0096564
-63.625 5.0915 2.5328e-05 52.907 52.966 0.39231 605.07 0.0016527 52.896 52.954 0.39226 1.3993 2.1588 1302.3 -0.0058861 253.42 0.14205 0.90429 1.1058 461.25 500.07 2.5262 1.1252 1.3293 212.24 0.60736 5.7140 0.0097382
-62.625 5.3781 2.3785e-05 55.065 55.127 0.40259 603.97 0.0016557 55.055 55.117 0.40254 1.4012 2.1624 1295.7 -0.0058553 250.26 0.14144 0.95134 1.0511 462.30 501.28 2.5218 1.1293 1.3340 212.58 0.59958 5.7406 0.0098201
-61.625 5.6774 2.1982e-05 57.227 57.293 0.41284 602.87 0.0016587 57.218 57.283 0.41279 1.4031 2.1660 1289.1 -0.0058241 247.16 0.14084 1.0003 0.99972 463.35 502.48 2.5175 1.1333 1.3387 212.92 0.59194 5.7672 0.0099024
-60.625 5.9899 1.9902e-05 59.393 59.462 0.42305 601.77 0.0016618 59.385 59.453 0.42301 1.4051 2.1697 1282.5 -0.0057925 244.12 0.14023 1.0512 0.95131 464.40 503.68 2.5133 1.1374 1.3435 213.26 0.58442 5.7938 0.0099850
-59.625 6.3160 1.7524e-05 61.562 61.635 0.43323 600.66 0.0016648 61.554 61.627 0.43320 1.4071 2.1734 1275.9 -0.0057605 241.13 0.13962 1.1041 0.90573 465.45 504.89 2.5091 1.1415 1.3483 213.58 0.57704 5.8203 0.010068
-58.625 6.6561 1.4827e-05 63.734 63.811 0.44338 599.55 0.0016679 63.728 63.805 0.44335 1.4091 2.1772 1269.3 -0.0057280 238.19 0.13902 1.1591 0.86277 466.50 506.09 2.5051 1.1457 1.3532 213.90 0.56978 5.8468 0.010151
-57.625 7.0107 1.1789e-05 65.910 65.991 0.45350 598.44 0.0016710 65.905 65.986 0.45348 1.4111 2.1810 1262.7 -0.0056951 235.31 0.13842 1.2161 0.82228 467.55 507.30 2.5011 1.1498 1.3581 214.22 0.56265 5.8733 0.010234
-56.625 7.3801 8.3869e-06 68.090 68.175 0.46359 597.33 0.0016741 68.086 68.172 0.46358 1.4132 2.1848 1256.1 -0.0056617 232.48 0.13781 1.2754 0.78408 468.60 508.50 2.4972 1.1540 1.3631 214.53 0.55564 5.8998 0.010318
-55.625 7.7648 4.5974e-06 70.273 70.363 0.47365 596.22 0.0016772 70.271 70.361 0.47364 1.4153 2.1887 1249.5 -0.0056279 229.69 0.13721 1.3369 0.74802 469.66 509.71 2.4934 1.1582 1.3681 214.84 0.54875 5.9263 0.010402
-54.625 8.1652 3.9532e-07 72.460 72.555 0.48368 595.10 0.0016804 72.460 72.554 0.48368 1.4174 2.1927 1242.9 -0.0055937 226.96 0.13661 1.4006 0.71396 470.72 510.91 2.4897 1.1624 1.3731 215.14 0.54199 5.9527 0.010486
-53.625 155.98 undefined 73.948 75.755 0.49048 595.00 0.0016807 73.948 75.755 0.49048 1.4206 2.1923 1244.7 -0.0056063 226.50 0.13668 595.00 0.0016807 73.948 75.755 0.49048 1.4206 2.1923 1244.7 -0.0056063 226.50 0.13668
-52.625 317.98 undefined 75.370 79.055 0.49694 595.00 0.0016807 75.370 79.055 0.49694 1.4239 2.1915 1247.4 -0.0056230 226.26 0.13682 595.00 0.0016807 75.370 79.055 0.49694 1.4239 2.1915 1247.4 -0.0056230 226.26 0.13682
-51.625 479.75 undefined 76.796 82.355 0.50339 595.00 0.0016807 76.796 82.355 0.50339 1.4272 2.1909 1250.0 -0.0056392 226.03 0.13695 595.00 0.0016807 76.796 82.355 0.50339 1.4272 2.1909 1250.0 -0.0056392 226.03 0.13695
-50.625 641.29 undefined 78.224 85.655 0.50983 595.00 0.0016807 78.224 85.655 0.50983 1.4305 2.1903 1252.6 -0.0056550 225.80 0.13709 595.00 0.0016807 78.224 85.655 0.50983 1.4305 2.1903 1252.6 -0.0056550 225.80 0.13709
-49.625 802.59 undefined 79.657 88.957 0.51625 595.00 0.0016807 79.657 88.957 0.51625 1.4338 2.1897 1255.2 -0.0056703 225.57 0.13722 595.00 0.0016807 79.657 88.957 0.51625 1.4338 2.1897 1255.2 -0.0056703 225.57 0.13722
-48.625 963.66 undefined 81.092 92.259 0.52266 595.00 0.0016807 81.092 92.259 0.52266 1.4372 2.1893 1257.7 -0.0056852 225.34 0.13736 595.00 0.0016807 81.092 92.259 0.52266 1.4372 2.1893 1257.7 -0.0056852 225.34 0.13736
-47.625 1124.5 undefined 82.531 95.561 0.52905 595.00 0.0016807 82.531 95.561 0.52905 1.4405 2.1889 1260.3 -0.0056997 225.12 0.13750 595.00 0.0016807 82.531 95.561 0.52905 1.4405 2.1889 1260.3 -0.0056997 225.12 0.13750
-46.625 1285.1 undefined 83.973 98.865 0.53543 595.00 0.0016807 83.973 98.865 0.53543 1.4439 2.1887 1262.8 -0.0057137 224.90 0.13763 595.00 0.0016807 83.973 98.865 0.53543 1.4439 2.1887 1262.8 -0.0057137 224.90 0.13763
-45.625 1445.5 undefined 85.419 102.17 0.54180 595.00 0.0016807 85.419 102.17 0.54180 1.4472 2.1884 1265.3 -0.0057273 224.68 0.13777 595.00 0.0016807 85.419 102.17 0.54180 1.4472 2.1884 1265.3 -0.0057273 224.68 0.13777
-44.625 1605.7 undefined 86.868 105.47 0.54815 595.00 0.0016807 86.868 105.47 0.54815 1.4506 2.1883 1267.8 -0.0057404 224.46 0.13791 595.00 0.0016807 86.868 105.47 0.54815 1.4506 2.1883 1267.8 -0.0057404 224.46 0.13791
-43.625 1765.6 undefined 88.320 108.78 0.55449 595.00 0.0016807 88.320 108.78 0.55449 1.4540 2.1882 1270.3 -0.0057532 224.25 0.13805 595.00 0.0016807 88.320 108.78 0.55449 1.4540 2.1882 1270.3 -0.0057532 224.25 0.13805
-42.625 1925.3 undefined 89.776 112.09 0.56082 595.00 0.0016807 89.776 112.09 0.56082 1.4574 2.1882 1272.7 -0.0057656 224.04 0.13818 595.00 0.0016807 89.776 112.09 0.56082 1.4574 2.1882 1272.7 -0.0057656 224.04 0.13818
-41.625 2084.8 undefined 91.235 115.39 0.56714 595.00 0.0016807 91.235 115.39 0.56714 1.4609 2.1882 1275.2 -0.0057776 223.83 0.13832 595.00 0.0016807 91.235 115.39 0.56714 1.4609 2.1882 1275.2 -0.0057776 223.83 0.13832
-40.625 2244.0 undefined 92.697 118.70 0.57344 595.00 0.0016807 92.697 118.70 0.57344 1.4643 2.1883 1277.6 -0.0057893 223.62 0.13846 595.00 0.0016807 92.697 118.70 0.57344 1.4643 2.1883 1277.6 -0.0057893 223.62 0.13846
-39.625 2403.1 undefined 94.163 122.01 0.57973 595.00 0.0016807 94.163 122.01 0.57973 1.4678 2.1885 1280.0 -0.0058005 223.42 0.13860 595.00 0.0016807 94.163 122.01 0.57973 1.4678 2.1885 1280.0 -0.0058005 223.42 0.13860
-38.625 2561.9 undefined 95.633 125.32 0.58601 595.00 0.0016807 95.633 125.32 0.58601 1.4712 2.1888 1282.4 -0.0058114 223.22 0.13874 595.00 0.0016807 95.633 125.32 0.58601 1.4712 2.1888 1282.4 -0.0058114 223.22 0.13874
-37.625 2720.5 undefined 97.106 128.63 0.59228 595.00 0.0016807 97.106 128.63 0.59228 1.4747 2.1890 1284.7 -0.0058220 223.02 0.13888 595.00 0.0016807 97.106 128.63 0.59228 1.4747 2.1890 1284.7 -0.0058220 223.02 0.13888
-36.625 2878.8 undefined 98.582 131.94 0.59853 595.00 0.0016807 98.582 131.94 0.59853 1.4782 2.1894 1287.1 -0.0058322 222.82 0.13902 595.00 0.0016807 98.582 131.94 0.59853 1.4782 2.1894 1287.1 -0.0058322 222.82 0.13902
-35.625 3037.0 undefined 100.06 135.25 0.60478 595.00 0.0016807 100.06 135.25 0.60478 1.4817 2.1898 1289.4 -0.0058421 222.63 0.13916 595.00 0.0016807 100.06 135.25 0.60478 1.4817 2.1898 1289.4 -0.0058421 222.63 0.13916
-34.625 3194.9 undefined 101.55 138.57 0.61101 595.00 0.0016807 101.55 138.57 0.61101 1.4853 2.1903 1291.7 -0.0058517 222.44 0.13930 595.00 0.0016807 101.55 138.57 0.61101 1.4853 2.1903 1291.7 -0.0058517 222.44 0.13930
-33.625 3352.6 undefined 103.03 141.88 0.61723 595.00 0.0016807 103.03 141.88 0.61723 1.4888 2.1908 1294.0 -0.0058609 222.25 0.13944 595.00 0.0016807 103.03 141.88 0.61723 1.4888 2.1908 1294.0 -0.0058609 222.25 0.13944
-32.625 3510.1 undefined 104.52 145.20 0.62344 595.00 0.0016807 104.52 145.20 0.62344 1.4924 2.1914 1296.3 -0.0058698 222.06 0.13958 595.00 0.0016807 104.52 145.20 0.62344 1.4924 2.1914 1296.3 -0.0058698 222.06 0.13958
-31.625 3667.4 undefined 106.02 148.51 0.62964 595.00 0.0016807 106.02 148.51 0.62964 1.4959 2.1920 1298.6 -0.0058784 221.87 0.13972 595.00 0.0016807 106.02 148.51 0.62964 1.4959 2.1920 1298.6 -0.0058784 221.87 0.13972
-30.625 3824.5 undefined 107.52 151.83 0.63583 595.00 0.0016807 107.52 151.83 0.63583 1.4995 2.1927 1300.8 -0.0058867 221.69 0.13987 595.00 0.0016807 107.52 151.83 0.63583 1.4995 2.1927 1300.8 -0.0058867 221.69 0.13987
-29.625 3981.3 undefined 109.02 155.15 0.64201 595.00 0.0016807 109.02 155.15 0.64201 1.5031 2.1935 1303.1 -0.0058947 221.51 0.14001 595.00 0.0016807 109.02 155.15 0.64201 1.5031 2.1935 1303.1 -0.0058947 221.51 0.14001
-28.625 4137.9 undefined 110.52 158.47 0.64817 595.00 0.0016807 110.52 158.47 0.64817 1.5068 2.1943 1305.3 -0.0059024 221.33 0.14015 595.00 0.0016807 110.52 158.47 0.64817 1.5068 2.1943 1305.3 -0.0059024 221.33 0.14015
-27.625 4294.3 undefined 112.03 161.79 0.65433 595.00 0.0016807 112.03 161.79 0.65433 1.5104 2.1951 1307.5 -0.0059098 221.15 0.14029 595.00 0.0016807 112.03 161.79 0.65433 1.5104 2.1951 1307.5 -0.0059098 221.15 0.14029
-26.625 4450.5 undefined 113.54 165.11 0.66048 595.00 0.0016807 113.54 165.11 0.66048 1.5140 2.1960 1309.7 -0.0059169 220.98 0.14043 595.00 0.0016807 113.54 165.11 0.66048 1.5140 2.1960 1309.7 -0.0059169 220.98 0.14043
-25.625 4606.5 undefined 115.06 168.44 0.66661 595.00 0.0016807 115.06 168.44 0.66661 1.5177 2.1970 1311.8 -0.0059237 220.81 0.14058 595.00 0.0016807 115.06 168.44 0.66661 1.5177 2.1970 1311.8 -0.0059237 220.81 0.14058
-24.625 4762.3 undefined 116.58 171.76 0.67274 595.00 0.0016807 116.58 171.76 0.67274 1.5214 2.1979 1314.0 -0.0059303 220.63 0.14072 595.00 0.0016807 116.58 171.76 0.67274 1.5214 2.1979 1314.0 -0.0059303 220.63 0.14072
-23.625 4917.8 undefined 118.10 175.09 0.67886 595.00 0.0016807 118.10 175.09 0.67886 1.5251 2.1990 1316.1 -0.0059366 220.47 0.14086 595.00 0.0016807 118.10 175.09 0.67886 1.5251 2.1990 1316.1 -0.0059366 220.47 0.14086
-22.625 5073.2 undefined 119.63 178.41 0.68496 595.00 0.0016807 119.63 178.41 0.68496 1.5288 2.2001 1318.3 -0.0059427 220.30 0.14101 595.00 0.0016807 119.63 178.41 0.68496 1.5288 2.2001 1318.3 -0.0059427 220.30 0.14101
-21.625 5228.3 undefined 121.16 181.74 0.69106 595.00 0.0016807 121.16 181.74 0.69106 1.5325 2.2012 1320.4 -0.0059485 220.13 0.14115 595.00 0.0016807 121.16 181.74 0.69106 1.5325 2.2012 1320.4 -0.0059485 220.13 0.14115
-20.625 5383.2 undefined 122.69 185.07 0.69715 595.00 0.0016807 122.69 185.07 0.69715 1.5363 2.2024 1322.5 -0.0059540 219.97 0.14130 595.00 0.0016807 122.69 185.07 0.69715 1.5363 2.2024 1322.5 -0.0059540 219.97 0.14130
-19.625 5537.9 undefined 124.23 188.40 0.70323 595.00 0.0016807 124.23 188.40 0.70323 1.5400 2.2036 1324.6 -0.0059593 219.81 0.14144 595.00 0.0016807 124.23 188.40 0.70323 1.5400 2.2036 1324.6 -0.0059593 219.81 0.14144
-18.625 5692.4 undefined 125.77 191.74 0.70930 595.00 0.0016807 125.77 191.74 0.70930 1.5438 2.2049 1326.7 -0.0059644 219.65 0.14159 595.00 0.0016807 125.77 191.74 0.70930 1.5438 2.2049 1326.7 -0.0059644 219.65 0.14159
-17.625 5846.7 undefined 127.32 195.07 0.71536 595.00 0.0016807 127.32 195.07 0.71536 1.5476 2.2062 1328.7 -0.0059692 219.49 0.14173 595.00 0.0016807 127.32 195.07 0.71536 1.5476 2.2062 1328.7 -0.0059692 219.49 0.14173
-16.625 6000.8 undefined 128.87 198.40 0.72141 595.00 0.0016807 128.87 198.40 0.72141 1.5514 2.2075 1330.8 -0.0059738 219.33 0.14188 595.00 0.0016807 128.87 198.40 0.72141 1.5514 2.2075 1330.8 -0.0059738 219.33 0.14188
-15.625 6154.6 undefined 130.42 201.74 0.72746 595.00 0.0016807 130.42 201.74 0.72746 1.5552 2.2089 1332.8 -0.0059781 219.18 0.14202 595.00 0.0016807 130.42 201.74 0.72746 1.5552 2.2089 1332.8 -0.0059781 219.18 0.14202
-14.625 6308.3 undefined 131.98 205.08 0.73349 595.00 0.0016807 131.98 205.08 0.73349 1.5590 2.2104 1334.8 -0.0059822 219.03 0.14217 595.00 0.0016807 131.98 205.08 0.73349 1.5590 2.2104 1334.8 -0.0059822 219.03 0.14217
-13.625 6461.7 undefined 133.54 208.42 0.73952 595.00 0.0016807 133.54 208.42 0.73952 1.5629 2.2119 1336.8 -0.0059862 218.88 0.14232 595.00 0.0016807 133.54 208.42 0.73952 1.5629 2.2119 1336.8 -0.0059862 218.88 0.14232
-12.625 6615.0 undefined 135.10 211.76 0.74554 595.00 0.0016807 135.10 211.76 0.74554 1.5667 2.2134 1338.8 -0.0059898 218.73 0.14246 595.00 0.0016807 135.10 211.76 0.74554 1.5667 2.2134 1338.8 -0.0059898 218.73 0.14246
-11.625 6768.0 undefined 136.67 215.10 0.75155 595.00 0.0016807 136.67 215.10 0.75155 1.5706 2.2149 1340.8 -0.0059933 218.58 0.14261 595.00 0.0016807 136.67 215.10 0.75155 1.5706 2.2149 1340.8 -0.0059933 218.58 0.14261
-10.625 6920.9 undefined 138.25 218.44 0.75755 595.00 0.0016807 138.25 218.44 0.75755 1.5745 2.2165 1342.8 -0.0059966 218.43 0.14276 595.00 0.0016807 138.25 218.44 0.75755 1.5745 2.2165 1342.8 -0.0059966 218.43 0.14276
-9.6250 7073.5 undefined 139.82 221.79 0.76354 595.00 0.0016807 139.82 221.79 0.76354 1.5784 2.2182 1344.7 -0.0059997 218.29 0.14291 595.00 0.0016807 139.82 221.79 0.76354 1.5784 2.2182 1344.7 -0.0059997 218.29 0.14291
-8.6250 7225.9 undefined 141.40 225.13 0.76953 595.00 0.0016807 141.40 225.13 0.76953 1.5823 2.2198 1346.7 -0.0060025 218.15 0.14306 595.00 0.0016807 141.40 225.13 0.76953 1.5823 2.2198 1346.7 -0.0060025 218.15 0.14306
-7.6250 7378.1 undefined 142.99 228.48 0.77550 595.00 0.0016807 142.99 228.48 0.77550 1.5862 2.2215 1348.6 -0.0060052 218.01 0.14320 595.00 0.0016807 142.99 228.48 0.77550 1.5862 2.2215 1348.6 -0.0060052 218.01 0.14320
-6.6250 7530.1 undefined 144.57 231.83 0.78147 595.00 0.0016807 144.57 231.83 0.78147 1.5902 2.2233 1350.6 -0.0060077 217.87 0.14335 595.00 0.0016807 144.57 231.83 0.78147 1.5902 2.2233 1350.6 -0.0060077 217.87 0.14335
-5.6250 7682.0 undefined 146.17 235.18 0.78744 595.00 0.0016807 146.17 235.18 0.78744 1.5941 2.2251 1352.5 -0.0060100 217.73 0.14350 595.00 0.0016807 146.17 235.18 0.78744 1.5941 2.2251 1352.5 -0.0060100 217.73 0.14350
-4.6250 7833.6 undefined 147.76 238.54 0.79339 595.00 0.0016807 147.76 238.54 0.79339 1.5981 2.2269 1354.4 -0.0060121 217.59 0.14365 595.00 0.0016807 147.76 238.54 0.79339 1.5981 2.2269 1354.4 -0.0060121 217.59 0.14365
-3.6250 7985.0 undefined 149.36 241.89 0.79934 595.00 0.0016807 149.36 241.89 0.79934 1.6021 2.2287 1356.3 -0.0060140 217.46 0.14380 595.00 0.0016807 149.36 241.89 0.79934 1.6021 2.2287 1356.3 -0.0060140 217.46 0.14380
-2.6250 8136.2 undefined 150.97 245.25 0.80528 595.00 0.0016807 150.97 245.25 0.80528 1.6060 2.2306 1358.2 -0.0060157 217.33 0.14395 595.00 0.0016807 150.97 245.25 0.80528 1.6060 2.2306 1358.2 -0.0060157 217.33 0.14395
-1.6250 8287.2 undefined 152.58 248.61 0.81121 595.00 0.0016807 152.58 248.61 0.81121 1.6100 2.2325 1360.0 -0.0060173 217.19 0.14410 595.00 0.0016807 152.58 248.61 0.81121 1.6100 2.2325 1360.0 -0.0060173 217.19 0.14410
-0.62500 8438.0 undefined 154.19 251.97 0.81714 595.00 0.0016807 154.19 251.97 0.81714 1.6140 2.2345 1361.9 -0.0060187 217.06 0.14425 595.00 0.0016807 154.19 251.97 0.81714 1.6140 2.2345 1361.9 -0.0060187 217.06 0.14425
0.37500 8588.6 undefined 155.80 255.33 0.82306 595.00 0.0016807 155.80 255.33 0.82306 1.6181 2.2364 1363.8 -0.0060199 216.94 0.14440 595.00 0.0016807 155.80 255.33 0.82306 1.6181 2.2364 1363.8 -0.0060199 216.94 0.14440
1.3750 8739.1 undefined 157.42 258.69 0.82897 595.00 0.0016807 157.42 258.69 0.82897 1.6221 2.2384 1365.6 -0.0060209 216.81 0.14455 595.00 0.0016807 157.42 258.69 0.82897 1.6221 2.2384 1365.6 -0.0060209 216.81 0.14455
2.3750 8889.3 undefined 159.05 262.06 0.83488 595.00 0.0016807 159.05 262.06 0.83488 1.6261 2.2405 1367.4 -0.0060218 216.68 0.14470 595.00 0.0016807 159.05 262.06 0.83488 1.6261 2.2405 1367.4 -0.0060218 216.68 0.14470
3.3750 9039.3 undefined 160.68 265.42 0.84077 595.00 0.0016807 160.68 265.42 0.84077 1.6302 2.2426 1369.3 -0.0060226 216.56 0.14486 595.00 0.0016807 160.68 265.42 0.84077 1.6302 2.2426 1369.3 -0.0060226 216.56 0.14486
4.3750 9189.1 undefined 162.31 268.79 0.84667 595.00 0.0016807 162.31 268.79 0.84667 1.6343 2.2447 1371.1 -0.0060231 216.43 0.14501 595.00 0.0016807 162.31 268.79 0.84667 1.6343 2.2447 1371.1 -0.0060231 216.43 0.14501
5.3750 9338.8 undefined 163.94 272.16 0.85255 595.00 0.0016807 163.94 272.16 0.85255 1.6383 2.2468 1372.9 -0.0060236 216.31 0.14516 595.00 0.0016807 163.94 272.16 0.85255 1.6383 2.2468 1372.9 -0.0060236 216.31 0.14516
6.3750 9488.2 undefined 165.58 275.53 0.85843 595.00 0.0016807 165.58 275.53 0.85843 1.6424 2.2490 1374.7 -0.0060238 216.19 0.14531 595.00 0.0016807 165.58 275.53 0.85843 1.6424 2.2490 1374.7 -0.0060238 216.19 0.14531
7.3750 9637.4 undefined 167.23 278.91 0.86430 595.00 0.0016807 167.23 278.91 0.86430 1.6465 2.2512 1376.5 -0.0060240 216.07 0.14546 595.00 0.0016807 167.23 278.91 0.86430 1.6465 2.2512 1376.5 -0.0060240 216.07 0.14546
8.3750 9786.5 undefined 168.88 282.28 0.87017 595.00 0.0016807 168.88 282.28 0.87017 1.6506 2.2534 1378.3 -0.0060239 215.96 0.14562 595.00 0.0016807 168.88 282.28 0.87017 1.6506 2.2534 1378.3 -0.0060239 215.96 0.14562
9.3750 9935.3 undefined 170.53 285.66 0.87603 595.00 0.0016807 170.53 285.66 0.87603 1.6547 2.2556 1380.0 -0.0060238 215.84 0.14577 595.00 0.0016807 170.53 285.66 0.87603 1.6547 2.2556 1380.0 -0.0060238 215.84 0.14577
10.375 10084. undefined 172.19 289.04 0.88188 595.00 0.0016807 172.19 289.04 0.88188 1.6589 2.2579 1381.8 -0.0060235 215.72 0.14592 595.00 0.0016807 172.19 289.04 0.88188 1.6589 2.2579 1381.8 -0.0060235 215.72 0.14592
11.375 10232. undefined 173.85 292.42 0.88773 595.00 0.0016807 173.85 292.42 0.88773 1.6630 2.2602 1383.6 -0.0060230 215.61 0.14608 595.00 0.0016807 173.85 292.42 0.88773 1.6630 2.2602 1383.6 -0.0060230 215.61 0.14608
12.375 10381. undefined 175.51 295.80 0.89357 595.00 0.0016807 175.51 295.80 0.89357 1.6671 2.2625 1385.3 -0.0060225 215.50 0.14623 595.00 0.0016807 175.51 295.80 0.89357 1.6671 2.2625 1385.3 -0.0060225 215.50 0.14623
13.375 10529. undefined 177.18 299.19 0.89941 595.00 0.0016807 177.18 299.19 0.89941 1.6713 2.2649 1387.1 -0.0060218 215.39 0.14639 595.00 0.0016807 177.18 299.19 0.89941 1.6713 2.2649 1387.1 -0.0060218 215.39 0.14639
14.375 10677. undefined 178.86 302.58 0.90524 595.00 0.0016807 178.86 302.58 0.90524 1.6754 2.2673 1388.8 -0.0060209 215.28 0.14654 595.00 0.0016807 178.86 302.58 0.90524 1.6754 2.2673 1388.8 -0.0060209 215.28 0.14654
15.375 10824. undefined 180.53 305.97 0.91106 595.00 0.0016807 180.53 305.97 0.91106 1.6796 2.2697 1390.5 -0.0060200 215.17 0.14670 595.00 0.0016807 180.53 305.97 0.91106 1.6796 2.2697 1390.5 -0.0060200 215.17 0.14670
16.375 10972. undefined 182.21 309.36 0.91688 595.00 0.0016807 182.21 309.36 0.91688 1.6838 2.2721 1392.2 -0.0060189 215.06 0.14685 595.00 0.0016807 182.21 309.36 0.91688 1.6838 2.2721 1392.2 -0.0060189 215.06 0.14685
17.375 11119. undefined 183.90 312.75 0.92269 595.00 0.0016807 183.90 312.75 0.92269 1.6880 2.2745 1393.9 -0.0060177 214.95 0.14701 595.00 0.0016807 183.90 312.75 0.92269 1.6880 2.2745 1393.9 -0.0060177 214.95 0.14701
18.375 11267. undefined 185.59 316.15 0.92850 595.00 0.0016807 185.59 316.15 0.92850 1.6922 2.2770 1395.6 -0.0060164 214.85 0.14716 595.00 0.0016807 185.59 316.15 0.92850 1.6922 2.2770 1395.6 -0.0060164 214.85 0.14716
19.375 11413. undefined 187.29 319.54 0.93430 595.00 0.0016807 187.29 319.54 0.93430 1.6964 2.2795 1397.3 -0.0060149 214.74 0.14732 595.00 0.0016807 187.29 319.54 0.93430 1.6964 2.2795 1397.3 -0.0060149 214.74 0.14732
20.375 11560. undefined 188.98 322.94 0.94010 595.00 0.0016807 188.98 322.94 0.94010 1.7006 2.2821 1399.0 -0.0060134 214.64 0.14748 595.00 0.0016807 188.98 322.94 0.94010 1.7006 2.2821 1399.0 -0.0060134 214.64 0.14748
21.375 11707. undefined 190.69 326.34 0.94589 595.00 0.0016807 190.69 326.34 0.94589 1.7048 2.2846 1400.7 -0.0060117 214.54 0.14763 595.00 0.0016807 190.69 326.34 0.94589 1.7048 2.2846 1400.7 -0.0060117 214.54 0.14763
22.375 11853. undefined 192.39 329.75 0.95168 595.00 0.0016807 192.39 329.75 0.95168 1.7090 2.2872 1402.4 -0.0060100 214.44 0.14779 595.00 0.0016807 192.39 329.75 0.95168 1.7090 2.2872 1402.4 -0.0060100 214.44 0.14779
23.375 12000. undefined 194.10 333.15 0.95746 595.00 0.0016807 194.10 333.15 0.95746 1.7132 2.2898 1404.0 -0.0060081 214.34 0.14795 595.00 0.0016807 194.10 333.15 0.95746 1.7132 2.2898 1404.0 -0.0060081 214.34 0.14795
24.375 12146. undefined 195.82 336.56 0.96323 595.00 0.0016807 195.82 336.56 0.96323 1.7175 2.2924 1405.7 -0.0060061 214.24 0.14811 595.00 0.0016807 195.82 336.56 0.96323 1.7175 2.2924 1405.7 -0.0060061 214.24 0.14811
25.375 12291. undefined 197.54 339.97 0.96900 595.00 0.0016807 197.54 339.97 0.96900 1.7217 2.2950 1407.4 -0.0060040 214.14 0.14826 595.00 0.0016807 197.54 339.97 0.96900 1.7217 2.2950 1407.4 -0.0060040 214.14 0.14826
26.375 12437. undefined 199.26 343.38 0.97477 595.00 0.0016807 199.26 343.38 0.97477 1.7260 2.2977 1409.0 -0.0060018 214.04 0.14842 595.00 0.0016807 199.26 343.38 0.97477 1.7260 2.2977 1409.0 -0.0060018 214.04 0.14842
27.375 12583. undefined 200.99 346.80 0.98053 595.00 0.0016807 200.99 346.80 0.98053 1.7302 2.3003 1410.7 -0.0059996 213.95 0.14858 595.00 0.0016807 200.99 346.80 0.98053 1.7302 2.3003 1410.7 -0.0059996 213.95 0.14858
28.375 12728. undefined 202.72 350.21 0.98628 595.00 0.0016807 202.72 350.21 0.98628 1.7345 2.3030 1412.3 -0.0059972 213.85 0.14874 595.00 0.0016807 202.72 350.21 0.98628 1.7345 2.3030 1412.3 -0.0059972 213.85 0.14874
29.375 12873. undefined 204.46 353.63 0.99203 595.00 0.0016807 204.46 353.63 0.99203 1.7387 2.3057 1413.9 -0.0059947 213.76 0.14890 595.00 0.0016807 204.46 353.63 0.99203 1.7387 2.3057 1413.9 -0.0059947 213.76 0.14890
30.375 13018. undefined 206.20 357.05 0.99778 595.00 0.0016807 206.20 357.05 0.99778 1.7430 2.3085 1415.5 -0.0059921 213.67 0.14906 595.00 0.0016807 206.20 357.05 0.99778 1.7430 2.3085 1415.5 -0.0059921 213.67 0.14906
31.375 13163. undefined 207.95 360.48 1.0035 595.00 0.0016807 207.95 360.48 1.0035 1.7473 2.3112 1417.2 -0.0059895 213.58 0.14922 595.00 0.0016807 207.95 360.48 1.0035 1.7473 2.3112 1417.2 -0.0059895 213.58 0.14922
32.375 13307. undefined 209.70 363.90 1.0093 595.00 0.0016807 209.70 363.90 1.0093 1.7516 2.3140 1418.8 -0.0059867 213.49 0.14938 595.00 0.0016807 209.70 363.90 1.0093 1.7516 2.3140 1418.8 -0.0059867 213.49 0.14938
33.375 13452. undefined 211.45 367.33 1.0150 595.00 0.0016807 211.45 367.33 1.0150 1.7559 2.3168 1420.4 -0.0059839 213.40 0.14954 595.00 0.0016807 211.45 367.33 1.0150 1.7559 2.3168 1420.4 -0.0059839 213.40 0.14954
34.375 13596. undefined 213.21 370.76 1.0207 595.00 0.0016807 213.21 370.76 1.0207 1.7602 2.3196 1422.0 -0.0059810 213.31 0.14970 595.00 0.0016807 213.21 370.76 1.0207 1.7602 2.3196 1422.0 -0.0059810 213.31 0.14970
35.375 13740. undefined 214.97 374.19 1.0264 595.00 0.0016807 214.97 374.19 1.0264 1.7645 2.3224 1423.6 -0.0059780 213.22 0.14986 595.00 0.0016807 214.97 374.19 1.0264 1.7645 2.3224 1423.6 -0.0059780 213.22 0.14986
36.375 13884. undefined 216.74 377.62 1.0321 595.00 0.0016807 216.74 377.62 1.0321 1.7688 2.3253 1425.2 -0.0059749 213.13 0.15002 595.00 0.0016807 216.74 377.62 1.0321 1.7688 2.3253 1425.2 -0.0059749 213.13 0.15002
37.375 14028. undefined 218.51 381.06 1.0379 595.00 0.0016807 218.51 381.06 1.0379 1.7731 2.3281 1426.7 -0.0059718 213.05 0.15018 595.00 0.0016807 218.51 381.06 1.0379 1.7731 2.3281 1426.7 -0.0059718 213.05 0.15018
38.375 14171. undefined 220.28 384.50 1.0436 595.00 0.0016807 220.28 384.50 1.0436 1.7774 2.3310 1428.3 -0.0059685 212.96 0.15035 595.00 0.0016807 220.28 384.50 1.0436 1.7774 2.3310 1428.3 -0.0059685 212.96 0.15035
39.375 14315. undefined 222.06 387.94 1.0493 595.00 0.0016807 222.06 387.94 1.0493 1.7817 2.3339 1429.9 -0.0059652 212.88 0.15051 595.00 0.0016807 222.06 387.94 1.0493 1.7817 2.3339 1429.9 -0.0059652 212.88 0.15051
40.375 14458. undefined 223.85 391.38 1.0550 595.00 0.0016807 223.85 391.38 1.0550 1.7860 2.3368 1431.4 -0.0059618 212.80 0.15067 595.00 0.0016807 223.85 391.38 1.0550 1.7860 2.3368 1431.4 -0.0059618 212.80 0.15067
41.375 14601. undefined 225.63 394.83 1.0607 595.00 0.0016807 225.63 394.83 1.0607 1.7903 2.3397 1433.0 -0.0059584 212.71 0.15083 595.00 0.0016807 225.63 394.83 1.0607 1.7903 2.3397 1433.0 -0.0059584 212.71 0.15083
42.375 14744. undefined 227.43 398.28 1.0664 595.00 0.0016807 227.43 398.28 1.0664 1.7947 2.3427 1434.6 -0.0059549 212.63 0.15100 595.00 0.0016807 227.43 398.28 1.0664 1.7947 2.3427 1434.6 -0.0059549 212.63 0.15100
43.375 14887. undefined 229.22 401.73 1.0720 595.00 0.0016807 229.22 401.73 1.0720 1.7990 2.3456 1436.1 -0.0059513 212.55 0.15116 595.00 0.0016807 229.22 401.73 1.0720 1.7990 2.3456 1436.1 -0.0059513 212.55 0.15116
44.375 15029. undefined 231.02 405.18 1.0777 595.00 0.0016807 231.02 405.18 1.0777 1.8033 2.3486 1437.7 -0.0059476 212.47 0.15132 595.00 0.0016807 231.02 405.18 1.0777 1.8033 2.3486 1437.7 -0.0059476 212.47 0.15132
45.375 15172. undefined 232.83 408.64 1.0834 595.00 0.0016807 232.83 408.64 1.0834 1.8077 2.3516 1439.2 -0.0059439 212.40 0.15149 595.00 0.0016807 232.83 408.64 1.0834 1.8077 2.3516 1439.2 -0.0059439 212.40 0.15149
46.375 15314. undefined 234.64 412.09 1.0891 595.00 0.0016807 234.64 412.09 1.0891 1.8120 2.3546 1440.7 -0.0059401 212.32 0.15165 595.00 0.0016807 234.64 412.09 1.0891 1.8120 2.3546 1440.7 -0.0059401 212.32 0.15165
47.375 15456. undefined 236.45 415.56 1.0947 595.00 0.0016807 236.45 415.56 1.0947 1.8164 2.3576 1442.3 -0.0059362 212.24 0.15182 595.00 0.0016807 236.45 415.56 1.0947 1.8164 2.3576 1442.3 -0.0059362 212.24 0.15182
48.375 15598. undefined 238.27 419.02 1.1004 595.00 0.0016807 238.27 419.02 1.1004 1.8207 2.3606 1443.8 -0.0059323 212.16 0.15198 595.00 0.0016807 238.27 419.02 1.1004 1.8207 2.3606 1443.8 -0.0059323 212.16 0.15198
49.375 15740. undefined 240.10 422.48 1.1061 595.00 0.0016807 240.10 422.48 1.1061 1.8251 2.3637 1445.3 -0.0059284 212.09 0.15215 595.00 0.0016807 240.10 422.48 1.1061 1.8251 2.3637 1445.3 -0.0059284 212.09 0.15215
50.375 15881. undefined 241.92 425.95 1.1117 595.00 0.0016807 241.92 425.95 1.1117 1.8294 2.3667 1446.8 -0.0059243 212.02 0.15231 595.00 0.0016807 241.92 425.95 1.1117 1.8294 2.3667 1446.8 -0.0059243 212.02 0.15231
51.375 16022. undefined 243.75 429.42 1.1174 595.00 0.0016807 243.75 429.42 1.1174 1.8338 2.3698 1448.3 -0.0059202 211.94 0.15248 595.00 0.0016807 243.75 429.42 1.1174 1.8338 2.3698 1448.3 -0.0059202 211.94 0.15248
52.375 16164. undefined 245.59 432.89 1.1230 595.00 0.0016807 245.59 432.89 1.1230 1.8381 2.3729 1449.8 -0.0059161 211.87 0.15264 595.00 0.0016807 245.59 432.89 1.1230 1.8381 2.3729 1449.8 -0.0059161 211.87 0.15264
53.375 16305. undefined 247.43 436.37 1.1287 595.00 0.0016807 247.43 436.37 1.1287 1.8425 2.3760 1451.3 -0.0059119 211.80 0.15281 595.00 0.0016807 247.43 436.37 1.1287 1.8425 2.3760 1451.3 -0.0059119 211.80 0.15281
54.375 16446. undefined 249.28 439.84 1.1343 595.00 0.0016807 249.28 439.84 1.1343 1.8469 2.3791 1452.8 -0.0059076 211.73 0.15298 595.00 0.0016807 249.28 439.84 1.1343 1.8469 2.3791 1452.8 -0.0059076 211.73 0.15298
55.375 16586. undefined 251.12 443.32 1.1399 595.00 0.0016807 251.12 443.32 1.1399 1.8512 2.3822 1454.3 -0.0059033 211.66 0.15314 595.00 0.0016807 251.12 443.32 1.1399 1.8512 2.3822 1454.3 -0.0059033 211.66 0.15314
56.375 16727. undefined 252.98 446.81 1.1456 595.00 0.0016807 252.98 446.81 1.1456 1.8556 2.3853 1455.8 -0.0058990 211.59 0.15331 595.00 0.0016807 252.98 446.81 1.1456 1.8556 2.3853 1455.8 -0.0058990 211.59 0.15331
57.375 16867. undefined 254.84 450.29 1.1512 595.00 0.0016807 254.84 450.29 1.1512 1.8600 2.3885 1457.3 -0.0058946 211.52 0.15348 595.00 0.0016807 254.84 450.29 1.1512 1.8600 2.3885 1457.3 -0.0058946 211.52 0.15348
58.375 17008. undefined 256.70 453.78 1.1568 595.00 0.0016807 256.70 453.78 1.1568 1.8643 2.3916 1458.8 -0.0058901 211.45 0.15364 595.00 0.0016807 256.70 453.78 1.1568 1.8643 2.3916 1458.8 -0.0058901 211.45 0.15364
59.375 17148. undefined 258.56 457.27 1.1625 595.00 0.0016807 258.56 457.27 1.1625 1.8687 2.3948 1460.3 -0.0058856 211.38 0.15381 595.00 0.0016807 258.56 457.27 1.1625 1.8687 2.3948 1460.3 -0.0058856 211.38 0.15381
60.375 17288. undefined 260.44 460.76 1.1681 595.00 0.0016807 260.44 460.76 1.1681 1.8731 2.3980 1461.7 -0.0058811 211.31 0.15398 595.00 0.0016807 260.44 460.76 1.1681 1.8731 2.3980 1461.7 -0.0058811 211.31 0.15398
61.375 17427. undefined 262.31 464.26 1.1737 595.00 0.0016807 262.31 464.26 1.1737 1.8775 2.4012 1463.2 -0.0058765 211.25 0.15415 595.00 0.0016807 262.31 464.26 1.1737 1.8775 2.4012 1463.2 -0.0058765 211.25 0.15415
62.375 17567. undefined 264.19 467.75 1.1793 595.00 0.0016807 264.19 467.75 1.1793 1.8818 2.4044 1464.7 -0.0058719 211.18 0.15432 595.00 0.0016807 264.19 467.75 1.1793 1.8818 2.4044 1464.7 -0.0058719 211.18 0.15432
63.375 17707. undefined 266.07 471.25 1.1849 595.00 0.0016807 266.07 471.25 1.1849 1.8862 2.4076 1466.1 -0.0058672 211.12 0.15449 595.00 0.0016807 266.07 471.25 1.1849 1.8862 2.4076 1466.1 -0.0058672 211.12 0.15449
64.375 17846. undefined 267.96 474.76 1.1905 595.00 0.0016807 267.96 474.76 1.1905 1.8906 2.4108 1467.6 -0.0058625 211.05 0.15466 595.00 0.0016807 267.96 474.76 1.1905 1.8906 2.4108 1467.6 -0.0058625 211.05 0.15466
65.375 17985. undefined 269.86 478.26 1.1961 595.00 0.0016807 269.86 478.26 1.1961 1.8950 2.4140 1469.0 -0.0058578 210.99 0.15483 595.00 0.0016807 269.86 478.26 1.1961 1.8950 2.4140 1469.0 -0.0058578 210.99 0.15483
66.375 18124. undefined 271.75 481.77 1.2017 595.00 0.0016807 271.75 481.77 1.2017 1.8994 2.4172 1470.5 -0.0058530 210.93 0.15500 595.00 0.0016807 271.75 481.77 1.2017 1.8994 2.4172 1470.5 -0.0058530 210.93 0.15500
67.375 18263. undefined 273.65 485.28 1.2073 595.00 0.0016807 273.65 485.28 1.2073 1.9037 2.4205 1471.9 -0.0058482 210.87 0.15517 595.00 0.0016807 273.65 485.28 1.2073 1.9037 2.4205 1471.9 -0.0058482 210.87 0.15517
68.375 18402. undefined 275.56 488.79 1.2129 595.00 0.0016807 275.56 488.79 1.2129 1.9081 2.4237 1473.3 -0.0058433 210.80 0.15534 595.00 0.0016807 275.56 488.79 1.2129 1.9081 2.4237 1473.3 -0.0058433 210.80 0.15534
69.375 18540. undefined 277.47 492.31 1.2185 595.00 0.0016807 277.47 492.31 1.2185 1.9125 2.4270 1474.8 -0.0058384 210.74 0.15551 595.00 0.0016807 277.47 492.31 1.2185 1.9125 2.4270 1474.8 -0.0058384 210.74 0.15551
70.375 18678. undefined 279.38 495.83 1.2241 595.00 0.0016807 279.38 495.83 1.2241 1.9169 2.4303 1476.2 -0.0058335 210.68 0.15568 595.00 0.0016807 279.38 495.83 1.2241 1.9169 2.4303 1476.2 -0.0058335 210.68 0.15568
71.375 18817. undefined 281.30 499.35 1.2296 595.00 0.0016807 281.30 499.35 1.2296 1.9213 2.4335 1477.6 -0.0058285 210.62 0.15585 595.00 0.0016807 281.30 499.35 1.2296 1.9213 2.4335 1477.6 -0.0058285 210.62 0.15585
72.375 18955. undefined 283.23 502.87 1.2352 595.00 0.0016807 283.23 502.87 1.2352 1.9257 2.4368 1479.1 -0.0058235 210.57 0.15602 595.00 0.0016807 283.23 502.87 1.2352 1.9257 2.4368 1479.1 -0.0058235 210.57 0.15602
73.375 19093. undefined 285.16 506.40 1.2408 595.00 0.0016807 285.16 506.40 1.2408 1.9300 2.4401 1480.5 -0.0058185 210.51 0.15619 595.00 0.0016807 285.16 506.40 1.2408 1.9300 2.4401 1480.5 -0.0058185 210.51 0.15619
74.375 19231. undefined 287.09 509.93 1.2463 595.00 0.0016807 287.09 509.93 1.2463 1.9344 2.4434 1481.9 -0.0058135 210.45 0.15637 595.00 0.0016807 287.09 509.93 1.2463 1.9344 2.4434 1481.9 -0.0058135 210.45 0.15637
75.375 19368. undefined 289.02 513.46 1.2519 595.00 0.0016807 289.02 513.46 1.2519 1.9388 2.4467 1483.3 -0.0058084 210.39 0.15654 595.00 0.0016807 289.02 513.46 1.2519 1.9388 2.4467 1483.3 -0.0058084 210.39 0.15654
76.375 19506. undefined 290.97 516.99 1.2575 595.00 0.0016807 290.97 516.99 1.2575 1.9432 2.4501 1484.7 -0.0058033 210.34 0.15671 595.00 0.0016807 290.97 516.99 1.2575 1.9432 2.4501 1484.7 -0.0058033 210.34 0.15671
77.375 19643. undefined 292.91 520.53 1.2630 595.00 0.0016807 292.91 520.53 1.2630 1.9476 2.4534 1486.1 -0.0057981 210.28 0.15689 595.00 0.0016807 292.91 520.53 1.2630 1.9476 2.4534 1486.1 -0.0057981 210.28 0.15689
78.375 19780. undefined 294.86 524.07 1.2686 595.00 0.0016807 294.86 524.07 1.2686 1.9520 2.4567 1487.5 -0.0057930 210.23 0.15706 595.00 0.0016807 294.86 524.07 1.2686 1.9520 2.4567 1487.5 -0.0057930 210.23 0.15706
79.375 19917. undefined 296.81 527.61 1.2741 595.00 0.0016807 296.81 527.61 1.2741 1.9564 2.4601 1488.9 -0.0057878 210.17 0.15723 595.00 0.0016807 296.81 527.61 1.2741 1.9564 2.4601 1488.9 -0.0057878 210.17 0.15723
80.375 20054. undefined 298.77 531.16 1.2797 595.00 0.0016807 298.77 531.16 1.2797 1.9607 2.4634 1490.3 -0.0057826 210.12 0.15741 595.00 0.0016807 298.77 531.16 1.2797 1.9607 2.4634 1490.3 -0.0057826 210.12 0.15741
81.375 20191. undefined 300.74 534.70 1.2852 595.00 0.0016807 300.74 534.70 1.2852 1.9651 2.4668 1491.7 -0.0057773 210.07 0.15758 595.00 0.0016807 300.74 534.70 1.2852 1.9651 2.4668 1491.7 -0.0057773 210.07 0.15758
82.375 20327. undefined 302.70 538.25 1.2908 595.00 0.0016807 302.70 538.25 1.2908 1.9695 2.4701 1493.1 -0.0057721 210.01 0.15776 595.00 0.0016807 302.70 538.25 1.2908 1.9695 2.4701 1493.1 -0.0057721 210.01 0.15776
83.375 20464. undefined 304.67 541.81 1.2963 595.00 0.0016807 304.67 541.81 1.2963 1.9739 2.4735 1494.5 -0.0057668 209.96 0.15793 595.00 0.0016807 304.67 541.81 1.2963 1.9739 2.4735 1494.5 -0.0057668 209.96 0.15793
84.375 20600. undefined 306.65 545.36 1.3018 595.00 0.0016807 306.65 545.36 1.3018 1.9783 2.4769 1495.9 -0.0057615 209.91 0.15811 595.00 0.0016807 306.65 545.36 1.3018 1.9783 2.4769 1495.9 -0.0057615 209.91 0.15811
85.375 20736. undefined 308.63 548.92 1.3074 595.00 0.0016807 308.63 548.92 1.3074 1.9826 2.4803 1497.2 -0.0057561 209.86 0.15828 595.00 0.0016807 308.63 548.92 1.3074 1.9826 2.4803 1497.2 -0.0057561 209.86 0.15828
86.375 20872. undefined 310.62 552.48 1.3129 595.00 0.0016807 310.62 552.48 1.3129 1.9870 2.4836 1498.6 -0.0057508 209.81 0.15846 595.00 0.0016807 310.62 552.48 1.3129 1.9870 2.4836 1498.6 -0.0057508 209.81 0.15846
87.375 21008. undefined 312.61 556.05 1.3184 595.00 0.0016807 312.61 556.05 1.3184 1.9914 2.4870 1500.0 -0.0057454 209.76 0.15863 595.00 0.0016807 312.61 556.05 1.3184 1.9914 2.4870 1500.0 -0.0057454 209.76 0.15863
88.375 21144. undefined 314.60 559.61 1.3239 595.00 0.0016807 314.60 559.61 1.3239 1.9958 2.4904 1501.3 -0.0057400 209.71 0.15881 595.00 0.0016807 314.60 559.61 1.3239 1.9958 2.4904 1501.3 -0.0057400 209.71 0.15881
89.375 21280. undefined 316.60 563.18 1.3295 595.00 0.0016807 316.60 563.18 1.3295 2.0001 2.4938 1502.7 -0.0057346 209.66 0.15899 595.00 0.0016807 316.60 563.18 1.3295 2.0001 2.4938 1502.7 -0.0057346 209.66 0.15899
90.375 21415. undefined 318.60 566.75 1.3350 595.00 0.0016807 318.60 566.75 1.3350 2.0045 2.4972 1504.1 -0.0057292 209.61 0.15917 595.00 0.0016807 318.60 566.75 1.3350 2.0045 2.4972 1504.1 -0.0057292 209.61 0.15917
91.375 21550. undefined 320.61 570.33 1.3405 595.00 0.0016807 320.61 570.33 1.3405 2.0089 2.5006 1505.4 -0.0057238 209.56 0.15934 595.00 0.0016807 320.61 570.33 1.3405 2.0089 2.5006 1505.4 -0.0057238 209.56 0.15934
92.375 21686. undefined 322.62 573.91 1.3460 595.00 0.0016807 322.62 573.91 1.3460 2.0133 2.5041 1506.8 -0.0057183 209.52 0.15952 595.00 0.0016807 322.62 573.91 1.3460 2.0133 2.5041 1506.8 -0.0057183 209.52 0.15952
93.375 21821. undefined 324.63 577.49 1.3515 595.00 0.0016807 324.63 577.49 1.3515 2.0176 2.5075 1508.1 -0.0057129 209.47 0.15970 595.00 0.0016807 324.63 577.49 1.3515 2.0176 2.5075 1508.1 -0.0057129 209.47 0.15970
94.375 21956. undefined 326.65 581.07 1.3570 595.00 0.0016807 326.65 581.07 1.3570 2.0220 2.5109 1509.5 -0.0057074 209.42 0.15988 595.00 0.0016807 326.65 581.07 1.3570 2.0220 2.5109 1509.5 -0.0057074 209.42 0.15988
95.375 22090. undefined 328.68 584.65 1.3625 595.00 0.0016807 328.68 584.65 1.3625 2.0264 2.5143 1510.8 -0.0057019 209.38 0.16005 595.00 0.0016807 328.68 584.65 1.3625 2.0264 2.5143 1510.8 -0.0057019 209.38 0.16005
96.375 22225. undefined 330.71 588.24 1.3680 595.00 0.0016807 330.71 588.24 1.3680 2.0307 2.5178 1512.2 -0.0056964 209.33 0.16023 595.00 0.0016807 330.71 588.24 1.3680 2.0307 2.5178 1512.2 -0.0056964 209.33 0.16023
97.375 22359. undefined 332.74 591.83 1.3735 595.00 0.0016807 332.74 591.83 1.3735 2.0351 2.5212 1513.5 -0.0056908 209.29 0.16041 595.00 0.0016807 332.74 591.83 1.3735 2.0351 2.5212 1513.5 -0.0056908 209.29 0.16041
98.375 22494. undefined 334.78 595.43 1.3790 595.00 0.0016807 334.78 595.43 1.3790 2.0395 2.5247 1514.8 -0.0056853 209.24 0.16059 595.00 0.0016807 334.78 595.43 1.3790 2.0395 2.5247 1514.8 -0.0056853 209.24 0.16059
99.375 22628. undefined 336.82 599.03 1.3845 595.00 0.0016807 336.82 599.03 1.3845 2.0438 2.5281 1516.2 -0.0056798 209.20 0.16077 595.00 0.0016807 336.82 599.03 1.3845 2.0438 2.5281 1516.2 -0.0056798 209.20 0.16077
100.38 22762. undefined 338.86 602.62 1.3900 595.00 0.0016807 338.86 602.62 1.3900 2.0482 2.5316 1517.5 -0.0056742 209.16 0.16095 595.00 0.0016807 338.86 602.62 1.3900 2.0482 2.5316 1517.5 -0.0056742 209.16 0.16095
101.38 22896. undefined 340.91 606.23 1.3954 595.00 0.0016807 340.91 606.23 1.3954 2.0525 2.5350 1518.8 -0.0056686 209.11 0.16113 595.00 0.0016807 340.91 606.23 1.3954 2.0525 2.5350 1518.8 -0.0056686 209.11 0.16113
102.38 23030. undefined 342.97 609.83 1.4009 595.00 0.0016807 342.97 609.83 1.4009 2.0569 2.5385 1520.1 -0.0056630 209.07 0.16131 595.00 0.0016807 342.97 609.83 1.4009 2.0569 2.5385 1520.1 -0.0056630 209.07 0.16131
103.38 23163. undefined 345.03 613.44 1.4064 595.00 0.0016807 345.03 613.44 1.4064 2.0612 2.5419 1521.4 -0.0056575 209.03 0.16149 595.00 0.0016807 345.03 613.44 1.4064 2.0612 2.5419 1521.4 -0.0056575 209.03 0.16149
104.38 23297. undefined 347.09 617.05 1.4119 595.00 0.0016807 347.09 617.05 1.4119 2.0656 2.5454 1522.8 -0.0056519 208.99 0.16167 595.00 0.0016807 347.09 617.05 1.4119 2.0656 2.5454 1522.8 -0.0056519 208.99 0.16167
105.38 23430. undefined 349.16 620.66 1.4173 595.00 0.0016807 349.16 620.66 1.4173 2.0699 2.5489 1524.1 -0.0056463 208.95 0.16186 595.00 0.0016807 349.16 620.66 1.4173 2.0699 2.5489 1524.1 -0.0056463 208.95 0.16186
106.38 23564. undefined 351.23 624.28 1.4228 595.00 0.0016807 351.23 624.28 1.4228 2.0743 2.5524 1525.4 -0.0056406 208.91 0.16204 595.00 0.0016807 351.23 624.28 1.4228 2.0743 2.5524 1525.4 -0.0056406 208.91 0.16204
107.38 23697. undefined 353.31 627.90 1.4283 595.00 0.0016807 353.31 627.90 1.4283 2.0786 2.5558 1526.7 -0.0056350 208.87 0.16222 595.00 0.0016807 353.31 627.90 1.4283 2.0786 2.5558 1526.7 -0.0056350 208.87 0.16222
108.38 23830. undefined 355.39 631.52 1.4337 595.00 0.0016807 355.39 631.52 1.4337 2.0829 2.5593 1528.0 -0.0056294 208.83 0.16240 595.00 0.0016807 355.39 631.52 1.4337 2.0829 2.5593 1528.0 -0.0056294 208.83 0.16240
109.38 23963. undefined 357.47 635.15 1.4392 595.00 0.0016807 357.47 635.15 1.4392 2.0873 2.5628 1529.3 -0.0056238 208.79 0.16258 595.00 0.0016807 357.47 635.15 1.4392 2.0873 2.5628 1529.3 -0.0056238 208.79 0.16258
110.38 24095. undefined 359.56 638.77 1.4447 595.00 0.0016807 359.56 638.77 1.4447 2.0916 2.5663 1530.6 -0.0056181 208.75 0.16277 595.00 0.0016807 359.56 638.77 1.4447 2.0916 2.5663 1530.6 -0.0056181 208.75 0.16277
111.38 24228. undefined 361.66 642.40 1.4501 595.00 0.0016807 361.66 642.40 1.4501 2.0959 2.5698 1531.9 -0.0056125 208.71 0.16295 595.00 0.0016807 361.66 642.40 1.4501 2.0959 2.5698 1531.9 -0.0056125 208.71 0.16295
112.38 24360. undefined 363.75 646.04 1.4556 595.00 0.0016807 363.75 646.04 1.4556 2.1003 2.5733 1533.2 -0.0056068 208.67 0.16313 595.00 0.0016807 363.75 646.04 1.4556 2.1003 2.5733 1533.2 -0.0056068 208.67 0.16313
113.38 24493. undefined 365.86 649.67 1.4610 595.00 0.0016807 365.86 649.67 1.4610 2.1046 2.5767 1534.5 -0.0056012 208.63 0.16332 595.00 0.0016807 365.86 649.67 1.4610 2.1046 2.5767 1534.5 -0.0056012 208.63 0.16332
114.38 24625. undefined 367.96 653.31 1.4664 595.00 0.0016807 367.96 653.31 1.4664 2.1089 2.5802 1535.8 -0.0055955 208.60 0.16350 595.00 0.0016807 367.96 653.31 1.4664 2.1089 2.5802 1535.8 -0.0055955 208.60 0.16350
115.38 24757. undefined 370.07 656.95 1.4719 595.00 0.0016807 370.07 656.95 1.4719 2.1132 2.5837 1537.1 -0.0055899 208.56 0.16369 595.00 0.0016807 370.07 656.95 1.4719 2.1132 2.5837 1537.1 -0.0055899 208.56 0.16369
116.38 24889. undefined 372.19 660.60 1.4773 595.00 0.0016807 372.19 660.60 1.4773 2.1175 2.5872 1538.3 -0.0055842 208.52 0.16387 595.00 0.0016807 372.19 660.60 1.4773 2.1175 2.5872 1538.3 -0.0055842 208.52 0.16387
117.38 25021. undefined 374.31 664.24 1.4828 595.00 0.0016807 374.31 664.24 1.4828 2.1219 2.5907 1539.6 -0.0055785 208.49 0.16406 595.00 0.0016807 374.31 664.24 1.4828 2.1219 2.5907 1539.6 -0.0055785 208.49 0.16406
118.38 25152. undefined 376.43 667.89 1.4882 595.00 0.0016807 376.43 667.89 1.4882 2.1262 2.5942 1540.9 -0.0055729 208.45 0.16424 595.00 0.0016807 376.43 667.89 1.4882 2.1262 2.5942 1540.9 -0.0055729 208.45 0.16424
119.38 25284. undefined 378.56 671.55 1.4936 595.00 0.0016807 378.56 671.55 1.4936 2.1305 2.5977 1542.2 -0.0055672 208.42 0.16443 595.00 0.0016807 378.56 671.55 1.4936 2.1305 2.5977 1542.2 -0.0055672 208.42 0.16443
120.38 25415. undefined 380.69 675.20 1.4990 595.00 0.0016807 380.69 675.20 1.4990 2.1348 2.6012 1543.4 -0.0055615 208.38 0.16461 595.00 0.0016807 380.69 675.20 1.4990 2.1348 2.6012 1543.4 -0.0055615 208.38 0.16461
121.38 25547. undefined 382.83 678.86 1.5045 595.00 0.0016807 382.83 678.86 1.5045 2.1391 2.6047 1544.7 -0.0055558 208.35 0.16480 595.00 0.0016807 382.83 678.86 1.5045 2.1391 2.6047 1544.7 -0.0055558 208.35 0.16480
122.38 25678. undefined 384.97 682.52 1.5099 595.00 0.0016807 384.97 682.52 1.5099 2.1434 2.6082 1546.0 -0.0055502 208.32 0.16499 595.00 0.0016807 384.97 682.52 1.5099 2.1434 2.6082 1546.0 -0.0055502 208.32 0.16499
123.38 25809. undefined 387.12 686.19 1.5153 595.00 0.0016807 387.12 686.19 1.5153 2.1477 2.6118 1547.2 -0.0055445 208.28 0.16517 595.00 0.0016807 387.12 686.19 1.5153 2.1477 2.6118 1547.2 -0.0055445 208.28 0.16517
124.38 25940. undefined 389.27 689.85 1.5207 595.00 0.0016807 389.27 689.85 1.5207 2.1520 2.6153 1548.5 -0.0055388 208.25 0.16536 595.00 0.0016807 389.27 689.85 1.5207 2.1520 2.6153 1548.5 -0.0055388 208.25 0.16536
125.38 26071. undefined 391.42 693.52 1.5261 595.00 0.0016807 391.42 693.52 1.5261 2.1563 2.6188 1549.8 -0.0055331 208.22 0.16555 595.00 0.0016807 391.42 693.52 1.5261 2.1563 2.6188 1549.8 -0.0055331 208.22 0.16555
126.38 26201. undefined 393.58 697.20 1.5315 595.00 0.0016807 393.58 697.20 1.5315 2.1605 2.6223 1551.0 -0.0055275 208.18 0.16573 595.00 0.0016807 393.58 697.20 1.5315 2.1605 2.6223 1551.0 -0.0055275 208.18 0.16573
127.38 26332. undefined 395.74 700.87 1.5369 595.00 0.0016807 395.74 700.87 1.5369 2.1648 2.6258 1552.3 -0.0055218 208.15 0.16592 595.00 0.0016807 395.74 700.87 1.5369 2.1648 2.6258 1552.3 -0.0055218 208.15 0.16592
128.38 26462. undefined 397.91 704.55 1.5424 595.00 0.0016807 397.91 704.55 1.5424 2.1691 2.6293 1553.5 -0.0055161 208.12 0.16611 595.00 0.0016807 397.91 704.55 1.5424 2.1691 2.6293 1553.5 -0.0055161 208.12 0.16611
129.38 26593. undefined 400.08 708.23 1.5478 595.00 0.0016807 400.08 708.23 1.5478 2.1734 2.6328 1554.8 -0.0055104 208.09 0.16630 595.00 0.0016807 400.08 708.23 1.5478 2.1734 2.6328 1554.8 -0.0055104 208.09 0.16630
130.38 26723. undefined 402.26 711.92 1.5531 595.00 0.0016807 402.26 711.92 1.5531 2.1776 2.6364 1556.0 -0.0055048 208.06 0.16649 595.00 0.0016807 402.26 711.92 1.5531 2.1776 2.6364 1556.0 -0.0055048 208.06 0.16649
131.38 26853. undefined 404.44 715.60 1.5585 595.00 0.0016807 404.44 715.60 1.5585 2.1819 2.6399 1557.3 -0.0054991 208.03 0.16668 595.00 0.0016807 404.44 715.60 1.5585 2.1819 2.6399 1557.3 -0.0054991 208.03 0.16668
132.38 26983. undefined 406.62 719.29 1.5639 595.00 0.0016807 406.62 719.29 1.5639 2.1862 2.6434 1558.5 -0.0054934 208.00 0.16687 595.00 0.0016807 406.62 719.29 1.5639 2.1862 2.6434 1558.5 -0.0054934 208.00 0.16687
133.38 27113. undefined 408.81 722.98 1.5693 595.00 0.0016807 408.81 722.98 1.5693 2.1904 2.6469 1559.7 -0.0054878 207.97 0.16706 595.00 0.0016807 408.81 722.98 1.5693 2.1904 2.6469 1559.7 -0.0054878 207.97 0.16706
134.38 27242. undefined 411.00 726.68 1.5747 595.00 0.0016807 411.00 726.68 1.5747 2.1947 2.6504 1561.0 -0.0054821 207.94 0.16725 595.00 0.0016807 411.00 726.68 1.5747 2.1947 2.6504 1561.0 -0.0054821 207.94 0.16725
135.38 27372. undefined 413.20 730.38 1.5801 595.00 0.0016807 413.20 730.38 1.5801 2.1989 2.6539 1562.2 -0.0054764 207.91 0.16744 595.00 0.0016807 413.20 730.38 1.5801 2.1989 2.6539 1562.2 -0.0054764 207.91 0.16744
136.38 27501. undefined 415.40 734.08 1.5855 595.00 0.0016807 415.40 734.08 1.5855 2.2032 2.6575 1563.4 -0.0054708 207.88 0.16763 595.00 0.0016807 415.40 734.08 1.5855 2.2032 2.6575 1563.4 -0.0054708 207.88 0.16763
137.38 27631. undefined 417.60 737.78 1.5909 595.00 0.0016807 417.60 737.78 1.5909 2.2074 2.6610 1564.7 -0.0054651 207.85 0.16782 595.00 0.0016807 417.60 737.78 1.5909 2.2074 2.6610 1564.7 -0.0054651 207.85 0.16782
138.38 27760. undefined 419.81 741.49 1.5962 595.00 0.0016807 419.81 741.49 1.5962 2.2117 2.6645 1565.9 -0.0054595 207.82 0.16801 595.00 0.0016807 419.81 741.49 1.5962 2.2117 2.6645 1565.9 -0.0054595 207.82 0.16801
139.38 27889. undefined 422.03 745.20 1.6016 595.00 0.0016807 422.03 745.20 1.6016 2.2159 2.6680 1567.1 -0.0054538 207.79 0.16820 595.00 0.0016807 422.03 745.20 1.6016 2.2159 2.6680 1567.1 -0.0054538 207.79 0.16820
140.38 28018. undefined 424.25 748.91 1.6070 595.00 0.0016807 424.25 748.91 1.6070 2.2201 2.6715 1568.3 -0.0054482 207.77 0.16839 595.00 0.0016807 424.25 748.91 1.6070 2.2201 2.6715 1568.3 -0.0054482 207.77 0.16839
141.38 28147. undefined 426.47 752.63 1.6123 595.00 0.0016807 426.47 752.63 1.6123 2.2244 2.6750 1569.5 -0.0054426 207.74 0.16858 595.00 0.0016807 426.47 752.63 1.6123 2.2244 2.6750 1569.5 -0.0054426 207.74 0.16858
142.38 28275. undefined 428.69 756.35 1.6177 595.00 0.0016807 428.69 756.35 1.6177 2.2286 2.6786 1570.8 -0.0054369 207.71 0.16877 595.00 0.0016807 428.69 756.35 1.6177 2.2286 2.6786 1570.8 -0.0054369 207.71 0.16877
143.38 28404. undefined 430.93 760.07 1.6231 595.00 0.0016807 430.93 760.07 1.6231 2.2328 2.6821 1572.0 -0.0054313 207.69 0.16897 595.00 0.0016807 430.93 760.07 1.6231 2.2328 2.6821 1572.0 -0.0054313 207.69 0.16897
144.38 28533. undefined 433.16 763.79 1.6284 595.00 0.0016807 433.16 763.79 1.6284 2.2370 2.6856 1573.2 -0.0054257 207.66 0.16916 595.00 0.0016807 433.16 763.79 1.6284 2.2370 2.6856 1573.2 -0.0054257 207.66 0.16916
145.38 28661. undefined 435.40 767.52 1.6338 595.00 0.0016807 435.40 767.52 1.6338 2.2412 2.6891 1574.4 -0.0054201 207.63 0.16935 595.00 0.0016807 435.40 767.52 1.6338 2.2412 2.6891 1574.4 -0.0054201 207.63 0.16935
146.38 28789. undefined 437.64 771.25 1.6391 595.00 0.0016807 437.64 771.25 1.6391 2.2454 2.6926 1575.6 -0.0054145 207.61 0.16955 595.00 0.0016807 437.64 771.25 1.6391 2.2454 2.6926 1575.6 -0.0054145 207.61 0.16955
147.38 28917. undefined 439.89 774.98 1.6445 595.00 0.0016807 439.89 774.98 1.6445 2.2496 2.6961 1576.8 -0.0054089 207.58 0.16974 595.00 0.0016807 439.89 774.98 1.6445 2.2496 2.6961 1576.8 -0.0054089 207.58 0.16974
148.38 29045. undefined 442.14 778.71 1.6498 595.00 0.0016807 442.14 778.71 1.6498 2.2538 2.6997 1578.0 -0.0054033 207.56 0.16993 595.00 0.0016807 442.14 778.71 1.6498 2.2538 2.6997 1578.0 -0.0054033 207.56 0.16993
149.38 29173. undefined 444.40 782.45 1.6552 595.00 0.0016807 444.40 782.45 1.6552 2.2580 2.7032 1579.2 -0.0053977 207.53 0.17013 595.00 0.0016807 444.40 782.45 1.6552 2.2580 2.7032 1579.2 -0.0053977 207.53 0.17013
150.38 29301. undefined 446.66 786.19 1.6605 595.00 0.0016807 446.66 786.19 1.6605 2.2622 2.7067 1580.4 -0.0053921 207.51 0.17032 595.00 0.0016807 446.66 786.19 1.6605 2.2622 2.7067 1580.4 -0.0053921 207.51 0.17032
151.38 29429. undefined 448.92 789.94 1.6659 595.00 0.0016807 448.92 789.94 1.6659 2.2664 2.7102 1581.6 -0.0053865 207.48 0.17052 595.00 0.0016807 448.92 789.94 1.6659 2.2664 2.7102 1581.6 -0.0053865 207.48 0.17052
152.38 29556. undefined 451.19 793.68 1.6712 595.00 0.0016807 451.19 793.68 1.6712 2.2706 2.7137 1582.8 -0.0053809 207.46 0.17071 595.00 0.0016807 451.19 793.68 1.6712 2.2706 2.7137 1582.8 -0.0053809 207.46 0.17071
153.38 29684. undefined 453.46 797.43 1.6765 595.00 0.0016807 453.46 797.43 1.6765 2.2748 2.7172 1584.0 -0.0053754 207.44 0.17091 595.00 0.0016807 453.46 797.43 1.6765 2.2748 2.7172 1584.0 -0.0053754 207.44 0.17091
154.38 29811. undefined 455.74 801.19 1.6819 595.00 0.0016807 455.74 801.19 1.6819 2.2790 2.7207 1585.2 -0.0053698 207.41 0.17110 595.00 0.0016807 455.74 801.19 1.6819 2.2790 2.7207 1585.2 -0.0053698 207.41 0.17110
155.38 29938. undefined 458.02 804.94 1.6872 595.00 0.0016807 458.02 804.94 1.6872 2.2831 2.7242 1586.4 -0.0053643 207.39 0.17130 595.00 0.0016807 458.02 804.94 1.6872 2.2831 2.7242 1586.4 -0.0053643 207.39 0.17130
156.38 30065. undefined 460.31 808.70 1.6925 595.00 0.0016807 460.31 808.70 1.6925 2.2873 2.7278 1587.6 -0.0053587 207.37 0.17150 595.00 0.0016807 460.31 808.70 1.6925 2.2873 2.7278 1587.6 -0.0053587 207.37 0.17150
157.38 30192. undefined 462.60 812.46 1.6979 595.00 0.0016807 462.60 812.46 1.6979 2.2914 2.7313 1588.7 -0.0053532 207.35 0.17169 595.00 0.0016807 462.60 812.46 1.6979 2.2914 2.7313 1588.7 -0.0053532 207.35 0.17169
158.38 30319. undefined 464.89 816.22 1.7032 595.00 0.0016807 464.89 816.22 1.7032 2.2956 2.7348 1589.9 -0.0053477 207.32 0.17189 595.00 0.0016807 464.89 816.22 1.7032 2.2956 2.7348 1589.9 -0.0053477 207.32 0.17189
159.38 30446. undefined 467.19 819.99 1.7085 595.00 0.0016807 467.19 819.99 1.7085 2.2997 2.7383 1591.1 -0.0053421 207.30 0.17209 595.00 0.0016807 467.19 819.99 1.7085 2.2997 2.7383 1591.1 -0.0053421 207.30 0.17209
160.38 30573. undefined 469.49 823.76 1.7138 595.00 0.0016807 469.49 823.76 1.7138 2.3039 2.7418 1592.3 -0.0053366 207.28 0.17229 595.00 0.0016807 469.49 823.76 1.7138 2.3039 2.7418 1592.3 -0.0053366 207.28 0.17229
161.38 30699. undefined 471.80 827.53 1.7191 595.00 0.0016807 471.80 827.53 1.7191 2.3080 2.7453 1593.4 -0.0053311 207.26 0.17248 595.00 0.0016807 471.80 827.53 1.7191 2.3080 2.7453 1593.4 -0.0053311 207.26 0.17248
162.38 30826. undefined 474.11 831.31 1.7244 595.00 0.0016807 474.11 831.31 1.7244 2.3122 2.7488 1594.6 -0.0053256 207.24 0.17268 595.00 0.0016807 474.11 831.31 1.7244 2.3122 2.7488 1594.6 -0.0053256 207.24 0.17268
163.38 30952. undefined 476.42 835.08 1.7297 595.00 0.0016807 476.42 835.08 1.7297 2.3163 2.7523 1595.8 -0.0053201 207.22 0.17288 595.00 0.0016807 476.42 835.08 1.7297 2.3163 2.7523 1595.8 -0.0053201 207.22 0.17288
164.38 31078. undefined 478.74 838.86 1.7350 595.00 0.0016807 478.74 838.86 1.7350 2.3204 2.7558 1597.0 -0.0053147 207.20 0.17308 595.00 0.0016807 478.74 838.86 1.7350 2.3204 2.7558 1597.0 -0.0053147 207.20 0.17308
165.38 31204. undefined 481.06 842.65 1.7403 595.00 0.0016807 481.06 842.65 1.7403 2.3246 2.7593 1598.1 -0.0053092 207.17 0.17328 595.00 0.0016807 481.06 842.65 1.7403 2.3246 2.7593 1598.1 -0.0053092 207.17 0.17328
166.38 31330. undefined 483.39 846.43 1.7456 595.00 0.0016807 483.39 846.43 1.7456 2.3287 2.7628 1599.3 -0.0053037 207.15 0.17348 595.00 0.0016807 483.39 846.43 1.7456 2.3287 2.7628 1599.3 -0.0053037 207.15 0.17348
167.38 31456. undefined 485.72 850.22 1.7509 595.00 0.0016807 485.72 850.22 1.7509 2.3328 2.7663 1600.5 -0.0052983 207.13 0.17368 595.00 0.0016807 485.72 850.22 1.7509 2.3328 2.7663 1600.5 -0.0052983 207.13 0.17368
168.38 31582. undefined 488.05 854.02 1.7562 595.00 0.0016807 488.05 854.02 1.7562 2.3369 2.7697 1601.6 -0.0052929 207.12 0.17388 595.00 0.0016807 488.05 854.02 1.7562 2.3369 2.7697 1601.6 -0.0052929 207.12 0.17388
169.38 31707. undefined 490.39 857.81 1.7615 595.00 0.0016807 490.39 857.81 1.7615 2.3410 2.7732 1602.8 -0.0052874 207.10 0.17408 595.00 0.0016807 490.39 857.81 1.7615 2.3410 2.7732 1602.8 -0.0052874 207.10 0.17408
170.38 31833. undefined 492.73 861.61 1.7668 595.00 0.0016807 492.73 861.61 1.7668 2.3451 2.7767 1603.9 -0.0052820 207.08 0.17428 595.00 0.0016807 492.73 861.61 1.7668 2.3451 2.7767 1603.9 -0.0052820 207.08 0.17428
171.38 31958. undefined 495.08 865.41 1.7721 595.00 0.0016807 495.08 865.41 1.7721 2.3492 2.7802 1605.1 -0.0052766 207.06 0.17448 595.00 0.0016807 495.08 865.41 1.7721 2.3492 2.7802 1605.1 -0.0052766 207.06 0.17448
172.38 32084. undefined 497.43 869.21 1.7774 595.00 0.0016807 497.43 869.21 1.7774 2.3533 2.7837 1606.2 -0.0052712 207.04 0.17468 595.00 0.0016807 497.43 869.21 1.7774 2.3533 2.7837 1606.2 -0.0052712 207.04 0.17468
173.38 32209. undefined 499.79 873.02 1.7827 595.00 0.0016807 499.79 873.02 1.7827 2.3574 2.7872 1607.4 -0.0052658 207.02 0.17488 595.00 0.0016807 499.79 873.02 1.7827 2.3574 2.7872 1607.4 -0.0052658 207.02 0.17488
174.38 32334. undefined 502.15 876.83 1.7879 595.00 0.0016807 502.15 876.83 1.7879 2.3614 2.7907 1608.5 -0.0052604 207.00 0.17508 595.00 0.0016807 502.15 876.83 1.7879 2.3614 2.7907 1608.5 -0.0052604 207.00 0.17508
175.38 32459. undefined 504.51 880.64 1.7932 595.00 0.0016807 504.51 880.64 1.7932 2.3655 2.7941 1609.7 -0.0052550 206.99 0.17528 595.00 0.0016807 504.51 880.64 1.7932 2.3655 2.7941 1609.7 -0.0052550 206.99 0.17528
176.38 32584. undefined 506.88 884.46 1.7985 595.00 0.0016807 506.88 884.46 1.7985 2.3696 2.7976 1610.8 -0.0052497 206.97 0.17549 595.00 0.0016807 506.88 884.46 1.7985 2.3696 2.7976 1610.8 -0.0052497 206.97 0.17549
177.38 32709. undefined 509.25 888.27 1.8038 595.00 0.0016807 509.25 888.27 1.8038 2.3737 2.8011 1612.0 -0.0052443 206.95 0.17569 595.00 0.0016807 509.25 888.27 1.8038 2.3737 2.8011 1612.0 -0.0052443 206.95 0.17569
178.38 32833. undefined 511.63 892.09 1.8090 595.00 0.0016807 511.63 892.09 1.8090 2.3777 2.8046 1613.1 -0.0052390 206.93 0.17589 595.00 0.0016807 511.63 892.09 1.8090 2.3777 2.8046 1613.1 -0.0052390 206.93 0.17589
179.38 32958. undefined 514.01 895.92 1.8143 595.00 0.0016807 514.01 895.92 1.8143 2.3818 2.8080 1614.2 -0.0052336 206.92 0.17609 595.00 0.0016807 514.01 895.92 1.8143 2.3818 2.8080 1614.2 -0.0052336 206.92 0.17609
180.38 33082. undefined 516.39 899.74 1.8196 595.00 0.0016807 516.39 899.74 1.8196 2.3858 2.8115 1615.4 -0.0052283 206.90 0.17630 595.00 0.0016807 516.39 899.74 1.8196 2.3858 2.8115 1615.4 -0.0052283 206.90 0.17630
181.38 33207. undefined 518.78 903.57 1.8248 595.00 0.0016807 518.78 903.57 1.8248 2.3899 2.8150 1616.5 -0.0052230 206.88 0.17650 595.00 0.0016807 518.78 903.57 1.8248 2.3899 2.8150 1616.5 -0.0052230 206.88 0.17650
182.38 33331. undefined 521.17 907.40 1.8301 595.00 0.0016807 521.17 907.40 1.8301 2.3939 2.8184 1617.6 -0.0052177 206.87 0.17670 595.00 0.0016807 521.17 907.40 1.8301 2.3939 2.8184 1617.6 -0.0052177 206.87 0.17670
183.38 33455. undefined 523.57 911.24 1.8353 595.00 0.0016807 523.57 911.24 1.8353 2.3979 2.8219 1618.8 -0.0052124 206.85 0.17691 595.00 0.0016807 523.57 911.24 1.8353 2.3979 2.8219 1618.8 -0.0052124 206.85 0.17691
184.38 33579. undefined 525.97 915.07 1.8406 595.00 0.0016807 525.97 915.07 1.8406 2.4020 2.8253 1619.9 -0.0052071 206.83 0.17711 595.00 0.0016807 525.97 915.07 1.8406 2.4020 2.8253 1619.9 -0.0052071 206.83 0.17711
185.38 33703. undefined 528.37 918.91 1.8458 595.00 0.0016807 528.37 918.91 1.8458 2.4060 2.8288 1621.0 -0.0052019 206.82 0.17732 595.00 0.0016807 528.37 918.91 1.8458 2.4060 2.8288 1621.0 -0.0052019 206.82 0.17732
186.38 33827. undefined 530.78 922.76 1.8511 595.00 0.0016807 530.78 922.76 1.8511 2.4100 2.8322 1622.1 -0.0051966 206.80 0.17752 595.00 0.0016807 530.78 922.76 1.8511 2.4100 2.8322 1622.1 -0.0051966 206.80 0.17752
187.38 33951. undefined 533.19 926.60 1.8563 595.00 0.0016807 533.19 926.60 1.8563 2.4140 2.8357 1623.3 -0.0051913 206.79 0.17773 595.00 0.0016807 533.19 926.60 1.8563 2.4140 2.8357 1623.3 -0.0051913 206.79 0.17773
188.38 34074. undefined 535.61 930.45 1.8616 595.00 0.0016807 535.61 930.45 1.8616 2.4180 2.8391 1624.4 -0.0051861 206.77 0.17793 595.00 0.0016807 535.61 930.45 1.8616 2.4180 2.8391 1624.4 -0.0051861 206.77 0.17793
189.38 34198. undefined 538.03 934.30 1.8668 595.00 0.0016807 538.03 934.30 1.8668 2.4220 2.8426 1625.5 -0.0051809 206.76 0.17814 595.00 0.0016807 538.03 934.30 1.8668 2.4220 2.8426 1625.5 -0.0051809 206.76 0.17814
190.38 34321. undefined 540.45 938.16 1.8720 595.00 0.0016807 540.45 938.16 1.8720 2.4260 2.8460 1626.6 -0.0051757 206.74 0.17835 595.00 0.0016807 540.45 938.16 1.8720 2.4260 2.8460 1626.6 -0.0051757 206.74 0.17835
191.38 34445. undefined 542.88 942.01 1.8773 595.00 0.0016807 542.88 942.01 1.8773 2.4300 2.8495 1627.7 -0.0051705 206.73 0.17855 595.00 0.0016807 542.88 942.01 1.8773 2.4300 2.8495 1627.7 -0.0051705 206.73 0.17855
192.38 34568. undefined 545.31 945.87 1.8825 595.00 0.0016807 545.31 945.87 1.8825 2.4340 2.8529 1628.8 -0.0051653 206.72 0.17876 595.00 0.0016807 545.31 945.87 1.8825 2.4340 2.8529 1628.8 -0.0051653 206.72 0.17876
193.38 34691. undefined 547.75 949.74 1.8877 595.00 0.0016807 547.75 949.74 1.8877 2.4380 2.8564 1630.0 -0.0051601 206.70 0.17897 595.00 0.0016807 547.75 949.74 1.8877 2.4380 2.8564 1630.0 -0.0051601 206.70 0.17897
194.38 34814. undefined 550.19 953.60 1.8929 595.00 0.0016807 550.19 953.60 1.8929 2.4420 2.8598 1631.1 -0.0051549 206.69 0.17918 595.00 0.0016807 550.19 953.60 1.8929 2.4420 2.8598 1631.1 -0.0051549 206.69 0.17918
195.38 34937. undefined 552.63 957.47 1.8982 595.00 0.0016807 552.63 957.47 1.8982 2.4460 2.8632 1632.2 -0.0051497 206.67 0.17938 595.00 0.0016807 552.63 957.47 1.8982 2.4460 2.8632 1632.2 -0.0051497 206.67 0.17938
196.38 35060. undefined 555.08 961.34 1.9034 595.00 0.0016807 555.08 961.34 1.9034 2.4499 2.8666 1633.3 -0.0051446 206.66 0.17959 595.00 0.0016807 555.08 961.34 1.9034 2.4499 2.8666 1633.3 -0.0051446 206.66 0.17959
197.38 35182. undefined 557.53 965.22 1.9086 595.00 0.0016807 557.53 965.22 1.9086 2.4539 2.8701 1634.4 -0.0051395 206.65 0.17980 595.00 0.0016807 557.53 965.22 1.9086 2.4539 2.8701 1634.4 -0.0051395 206.65 0.17980
198.38 35305. undefined 559.99 969.09 1.9138 595.00 0.0016807 559.99 969.09 1.9138 2.4579 2.8735 1635.5 -0.0051343 206.63 0.18001 595.00 0.0016807 559.99 969.09 1.9138 2.4579 2.8735 1635.5 -0.0051343 206.63 0.18001
199.38 35427. undefined 562.44 972.97 1.9190 595.00 0.0016807 562.44 972.97 1.9190 2.4618 2.8769 1636.6 -0.0051292 206.62 0.18022 595.00 0.0016807 562.44 972.97 1.9190 2.4618 2.8769 1636.6 -0.0051292 206.62 0.18022
200.38 35550. undefined 564.91 976.85 1.9242 595.00 0.0016807 564.91 976.85 1.9242 2.4658 2.8803 1637.7 -0.0051241 206.61 0.18043 595.00 0.0016807 564.91 976.85 1.9242 2.4658 2.8803 1637.7 -0.0051241 206.61 0.18043
201.38 35672. undefined 567.38 980.74 1.9294 595.00 0.0016807 567.38 980.74 1.9294 2.4697 2.8837 1638.8 -0.0051190 206.60 0.18064 595.00 0.0016807 567.38 980.74 1.9294 2.4697 2.8837 1638.8 -0.0051190 206.60 0.18064
202.38 35794. undefined 569.85 984.63 1.9346 595.00 0.0016807 569.85 984.63 1.9346 2.4736 2.8871 1639.9 -0.0051139 206.58 0.18085 595.00 0.0016807 569.85 984.63 1.9346 2.4736 2.8871 1639.9 -0.0051139 206.58 0.18085
203.38 35916. undefined 572.32 988.52 1.9398 595.00 0.0016807 572.32 988.52 1.9398 2.4776 2.8906 1641.0 -0.0051089 206.57 0.18106 595.00 0.0016807 572.32 988.52 1.9398 2.4776 2.8906 1641.0 -0.0051089 206.57 0.18106
204.38 36038. undefined 574.80 992.41 1.9450 595.00 0.0016807 574.80 992.41 1.9450 2.4815 2.8940 1642.1 -0.0051038 206.56 0.18127 595.00 0.0016807 574.80 992.41 1.9450 2.4815 2.8940 1642.1 -0.0051038 206.56 0.18127
205.38 36160. undefined 577.29 996.31 1.9502 595.00 0.0016807 577.29 996.31 1.9502 2.4854 2.8974 1643.1 -0.0050988 206.55 0.18148 595.00 0.0016807 577.29 996.31 1.9502 2.4854 2.8974 1643.1 -0.0050988 206.55 0.18148
206.38 36282. undefined 579.77 1000.2 1.9554 595.00 0.0016807 579.77 1000.2 1.9554 2.4893 2.9008 1644.2 -0.0050937 206.54 0.18169 595.00 0.0016807 579.77 1000.2 1.9554 2.4893 2.9008 1644.2 -0.0050937 206.54 0.18169
207.38 36404. undefined 582.27 1004.1 1.9606 595.00 0.0016807 582.27 1004.1 1.9606 2.4933 2.9042 1645.3 -0.0050887 206.53 0.18190 595.00 0.0016807 582.27 1004.1 1.9606 2.4933 2.9042 1645.3 -0.0050887 206.53 0.18190
208.38 36525. undefined 584.76 1008.0 1.9658 595.00 0.0016807 584.76 1008.0 1.9658 2.4972 2.9075 1646.4 -0.0050837 206.52 0.18211 595.00 0.0016807 584.76 1008.0 1.9658 2.4972 2.9075 1646.4 -0.0050837 206.52 0.18211
209.38 36647. undefined 587.26 1011.9 1.9710 595.00 0.0016807 587.26 1011.9 1.9710 2.5011 2.9109 1647.5 -0.0050787 206.50 0.18232 595.00 0.0016807 587.26 1011.9 1.9710 2.5011 2.9109 1647.5 -0.0050787 206.50 0.18232
210.38 36768. undefined 589.76 1015.8 1.9762 595.00 0.0016807 589.76 1015.8 1.9762 2.5050 2.9143 1648.6 -0.0050737 206.49 0.18253 595.00 0.0016807 589.76 1015.8 1.9762 2.5050 2.9143 1648.6 -0.0050737 206.49 0.18253
211.38 36890. undefined 592.27 1019.7 1.9814 595.00 0.0016807 592.27 1019.7 1.9814 2.5088 2.9177 1649.7 -0.0050687 206.48 0.18275 595.00 0.0016807 592.27 1019.7 1.9814 2.5088 2.9177 1649.7 -0.0050687 206.48 0.18275
212.38 37011. undefined 594.78 1023.7 1.9865 595.00 0.0016807 594.78 1023.7 1.9865 2.5127 2.9211 1650.7 -0.0050638 206.47 0.18296 595.00 0.0016807 594.78 1023.7 1.9865 2.5127 2.9211 1650.7 -0.0050638 206.47 0.18296
213.38 37132. undefined 597.30 1027.6 1.9917 595.00 0.0016807 597.30 1027.6 1.9917 2.5166 2.9245 1651.8 -0.0050588 206.46 0.18317 595.00 0.0016807 597.30 1027.6 1.9917 2.5166 2.9245 1651.8 -0.0050588 206.46 0.18317
214.38 37253. undefined 599.81 1031.5 1.9969 595.00 0.0016807 599.81 1031.5 1.9969 2.5205 2.9278 1652.9 -0.0050539 206.45 0.18339 595.00 0.0016807 599.81 1031.5 1.9969 2.5205 2.9278 1652.9 -0.0050539 206.45 0.18339
215.38 37374. undefined 602.34 1035.4 2.0020 595.00 0.0016807 602.34 1035.4 2.0020 2.5244 2.9312 1654.0 -0.0050490 206.44 0.18360 595.00 0.0016807 602.34 1035.4 2.0020 2.5244 2.9312 1654.0 -0.0050490 206.44 0.18360
216.38 37495. undefined 604.86 1039.3 2.0072 595.00 0.0016807 604.86 1039.3 2.0072 2.5282 2.9346 1655.0 -0.0050440 206.43 0.18381 595.00 0.0016807 604.86 1039.3 2.0072 2.5282 2.9346 1655.0 -0.0050440 206.43 0.18381
217.38 37616. undefined 607.39 1043.3 2.0124 595.00 0.0016807 607.39 1043.3 2.0124 2.5321 2.9379 1656.1 -0.0050391 206.42 0.18403 595.00 0.0016807 607.39 1043.3 2.0124 2.5321 2.9379 1656.1 -0.0050391 206.42 0.18403
218.38 37736. undefined 609.93 1047.2 2.0175 595.00 0.0016807 609.93 1047.2 2.0175 2.5359 2.9413 1657.2 -0.0050342 206.41 0.18424 595.00 0.0016807 609.93 1047.2 2.0175 2.5359 2.9413 1657.2 -0.0050342 206.41 0.18424
219.38 37857. undefined 612.46 1051.1 2.0227 595.00 0.0016807 612.46 1051.1 2.0227 2.5398 2.9447 1658.2 -0.0050294 206.40 0.18446 595.00 0.0016807 612.46 1051.1 2.0227 2.5398 2.9447 1658.2 -0.0050294 206.40 0.18446
220.38 37977. undefined 615.01 1055.1 2.0278 595.00 0.0016807 615.01 1055.1 2.0278 2.5436 2.9480 1659.3 -0.0050245 206.39 0.18467 595.00 0.0016807 615.01 1055.1 2.0278 2.5436 2.9480 1659.3 -0.0050245 206.39 0.18467
221.38 38097. undefined 617.55 1059.0 2.0330 595.00 0.0016807 617.55 1059.0 2.0330 2.5475 2.9514 1660.4 -0.0050196 206.39 0.18489 595.00 0.0016807 617.55 1059.0 2.0330 2.5475 2.9514 1660.4 -0.0050196 206.39 0.18489
222.38 38218. undefined 620.10 1063.0 2.0381 595.00 0.0016807 620.10 1063.0 2.0381 2.5513 2.9547 1661.4 -0.0050148 206.38 0.18510 595.00 0.0016807 620.10 1063.0 2.0381 2.5513 2.9547 1661.4 -0.0050148 206.38 0.18510
223.38 38338. undefined 622.65 1066.9 2.0433 595.00 0.0016807 622.65 1066.9 2.0433 2.5551 2.9581 1662.5 -0.0050100 206.37 0.18532 595.00 0.0016807 622.65 1066.9 2.0433 2.5551 2.9581 1662.5 -0.0050100 206.37 0.18532
224.38 38458. undefined 625.21 1070.9 2.0484 595.00 0.0016807 625.21 1070.9 2.0484 2.5589 2.9614 1663.5 -0.0050051 206.36 0.18553 595.00 0.0016807 625.21 1070.9 2.0484 2.5589 2.9614 1663.5 -0.0050051 206.36 0.18553
225.38 38578. undefined 627.77 1074.8 2.0536 595.00 0.0016807 627.77 1074.8 2.0536 2.5628 2.9647 1664.6 -0.0050003 206.35 0.18575 595.00 0.0016807 627.77 1074.8 2.0536 2.5628 2.9647 1664.6 -0.0050003 206.35 0.18575
226.38 38698. undefined 630.34 1078.8 2.0587 595.00 0.0016807 630.34 1078.8 2.0587 2.5666 2.9681 1665.6 -0.0049955 206.34 0.18597 595.00 0.0016807 630.34 1078.8 2.0587 2.5666 2.9681 1665.6 -0.0049955 206.34 0.18597
227.38 38818. undefined 632.91 1082.7 2.0639 595.00 0.0016807 632.91 1082.7 2.0639 2.5704 2.9714 1666.7 -0.0049907 206.34 0.18618 595.00 0.0016807 632.91 1082.7 2.0639 2.5704 2.9714 1666.7 -0.0049907 206.34 0.18618
228.38 38937. undefined 635.48 1086.7 2.0690 595.00 0.0016807 635.48 1086.7 2.0690 2.5742 2.9747 1667.7 -0.0049860 206.33 0.18640 595.00 0.0016807 635.48 1086.7 2.0690 2.5742 2.9747 1667.7 -0.0049860 206.33 0.18640
229.38 39057. undefined 638.05 1090.6 2.0741 595.00 0.0016807 638.05 1090.6 2.0741 2.5780 2.9781 1668.8 -0.0049812 206.32 0.18662 595.00 0.0016807 638.05 1090.6 2.0741 2.5780 2.9781 1668.8 -0.0049812 206.32 0.18662
230.38 39176. undefined 640.63 1094.6 2.0793 595.00 0.0016807 640.63 1094.6 2.0793 2.5818 2.9814 1669.8 -0.0049765 206.31 0.18684 595.00 0.0016807 640.63 1094.6 2.0793 2.5818 2.9814 1669.8 -0.0049765 206.31 0.18684
231.38 39296. undefined 643.22 1098.6 2.0844 595.00 0.0016807 643.22 1098.6 2.0844 2.5855 2.9847 1670.9 -0.0049717 206.30 0.18706 595.00 0.0016807 643.22 1098.6 2.0844 2.5855 2.9847 1670.9 -0.0049717 206.30 0.18706
232.38 39415. undefined 645.80 1102.5 2.0895 595.00 0.0016807 645.80 1102.5 2.0895 2.5893 2.9880 1671.9 -0.0049670 206.30 0.18727 595.00 0.0016807 645.80 1102.5 2.0895 2.5893 2.9880 1671.9 -0.0049670 206.30 0.18727
233.38 39534. undefined 648.40 1106.5 2.0946 595.00 0.0016807 648.40 1106.5 2.0946 2.5931 2.9913 1673.0 -0.0049623 206.29 0.18749 595.00 0.0016807 648.40 1106.5 2.0946 2.5931 2.9913 1673.0 -0.0049623 206.29 0.18749
234.38 39654. undefined 650.99 1110.5 2.0997 595.00 0.0016807 650.99 1110.5 2.0997 2.5969 2.9946 1674.0 -0.0049576 206.28 0.18771 595.00 0.0016807 650.99 1110.5 2.0997 2.5969 2.9946 1674.0 -0.0049576 206.28 0.18771
235.38 39773. undefined 653.59 1114.5 2.1049 595.00 0.0016807 653.59 1114.5 2.1049 2.6006 2.9980 1675.1 -0.0049529 206.28 0.18793 595.00 0.0016807 653.59 1114.5 2.1049 2.6006 2.9980 1675.1 -0.0049529 206.28 0.18793
236.38 39892. undefined 656.19 1118.4 2.1100 595.00 0.0016807 656.19 1118.4 2.1100 2.6044 3.0013 1676.1 -0.0049482 206.27 0.18815 595.00 0.0016807 656.19 1118.4 2.1100 2.6044 3.0013 1676.1 -0.0049482 206.27 0.18815
237.38 40010. undefined 658.80 1122.4 2.1151 595.00 0.0016807 658.80 1122.4 2.1151 2.6081 3.0045 1677.1 -0.0049435 206.26 0.18837 595.00 0.0016807 658.80 1122.4 2.1151 2.6081 3.0045 1677.1 -0.0049435 206.26 0.18837
238.38 40129. undefined 661.41 1126.4 2.1202 595.00 0.0016807 661.41 1126.4 2.1202 2.6119 3.0078 1678.2 -0.0049389 206.26 0.18859 595.00 0.0016807 661.41 1126.4 2.1202 2.6119 3.0078 1678.2 -0.0049389 206.26 0.18859
239.38 40248. undefined 664.02 1130.4 2.1253 595.00 0.0016807 664.02 1130.4 2.1253 2.6156 3.0111 1679.2 -0.0049342 206.25 0.18881 595.00 0.0016807 664.02 1130.4 2.1253 2.6156 3.0111 1679.2 -0.0049342 206.25 0.18881
240.38 40367. undefined 666.64 1134.4 2.1304 595.00 0.0016807 666.64 1134.4 2.1304 2.6194 3.0144 1680.2 -0.0049296 206.24 0.18903 595.00 0.0016807 666.64 1134.4 2.1304 2.6194 3.0144 1680.2 -0.0049296 206.24 0.18903
241.38 40485. undefined 669.26 1138.4 2.1355 595.00 0.0016807 669.26 1138.4 2.1355 2.6231 3.0177 1681.3 -0.0049250 206.24 0.18925 595.00 0.0016807 669.26 1138.4 2.1355 2.6231 3.0177 1681.3 -0.0049250 206.24 0.18925
242.38 40603. undefined 671.89 1142.4 2.1406 595.00 0.0016807 671.89 1142.4 2.1406 2.6268 3.0210 1682.3 -0.0049204 206.23 0.18948 595.00 0.0016807 671.89 1142.4 2.1406 2.6268 3.0210 1682.3 -0.0049204 206.23 0.18948
243.38 40722. undefined 674.51 1146.4 2.1457 595.00 0.0016807 674.51 1146.4 2.1457 2.6305 3.0243 1683.3 -0.0049158 206.23 0.18970 595.00 0.0016807 674.51 1146.4 2.1457 2.6305 3.0243 1683.3 -0.0049158 206.23 0.18970
244.38 40840. undefined 677.15 1150.4 2.1508 595.00 0.0016807 677.15 1150.4 2.1508 2.6343 3.0275 1684.4 -0.0049112 206.22 0.18992 595.00 0.0016807 677.15 1150.4 2.1508 2.6343 3.0275 1684.4 -0.0049112 206.22 0.18992
245.38 40958. undefined 679.78 1154.4 2.1559 595.00 0.0016807 679.78 1154.4 2.1559 2.6380 3.0308 1685.4 -0.0049066 206.22 0.19014 595.00 0.0016807 679.78 1154.4 2.1559 2.6380 3.0308 1685.4 -0.0049066 206.22 0.19014
246.38 41076. undefined 682.42 1158.4 2.1609 595.00 0.0016807 682.42 1158.4 2.1609 2.6417 3.0341 1686.4 -0.0049021 206.21 0.19036 595.00 0.0016807 682.42 1158.4 2.1609 2.6417 3.0341 1686.4 -0.0049021 206.21 0.19036
247.38 41194. undefined 685.07 1162.4 2.1660 595.00 0.0016807 685.07 1162.4 2.1660 2.6454 3.0373 1687.4 -0.0048975 206.20 0.19059 595.00 0.0016807 685.07 1162.4 2.1660 2.6454 3.0373 1687.4 -0.0048975 206.20 0.19059
248.38 41312. undefined 687.71 1166.4 2.1711 595.00 0.0016807 687.71 1166.4 2.1711 2.6491 3.0406 1688.4 -0.0048930 206.20 0.19081 595.00 0.0016807 687.71 1166.4 2.1711 2.6491 3.0406 1688.4 -0.0048930 206.20 0.19081
249.38 41430. undefined 690.36 1170.4 2.1762 595.00 0.0016807 690.36 1170.4 2.1762 2.6528 3.0438 1689.5 -0.0048885 206.19 0.19103 595.00 0.0016807 690.36 1170.4 2.1762 2.6528 3.0438 1689.5 -0.0048885 206.19 0.19103
250.38 41548. undefined 693.02 1174.5 2.1813 595.00 0.0016807 693.02 1174.5 2.1813 2.6564 3.0471 1690.5 -0.0048839 206.19 0.19126 595.00 0.0016807 693.02 1174.5 2.1813 2.6564 3.0471 1690.5 -0.0048839 206.19 0.19126
251.38 41665. undefined 695.68 1178.5 2.1863 595.00 0.0016807 695.68 1178.5 2.1863 2.6601 3.0503 1691.5 -0.0048794 206.19 0.19148 595.00 0.0016807 695.68 1178.5 2.1863 2.6601 3.0503 1691.5 -0.0048794 206.19 0.19148
252.38 41783. undefined 698.34 1182.5 2.1914 595.00 0.0016807 698.34 1182.5 2.1914 2.6638 3.0536 1692.5 -0.0048750 206.18 0.19171 595.00 0.0016807 698.34 1182.5 2.1914 2.6638 3.0536 1692.5 -0.0048750 206.18 0.19171
253.38 41900. undefined 701.00 1186.5 2.1965 595.00 0.0016807 701.00 1186.5 2.1965 2.6675 3.0568 1693.5 -0.0048705 206.18 0.19193 595.00 0.0016807 701.00 1186.5 2.1965 2.6675 3.0568 1693.5 -0.0048705 206.18 0.19193
254.38 42018. undefined 703.67 1190.6 2.2015 595.00 0.0016807 703.67 1190.6 2.2015 2.6711 3.0601 1694.5 -0.0048660 206.17 0.19216 595.00 0.0016807 703.67 1190.6 2.2015 2.6711 3.0601 1694.5 -0.0048660 206.17 0.19216
255.38 42135. undefined 706.35 1194.6 2.2066 595.00 0.0016807 706.35 1194.6 2.2066 2.6748 3.0633 1695.6 -0.0048616 206.17 0.19238 595.00 0.0016807 706.35 1194.6 2.2066 2.6748 3.0633 1695.6 -0.0048616 206.17 0.19238
256.38 42252. undefined 709.02 1198.6 2.2117 595.00 0.0016807 709.02 1198.6 2.2117 2.6784 3.0665 1696.6 -0.0048571 206.16 0.19261 595.00 0.0016807 709.02 1198.6 2.2117 2.6784 3.0665 1696.6 -0.0048571 206.16 0.19261
257.38 42369. undefined 711.70 1202.7 2.2167 595.00 0.0016807 711.70 1202.7 2.2167 2.6821 3.0698 1697.6 -0.0048527 206.16 0.19283 595.00 0.0016807 711.70 1202.7 2.2167 2.6821 3.0698 1697.6 -0.0048527 206.16 0.19283
258.38 42486. undefined 714.39 1206.7 2.2218 595.00 0.0016807 714.39 1206.7 2.2218 2.6857 3.0730 1698.6 -0.0048483 206.16 0.19306 595.00 0.0016807 714.39 1206.7 2.2218 2.6857 3.0730 1698.6 -0.0048483 206.16 0.19306
259.38 42603. undefined 717.08 1210.8 2.2268 595.00 0.0016807 717.08 1210.8 2.2268 2.6894 3.0762 1699.6 -0.0048439 206.15 0.19329 595.00 0.0016807 717.08 1210.8 2.2268 2.6894 3.0762 1699.6 -0.0048439 206.15 0.19329
260.38 42720. undefined 719.77 1214.8 2.2319 595.00 0.0016807 719.77 1214.8 2.2319 2.6930 3.0794 1700.6 -0.0048395 206.15 0.19351 595.00 0.0016807 719.77 1214.8 2.2319 2.6930 3.0794 1700.6 -0.0048395 206.15 0.19351
261.38 42837. undefined 722.46 1218.8 2.2369 595.00 0.0016807 722.46 1218.8 2.2369 2.6966 3.0826 1701.6 -0.0048351 206.14 0.19374 595.00 0.0016807 722.46 1218.8 2.2369 2.6966 3.0826 1701.6 -0.0048351 206.14 0.19374
262.38 42953. undefined 725.16 1222.9 2.2420 595.00 0.0016807 725.16 1222.9 2.2420 2.7002 3.0858 1702.6 -0.0048307 206.14 0.19397 595.00 0.0016807 725.16 1222.9 2.2420 2.7002 3.0858 1702.6 -0.0048307 206.14 0.19397
263.38 43070. undefined 727.86 1226.9 2.2470 595.00 0.0016807 727.86 1226.9 2.2470 2.7038 3.0890 1703.6 -0.0048263 206.14 0.19419 595.00 0.0016807 727.86 1226.9 2.2470 2.7038 3.0890 1703.6 -0.0048263 206.14 0.19419
264.38 43186. undefined 730.57 1231.0 2.2520 595.00 0.0016807 730.57 1231.0 2.2520 2.7075 3.0922 1704.6 -0.0048220 206.13 0.19442 595.00 0.0016807 730.57 1231.0 2.2520 2.7075 3.0922 1704.6 -0.0048220 206.13 0.19442
265.38 43303. undefined 733.28 1235.1 2.2571 595.00 0.0016807 733.28 1235.1 2.2571 2.7111 3.0954 1705.6 -0.0048176 206.13 0.19465 595.00 0.0016807 733.28 1235.1 2.2571 2.7111 3.0954 1705.6 -0.0048176 206.13 0.19465
266.38 43419. undefined 735.99 1239.1 2.2621 595.00 0.0016807 735.99 1239.1 2.2621 2.7147 3.0986 1706.6 -0.0048133 206.13 0.19488 595.00 0.0016807 735.99 1239.1 2.2621 2.7147 3.0986 1706.6 -0.0048133 206.13 0.19488
267.38 43535. undefined 738.71 1243.2 2.2671 595.00 0.0016807 738.71 1243.2 2.2671 2.7183 3.1018 1707.6 -0.0048090 206.13 0.19511 595.00 0.0016807 738.71 1243.2 2.2671 2.7183 3.1018 1707.6 -0.0048090 206.13 0.19511
268.38 43652. undefined 741.43 1247.3 2.2722 595.00 0.0016807 741.43 1247.3 2.2722 2.7218 3.1050 1708.6 -0.0048047 206.12 0.19534 595.00 0.0016807 741.43 1247.3 2.2722 2.7218 3.1050 1708.6 -0.0048047 206.12 0.19534
269.38 43768. undefined 744.15 1251.3 2.2772 595.00 0.0016807 744.15 1251.3 2.2772 2.7254 3.1082 1709.6 -0.0048004 206.12 0.19557 595.00 0.0016807 744.15 1251.3 2.2772 2.7254 3.1082 1709.6 -0.0048004 206.12 0.19557
270.38 43884. undefined 746.88 1255.4 2.2822 595.00 0.0016807 746.88 1255.4 2.2822 2.7290 3.1114 1710.5 -0.0047961 206.12 0.19580 595.00 0.0016807 746.88 1255.4 2.2822 2.7290 3.1114 1710.5 -0.0047961 206.12 0.19580
271.38 44000. undefined 749.61 1259.5 2.2872 595.00 0.0016807 749.61 1259.5 2.2872 2.7326 3.1145 1711.5 -0.0047918 206.11 0.19603 595.00 0.0016807 749.61 1259.5 2.2872 2.7326 3.1145 1711.5 -0.0047918 206.11 0.19603
272.38 44115. undefined 752.34 1263.5 2.2923 595.00 0.0016807 752.34 1263.5 2.2923 2.7362 3.1177 1712.5 -0.0047876 206.11 0.19626 595.00 0.0016807 752.34 1263.5 2.2923 2.7362 3.1177 1712.5 -0.0047876 206.11 0.19626
273.38 44231. undefined 755.08 1267.6 2.2973 595.00 0.0016807 755.08 1267.6 2.2973 2.7397 3.1209 1713.5 -0.0047833 206.11 0.19649 595.00 0.0016807 755.08 1267.6 2.2973 2.7397 3.1209 1713.5 -0.0047833 206.11 0.19649
274.38 44347. undefined 757.82 1271.7 2.3023 595.00 0.0016807 757.82 1271.7 2.3023 2.7433 3.1241 1714.5 -0.0047791 206.11 0.19672 595.00 0.0016807 757.82 1271.7 2.3023 2.7433 3.1241 1714.5 -0.0047791 206.11 0.19672
275.38 44462. undefined 760.57 1275.8 2.3073 595.00 0.0016807 760.57 1275.8 2.3073 2.7468 3.1272 1715.5 -0.0047749 206.11 0.19695 595.00 0.0016807 760.57 1275.8 2.3073 2.7468 3.1272 1715.5 -0.0047749 206.11 0.19695
276.38 44578. undefined 763.32 1279.9 2.3123 595.00 0.0016807 763.32 1279.9 2.3123 2.7504 3.1304 1716.4 -0.0047707 206.10 0.19718 595.00 0.0016807 763.32 1279.9 2.3123 2.7504 3.1304 1716.4 -0.0047707 206.10 0.19718
277.38 44693. undefined 766.07 1284.0 2.3173 595.00 0.0016807 766.07 1284.0 2.3173 2.7539 3.1335 1717.4 -0.0047665 206.10 0.19741 595.00 0.0016807 766.07 1284.0 2.3173 2.7539 3.1335 1717.4 -0.0047665 206.10 0.19741
278.38 44809. undefined 768.82 1288.1 2.3223 595.00 0.0016807 768.82 1288.1 2.3223 2.7575 3.1367 1718.4 -0.0047623 206.10 0.19764 595.00 0.0016807 768.82 1288.1 2.3223 2.7575 3.1367 1718.4 -0.0047623 206.10 0.19764
279.38 44924. undefined 771.58 1292.2 2.3273 595.00 0.0016807 771.58 1292.2 2.3273 2.7610 3.1398 1719.4 -0.0047581 206.10 0.19788 595.00 0.0016807 771.58 1292.2 2.3273 2.7610 3.1398 1719.4 -0.0047581 206.10 0.19788
280.38 45039. undefined 774.34 1296.2 2.3323 595.00 0.0016807 774.34 1296.2 2.3323 2.7645 3.1430 1720.4 -0.0047539 206.10 0.19811 595.00 0.0016807 774.34 1296.2 2.3323 2.7645 3.1430 1720.4 -0.0047539 206.10 0.19811
281.38 45154. undefined 777.11 1300.3 2.3373 595.00 0.0016807 777.11 1300.3 2.3373 2.7680 3.1461 1721.3 -0.0047497 206.10 0.19834 595.00 0.0016807 777.11 1300.3 2.3373 2.7680 3.1461 1721.3 -0.0047497 206.10 0.19834
282.38 45269. undefined 779.88 1304.5 2.3423 595.00 0.0016807 779.88 1304.5 2.3423 2.7716 3.1492 1722.3 -0.0047456 206.09 0.19838 595.00 0.0016807 779.88 1304.5 2.3423 2.7716 3.1492 1722.3 -0.0047456 206.09 0.19838
283.38 45384. undefined 782.65 1308.6 2.3473 595.00 0.0016807 782.65 1308.6 2.3473 2.7751 3.1524 1723.3 -0.0047415 206.09 0.19861 595.00 0.0016807 782.65 1308.6 2.3473 2.7751 3.1524 1723.3 -0.0047415 206.09 0.19861
284.38 45499. undefined 785.43 1312.7 2.3522 595.00 0.0016807 785.43 1312.7 2.3522 2.7786 3.1555 1724.3 -0.0047373 206.09 0.19885 595.00 0.0016807 785.43 1312.7 2.3522 2.7786 3.1555 1724.3 -0.0047373 206.09 0.19885
285.38 45614. undefined 788.21 1316.8 2.3572 595.00 0.0016807 788.21 1316.8 2.3572 2.7821 3.1586 1725.2 -0.0047332 206.09 0.19908 595.00 0.0016807 788.21 1316.8 2.3572 2.7821 3.1586 1725.2 -0.0047332 206.09 0.19908
286.38 45728. undefined 791.00 1320.9 2.3622 595.00 0.0016807 791.00 1320.9 2.3622 2.7856 3.1617 1726.2 -0.0047291 206.09 0.19931 595.00 0.0016807 791.00 1320.9 2.3622 2.7856 3.1617 1726.2 -0.0047291 206.09 0.19931
287.38 45843. undefined 793.78 1325.0 2.3672 595.00 0.0016807 793.78 1325.0 2.3672 2.7891 3.1648 1727.2 -0.0047250 206.09 0.19955 595.00 0.0016807 793.78 1325.0 2.3672 2.7891 3.1648 1727.2 -0.0047250 206.09 0.19955
288.38 45958. undefined 796.57 1329.1 2.3722 595.00 0.0016807 796.57 1329.1 2.3722 2.7925 3.1680 1728.1 -0.0047209 206.09 0.19978 595.00 0.0016807 796.57 1329.1 2.3722 2.7925 3.1680 1728.1 -0.0047209 206.09 0.19978
289.38 46072. undefined 799.37 1333.2 2.3771 595.00 0.0016807 799.37 1333.2 2.3771 2.7960 3.1711 1729.1 -0.0047169 206.09 0.20002 595.00 0.0016807 799.37 1333.2 2.3771 2.7960 3.1711 1729.1 -0.0047169 206.09 0.20002
290.38 46186. undefined 802.17 1337.4 2.3821 595.00 0.0016807 802.17 1337.4 2.3821 2.7995 3.1742 1730.0 -0.0047128 206.09 0.20025 595.00 0.0016807 802.17 1337.4 2.3821 2.7995 3.1742 1730.0 -0.0047128 206.09 0.20025
291.38 46301. undefined 804.97 1341.5 2.3871 595.00 0.0016807 804.97 1341.5 2.3871 2.8030 3.1773 1731.0 -0.0047087 206.09 0.20049 595.00 0.0016807 804.97 1341.5 2.3871 2.8030 3.1773 1731.0 -0.0047087 206.09 0.20049
292.38 46415. undefined 807.77 1345.6 2.3920 595.00 0.0016807 807.77 1345.6 2.3920 2.8064 3.1804 1732.0 -0.0047047 206.09 0.20072 595.00 0.0016807 807.77 1345.6 2.3920 2.8064 3.1804 1732.0 -0.0047047 206.09 0.20072
293.38 46529. undefined 810.58 1349.7 2.3970 595.00 0.0016807 810.58 1349.7 2.3970 2.8099 3.1835 1732.9 -0.0047007 206.09 0.20096 595.00 0.0016807 810.58 1349.7 2.3970 2.8099 3.1835 1732.9 -0.0047007 206.09 0.20096
294.38 46643. undefined 813.39 1353.9 2.4020 595.00 0.0016807 813.39 1353.9 2.4020 2.8134 3.1866 1733.9 -0.0046967 206.09 0.20120 595.00 0.0016807 813.39 1353.9 2.4020 2.8134 3.1866 1733.9 -0.0046967 206.09 0.20120
295.38 46757. undefined 816.21 1358.0 2.4069 595.00 0.0016807 816.21 1358.0 2.4069 2.8168 3.1896 1734.8 -0.0046926 206.09 0.20143 595.00 0.0016807 816.21 1358.0 2.4069 2.8168 3.1896 1734.8 -0.0046926 206.09 0.20143
296.38 46871. undefined 819.02 1362.2 2.4119 595.00 0.0016807 819.02 1362.2 2.4119 2.8203 3.1927 1735.8 -0.0046886 206.09 0.20167 595.00 0.0016807 819.02 1362.2 2.4119 2.8203 3.1927 1735.8 -0.0046886 206.09 0.20167
297.38 46985. undefined 821.85 1366.3 2.4168 595.00 0.0016807 821.85 1366.3 2.4168 2.8237 3.1958 1736.8 -0.0046847 206.09 0.20191 595.00 0.0016807 821.85 1366.3 2.4168 2.8237 3.1958 1736.8 -0.0046847 206.09 0.20191
298.38 47098. undefined 824.67 1370.4 2.4218 595.00 0.0016807 824.67 1370.4 2.4218 2.8271 3.1989 1737.7 -0.0046807 206.09 0.20214 595.00 0.0016807 824.67 1370.4 2.4218 2.8271 3.1989 1737.7 -0.0046807 206.09 0.20214
299.38 47212. undefined 827.50 1374.6 2.4267 595.00 0.0016807 827.50 1374.6 2.4267 2.8306 3.2019 1738.7 -0.0046767 206.09 0.20238 595.00 0.0016807 827.50 1374.6 2.4267 2.8306 3.2019 1738.7 -0.0046767 206.09 0.20238
300.38 47326. undefined 830.33 1378.7 2.4317 595.00 0.0016807 830.33 1378.7 2.4317 2.8340 3.2050 1739.6 -0.0046728 206.09 0.20262 595.00 0.0016807 830.33 1378.7 2.4317 2.8340 3.2050 1739.6 -0.0046728 206.09 0.20262