Temperature (C) Pressure (psia) Quality (l+v) Internal Energy (l+v, kJ/kg) Enthalpy (l+v, kJ/kg) Entropy (l+v, J/g*K) Density (l, kg/m3) Volume (l, m3/kg) Internal Energy (l, kJ/kg) Enthalpy (l, kJ/kg) Entropy (l, J/g*K) Cv (l, J/g*K) Cp (l, J/g*K) Sound Spd. (l, m/s) Joule-Thomson (l, F/psia) Viscosity (l, uPa*s) Therm. Cond. (l, W/m*K) Density (v, kg/m3) Volume (v, m3/kg) Internal Energy (v, kJ/kg) Enthalpy (v, kJ/kg) Entropy (v, J/g*K) Cv (v, J/g*K) Cp (v, J/g*K) Sound Spd. (v, m/s) Joule-Thomson (v, F/psia) Viscosity (v, uPa*s) Therm. Cond. (v, W/m*K)
-187.62 2.4953e-08 3.2288e-12 -196.64 -196.64 -1.3959 733.13 0.0013640 -196.64 -196.64 -1.3959 1.3553 1.9158 2136.4 -0.0077592 10960. 0.20792 1.0669e-08 9.3732e+07 350.13 366.26 5.1858 0.69067 0.87923 143.28 6.1051 2.3259 0.0017061
-186.62 3.7339e-08 4.7450e-12 -194.73 -194.73 -1.3736 732.08 0.0013660 -194.73 -194.73 -1.3736 1.3539 1.9166 2129.6 -0.0077546 10073. 0.20765 1.5780e-08 6.3371e+07 350.82 367.14 5.1200 0.69462 0.88317 144.03 5.9178 2.3534 0.0017533
-185.62 5.5322e-08 6.9048e-12 -192.81 -192.81 -1.3516 731.04 0.0013679 -192.81 -192.81 -1.3516 1.3525 1.9174 2122.9 -0.0077498 9276.1 0.20737 2.3112e-08 4.3267e+07 351.52 368.02 5.0561 0.69857 0.88713 144.77 5.7383 2.3808 0.0018007
-184.62 8.1182e-08 9.9527e-12 -190.89 -190.89 -1.3298 730.00 0.0013699 -190.89 -190.89 -1.3298 1.3513 1.9182 2116.1 -0.0077448 8557.8 0.20708 3.3533e-08 2.9821e+07 352.22 368.91 4.9939 0.70253 0.89108 145.51 5.5662 2.4083 0.0018485
-183.62 1.1803e-07 1.4215e-11 -188.97 -188.97 -1.3083 728.96 0.0013718 -188.97 -188.97 -1.3083 1.3501 1.9191 2109.3 -0.0077395 7909.8 0.20678 4.8211e-08 2.0742e+07 352.92 369.81 4.9333 0.70648 0.89504 146.24 5.4011 2.4357 0.0018965
-182.62 1.7009e-07 2.0123e-11 -187.05 -187.05 -1.2869 727.92 0.0013738 -187.05 -187.05 -1.2869 1.3490 1.9201 2102.5 -0.0077340 7324.3 0.20647 6.8704e-08 1.4555e+07 353.63 370.70 4.8744 0.71043 0.89899 146.97 5.2426 2.4632 0.0019448
-181.62 2.4299e-07 2.8243e-11 -185.13 -185.13 -1.2658 726.88 0.0013757 -185.13 -185.13 -1.2658 1.3480 1.9210 2095.7 -0.0077283 6794.5 0.20616 9.7079e-08 1.0301e+07 354.35 371.60 4.8170 0.71438 0.90294 147.69 5.0904 2.4906 0.0019934
-180.62 3.4425e-07 3.9314e-11 -183.21 -183.21 -1.2450 725.85 0.0013777 -183.21 -183.21 -1.2450 1.3470 1.9220 2088.9 -0.0077225 6314.4 0.20584 1.3605e-07 7.3504e+06 355.06 372.51 4.7612 0.71833 0.90688 148.41 4.9442 2.5181 0.0020423
-179.62 4.8378e-07 5.4286e-11 -181.29 -181.29 -1.2243 724.81 0.0013797 -181.29 -181.29 -1.2243 1.3461 1.9231 2082.0 -0.0077164 5878.8 0.20551 1.8915e-07 5.2868e+06 355.78 373.42 4.7068 0.72227 0.91082 149.13 4.8038 2.5456 0.0020915
-178.62 6.7459e-07 7.4383e-11 -179.37 -179.37 -1.2038 723.78 0.0013816 -179.37 -179.37 -1.2038 1.3453 1.9241 2075.2 -0.0077102 5482.9 0.20517 2.6096e-07 3.8320e+06 356.51 374.33 4.6538 0.72620 0.91475 149.84 4.6688 2.5731 0.0021410
-177.62 9.3358e-07 1.0116e-10 -177.44 -177.44 -1.1836 722.75 0.0013836 -177.44 -177.44 -1.1836 1.3445 1.9252 2068.4 -0.0077039 5122.6 0.20483 3.5737e-07 2.7982e+06 357.23 375.25 4.6022 0.73012 0.91867 150.54 4.5390 2.6005 0.0021907
-176.62 1.2826e-06 1.3657e-10 -175.52 -175.52 -1.1635 721.72 0.0013856 -175.52 -175.52 -1.1635 1.3437 1.9263 2061.5 -0.0076973 4794.1 0.20447 4.8588e-07 2.0581e+06 357.97 376.17 4.5519 0.73403 0.92258 151.25 4.4142 2.6280 0.0022408
-175.62 1.7496e-06 1.8310e-10 -173.59 -173.59 -1.1437 720.69 0.0013876 -173.59 -173.59 -1.1437 1.3430 1.9274 2054.7 -0.0076907 4494.3 0.20411 6.5601e-07 1.5244e+06 358.70 377.09 4.5029 0.73792 0.92648 151.95 4.2941 2.6555 0.0022912
-174.62 2.3705e-06 2.4381e-10 -171.66 -171.66 -1.1240 719.66 0.0013895 -171.66 -171.66 -1.1240 1.3423 1.9286 2047.9 -0.0076838 4220.2 0.20375 8.7976e-07 1.1367e+06 359.44 378.02 4.4551 0.74181 0.93036 152.64 4.1784 2.6830 0.0023418
-173.62 3.1903e-06 3.2250e-10 -169.73 -169.73 -1.1045 718.64 0.0013915 -169.73 -169.73 -1.1045 1.3417 1.9298 2041.0 -0.0076769 3969.3 0.20338 1.1721e-06 8.5314e+05 360.19 378.95 4.4085 0.74568 0.93423 153.33 4.0671 2.7105 0.0023928
-172.62 4.2661e-06 4.2388e-10 -167.80 -167.80 -1.0852 717.61 0.0013935 -167.80 -167.80 -1.0852 1.3411 1.9310 2034.2 -0.0076698 3739.3 0.20300 1.5518e-06 6.4441e+05 360.93 379.89 4.3631 0.74953 0.93809 154.02 3.9599 2.7379 0.0024440
-171.62 5.6692e-06 5.5368e-10 -165.87 -165.87 -1.0661 716.58 0.0013955 -165.87 -165.87 -1.0661 1.3405 1.9322 2027.3 -0.0076625 3528.0 0.20261 2.0419e-06 4.8974e+05 361.69 380.83 4.3188 0.75337 0.94193 154.71 3.8566 2.7654 0.0024955
-170.62 7.4884e-06 7.1887e-10 -163.94 -163.94 -1.0472 715.56 0.0013975 -163.94 -163.94 -1.0472 1.3400 1.9334 2020.5 -0.0076552 3333.8 0.20222 2.6708e-06 3.7442e+05 362.44 381.77 4.2755 0.75720 0.94575 155.39 3.7570 2.7929 0.0025473
-169.62 9.8334e-06 9.2792e-10 -162.00 -162.00 -1.0284 714.54 0.0013995 -162.00 -162.00 -1.0284 1.3395 1.9347 2013.6 -0.0076477 3154.9 0.20182 3.4733e-06 2.8791e+05 363.20 382.72 4.2334 0.76100 0.94956 156.07 3.6609 2.8204 0.0025994
-168.62 1.2839e-05 1.1910e-09 -160.07 -160.07 -1.0098 713.52 0.0014015 -160.07 -160.07 -1.0098 1.3390 1.9359 2006.8 -0.0076401 2989.9 0.20141 4.4917e-06 2.2263e+05 363.96 383.67 4.1922 0.76479 0.95335 156.74 3.5683 2.8479 0.0026518
-167.62 1.6672e-05 1.5202e-09 -158.13 -158.13 -0.99134 712.49 0.0014035 -158.13 -158.13 -0.99134 1.3386 1.9372 2000.0 -0.0076323 2837.5 0.20100 5.7771e-06 1.7310e+05 364.73 384.63 4.1521 0.76856 0.95712 157.41 3.4790 2.8754 0.0027045
-166.62 2.1533e-05 1.9301e-09 -156.19 -156.19 -0.97306 711.47 0.0014055 -156.19 -156.19 -0.97306 1.3382 1.9385 1993.1 -0.0076245 2696.5 0.20058 7.3914e-06 1.3529e+05 365.50 385.59 4.1129 0.77232 0.96087 158.08 3.3927 2.9029 0.0027575
-165.62 2.7666e-05 2.4379e-09 -154.25 -154.25 -0.95494 710.45 0.0014075 -154.25 -154.25 -0.95494 1.3378 1.9398 1986.3 -0.0076165 2566.0 0.20016 9.4084e-06 1.0629e+05 366.27 386.55 4.0746 0.77605 0.96460 158.75 3.3095 2.9304 0.0028108
-164.62 3.5367e-05 3.0637e-09 -152.31 -152.31 -0.93698 709.44 0.0014096 -152.31 -152.31 -0.93698 1.3375 1.9411 1979.4 -0.0076084 2444.9 0.19973 1.1916e-05 83918. 367.05 387.52 4.0372 0.77976 0.96832 159.41 3.2291 2.9579 0.0028643
-163.62 4.4989e-05 3.8312e-09 -150.37 -150.37 -0.91917 708.42 0.0014116 -150.37 -150.37 -0.91917 1.3371 1.9424 1972.6 -0.0076002 2332.3 0.19930 1.5020e-05 66577. 367.83 388.49 4.0008 0.78346 0.97201 160.07 3.1514 2.9854 0.0029182
-162.62 5.6956e-05 4.7682e-09 -148.43 -148.43 -0.90151 707.40 0.0014136 -148.43 -148.43 -0.90151 1.3368 1.9437 1965.8 -0.0075919 2227.7 0.19886 1.8844e-05 53068. 368.62 389.46 3.9651 0.78713 0.97569 160.72 3.0764 3.0129 0.0029723
-161.62 7.1773e-05 5.9069e-09 -146.48 -146.48 -0.88400 706.38 0.0014157 -146.48 -146.48 -0.88400 1.3365 1.9451 1959.0 -0.0075834 2130.2 0.19841 2.3533e-05 42494. 369.41 390.44 3.9304 0.79079 0.97935 161.38 3.0038 3.0404 0.0030268
-160.62 9.0036e-05 7.2844e-09 -144.54 -144.54 -0.86663 705.37 0.0014177 -144.54 -144.54 -0.86663 1.3363 1.9465 1952.1 -0.0075748 2039.2 0.19796 2.9258e-05 34178. 370.20 391.42 3.8964 0.79443 0.98298 162.03 2.9337 3.0679 0.0030815
-159.62 0.00011245 8.9438e-09 -142.59 -142.59 -0.84940 704.35 0.0014197 -142.59 -142.59 -0.84940 1.3360 1.9478 1945.3 -0.0075661 1954.2 0.19751 3.6221e-05 27609. 371.00 392.40 3.8632 0.79805 0.98660 162.68 2.8658 3.0955 0.0031365
-158.62 0.00013985 1.0934e-08 -140.64 -140.64 -0.83231 703.34 0.0014218 -140.64 -140.64 -0.83231 1.3358 1.9492 1938.5 -0.0075573 1874.8 0.19705 4.4652e-05 22395. 371.80 393.39 3.8307 0.80164 0.99020 163.32 2.8002 3.1230 0.0031918
-157.62 0.00017320 1.3312e-08 -138.69 -138.69 -0.81536 702.32 0.0014238 -138.69 -138.69 -0.81536 1.3356 1.9506 1931.7 -0.0075484 1800.3 0.19658 5.4822e-05 18241. 372.60 394.38 3.7990 0.80522 0.99378 163.96 2.7367 3.1505 0.0032474
-156.62 0.00021364 1.6141e-08 -136.74 -136.74 -0.79854 701.31 0.0014259 -136.74 -136.74 -0.79854 1.3354 1.9520 1924.9 -0.0075393 1730.5 0.19611 6.7040e-05 14916. 373.41 395.38 3.7680 0.80878 0.99734 164.60 2.6752 3.1780 0.0033033
-155.62 0.00026248 1.9494e-08 -134.79 -134.79 -0.78185 700.30 0.0014280 -134.79 -134.79 -0.78185 1.3352 1.9534 1918.1 -0.0075302 1664.9 0.19564 8.1666e-05 12245. 374.22 396.38 3.7377 0.81232 1.0009 165.24 2.6157 3.2055 0.0033595
-154.62 0.00032125 2.3453e-08 -132.83 -132.83 -0.76530 699.29 0.0014300 -132.83 -132.83 -0.76530 1.3350 1.9548 1911.3 -0.0075209 1603.3 0.19516 9.9109e-05 10090. 375.03 397.38 3.7081 0.81585 1.0044 165.87 2.5580 3.2330 0.0034160
-153.62 0.00039171 2.8109e-08 -130.88 -130.88 -0.74887 698.27 0.0014321 -130.88 -130.88 -0.74887 1.3349 1.9563 1904.5 -0.0075114 1545.3 0.19468 0.00011984 8344.6 375.85 398.39 3.6792 0.81935 1.0079 166.50 2.5022 3.2606 0.0034727
-152.62 0.00047590 3.3567e-08 -128.92 -128.92 -0.73256 697.26 0.0014342 -128.92 -128.92 -0.73256 1.3348 1.9577 1897.8 -0.0075019 1490.6 0.19419 0.00014439 6925.9 376.67 399.40 3.6509 0.82284 1.0114 167.13 2.4481 3.2881 0.0035298
-151.62 0.00057613 3.9942e-08 -126.96 -126.96 -0.71638 696.25 0.0014363 -126.96 -126.96 -0.71638 1.3346 1.9592 1891.0 -0.0074922 1438.9 0.19370 0.00017336 5768.4 377.49 400.41 3.6232 0.82631 1.0149 167.76 2.3957 3.3156 0.0035872
-150.62 0.00069507 4.7361e-08 -125.00 -125.00 -0.70032 695.24 0.0014384 -125.00 -125.00 -0.70032 1.3345 1.9606 1884.2 -0.0074824 1390.2 0.19320 0.00020744 4820.7 378.32 401.42 3.5962 0.82976 1.0183 168.38 2.3448 3.3431 0.0036448
-149.62 0.00083574 5.5967e-08 -123.04 -123.04 -0.68438 694.23 0.0014404 -123.04 -123.04 -0.68438 1.3345 1.9621 1877.4 -0.0074724 1344.0 0.19270 0.00024740 4042.0 379.15 402.44 3.5697 0.83319 1.0218 169.00 2.2956 3.3706 0.0037027
-148.62 0.0010016 6.5917e-08 -121.08 -121.08 -0.66855 693.22 0.0014425 -121.08 -121.08 -0.66855 1.3344 1.9636 1870.7 -0.0074623 1300.3 0.19220 0.00029412 3400.0 379.99 403.47 3.5438 0.83661 1.0252 169.62 2.2478 3.3982 0.0037610
-147.62 0.0011965 7.7384e-08 -119.11 -119.11 -0.65284 692.21 0.0014447 -119.11 -119.11 -0.65284 1.3343 1.9651 1863.9 -0.0074521 1258.9 0.19169 0.00034856 2869.0 380.83 404.49 3.5185 0.84001 1.0286 170.24 2.2014 3.4257 0.0038195
-146.62 0.0014249 9.0558e-08 -117.15 -117.15 -0.63724 691.20 0.0014468 -117.15 -117.15 -0.63724 1.3343 1.9666 1857.2 -0.0074417 1219.6 0.19117 0.00041181 2428.3 381.67 405.52 3.4938 0.84340 1.0320 170.85 2.1565 3.4532 0.0038783
-145.62 0.0016917 1.0565e-07 -115.18 -115.18 -0.62175 690.19 0.0014489 -115.18 -115.18 -0.62175 1.3343 1.9682 1850.4 -0.0074312 1182.3 0.19066 0.00048510 2061.4 382.51 406.56 3.4695 0.84677 1.0353 171.46 2.1128 3.4807 0.0039374
-144.62 0.0020026 1.2288e-07 -113.21 -113.21 -0.60637 689.18 0.0014510 -113.21 -113.21 -0.60637 1.3343 1.9697 1843.7 -0.0074206 1146.8 0.19014 0.00056976 1755.1 383.36 407.59 3.4458 0.85012 1.0387 172.07 2.0705 3.5082 0.0039967
-143.62 0.0023637 1.4249e-07 -111.24 -111.24 -0.59110 688.17 0.0014531 -111.24 -111.24 -0.59110 1.3343 1.9713 1836.9 -0.0074098 1113.0 0.18962 0.00066731 1498.6 384.21 408.63 3.4226 0.85346 1.0420 172.68 2.0294 3.5358 0.0040564
-142.62 0.0027820 1.6476e-07 -109.27 -109.27 -0.57593 687.16 0.0014553 -109.27 -109.27 -0.57593 1.3343 1.9728 1830.2 -0.0073988 1080.8 0.18909 0.00077939 1283.1 385.07 409.68 3.3999 0.85679 1.0454 173.28 1.9896 3.5633 0.0041164
-141.62 0.0032653 1.8997e-07 -107.30 -107.30 -0.56087 686.15 0.0014574 -107.30 -107.30 -0.56087 1.3343 1.9744 1823.5 -0.0073878 1050.1 0.18856 0.00090784 1101.5 385.93 410.72 3.3777 0.86011 1.0487 173.88 1.9508 3.5908 0.0041766
-140.62 0.0038222 2.1843e-07 -105.32 -105.32 -0.54591 685.14 0.0014596 -105.32 -105.32 -0.54591 1.3344 1.9760 1816.7 -0.0073765 1020.7 0.18803 0.0010547 948.16 386.79 411.77 3.3560 0.86341 1.0520 174.48 1.9133 3.6183 0.0042372
-139.62 0.0044623 2.5047e-07 -103.34 -103.34 -0.53105 684.13 0.0014617 -103.34 -103.34 -0.53105 1.3344 1.9776 1810.0 -0.0073651 992.74 0.18749 0.0012221 818.26 387.65 412.83 3.3347 0.86670 1.0553 175.08 1.8768 3.6459 0.0042980
-138.62 0.0051963 2.8645e-07 -101.37 -101.37 -0.51628 683.12 0.0014639 -101.37 -101.37 -0.51629 1.3345 1.9792 1803.3 -0.0073536 965.97 0.18695 0.0014125 707.94 388.52 413.88 3.3139 0.86998 1.0586 175.67 1.8413 3.6734 0.0043592
-137.62 0.0060358 3.2675e-07 -99.386 -99.386 -0.50162 682.11 0.0014660 -99.386 -99.386 -0.50162 1.3346 1.9808 1796.6 -0.0073419 940.35 0.18641 0.0016287 614.00 389.39 414.94 3.2935 0.87325 1.0619 176.26 1.8069 3.7009 0.0044206
-136.62 0.0069938 3.7176e-07 -97.404 -97.404 -0.48705 681.10 0.0014682 -97.404 -97.404 -0.48705 1.3347 1.9825 1789.9 -0.0073301 915.81 0.18586 0.0018733 533.80 390.26 416.00 3.2735 0.87650 1.0651 176.85 1.7734 3.7284 0.0044823
-135.62 0.0080843 4.2193e-07 -95.421 -95.421 -0.47258 680.09 0.0014704 -95.421 -95.421 -0.47258 1.3348 1.9841 1783.2 -0.0073180 892.30 0.18531 0.0021497 465.17 391.14 417.07 3.2540 0.87975 1.0684 177.44 1.7409 3.7559 0.0045443
-134.62 0.0093230 4.7768e-07 -93.436 -93.436 -0.45820 679.08 0.0014726 -93.436 -93.436 -0.45820 1.3350 1.9858 1776.5 -0.0073059 869.75 0.18476 0.0024613 406.30 392.02 418.14 3.2348 0.88299 1.0716 178.02 1.7093 3.7834 0.0046066
-133.62 0.010727 5.3951e-07 -91.449 -91.449 -0.44391 678.07 0.0014748 -91.450 -91.449 -0.44391 1.3351 1.9875 1769.8 -0.0072935 848.11 0.18421 0.0028116 355.67 392.91 419.21 3.2161 0.88622 1.0749 178.61 1.6786 3.8109 0.0046691
-132.62 0.012315 6.0791e-07 -89.461 -89.461 -0.42971 677.06 0.0014770 -89.461 -89.461 -0.42971 1.3353 1.9892 1763.1 -0.0072810 827.32 0.18365 0.0032049 312.03 393.79 420.29 3.1977 0.88944 1.0781 179.19 1.6488 3.8385 0.0047320
-131.62 0.014106 6.8339e-07 -87.471 -87.471 -0.41559 676.04 0.0014792 -87.471 -87.471 -0.41560 1.3354 1.9909 1756.4 -0.0072684 807.34 0.18309 0.0036453 274.33 394.68 421.36 3.1798 0.89266 1.0813 179.76 1.6197 3.8660 0.0047951
-130.62 0.016124 7.6651e-07 -85.479 -85.479 -0.40157 675.03 0.0014814 -85.479 -85.479 -0.40157 1.3356 1.9926 1749.7 -0.0072555 788.12 0.18253 0.0041375 241.69 395.58 422.44 3.1622 0.89586 1.0846 180.34 1.5915 3.8935 0.0048586
-129.62 0.018392 8.5782e-07 -83.485 -83.485 -0.38763 674.02 0.0014836 -83.486 -83.486 -0.38763 1.3358 1.9944 1743.0 -0.0072425 769.63 0.18196 0.0046867 213.37 396.47 423.53 3.1450 0.89906 1.0878 180.91 1.5641 3.9210 0.0049223
-128.62 0.020935 9.5791e-07 -81.490 -81.490 -0.37378 673.01 0.0014859 -81.491 -81.490 -0.37378 1.3360 1.9961 1736.3 -0.0072294 751.83 0.18140 0.0052981 188.75 397.37 424.62 3.1281 0.90226 1.0910 181.48 1.5374 3.9485 0.0049863
-127.62 0.023783 1.0674e-06 -79.493 -79.493 -0.36001 672.00 0.0014881 -79.494 -79.493 -0.36001 1.3363 1.9979 1729.6 -0.0072160 734.67 0.18083 0.0059776 167.29 398.27 425.71 3.1116 0.90545 1.0942 182.05 1.5114 3.9760 0.0050506
-126.62 0.026966 1.1868e-06 -77.494 -77.494 -0.34632 670.98 0.0014904 -77.495 -77.495 -0.34632 1.3365 1.9997 1722.9 -0.0072025 718.14 0.18025 0.0067313 148.56 399.18 426.80 3.0954 0.90863 1.0974 182.62 1.4861 4.0035 0.0051152
-125.62 0.030515 1.3169e-06 -75.494 -75.493 -0.33271 669.97 0.0014926 -75.494 -75.494 -0.33272 1.3368 2.0015 1716.2 -0.0071888 702.18 0.17968 0.0075660 132.17 400.09 427.89 3.0795 0.91181 1.1006 183.18 1.4615 4.0310 0.0051800
-124.62 0.034467 1.4583e-06 -73.491 -73.491 -0.31918 668.95 0.0014949 -73.492 -73.492 -0.31919 1.3371 2.0033 1709.5 -0.0071749 686.79 0.17910 0.0084885 117.81 401.00 428.99 3.0640 0.91499 1.1038 183.74 1.4375 4.0584 0.0052452
-123.62 0.038859 1.6116e-06 -71.487 -71.486 -0.30573 667.94 0.0014971 -71.488 -71.487 -0.30574 1.3374 2.0051 1702.8 -0.0071609 671.93 0.17852 0.0095065 105.19 401.91 430.10 3.0488 0.91816 1.1070 184.30 1.4141 4.0859 0.0053106
-122.62 0.043731 1.7775e-06 -69.481 -69.480 -0.29236 666.92 0.0014994 -69.482 -69.481 -0.29237 1.3377 2.0070 1696.2 -0.0071466 657.57 0.17794 0.010628 94.092 402.83 431.20 3.0339 0.92134 1.1102 184.86 1.3913 4.1134 0.0053764
-121.62 0.049128 1.9566e-06 -67.473 -67.472 -0.27907 665.91 0.0015017 -67.474 -67.473 -0.27907 1.3380 2.0089 1689.5 -0.0071322 643.70 0.17736 0.011861 84.309 403.75 432.31 3.0193 0.92451 1.1134 185.41 1.3691 4.1409 0.0054424
-120.62 0.055096 2.1497e-06 -65.463 -65.462 -0.26585 664.89 0.0015040 -65.464 -65.463 -0.26585 1.3384 2.0107 1682.8 -0.0071176 630.28 0.17678 0.013215 75.669 404.67 433.42 3.0050 0.92767 1.1166 185.96 1.3475 4.1683 0.0055087
-119.62 0.061684 2.3573e-06 -63.451 -63.450 -0.25270 663.87 0.0015063 -63.452 -63.452 -0.25271 1.3387 2.0126 1676.1 -0.0071028 617.30 0.17619 0.014700 68.027 405.60 434.53 2.9909 0.93084 1.1198 186.51 1.3264 4.1958 0.0055752
-118.62 0.068946 2.5802e-06 -61.437 -61.437 -0.23963 662.86 0.0015086 -61.439 -61.438 -0.23963 1.3391 2.0146 1669.4 -0.0070878 604.74 0.17560 0.016325 61.255 406.53 435.64 2.9772 0.93401 1.1231 187.06 1.3058 4.2233 0.0056421
-117.62 0.076937 2.8189e-06 -59.422 -59.421 -0.22662 661.84 0.0015109 -59.423 -59.422 -0.22663 1.3395 2.0165 1662.8 -0.0070726 592.58 0.17501 0.018101 55.245 407.46 436.76 2.9638 0.93718 1.1263 187.60 1.2857 4.2507 0.0057092
-116.62 0.085718 3.0741e-06 -57.404 -57.403 -0.21369 660.82 0.0015133 -57.406 -57.405 -0.21370 1.3400 2.0184 1656.1 -0.0070573 580.80 0.17442 0.020040 49.901 408.39 437.88 2.9506 0.94035 1.1295 188.14 1.2660 4.2782 0.0057767
-115.62 0.095353 3.3463e-06 -55.385 -55.384 -0.20083 659.80 0.0015156 -55.386 -55.385 -0.20084 1.3404 2.0204 1649.4 -0.0070417 569.38 0.17383 0.022152 45.142 409.33 439.01 2.9377 0.94352 1.1327 188.68 1.2468 4.3056 0.0058444
-114.62 0.10591 3.6362e-06 -53.363 -53.362 -0.18804 658.78 0.0015180 -53.365 -53.364 -0.18805 1.3409 2.0224 1642.7 -0.0070260 558.32 0.17323 0.024451 40.898 410.27 440.13 2.9250 0.94669 1.1360 189.22 1.2281 4.3330 0.0059123
-113.62 0.11746 3.9442e-06 -51.340 -51.338 -0.17531 657.76 0.0015203 -51.342 -51.340 -0.17533 1.3413 2.0244 1636.0 -0.0070100 547.59 0.17264 0.026949 37.107 411.21 441.26 2.9126 0.94987 1.1392 189.75 1.2097 4.3604 0.0059806
-112.62 0.13008 4.2708e-06 -49.314 -49.313 -0.16266 656.73 0.0015227 -49.316 -49.315 -0.16267 1.3418 2.0264 1629.3 -0.0069938 537.18 0.17204 0.029661 33.715 412.16 442.39 2.9005 0.95305 1.1424 190.28 1.1918 4.3879 0.0060491
-111.62 0.14384 4.6165e-06 -47.287 -47.285 -0.15006 655.71 0.0015251 -47.289 -47.287 -0.15008 1.3424 2.0285 1622.7 -0.0069774 527.08 0.17144 0.032600 30.675 413.10 443.53 2.8885 0.95623 1.1457 190.81 1.1742 4.4153 0.0061180
-110.62 0.15884 4.9816e-06 -45.257 -45.255 -0.13754 654.69 0.0015274 -45.259 -45.258 -0.13755 1.3429 2.0305 1616.0 -0.0069609 517.28 0.17084 0.035781 27.948 414.06 444.66 2.8769 0.95942 1.1490 191.34 1.1570 4.4427 0.0061871
-109.62 0.17516 5.3665e-06 -43.225 -43.223 -0.12508 653.66 0.0015298 -43.228 -43.226 -0.12509 1.3435 2.0326 1609.3 -0.0069441 507.76 0.17024 0.039220 25.497 415.01 445.80 2.8654 0.96261 1.1522 191.86 1.1402 4.4701 0.0062564
-108.62 0.19290 5.7714e-06 -41.191 -41.189 -0.11268 652.64 0.0015322 -41.194 -41.192 -0.11269 1.3441 2.0347 1602.6 -0.0069271 498.51 0.16964 0.042933 23.292 415.96 446.94 2.8542 0.96581 1.1555 192.38 1.1236 4.4974 0.0063261
-107.62 0.21215 6.1963e-06 -39.156 -39.153 -0.10034 651.61 0.0015347 -39.158 -39.156 -0.10036 1.3447 2.0369 1595.9 -0.0069098 489.52 0.16903 0.046937 21.305 416.92 448.09 2.8433 0.96901 1.1588 192.90 1.1075 4.5248 0.0063960
-106.62 0.23301 6.6415e-06 -37.117 -37.115 -0.088063 650.58 0.0015371 -37.120 -37.118 -0.088082 1.3453 2.0390 1589.2 -0.0068924 480.79 0.16843 0.051250 19.512 417.88 449.23 2.8325 0.97222 1.1621 193.41 1.0916 4.5522 0.0064662
-105.62 0.25561 7.1068e-06 -35.077 -35.074 -0.075848 649.55 0.0015395 -35.080 -35.078 -0.075868 1.3460 2.0412 1582.6 -0.0068747 472.30 0.16782 0.055891 17.892 418.85 450.38 2.8220 0.97544 1.1655 193.93 1.0760 4.5795 0.0065367
-104.62 0.28004 7.5921e-06 -33.035 -33.032 -0.063692 648.52 0.0015420 -33.038 -33.035 -0.063714 1.3467 2.0434 1575.9 -0.0068569 464.04 0.16721 0.060878 16.426 419.81 451.53 2.8116 0.97867 1.1688 194.44 1.0608 4.6069 0.0066074
-103.62 0.30643 8.0971e-06 -30.990 -30.987 -0.051596 647.49 0.0015444 -30.994 -30.991 -0.051619 1.3474 2.0456 1569.2 -0.0068387 456.00 0.16660 0.066231 15.099 420.78 452.68 2.8015 0.98191 1.1722 194.94 1.0458 4.6342 0.0066785
-102.62 0.33490 8.6215e-06 -28.943 -28.939 -0.039557 646.46 0.0015469 -28.947 -28.944 -0.039582 1.3481 2.0478 1562.5 -0.0068204 448.18 0.16600 0.071971 13.894 421.75 453.84 2.7916 0.98516 1.1755 195.44 1.0310 4.6615 0.0067498
-101.62 0.36558 9.1646e-06 -26.894 -26.890 -0.027576 645.43 0.0015494 -26.898 -26.894 -0.027602 1.3489 2.0501 1555.8 -0.0068018 440.57 0.16539 0.078120 12.801 422.73 454.99 2.7818 0.98841 1.1789 195.95 1.0166 4.6888 0.0068213
-100.62 0.39862 9.7258e-06 -24.843 -24.838 -0.015651 644.39 0.0015519 -24.847 -24.843 -0.015678 1.3497 2.0524 1549.1 -0.0067830 433.16 0.16478 0.084699 11.807 423.70 456.15 2.7723 0.99168 1.1823 196.44 1.0024 4.7161 0.0068932
-99.625 0.43414 1.0304e-05 -22.789 -22.784 -0.0037817 643.36 0.0015544 -22.794 -22.789 -0.0038103 1.3505 2.0547 1542.4 -0.0067639 425.95 0.16416 0.091731 10.901 424.68 457.31 2.7630 0.99496 1.1858 196.94 0.98838 4.7434 0.0069653
-98.625 0.47230 1.0899e-05 -20.733 -20.728 0.0080327 642.32 0.0015569 -20.738 -20.733 0.0080027 1.3514 2.0570 1535.7 -0.0067447 418.92 0.16355 0.099240 10.077 425.66 458.48 2.7538 0.99825 1.1892 197.43 0.97464 4.7707 0.0070377
-97.625 0.51325 1.1508e-05 -18.675 -18.669 0.019793 641.28 0.0015594 -18.680 -18.674 0.019762 1.3522 2.0594 1529.0 -0.0067251 412.07 0.16294 0.10725 9.3239 426.65 459.64 2.7448 1.0016 1.1927 197.92 0.96112 4.7979 0.0071103
-96.625 0.55714 1.2132e-05 -16.614 -16.608 0.031500 640.24 0.0015619 -16.620 -16.614 0.031467 1.3531 2.0618 1522.3 -0.0067053 405.39 0.16233 0.11579 8.6365 427.63 460.81 2.7360 1.0049 1.1962 198.40 0.94783 4.8251 0.0071832
-95.625 0.60416 1.2766e-05 -14.551 -14.544 0.043154 639.20 0.0015645 -14.557 -14.550 0.043120 1.3540 2.0642 1515.7 -0.0066853 398.88 0.16171 0.12488 8.0078 428.62 461.98 2.7274 1.0082 1.1997 198.88 0.93475 4.8524 0.0072564
-94.625 0.65446 1.3411e-05 -12.485 -12.478 0.054757 638.16 0.0015670 -12.491 -12.484 0.054721 1.3550 2.0667 1509.0 -0.0066650 392.53 0.16110 0.13455 7.4323 429.61 463.15 2.7189 1.0116 1.2032 199.36 0.92188 4.8796 0.0073299
-93.625 0.70822 1.4064e-05 -10.417 -10.409 0.066308 637.12 0.0015696 -10.424 -10.416 0.066271 1.3560 2.0691 1502.3 -0.0066444 386.34 0.16048 0.14482 6.9050 430.60 464.32 2.7107 1.0149 1.2068 199.83 0.90921 4.9068 0.0074036
-92.625 0.76564 1.4723e-05 -8.3470 -8.3382 0.077809 636.07 0.0015722 -8.3535 -8.3452 0.077771 1.3570 2.0716 1495.6 -0.0066236 380.31 0.15987 0.15573 6.4212 431.60 465.49 2.7025 1.0183 1.2104 200.30 0.89673 4.9340 0.0074776
-91.625 0.82689 1.5384e-05 -6.2741 -6.2646 0.089260 635.02 0.0015747 -6.2808 -6.2719 0.089220 1.3580 2.0742 1488.9 -0.0066025 374.41 0.15925 0.16731 5.9769 432.59 466.67 2.6946 1.0217 1.2140 200.77 0.88445 4.9611 0.0075518
-90.625 0.89218 1.6045e-05 -4.1986 -4.1884 0.10066 633.98 0.0015773 -4.2056 -4.1959 0.10062 1.3591 2.0767 1482.2 -0.0065811 368.66 0.15864 0.17958 5.5685 433.59 467.84 2.6868 1.0251 1.2177 201.24 0.87236 4.9883 0.0076263
-89.625 0.96172 1.6703e-05 -2.1206 -2.1095 0.11202 632.93 0.0015800 -2.1279 -2.1174 0.11197 1.3602 2.0793 1475.5 -0.0065595 363.05 0.15802 0.19258 5.1928 434.59 469.02 2.6791 1.0285 1.2213 201.70 0.86045 5.0154 0.0077011
-88.625 1.0357 1.7354e-05 -0.039956 -0.028055 0.12332 631.88 0.0015826 -0.047516 -0.036215 0.12328 1.3613 2.0819 1468.8 -0.0065375 357.56 0.15740 0.20633 4.8466 435.59 470.20 2.6717 1.0320 1.2250 202.15 0.84873 5.0425 0.0077761
-87.625 1.1144 1.7995e-05 2.0433 2.0561 0.13458 630.83 0.0015852 2.0355 2.0476 0.13454 1.3625 2.0846 1462.1 -0.0065153 352.21 0.15679 0.22087 4.5276 436.60 471.39 2.6643 1.0354 1.2288 202.61 0.83718 5.0696 0.0078514
-86.625 1.1979 1.8621e-05 4.1291 4.1429 0.14579 629.77 0.0015879 4.1211 4.1342 0.14575 1.3637 2.0873 1455.4 -0.0064928 346.98 0.15617 0.23623 4.2331 437.61 472.57 2.6571 1.0389 1.2325 203.06 0.82580 5.0967 0.0079270
-85.625 1.2866 1.9227e-05 6.2177 6.2325 0.15696 628.72 0.0015905 6.2094 6.2235 0.15691 1.3649 2.0900 1448.8 -0.0064701 341.87 0.15555 0.25245 3.9612 438.61 473.75 2.6501 1.0424 1.2363 203.50 0.81460 5.1237 0.0080028
-84.625 1.3806 1.9809e-05 8.3089 8.3248 0.16808 627.66 0.0015932 8.3004 8.3155 0.16803 1.3661 2.0927 1442.1 -0.0064470 336.87 0.15494 0.26956 3.7097 439.63 474.94 2.6432 1.0460 1.2402 203.95 0.80356 5.1508 0.0080789
-83.625 1.4803 2.0361e-05 10.403 10.420 0.17916 626.60 0.0015959 10.394 10.410 0.17911 1.3674 2.0955 1435.4 -0.0064236 331.99 0.15432 0.28760 3.4771 440.64 476.13 2.6364 1.0495 1.2440 204.38 0.79269 5.1778 0.0081553
-82.625 1.5858 2.0877e-05 12.500 12.518 0.19020 625.54 0.0015986 12.491 12.508 0.19014 1.3687 2.0983 1428.7 -0.0063999 327.22 0.15370 0.30659 3.2616 441.65 477.31 2.6298 1.0531 1.2479 204.82 0.78199 5.2048 0.0082319
-81.625 1.6975 2.1352e-05 14.599 14.619 0.20119 624.48 0.0016013 14.590 14.609 0.20113 1.3700 2.1012 1422.0 -0.0063759 322.55 0.15309 0.32659 3.0619 442.67 478.50 2.6233 1.0567 1.2519 205.25 0.77144 5.2318 0.0083088
-80.625 1.8155 2.1778e-05 16.701 16.722 0.21213 623.42 0.0016041 16.692 16.712 0.21208 1.3714 2.1041 1415.4 -0.0063516 317.99 0.15247 0.34763 2.8766 443.69 479.70 2.6169 1.0603 1.2558 205.67 0.76106 5.2587 0.0083860
-79.625 1.9402 2.2149e-05 18.807 18.829 0.22304 622.36 0.0016068 18.797 18.819 0.22299 1.3728 2.1070 1408.7 -0.0063270 313.52 0.15186 0.36974 2.7046 444.71 480.89 2.6106 1.0639 1.2598 206.10 0.75083 5.2857 0.0084634
-78.625 2.0718 2.2457e-05 20.915 20.938 0.23391 621.29 0.0016096 20.905 20.928 0.23385 1.3742 2.1099 1402.0 -0.0063021 309.15 0.15124 0.39296 2.5448 445.73 482.08 2.6045 1.0676 1.2639 206.51 0.74076 5.3126 0.0085411
-77.625 2.2107 2.2694e-05 23.025 23.051 0.24473 620.22 0.0016123 23.016 23.040 0.24468 1.3757 2.1129 1395.3 -0.0062768 304.88 0.15062 0.41735 2.3961 446.75 483.27 2.5985 1.0712 1.2680 206.93 0.73084 5.3395 0.0086190
-76.625 2.3571 2.2851e-05 25.139 25.166 0.25551 619.15 0.0016151 25.130 25.156 0.25546 1.3772 2.1159 1388.7 -0.0062512 300.69 0.15001 0.44292 2.2577 447.78 484.47 2.5926 1.0749 1.2721 207.34 0.72107 5.3664 0.0086972
-75.625 2.5113 2.2920e-05 27.256 27.285 0.26626 618.08 0.0016179 27.247 27.275 0.26620 1.3787 2.1190 1382.0 -0.0062253 296.59 0.14939 0.46974 2.1288 448.81 485.67 2.5869 1.0787 1.2762 207.74 0.71146 5.3933 0.0087757
-74.625 2.6736 2.2889e-05 29.376 29.407 0.27696 617.01 0.0016207 29.366 29.396 0.27691 1.3802 2.1221 1375.4 -0.0061990 292.58 0.14878 0.49783 2.0087 449.83 486.86 2.5812 1.0824 1.2804 208.14 0.70200 5.4201 0.0088544
-73.625 2.8444 2.2750e-05 31.499 31.532 0.28763 615.93 0.0016236 31.489 31.521 0.28758 1.3818 2.1252 1368.7 -0.0061724 288.65 0.14816 0.52725 1.8966 450.86 488.06 2.5757 1.0862 1.2847 208.54 0.69268 5.4469 0.0089334
-72.625 3.0240 2.2491e-05 33.625 33.660 0.29826 614.85 0.0016264 33.615 33.649 0.29821 1.3834 2.1284 1362.0 -0.0061454 284.81 0.14755 0.55804 1.7920 451.90 489.26 2.5703 1.0900 1.2889 208.93 0.68351 5.4737 0.0090126
-71.625 3.2127 2.2100e-05 35.754 35.791 0.30885 613.78 0.0016293 35.745 35.781 0.30880 1.3851 2.1316 1355.4 -0.0061181 281.03 0.14694 0.59024 1.6942 452.93 490.46 2.5650 1.0938 1.2932 209.32 0.67448 5.5005 0.0090922
-70.625 3.4108 2.1566e-05 37.886 37.925 0.31940 612.69 0.0016321 37.877 37.915 0.31935 1.3867 2.1349 1348.7 -0.0060904 277.34 0.14632 0.62390 1.6028 453.96 491.66 2.5598 1.0976 1.2976 209.70 0.66560 5.5273 0.0091720
-69.625 3.6187 2.0876e-05 40.021 40.063 0.32992 611.61 0.0016350 40.013 40.053 0.32987 1.3884 2.1382 1342.1 -0.0060624 273.72 0.14571 0.65906 1.5173 455.00 492.86 2.5547 1.1015 1.3020 210.08 0.65687 5.5540 0.0092520
-68.625 3.8367 2.0016e-05 42.160 42.204 0.34040 610.53 0.0016379 42.152 42.195 0.34036 1.3902 2.1415 1335.5 -0.0060339 270.17 0.14510 0.69577 1.4372 456.04 494.06 2.5497 1.1054 1.3064 210.45 0.64827 5.5807 0.0093324
-67.625 4.0652 1.8972e-05 44.302 44.348 0.35085 609.44 0.0016409 44.294 44.340 0.35080 1.3919 2.1449 1328.8 -0.0060051 266.69 0.14449 0.73408 1.3622 457.08 495.26 2.5448 1.1093 1.3109 210.82 0.63981 5.6074 0.0094130
-66.625 4.3046 1.7729e-05 46.447 46.496 0.36126 608.35 0.0016438 46.439 46.488 0.36122 1.3937 2.1483 1322.2 -0.0059760 263.28 0.14388 0.77404 1.2919 458.12 496.46 2.5400 1.1133 1.3154 211.18 0.63150 5.6341 0.0094939
-65.625 4.5551 1.6271e-05 48.595 48.647 0.37163 607.26 0.0016467 48.588 48.640 0.37160 1.3955 2.1518 1315.6 -0.0059464 259.93 0.14327 0.81570 1.2259 459.16 497.67 2.5353 1.1172 1.3200 211.54 0.62332 5.6608 0.0095750
-64.625 4.8173 1.4582e-05 50.746 50.802 0.38198 606.16 0.0016497 50.740 50.795 0.38195 1.3974 2.1553 1308.9 -0.0059164 256.65 0.14266 0.85910 1.1640 460.21 498.87 2.5307 1.1212 1.3246 211.89 0.61527 5.6874 0.0096564
-63.625 5.0915 1.2644e-05 52.901 52.960 0.39229 605.07 0.0016527 52.896 52.954 0.39226 1.3993 2.1588 1302.3 -0.0058861 253.42 0.14205 0.90429 1.1058 461.25 500.07 2.5262 1.1252 1.3293 212.24 0.60736 5.7140 0.0097382
-62.625 5.3781 1.0440e-05 55.060 55.121 0.40256 603.97 0.0016557 55.055 55.117 0.40254 1.4012 2.1624 1295.7 -0.0058553 250.26 0.14144 0.95134 1.0511 462.30 501.28 2.5218 1.1293 1.3340 212.58 0.59958 5.7406 0.0098201
-61.625 5.6774 7.9495e-06 57.221 57.287 0.41281 602.87 0.0016587 57.218 57.283 0.41279 1.4031 2.1660 1289.1 -0.0058241 247.16 0.14084 1.0003 0.99972 463.35 502.48 2.5175 1.1333 1.3387 212.92 0.59194 5.7672 0.0099024
-60.625 5.9899 5.1540e-06 59.387 59.455 0.42302 601.77 0.0016618 59.385 59.453 0.42301 1.4051 2.1697 1282.5 -0.0057925 244.12 0.14023 1.0512 0.95131 464.40 503.68 2.5133 1.1374 1.3435 213.26 0.58442 5.7938 0.0099850
-59.625 6.3160 2.0320e-06 61.555 61.628 0.43320 600.66 0.0016648 61.554 61.627 0.43320 1.4071 2.1734 1275.9 -0.0057605 241.13 0.13962 1.1041 0.90573 465.45 504.89 2.5091 1.1415 1.3483 213.58 0.57704 5.8203 0.010068
-58.625 74.255 undefined 63.420 64.274 0.44192 600.00 0.0016667 63.420 64.274 0.44192 1.4096 2.1753 1273.0 -0.0057476 239.25 0.13932 600.00 0.0016667 63.420 64.274 0.44192 1.4096 2.1753 1273.0 -0.0057476 239.25 0.13932
-57.625 242.60 undefined 64.831 67.619 0.44848 600.00 0.0016667 64.831 67.619 0.44848 1.4128 2.1746 1275.6 -0.0057634 238.96 0.13946 600.00 0.0016667 64.831 67.619 0.44848 1.4128 2.1746 1275.6 -0.0057634 238.96 0.13946
-56.625 410.69 undefined 66.246 70.965 0.45503 600.00 0.0016667 66.246 70.965 0.45503 1.4160 2.1739 1278.2 -0.0057788 238.68 0.13960 600.00 0.0016667 66.246 70.965 0.45503 1.4160 2.1739 1278.2 -0.0057788 238.68 0.13960
-55.625 578.51 undefined 67.664 74.311 0.46156 600.00 0.0016667 67.664 74.311 0.46156 1.4193 2.1733 1280.8 -0.0057936 238.40 0.13974 600.00 0.0016667 67.664 74.311 0.46156 1.4193 2.1733 1280.8 -0.0057936 238.40 0.13974
-54.625 746.08 undefined 69.084 77.658 0.46808 600.00 0.0016667 69.084 77.658 0.46808 1.4225 2.1727 1283.4 -0.0058081 238.12 0.13988 600.00 0.0016667 69.084 77.658 0.46808 1.4225 2.1727 1283.4 -0.0058081 238.12 0.13988
-53.625 913.39 undefined 70.509 81.005 0.47458 600.00 0.0016667 70.509 81.005 0.47458 1.4258 2.1723 1285.9 -0.0058221 237.85 0.14002 600.00 0.0016667 70.509 81.005 0.47458 1.4258 2.1723 1285.9 -0.0058221 237.85 0.14002
-52.625 1080.4 undefined 71.936 84.352 0.48107 600.00 0.0016667 71.936 84.352 0.48107 1.4291 2.1719 1288.5 -0.0058357 237.58 0.14016 600.00 0.0016667 71.936 84.352 0.48107 1.4291 2.1719 1288.5 -0.0058357 237.58 0.14016
-51.625 1247.2 undefined 73.367 87.699 0.48754 600.00 0.0016667 73.367 87.699 0.48754 1.4324 2.1716 1291.0 -0.0058489 237.31 0.14030 600.00 0.0016667 73.367 87.699 0.48754 1.4324 2.1716 1291.0 -0.0058489 237.31 0.14030
-50.625 1413.8 undefined 74.801 91.047 0.49400 600.00 0.0016667 74.801 91.047 0.49400 1.4357 2.1713 1293.5 -0.0058616 237.05 0.14044 600.00 0.0016667 74.801 91.047 0.49400 1.4357 2.1713 1293.5 -0.0058616 237.05 0.14044
-49.625 1580.1 undefined 76.238 94.396 0.50044 600.00 0.0016667 76.238 94.396 0.50044 1.4390 2.1712 1296.0 -0.0058740 236.79 0.14058 600.00 0.0016667 76.238 94.396 0.50044 1.4390 2.1712 1296.0 -0.0058740 236.79 0.14058
-48.625 1746.1 undefined 77.679 97.744 0.50687 600.00 0.0016667 77.679 97.744 0.50687 1.4424 2.1711 1298.5 -0.0058860 236.53 0.14072 600.00 0.0016667 77.679 97.744 0.50687 1.4424 2.1711 1298.5 -0.0058860 236.53 0.14072
-47.625 1911.9 undefined 79.123 101.09 0.51329 600.00 0.0016667 79.123 101.09 0.51329 1.4457 2.1710 1300.9 -0.0058976 236.27 0.14086 600.00 0.0016667 79.123 101.09 0.51329 1.4457 2.1710 1300.9 -0.0058976 236.27 0.14086
-46.625 2077.5 undefined 80.570 104.44 0.51969 600.00 0.0016667 80.570 104.44 0.51969 1.4491 2.1711 1303.3 -0.0059088 236.02 0.14101 600.00 0.0016667 80.570 104.44 0.51969 1.4491 2.1711 1303.3 -0.0059088 236.02 0.14101
-45.625 2242.8 undefined 82.021 107.79 0.52608 600.00 0.0016667 82.021 107.79 0.52608 1.4524 2.1711 1305.8 -0.0059197 235.77 0.14115 600.00 0.0016667 82.021 107.79 0.52608 1.4524 2.1711 1305.8 -0.0059197 235.77 0.14115
-44.625 2407.9 undefined 83.475 111.14 0.53246 600.00 0.0016667 83.475 111.14 0.53246 1.4558 2.1713 1308.2 -0.0059302 235.53 0.14129 600.00 0.0016667 83.475 111.14 0.53246 1.4558 2.1713 1308.2 -0.0059302 235.53 0.14129
-43.625 2572.7 undefined 84.933 114.50 0.53883 600.00 0.0016667 84.933 114.50 0.53883 1.4592 2.1715 1310.5 -0.0059403 235.29 0.14144 600.00 0.0016667 84.933 114.50 0.53883 1.4592 2.1715 1310.5 -0.0059403 235.29 0.14144
-42.625 2737.2 undefined 86.394 117.85 0.54518 600.00 0.0016667 86.394 117.85 0.54518 1.4626 2.1718 1312.9 -0.0059502 235.04 0.14158 600.00 0.0016667 86.394 117.85 0.54518 1.4626 2.1718 1312.9 -0.0059502 235.04 0.14158
-41.625 2901.6 undefined 87.858 121.20 0.55152 600.00 0.0016667 87.858 121.20 0.55152 1.4661 2.1721 1315.3 -0.0059596 234.81 0.14172 600.00 0.0016667 87.858 121.20 0.55152 1.4661 2.1721 1315.3 -0.0059596 234.81 0.14172
-40.625 3065.7 undefined 89.326 124.55 0.55784 600.00 0.0016667 89.326 124.55 0.55784 1.4695 2.1725 1317.6 -0.0059688 234.57 0.14187 600.00 0.0016667 89.326 124.55 0.55784 1.4695 2.1725 1317.6 -0.0059688 234.57 0.14187
-39.625 3229.5 undefined 90.797 127.91 0.56416 600.00 0.0016667 90.797 127.91 0.56416 1.4730 2.1729 1319.9 -0.0059776 234.34 0.14201 600.00 0.0016667 90.797 127.91 0.56416 1.4730 2.1729 1319.9 -0.0059776 234.34 0.14201
-38.625 3393.1 undefined 92.272 131.26 0.57046 600.00 0.0016667 92.272 131.26 0.57046 1.4764 2.1734 1322.2 -0.0059862 234.11 0.14216 600.00 0.0016667 92.272 131.26 0.57046 1.4764 2.1734 1322.2 -0.0059862 234.11 0.14216
-37.625 3556.5 undefined 93.750 134.62 0.57675 600.00 0.0016667 93.750 134.62 0.57675 1.4799 2.1740 1324.5 -0.0059944 233.89 0.14230 600.00 0.0016667 93.750 134.62 0.57675 1.4799 2.1740 1324.5 -0.0059944 233.89 0.14230
-36.625 3719.6 undefined 95.232 137.97 0.58302 600.00 0.0016667 95.232 137.97 0.58302 1.4834 2.1746 1326.8 -0.0060023 233.66 0.14245 600.00 0.0016667 95.232 137.97 0.58302 1.4834 2.1746 1326.8 -0.0060023 233.66 0.14245
-35.625 3882.5 undefined 96.717 141.33 0.58929 600.00 0.0016667 96.717 141.33 0.58929 1.4870 2.1752 1329.0 -0.0060099 233.44 0.14259 600.00 0.0016667 96.717 141.33 0.58929 1.4870 2.1752 1329.0 -0.0060099 233.44 0.14259
-34.625 4045.2 undefined 98.205 144.69 0.59554 600.00 0.0016667 98.205 144.69 0.59554 1.4905 2.1760 1331.2 -0.0060172 233.22 0.14274 600.00 0.0016667 98.205 144.69 0.59554 1.4905 2.1760 1331.2 -0.0060172 233.22 0.14274
-33.625 4207.6 undefined 99.698 148.05 0.60179 600.00 0.0016667 99.698 148.05 0.60179 1.4940 2.1767 1333.5 -0.0060242 233.01 0.14288 600.00 0.0016667 99.698 148.05 0.60179 1.4940 2.1767 1333.5 -0.0060242 233.01 0.14288
-32.625 4369.8 undefined 101.19 151.41 0.60802 600.00 0.0016667 101.19 151.41 0.60802 1.4976 2.1775 1335.7 -0.0060310 232.79 0.14303 600.00 0.0016667 101.19 151.41 0.60802 1.4976 2.1775 1335.7 -0.0060310 232.79 0.14303
-31.625 4531.7 undefined 102.69 154.77 0.61424 600.00 0.0016667 102.69 154.77 0.61424 1.5012 2.1784 1337.9 -0.0060375 232.58 0.14318 600.00 0.0016667 102.69 154.77 0.61424 1.5012 2.1784 1337.9 -0.0060375 232.58 0.14318
-30.625 4693.4 undefined 104.20 158.13 0.62045 600.00 0.0016667 104.20 158.13 0.62045 1.5048 2.1793 1340.0 -0.0060437 232.37 0.14332 600.00 0.0016667 104.20 158.13 0.62045 1.5048 2.1793 1340.0 -0.0060437 232.37 0.14332
-29.625 4854.9 undefined 105.70 161.49 0.62665 600.00 0.0016667 105.70 161.49 0.62665 1.5084 2.1803 1342.2 -0.0060496 232.17 0.14347 600.00 0.0016667 105.70 161.49 0.62665 1.5084 2.1803 1342.2 -0.0060496 232.17 0.14347
-28.625 5016.2 undefined 107.21 164.85 0.63284 600.00 0.0016667 107.21 164.85 0.63284 1.5120 2.1813 1344.3 -0.0060553 231.96 0.14362 600.00 0.0016667 107.21 164.85 0.63284 1.5120 2.1813 1344.3 -0.0060553 231.96 0.14362
-27.625 5177.2 undefined 108.73 168.22 0.63902 600.00 0.0016667 108.73 168.22 0.63902 1.5157 2.1823 1346.5 -0.0060608 231.76 0.14377 600.00 0.0016667 108.73 168.22 0.63902 1.5157 2.1823 1346.5 -0.0060608 231.76 0.14377
-26.625 5338.0 undefined 110.24 171.58 0.64518 600.00 0.0016667 110.24 171.58 0.64518 1.5193 2.1834 1348.6 -0.0060659 231.56 0.14391 600.00 0.0016667 110.24 171.58 0.64518 1.5193 2.1834 1348.6 -0.0060659 231.56 0.14391
-25.625 5498.5 undefined 111.77 174.95 0.65134 600.00 0.0016667 111.77 174.95 0.65134 1.5230 2.1846 1350.7 -0.0060709 231.36 0.14406 600.00 0.0016667 111.77 174.95 0.65134 1.5230 2.1846 1350.7 -0.0060709 231.36 0.14406
-24.625 5658.9 undefined 113.29 178.32 0.65749 600.00 0.0016667 113.29 178.32 0.65749 1.5267 2.1858 1352.8 -0.0060756 231.17 0.14421 600.00 0.0016667 113.29 178.32 0.65749 1.5267 2.1858 1352.8 -0.0060756 231.17 0.14421
-23.625 5819.0 undefined 114.82 181.69 0.66363 600.00 0.0016667 114.82 181.69 0.66363 1.5304 2.1870 1354.9 -0.0060800 230.98 0.14436 600.00 0.0016667 114.82 181.69 0.66363 1.5304 2.1870 1354.9 -0.0060800 230.98 0.14436
-22.625 5978.9 undefined 116.35 185.06 0.66976 600.00 0.0016667 116.35 185.06 0.66976 1.5341 2.1883 1356.9 -0.0060843 230.79 0.14451 600.00 0.0016667 116.35 185.06 0.66976 1.5341 2.1883 1356.9 -0.0060843 230.79 0.14451
-21.625 6138.5 undefined 117.89 188.43 0.67588 600.00 0.0016667 117.89 188.43 0.67588 1.5378 2.1896 1359.0 -0.0060883 230.60 0.14466 600.00 0.0016667 117.89 188.43 0.67588 1.5378 2.1896 1359.0 -0.0060883 230.60 0.14466
-20.625 6297.9 undefined 119.43 191.80 0.68199 600.00 0.0016667 119.43 191.80 0.68199 1.5416 2.1910 1361.0 -0.0060920 230.41 0.14481 600.00 0.0016667 119.43 191.80 0.68199 1.5416 2.1910 1361.0 -0.0060920 230.41 0.14481
-19.625 6457.1 undefined 120.97 195.17 0.68809 600.00 0.0016667 120.97 195.17 0.68809 1.5454 2.1924 1363.0 -0.0060956 230.23 0.14496 600.00 0.0016667 120.97 195.17 0.68809 1.5454 2.1924 1363.0 -0.0060956 230.23 0.14496
-18.625 6616.1 undefined 122.52 198.54 0.69418 600.00 0.0016667 122.52 198.54 0.69418 1.5491 2.1938 1365.0 -0.0060989 230.05 0.14511 600.00 0.0016667 122.52 198.54 0.69418 1.5491 2.1938 1365.0 -0.0060989 230.05 0.14511
-17.625 6774.9 undefined 124.07 201.92 0.70026 600.00 0.0016667 124.07 201.92 0.70026 1.5529 2.1953 1367.0 -0.0061021 229.87 0.14526 600.00 0.0016667 124.07 201.92 0.70026 1.5529 2.1953 1367.0 -0.0061021 229.87 0.14526
-16.625 6933.4 undefined 125.62 205.30 0.70633 600.00 0.0016667 125.62 205.30 0.70633 1.5567 2.1968 1369.0 -0.0061050 229.69 0.14541 600.00 0.0016667 125.62 205.30 0.70633 1.5567 2.1968 1369.0 -0.0061050 229.69 0.14541
-15.625 7091.7 undefined 127.18 208.67 0.71240 600.00 0.0016667 127.18 208.67 0.71240 1.5606 2.1984 1371.0 -0.0061077 229.51 0.14556 600.00 0.0016667 127.18 208.67 0.71240 1.5606 2.1984 1371.0 -0.0061077 229.51 0.14556
-14.625 7249.8 undefined 128.74 212.05 0.71845 600.00 0.0016667 128.74 212.05 0.71845 1.5644 2.2000 1373.0 -0.0061102 229.34 0.14571 600.00 0.0016667 128.74 212.05 0.71845 1.5644 2.2000 1373.0 -0.0061102 229.34 0.14571
-13.625 7407.7 undefined 130.31 215.43 0.72450 600.00 0.0016667 130.31 215.43 0.72450 1.5682 2.2016 1374.9 -0.0061125 229.17 0.14587 600.00 0.0016667 130.31 215.43 0.72450 1.5682 2.2016 1374.9 -0.0061125 229.17 0.14587
-12.625 7565.3 undefined 131.88 218.82 0.73054 600.00 0.0016667 131.88 218.82 0.73054 1.5721 2.2033 1376.8 -0.0061147 229.00 0.14602 600.00 0.0016667 131.88 218.82 0.73054 1.5721 2.2033 1376.8 -0.0061147 229.00 0.14602
-11.625 7722.7 undefined 133.45 222.20 0.73657 600.00 0.0016667 133.45 222.20 0.73657 1.5760 2.2050 1378.8 -0.0061166 228.83 0.14617 600.00 0.0016667 133.45 222.20 0.73657 1.5760 2.2050 1378.8 -0.0061166 228.83 0.14617
-10.625 7879.9 undefined 135.03 225.58 0.74259 600.00 0.0016667 135.03 225.58 0.74259 1.5799 2.2067 1380.7 -0.0061183 228.66 0.14632 600.00 0.0016667 135.03 225.58 0.74259 1.5799 2.2067 1380.7 -0.0061183 228.66 0.14632
-9.6250 8036.9 undefined 136.61 228.97 0.74860 600.00 0.0016667 136.61 228.97 0.74860 1.5838 2.2085 1382.6 -0.0061199 228.50 0.14648 600.00 0.0016667 136.61 228.97 0.74860 1.5838 2.2085 1382.6 -0.0061199 228.50 0.14648
-8.6250 8193.7 undefined 138.20 232.36 0.75461 600.00 0.0016667 138.20 232.36 0.75461 1.5877 2.2103 1384.5 -0.0061213 228.34 0.14663 600.00 0.0016667 138.20 232.36 0.75461 1.5877 2.2103 1384.5 -0.0061213 228.34 0.14663
-7.6250 8350.2 undefined 139.79 235.74 0.76061 600.00 0.0016667 139.79 235.74 0.76061 1.5916 2.2122 1386.4 -0.0061225 228.18 0.14678 600.00 0.0016667 139.79 235.74 0.76061 1.5916 2.2122 1386.4 -0.0061225 228.18 0.14678
-6.6250 8506.6 undefined 141.38 239.13 0.76660 600.00 0.0016667 141.38 239.13 0.76660 1.5955 2.2141 1388.2 -0.0061236 228.02 0.14694 600.00 0.0016667 141.38 239.13 0.76660 1.5955 2.2141 1388.2 -0.0061236 228.02 0.14694
-5.6250 8662.7 undefined 142.98 242.53 0.77258 600.00 0.0016667 142.98 242.53 0.77258 1.5995 2.2160 1390.1 -0.0061245 227.86 0.14709 600.00 0.0016667 142.98 242.53 0.77258 1.5995 2.2160 1390.1 -0.0061245 227.86 0.14709
-4.6250 8818.6 undefined 144.58 245.92 0.77855 600.00 0.0016667 144.58 245.92 0.77855 1.6035 2.2179 1392.0 -0.0061252 227.71 0.14725 600.00 0.0016667 144.58 245.92 0.77855 1.6035 2.2179 1392.0 -0.0061252 227.71 0.14725
-3.6250 8974.3 undefined 146.19 249.31 0.78452 600.00 0.0016667 146.19 249.31 0.78452 1.6074 2.2199 1393.8 -0.0061257 227.55 0.14740 600.00 0.0016667 146.19 249.31 0.78452 1.6074 2.2199 1393.8 -0.0061257 227.55 0.14740
-2.6250 9129.8 undefined 147.80 252.71 0.79048 600.00 0.0016667 147.80 252.71 0.79048 1.6114 2.2219 1395.6 -0.0061261 227.40 0.14756 600.00 0.0016667 147.80 252.71 0.79048 1.6114 2.2219 1395.6 -0.0061261 227.40 0.14756
-1.6250 9285.1 undefined 149.41 256.11 0.79644 600.00 0.0016667 149.41 256.11 0.79644 1.6154 2.2240 1397.5 -0.0061263 227.25 0.14771 600.00 0.0016667 149.41 256.11 0.79644 1.6154 2.2240 1397.5 -0.0061263 227.25 0.14771
-0.62500 9440.1 undefined 151.03 259.51 0.80238 600.00 0.0016667 151.03 259.51 0.80238 1.6194 2.2260 1399.3 -0.0061264 227.10 0.14787 600.00 0.0016667 151.03 259.51 0.80238 1.6194 2.2260 1399.3 -0.0061264 227.10 0.14787
0.37500 9595.0 undefined 152.65 262.91 0.80832 600.00 0.0016667 152.65 262.91 0.80832 1.6235 2.2281 1401.1 -0.0061263 226.96 0.14802 600.00 0.0016667 152.65 262.91 0.80832 1.6235 2.2281 1401.1 -0.0061263 226.96 0.14802
1.3750 9749.6 undefined 154.28 266.31 0.81425 600.00 0.0016667 154.28 266.31 0.81425 1.6275 2.2303 1402.9 -0.0061261 226.81 0.14818 600.00 0.0016667 154.28 266.31 0.81425 1.6275 2.2303 1402.9 -0.0061261 226.81 0.14818
2.3750 9904.0 undefined 155.90 269.71 0.82018 600.00 0.0016667 155.90 269.71 0.82018 1.6315 2.2324 1404.7 -0.0061258 226.67 0.14834 600.00 0.0016667 155.90 269.71 0.82018 1.6315 2.2324 1404.7 -0.0061258 226.67 0.14834
3.3750 10058. undefined 157.54 273.12 0.82609 600.00 0.0016667 157.54 273.12 0.82609 1.6356 2.2346 1406.5 -0.0061252 226.52 0.14849 600.00 0.0016667 157.54 273.12 0.82609 1.6356 2.2346 1406.5 -0.0061252 226.52 0.14849
4.3750 10212. undefined 159.18 276.53 0.83201 600.00 0.0016667 159.18 276.53 0.83201 1.6396 2.2369 1408.2 -0.0061246 226.38 0.14865 600.00 0.0016667 159.18 276.53 0.83201 1.6396 2.2369 1408.2 -0.0061246 226.38 0.14865
5.3750 10366. undefined 160.82 279.94 0.83791 600.00 0.0016667 160.82 279.94 0.83791 1.6437 2.2391 1410.0 -0.0061238 226.25 0.14881 600.00 0.0016667 160.82 279.94 0.83791 1.6437 2.2391 1410.0 -0.0061238 226.25 0.14881
6.3750 10520. undefined 162.46 283.35 0.84381 600.00 0.0016667 162.46 283.35 0.84381 1.6478 2.2414 1411.7 -0.0061229 226.11 0.14897 600.00 0.0016667 162.46 283.35 0.84381 1.6478 2.2414 1411.7 -0.0061229 226.11 0.14897
7.3750 10673. undefined 164.11 286.76 0.84970 600.00 0.0016667 164.11 286.76 0.84970 1.6519 2.2437 1413.5 -0.0061219 225.97 0.14913 600.00 0.0016667 164.11 286.76 0.84970 1.6519 2.2437 1413.5 -0.0061219 225.97 0.14913
8.3750 10826. undefined 165.77 290.17 0.85559 600.00 0.0016667 165.77 290.17 0.85559 1.6560 2.2460 1415.2 -0.0061207 225.84 0.14928 600.00 0.0016667 165.77 290.17 0.85559 1.6560 2.2460 1415.2 -0.0061207 225.84 0.14928
9.3750 10979. undefined 167.42 293.59 0.86147 600.00 0.0016667 167.42 293.59 0.86147 1.6601 2.2484 1417.0 -0.0061194 225.70 0.14944 600.00 0.0016667 167.42 293.59 0.86147 1.6601 2.2484 1417.0 -0.0061194 225.70 0.14944
10.375 11132. undefined 169.09 297.01 0.86734 600.00 0.0016667 169.09 297.01 0.86734 1.6642 2.2508 1418.7 -0.0061179 225.57 0.14960 600.00 0.0016667 169.09 297.01 0.86734 1.6642 2.2508 1418.7 -0.0061179 225.57 0.14960
11.375 11285. undefined 170.75 300.43 0.87321 600.00 0.0016667 170.75 300.43 0.87321 1.6684 2.2532 1420.4 -0.0061164 225.44 0.14976 600.00 0.0016667 170.75 300.43 0.87321 1.6684 2.2532 1420.4 -0.0061164 225.44 0.14976
12.375 11437. undefined 172.42 303.85 0.87907 600.00 0.0016667 172.42 303.85 0.87907 1.6725 2.2556 1422.1 -0.0061147 225.31 0.14992 600.00 0.0016667 172.42 303.85 0.87907 1.6725 2.2556 1422.1 -0.0061147 225.31 0.14992
13.375 11589. undefined 174.10 307.27 0.88492 600.00 0.0016667 174.10 307.27 0.88492 1.6767 2.2580 1423.8 -0.0061129 225.19 0.15008 600.00 0.0016667 174.10 307.27 0.88492 1.6767 2.2580 1423.8 -0.0061129 225.19 0.15008
14.375 11741. undefined 175.78 310.70 0.89077 600.00 0.0016667 175.78 310.70 0.89077 1.6808 2.2605 1425.5 -0.0061110 225.06 0.15024 600.00 0.0016667 175.78 310.70 0.89077 1.6808 2.2605 1425.5 -0.0061110 225.06 0.15024
15.375 11893. undefined 177.46 314.13 0.89661 600.00 0.0016667 177.46 314.13 0.89661 1.6850 2.2630 1427.2 -0.0061090 224.94 0.15040 600.00 0.0016667 177.46 314.13 0.89661 1.6850 2.2630 1427.2 -0.0061090 224.94 0.15040
16.375 12045. undefined 179.15 317.55 0.90245 600.00 0.0016667 179.15 317.55 0.90245 1.6892 2.2656 1428.8 -0.0061069 224.81 0.15056 600.00 0.0016667 179.15 317.55 0.90245 1.6892 2.2656 1428.8 -0.0061069 224.81 0.15056
17.375 12196. undefined 180.84 320.99 0.90828 600.00 0.0016667 180.84 320.99 0.90828 1.6933 2.2681 1430.5 -0.0061047 224.69 0.15072 600.00 0.0016667 180.84 320.99 0.90828 1.6933 2.2681 1430.5 -0.0061047 224.69 0.15072
18.375 12347. undefined 182.53 324.42 0.91411 600.00 0.0016667 182.53 324.42 0.91411 1.6975 2.2707 1432.2 -0.0061024 224.57 0.15088 600.00 0.0016667 182.53 324.42 0.91411 1.6975 2.2707 1432.2 -0.0061024 224.57 0.15088
19.375 12498. undefined 184.23 327.85 0.91993 600.00 0.0016667 184.23 327.85 0.91993 1.7017 2.2733 1433.8 -0.0060999 224.45 0.15105 600.00 0.0016667 184.23 327.85 0.91993 1.7017 2.2733 1433.8 -0.0060999 224.45 0.15105
20.375 12649. undefined 185.94 331.29 0.92574 600.00 0.0016667 185.94 331.29 0.92574 1.7059 2.2759 1435.5 -0.0060974 224.33 0.15121 600.00 0.0016667 185.94 331.29 0.92574 1.7059 2.2759 1435.5 -0.0060974 224.33 0.15121
21.375 12800. undefined 187.65 334.73 0.93155 600.00 0.0016667 187.65 334.73 0.93155 1.7101 2.2785 1437.1 -0.0060948 224.22 0.15137 600.00 0.0016667 187.65 334.73 0.93155 1.7101 2.2785 1437.1 -0.0060948 224.22 0.15137
22.375 12950. undefined 189.36 338.17 0.93735 600.00 0.0016667 189.36 338.17 0.93735 1.7144 2.2812 1438.8 -0.0060920 224.10 0.15153 600.00 0.0016667 189.36 338.17 0.93735 1.7144 2.2812 1438.8 -0.0060920 224.10 0.15153
23.375 13100. undefined 191.07 341.61 0.94315 600.00 0.0016667 191.07 341.61 0.94315 1.7186 2.2839 1440.4 -0.0060892 223.99 0.15169 600.00 0.0016667 191.07 341.61 0.94315 1.7186 2.2839 1440.4 -0.0060892 223.99 0.15169
24.375 13250. undefined 192.79 345.06 0.94895 600.00 0.0016667 192.79 345.06 0.94895 1.7228 2.2866 1442.0 -0.0060863 223.87 0.15186 600.00 0.0016667 192.79 345.06 0.94895 1.7228 2.2866 1442.0 -0.0060863 223.87 0.15186
25.375 13400. undefined 194.52 348.50 0.95473 600.00 0.0016667 194.52 348.50 0.95473 1.7271 2.2893 1443.6 -0.0060833 223.76 0.15202 600.00 0.0016667 194.52 348.50 0.95473 1.7271 2.2893 1443.6 -0.0060833 223.76 0.15202
26.375 13550. undefined 196.25 351.95 0.96052 600.00 0.0016667 196.25 351.95 0.96052 1.7313 2.2920 1445.2 -0.0060802 223.65 0.15218 600.00 0.0016667 196.25 351.95 0.96052 1.7313 2.2920 1445.2 -0.0060802 223.65 0.15218
27.375 13699. undefined 197.98 355.40 0.96629 600.00 0.0016667 197.98 355.40 0.96629 1.7356 2.2948 1446.9 -0.0060770 223.54 0.15235 600.00 0.0016667 197.98 355.40 0.96629 1.7356 2.2948 1446.9 -0.0060770 223.54 0.15235
28.375 13848. undefined 199.72 358.86 0.97207 600.00 0.0016667 199.72 358.86 0.97207 1.7398 2.2975 1448.5 -0.0060737 223.43 0.15251 600.00 0.0016667 199.72 358.86 0.97207 1.7398 2.2975 1448.5 -0.0060737 223.43 0.15251
29.375 13998. undefined 201.46 362.31 0.97783 600.00 0.0016667 201.46 362.31 0.97783 1.7441 2.3003 1450.0 -0.0060704 223.33 0.15268 600.00 0.0016667 201.46 362.31 0.97783 1.7441 2.3003 1450.0 -0.0060704 223.33 0.15268
30.375 14146. undefined 203.21 365.77 0.98360 600.00 0.0016667 203.21 365.77 0.98360 1.7483 2.3031 1451.6 -0.0060670 223.22 0.15284 600.00 0.0016667 203.21 365.77 0.98360 1.7483 2.3031 1451.6 -0.0060670 223.22 0.15284
31.375 14295. undefined 204.96 369.23 0.98935 600.00 0.0016667 204.96 369.23 0.98935 1.7526 2.3060 1453.2 -0.0060635 223.12 0.15301 600.00 0.0016667 204.96 369.23 0.98935 1.7526 2.3060 1453.2 -0.0060635 223.12 0.15301
32.375 14444. undefined 206.71 372.69 0.99511 600.00 0.0016667 206.71 372.69 0.99511 1.7569 2.3088 1454.8 -0.0060599 223.01 0.15317 600.00 0.0016667 206.71 372.69 0.99511 1.7569 2.3088 1454.8 -0.0060599 223.01 0.15317
33.375 14592. undefined 208.47 376.15 1.0009 600.00 0.0016667 208.47 376.15 1.0009 1.7612 2.3117 1456.4 -0.0060562 222.91 0.15334 600.00 0.0016667 208.47 376.15 1.0009 1.7612 2.3117 1456.4 -0.0060562 222.91 0.15334
34.375 14740. undefined 210.24 379.62 1.0066 600.00 0.0016667 210.24 379.62 1.0066 1.7655 2.3146 1457.9 -0.0060525 222.81 0.15350 600.00 0.0016667 210.24 379.62 1.0066 1.7655 2.3146 1457.9 -0.0060525 222.81 0.15350
35.375 14888. undefined 212.00 383.09 1.0123 600.00 0.0016667 212.00 383.09 1.0123 1.7698 2.3175 1459.5 -0.0060487 222.71 0.15367 600.00 0.0016667 212.00 383.09 1.0123 1.7698 2.3175 1459.5 -0.0060487 222.71 0.15367
36.375 15036. undefined 213.78 386.56 1.0181 600.00 0.0016667 213.78 386.56 1.0181 1.7741 2.3204 1461.0 -0.0060448 222.61 0.15384 600.00 0.0016667 213.78 386.56 1.0181 1.7741 2.3204 1461.0 -0.0060448 222.61 0.15384
37.375 15184. undefined 215.55 390.03 1.0238 600.00 0.0016667 215.55 390.03 1.0238 1.7784 2.3233 1462.6 -0.0060408 222.51 0.15400 600.00 0.0016667 215.55 390.03 1.0238 1.7784 2.3233 1462.6 -0.0060408 222.51 0.15400
38.375 15331. undefined 217.33 393.50 1.0295 600.00 0.0016667 217.33 393.50 1.0295 1.7827 2.3263 1464.1 -0.0060368 222.41 0.15417 600.00 0.0016667 217.33 393.50 1.0295 1.7827 2.3263 1464.1 -0.0060368 222.41 0.15417
39.375 15478. undefined 219.12 396.98 1.0352 600.00 0.0016667 219.12 396.98 1.0352 1.7870 2.3292 1465.7 -0.0060327 222.32 0.15434 600.00 0.0016667 219.12 396.98 1.0352 1.7870 2.3292 1465.7 -0.0060327 222.32 0.15434
40.375 15625. undefined 220.91 400.46 1.0410 600.00 0.0016667 220.91 400.46 1.0410 1.7913 2.3322 1467.2 -0.0060286 222.22 0.15451 600.00 0.0016667 220.91 400.46 1.0410 1.7913 2.3322 1467.2 -0.0060286 222.22 0.15451
41.375 15772. undefined 222.70 403.94 1.0467 600.00 0.0016667 222.70 403.94 1.0467 1.7956 2.3352 1468.7 -0.0060244 222.13 0.15467 600.00 0.0016667 222.70 403.94 1.0467 1.7956 2.3352 1468.7 -0.0060244 222.13 0.15467
42.375 15919. undefined 224.50 407.43 1.0524 600.00 0.0016667 224.50 407.43 1.0524 1.8000 2.3382 1470.3 -0.0060201 222.04 0.15484 600.00 0.0016667 224.50 407.43 1.0524 1.8000 2.3382 1470.3 -0.0060201 222.04 0.15484
43.375 16065. undefined 226.30 410.91 1.0581 600.00 0.0016667 226.30 410.91 1.0581 1.8043 2.3412 1471.8 -0.0060158 221.94 0.15501 600.00 0.0016667 226.30 410.91 1.0581 1.8043 2.3412 1471.8 -0.0060158 221.94 0.15501
44.375 16212. undefined 228.11 414.40 1.0638 600.00 0.0016667 228.11 414.40 1.0638 1.8086 2.3443 1473.3 -0.0060114 221.85 0.15518 600.00 0.0016667 228.11 414.40 1.0638 1.8086 2.3443 1473.3 -0.0060114 221.85 0.15518
45.375 16358. undefined 229.92 417.89 1.0695 600.00 0.0016667 229.92 417.89 1.0695 1.8130 2.3473 1474.8 -0.0060070 221.76 0.15535 600.00 0.0016667 229.92 417.89 1.0695 1.8130 2.3473 1474.8 -0.0060070 221.76 0.15535
46.375 16504. undefined 231.73 421.38 1.0752 600.00 0.0016667 231.73 421.38 1.0752 1.8173 2.3504 1476.3 -0.0060025 221.67 0.15552 600.00 0.0016667 231.73 421.38 1.0752 1.8173 2.3504 1476.3 -0.0060025 221.67 0.15552
47.375 16650. undefined 233.55 424.88 1.0808 600.00 0.0016667 233.55 424.88 1.0808 1.8216 2.3535 1477.8 -0.0059979 221.58 0.15569 600.00 0.0016667 233.55 424.88 1.0808 1.8216 2.3535 1477.8 -0.0059979 221.58 0.15569
48.375 16795. undefined 235.38 428.38 1.0865 600.00 0.0016667 235.38 428.38 1.0865 1.8260 2.3565 1479.3 -0.0059933 221.50 0.15586 600.00 0.0016667 235.38 428.38 1.0865 1.8260 2.3565 1479.3 -0.0059933 221.50 0.15586
49.375 16941. undefined 237.20 431.88 1.0922 600.00 0.0016667 237.20 431.88 1.0922 1.8303 2.3596 1480.8 -0.0059887 221.41 0.15603 600.00 0.0016667 237.20 431.88 1.0922 1.8303 2.3596 1480.8 -0.0059887 221.41 0.15603
50.375 17086. undefined 239.04 435.38 1.0979 600.00 0.0016667 239.04 435.38 1.0979 1.8347 2.3628 1482.3 -0.0059840 221.32 0.15620 600.00 0.0016667 239.04 435.38 1.0979 1.8347 2.3628 1482.3 -0.0059840 221.32 0.15620
51.375 17231. undefined 240.87 438.88 1.1035 600.00 0.0016667 240.87 438.88 1.1035 1.8390 2.3659 1483.8 -0.0059792 221.24 0.15637 600.00 0.0016667 240.87 438.88 1.1035 1.8390 2.3659 1483.8 -0.0059792 221.24 0.15637
52.375 17376. undefined 242.71 442.39 1.1092 600.00 0.0016667 242.71 442.39 1.1092 1.8434 2.3690 1485.2 -0.0059744 221.16 0.15654 600.00 0.0016667 242.71 442.39 1.1092 1.8434 2.3690 1485.2 -0.0059744 221.16 0.15654
53.375 17521. undefined 244.56 445.90 1.1149 600.00 0.0016667 244.56 445.90 1.1149 1.8477 2.3722 1486.7 -0.0059696 221.07 0.15671 600.00 0.0016667 244.56 445.90 1.1149 1.8477 2.3722 1486.7 -0.0059696 221.07 0.15671
54.375 17666. undefined 246.41 449.41 1.1205 600.00 0.0016667 246.41 449.41 1.1205 1.8521 2.3753 1488.2 -0.0059647 220.99 0.15689 600.00 0.0016667 246.41 449.41 1.1205 1.8521 2.3753 1488.2 -0.0059647 220.99 0.15689
55.375 17810. undefined 248.26 452.93 1.1262 600.00 0.0016667 248.26 452.93 1.1262 1.8565 2.3785 1489.6 -0.0059597 220.91 0.15706 600.00 0.0016667 248.26 452.93 1.1262 1.8565 2.3785 1489.6 -0.0059597 220.91 0.15706
56.375 17954. undefined 250.12 456.44 1.1318 600.00 0.0016667 250.12 456.44 1.1318 1.8608 2.3817 1491.1 -0.0059547 220.83 0.15723 600.00 0.0016667 250.12 456.44 1.1318 1.8608 2.3817 1491.1 -0.0059547 220.83 0.15723
57.375 18099. undefined 251.99 459.96 1.1375 600.00 0.0016667 251.99 459.96 1.1375 1.8652 2.3849 1492.6 -0.0059497 220.75 0.15740 600.00 0.0016667 251.99 459.96 1.1375 1.8652 2.3849 1492.6 -0.0059497 220.75 0.15740
58.375 18243. undefined 253.85 463.48 1.1431 600.00 0.0016667 253.85 463.48 1.1431 1.8696 2.3881 1494.0 -0.0059447 220.67 0.15758 600.00 0.0016667 253.85 463.48 1.1431 1.8696 2.3881 1494.0 -0.0059447 220.67 0.15758
59.375 18386. undefined 255.72 467.01 1.1488 600.00 0.0016667 255.72 467.01 1.1488 1.8739 2.3913 1495.5 -0.0059396 220.59 0.15775 600.00 0.0016667 255.72 467.01 1.1488 1.8739 2.3913 1495.5 -0.0059396 220.59 0.15775
60.375 18530. undefined 257.60 470.53 1.1544 600.00 0.0016667 257.60 470.53 1.1544 1.8783 2.3945 1496.9 -0.0059344 220.52 0.15792 600.00 0.0016667 257.60 470.53 1.1544 1.8783 2.3945 1496.9 -0.0059344 220.52 0.15792
61.375 18673. undefined 259.48 474.06 1.1600 600.00 0.0016667 259.48 474.06 1.1600 1.8827 2.3978 1498.3 -0.0059293 220.44 0.15810 600.00 0.0016667 259.48 474.06 1.1600 1.8827 2.3978 1498.3 -0.0059293 220.44 0.15810
62.375 18817. undefined 261.37 477.59 1.1656 600.00 0.0016667 261.37 477.59 1.1656 1.8870 2.4010 1499.8 -0.0059240 220.36 0.15827 600.00 0.0016667 261.37 477.59 1.1656 1.8870 2.4010 1499.8 -0.0059240 220.36 0.15827
63.375 18960. undefined 263.25 481.13 1.1713 600.00 0.0016667 263.25 481.13 1.1713 1.8914 2.4043 1501.2 -0.0059188 220.29 0.15845 600.00 0.0016667 263.25 481.13 1.1713 1.8914 2.4043 1501.2 -0.0059188 220.29 0.15845
64.375 19103. undefined 265.15 484.66 1.1769 600.00 0.0016667 265.15 484.66 1.1769 1.8958 2.4075 1502.6 -0.0059135 220.22 0.15862 600.00 0.0016667 265.15 484.66 1.1769 1.8958 2.4075 1502.6 -0.0059135 220.22 0.15862
65.375 19246. undefined 267.05 488.20 1.1825 600.00 0.0016667 267.05 488.20 1.1825 1.9002 2.4108 1504.1 -0.0059082 220.14 0.15880 600.00 0.0016667 267.05 488.20 1.1825 1.9002 2.4108 1504.1 -0.0059082 220.14 0.15880
66.375 19388. undefined 268.95 491.74 1.1881 600.00 0.0016667 268.95 491.74 1.1881 1.9045 2.4141 1505.5 -0.0059029 220.07 0.15897 600.00 0.0016667 268.95 491.74 1.1881 1.9045 2.4141 1505.5 -0.0059029 220.07 0.15897
67.375 19531. undefined 270.86 495.29 1.1937 600.00 0.0016667 270.86 495.29 1.1937 1.9089 2.4174 1506.9 -0.0058975 220.00 0.15915 600.00 0.0016667 270.86 495.29 1.1937 1.9089 2.4174 1506.9 -0.0058975 220.00 0.15915
68.375 19673. undefined 272.77 498.83 1.1993 600.00 0.0016667 272.77 498.83 1.1993 1.9133 2.4207 1508.3 -0.0058921 219.93 0.15932 600.00 0.0016667 272.77 498.83 1.1993 1.9133 2.4207 1508.3 -0.0058921 219.93 0.15932
69.375 19815. undefined 274.68 502.38 1.2049 600.00 0.0016667 274.68 502.38 1.2049 1.9177 2.4240 1509.7 -0.0058867 219.86 0.15950 600.00 0.0016667 274.68 502.38 1.2049 1.9177 2.4240 1509.7 -0.0058867 219.86 0.15950
70.375 19957. undefined 276.60 505.94 1.2105 600.00 0.0016667 276.60 505.94 1.2105 1.9220 2.4273 1511.1 -0.0058812 219.79 0.15968 600.00 0.0016667 276.60 505.94 1.2105 1.9220 2.4273 1511.1 -0.0058812 219.79 0.15968
71.375 20099. undefined 278.53 509.49 1.2161 600.00 0.0016667 278.53 509.49 1.2161 1.9264 2.4306 1512.5 -0.0058757 219.72 0.15985 600.00 0.0016667 278.53 509.49 1.2161 1.9264 2.4306 1512.5 -0.0058757 219.72 0.15985
72.375 20241. undefined 280.45 513.05 1.2217 600.00 0.0016667 280.45 513.05 1.2217 1.9308 2.4340 1513.9 -0.0058702 219.65 0.16003 600.00 0.0016667 280.45 513.05 1.2217 1.9308 2.4340 1513.9 -0.0058702 219.65 0.16003
73.375 20382. undefined 282.39 516.61 1.2273 600.00 0.0016667 282.39 516.61 1.2273 1.9352 2.4373 1515.3 -0.0058647 219.58 0.16021 600.00 0.0016667 282.39 516.61 1.2273 1.9352 2.4373 1515.3 -0.0058647 219.58 0.16021
74.375 20524. undefined 284.33 520.17 1.2329 600.00 0.0016667 284.33 520.17 1.2329 1.9396 2.4407 1516.7 -0.0058591 219.52 0.16038 600.00 0.0016667 284.33 520.17 1.2329 1.9396 2.4407 1516.7 -0.0058591 219.52 0.16038
75.375 20665. undefined 286.27 523.73 1.2385 600.00 0.0016667 286.27 523.73 1.2385 1.9439 2.4440 1518.1 -0.0058535 219.45 0.16056 600.00 0.0016667 286.27 523.73 1.2385 1.9439 2.4440 1518.1 -0.0058535 219.45 0.16056
76.375 20806. undefined 288.21 527.30 1.2440 600.00 0.0016667 288.21 527.30 1.2440 1.9483 2.4474 1519.5 -0.0058479 219.39 0.16074 600.00 0.0016667 288.21 527.30 1.2440 1.9483 2.4474 1519.5 -0.0058479 219.39 0.16074
77.375 20947. undefined 290.16 530.87 1.2496 600.00 0.0016667 290.16 530.87 1.2496 1.9527 2.4508 1520.9 -0.0058423 219.32 0.16092 600.00 0.0016667 290.16 530.87 1.2496 1.9527 2.4508 1520.9 -0.0058423 219.32 0.16092
78.375 21087. undefined 292.12 534.44 1.2552 600.00 0.0016667 292.12 534.44 1.2552 1.9571 2.4541 1522.2 -0.0058366 219.26 0.16110 600.00 0.0016667 292.12 534.44 1.2552 1.9571 2.4541 1522.2 -0.0058366 219.26 0.16110
79.375 21228. undefined 294.08 538.02 1.2607 600.00 0.0016667 294.08 538.02 1.2607 1.9615 2.4575 1523.6 -0.0058310 219.20 0.16128 600.00 0.0016667 294.08 538.02 1.2607 1.9615 2.4575 1523.6 -0.0058310 219.20 0.16128
80.375 21369. undefined 296.04 541.59 1.2663 600.00 0.0016667 296.04 541.59 1.2663 1.9658 2.4609 1525.0 -0.0058253 219.13 0.16146 600.00 0.0016667 296.04 541.59 1.2663 1.9658 2.4609 1525.0 -0.0058253 219.13 0.16146
81.375 21509. undefined 298.01 545.17 1.2719 600.00 0.0016667 298.01 545.17 1.2719 1.9702 2.4643 1526.3 -0.0058196 219.07 0.16164 600.00 0.0016667 298.01 545.17 1.2719 1.9702 2.4643 1526.3 -0.0058196 219.07 0.16164
82.375 21649. undefined 299.98 548.76 1.2774 600.00 0.0016667 299.98 548.76 1.2774 1.9746 2.4677 1527.7 -0.0058138 219.01 0.16182 600.00 0.0016667 299.98 548.76 1.2774 1.9746 2.4677 1527.7 -0.0058138 219.01 0.16182
83.375 21789. undefined 301.96 552.34 1.2830 600.00 0.0016667 301.96 552.34 1.2830 1.9790 2.4711 1529.1 -0.0058081 218.95 0.16200 600.00 0.0016667 301.96 552.34 1.2830 1.9790 2.4711 1529.1 -0.0058081 218.95 0.16200
84.375 21929. undefined 303.94 555.93 1.2885 600.00 0.0016667 303.94 555.93 1.2885 1.9833 2.4745 1530.4 -0.0058023 218.89 0.16218 600.00 0.0016667 303.94 555.93 1.2885 1.9833 2.4745 1530.4 -0.0058023 218.89 0.16218
85.375 22068. undefined 305.93 559.52 1.2941 600.00 0.0016667 305.93 559.52 1.2941 1.9877 2.4779 1531.8 -0.0057966 218.83 0.16236 600.00 0.0016667 305.93 559.52 1.2941 1.9877 2.4779 1531.8 -0.0057966 218.83 0.16236
86.375 22208. undefined 307.92 563.11 1.2996 600.00 0.0016667 307.92 563.11 1.2996 1.9921 2.4814 1533.1 -0.0057908 218.77 0.16254 600.00 0.0016667 307.92 563.11 1.2996 1.9921 2.4814 1533.1 -0.0057908 218.77 0.16254
87.375 22347. undefined 309.91 566.71 1.3051 600.00 0.0016667 309.91 566.71 1.3051 1.9965 2.4848 1534.5 -0.0057850 218.71 0.16272 600.00 0.0016667 309.91 566.71 1.3051 1.9965 2.4848 1534.5 -0.0057850 218.71 0.16272
88.375 22487. undefined 311.91 570.31 1.3107 600.00 0.0016667 311.91 570.31 1.3107 2.0008 2.4882 1535.8 -0.0057791 218.66 0.16290 600.00 0.0016667 311.91 570.31 1.3107 2.0008 2.4882 1535.8 -0.0057791 218.66 0.16290
89.375 22626. undefined 313.91 573.91 1.3162 600.00 0.0016667 313.91 573.91 1.3162 2.0052 2.4917 1537.1 -0.0057733 218.60 0.16309 600.00 0.0016667 313.91 573.91 1.3162 2.0052 2.4917 1537.1 -0.0057733 218.60 0.16309
90.375 22765. undefined 315.92 577.51 1.3217 600.00 0.0016667 315.92 577.51 1.3217 2.0096 2.4951 1538.5 -0.0057675 218.54 0.16327 600.00 0.0016667 315.92 577.51 1.3217 2.0096 2.4951 1538.5 -0.0057675 218.54 0.16327
91.375 22903. undefined 317.93 581.12 1.3273 600.00 0.0016667 317.93 581.12 1.3273 2.0139 2.4986 1539.8 -0.0057616 218.49 0.16345 600.00 0.0016667 317.93 581.12 1.3273 2.0139 2.4986 1539.8 -0.0057616 218.49 0.16345
92.375 23042. undefined 319.95 584.73 1.3328 600.00 0.0016667 319.95 584.73 1.3328 2.0183 2.5020 1541.2 -0.0057557 218.43 0.16363 600.00 0.0016667 319.95 584.73 1.3328 2.0183 2.5020 1541.2 -0.0057557 218.43 0.16363
93.375 23180. undefined 321.97 588.34 1.3383 600.00 0.0016667 321.97 588.34 1.3383 2.0227 2.5055 1542.5 -0.0057499 218.38 0.16382 600.00 0.0016667 321.97 588.34 1.3383 2.0227 2.5055 1542.5 -0.0057499 218.38 0.16382
94.375 23319. undefined 323.99 591.95 1.3438 600.00 0.0016667 323.99 591.95 1.3438 2.0270 2.5089 1543.8 -0.0057440 218.32 0.16400 600.00 0.0016667 323.99 591.95 1.3438 2.0270 2.5089 1543.8 -0.0057440 218.32 0.16400
95.375 23457. undefined 326.02 595.57 1.3493 600.00 0.0016667 326.02 595.57 1.3493 2.0314 2.5124 1545.1 -0.0057381 218.27 0.16418 600.00 0.0016667 326.02 595.57 1.3493 2.0314 2.5124 1545.1 -0.0057381 218.27 0.16418
96.375 23595. undefined 328.05 599.19 1.3549 600.00 0.0016667 328.05 599.19 1.3549 2.0358 2.5159 1546.4 -0.0057322 218.22 0.16437 600.00 0.0016667 328.05 599.19 1.3549 2.0358 2.5159 1546.4 -0.0057322 218.22 0.16437
97.375 23733. undefined 330.09 602.81 1.3604 600.00 0.0016667 330.09 602.81 1.3604 2.0401 2.5193 1547.8 -0.0057262 218.17 0.16455 600.00 0.0016667 330.09 602.81 1.3604 2.0401 2.5193 1547.8 -0.0057262 218.17 0.16455
98.375 23871. undefined 332.13 606.44 1.3659 600.00 0.0016667 332.13 606.44 1.3659 2.0445 2.5228 1549.1 -0.0057203 218.11 0.16474 600.00 0.0016667 332.13 606.44 1.3659 2.0445 2.5228 1549.1 -0.0057203 218.11 0.16474
99.375 24008. undefined 334.18 610.07 1.3714 600.00 0.0016667 334.18 610.07 1.3714 2.0488 2.5263 1550.4 -0.0057144 218.06 0.16492 600.00 0.0016667 334.18 610.07 1.3714 2.0488 2.5263 1550.4 -0.0057144 218.06 0.16492
100.38 24146. undefined 336.23 613.70 1.3769 600.00 0.0016667 336.23 613.70 1.3769 2.0532 2.5298 1551.7 -0.0057084 218.01 0.16511 600.00 0.0016667 336.23 613.70 1.3769 2.0532 2.5298 1551.7 -0.0057084 218.01 0.16511
101.38 24283. undefined 338.29 617.33 1.3824 600.00 0.0016667 338.29 617.33 1.3824 2.0575 2.5333 1553.0 -0.0057025 217.96 0.16529 600.00 0.0016667 338.29 617.33 1.3824 2.0575 2.5333 1553.0 -0.0057025 217.96 0.16529
102.38 24420. undefined 340.35 620.97 1.3879 600.00 0.0016667 340.35 620.97 1.3879 2.0619 2.5368 1554.3 -0.0056965 217.91 0.16548 600.00 0.0016667 340.35 620.97 1.3879 2.0619 2.5368 1554.3 -0.0056965 217.91 0.16548
103.38 24557. undefined 342.41 624.61 1.3933 600.00 0.0016667 342.41 624.61 1.3933 2.0662 2.5403 1555.6 -0.0056906 217.86 0.16567 600.00 0.0016667 342.41 624.61 1.3933 2.0662 2.5403 1555.6 -0.0056906 217.86 0.16567
104.38 24694. undefined 344.48 628.25 1.3988 600.00 0.0016667 344.48 628.25 1.3988 2.0706 2.5438 1556.9 -0.0056846 217.81 0.16585 600.00 0.0016667 344.48 628.25 1.3988 2.0706 2.5438 1556.9 -0.0056846 217.81 0.16585
105.38 24831. undefined 346.55 631.89 1.4043 600.00 0.0016667 346.55 631.89 1.4043 2.0749 2.5473 1558.2 -0.0056787 217.77 0.16604 600.00 0.0016667 346.55 631.89 1.4043 2.0749 2.5473 1558.2 -0.0056787 217.77 0.16604
106.38 24968. undefined 348.63 635.54 1.4098 600.00 0.0016667 348.63 635.54 1.4098 2.0793 2.5508 1559.5 -0.0056727 217.72 0.16623 600.00 0.0016667 348.63 635.54 1.4098 2.0793 2.5508 1559.5 -0.0056727 217.72 0.16623
107.38 25104. undefined 350.71 639.19 1.4153 600.00 0.0016667 350.71 639.19 1.4153 2.0836 2.5543 1560.8 -0.0056667 217.67 0.16641 600.00 0.0016667 350.71 639.19 1.4153 2.0836 2.5543 1560.8 -0.0056667 217.67 0.16641
108.38 25241. undefined 352.80 642.84 1.4207 600.00 0.0016667 352.80 642.84 1.4207 2.0879 2.5578 1562.0 -0.0056607 217.62 0.16660 600.00 0.0016667 352.80 642.84 1.4207 2.0879 2.5578 1562.0 -0.0056607 217.62 0.16660
109.38 25377. undefined 354.89 646.50 1.4262 600.00 0.0016667 354.89 646.50 1.4262 2.0923 2.5613 1563.3 -0.0056548 217.58 0.16679 600.00 0.0016667 354.89 646.50 1.4262 2.0923 2.5613 1563.3 -0.0056548 217.58 0.16679
110.38 25513. undefined 356.98 650.16 1.4317 600.00 0.0016667 356.98 650.16 1.4317 2.0966 2.5648 1564.6 -0.0056488 217.53 0.16698 600.00 0.0016667 356.98 650.16 1.4317 2.0966 2.5648 1564.6 -0.0056488 217.53 0.16698
111.38 25649. undefined 359.08 653.82 1.4371 600.00 0.0016667 359.08 653.82 1.4371 2.1009 2.5683 1565.9 -0.0056428 217.49 0.16717 600.00 0.0016667 359.08 653.82 1.4371 2.1009 2.5683 1565.9 -0.0056428 217.49 0.16717
112.38 25785. undefined 361.18 657.48 1.4426 600.00 0.0016667 361.18 657.48 1.4426 2.1052 2.5718 1567.2 -0.0056368 217.44 0.16735 600.00 0.0016667 361.18 657.48 1.4426 2.1052 2.5718 1567.2 -0.0056368 217.44 0.16735
113.38 25920. undefined 363.29 661.15 1.4481 600.00 0.0016667 363.29 661.15 1.4481 2.1096 2.5754 1568.4 -0.0056308 217.40 0.16754 600.00 0.0016667 363.29 661.15 1.4481 2.1096 2.5754 1568.4 -0.0056308 217.40 0.16754
114.38 26056. undefined 365.40 664.82 1.4535 600.00 0.0016667 365.40 664.82 1.4535 2.1139 2.5789 1569.7 -0.0056248 217.36 0.16773 600.00 0.0016667 365.40 664.82 1.4535 2.1139 2.5789 1569.7 -0.0056248 217.36 0.16773
115.38 26191. undefined 367.52 668.49 1.4590 600.00 0.0016667 367.52 668.49 1.4590 2.1182 2.5824 1571.0 -0.0056188 217.31 0.16792 600.00 0.0016667 367.52 668.49 1.4590 2.1182 2.5824 1571.0 -0.0056188 217.31 0.16792
116.38 26327. undefined 369.64 672.17 1.4644 600.00 0.0016667 369.64 672.17 1.4644 2.1225 2.5859 1572.2 -0.0056128 217.27 0.16811 600.00 0.0016667 369.64 672.17 1.4644 2.1225 2.5859 1572.2 -0.0056128 217.27 0.16811
117.38 26462. undefined 371.76 675.84 1.4699 600.00 0.0016667 371.76 675.84 1.4699 2.1268 2.5895 1573.5 -0.0056069 217.23 0.16830 600.00 0.0016667 371.76 675.84 1.4699 2.1268 2.5895 1573.5 -0.0056069 217.23 0.16830
118.38 26597. undefined 373.89 679.52 1.4753 600.00 0.0016667 373.89 679.52 1.4753 2.1311 2.5930 1574.7 -0.0056009 217.18 0.16849 600.00 0.0016667 373.89 679.52 1.4753 2.1311 2.5930 1574.7 -0.0056009 217.18 0.16849
119.38 26732. undefined 376.03 683.21 1.4808 600.00 0.0016667 376.03 683.21 1.4808 2.1354 2.5965 1576.0 -0.0055949 217.14 0.16868 600.00 0.0016667 376.03 683.21 1.4808 2.1354 2.5965 1576.0 -0.0055949 217.14 0.16868
120.38 26866. undefined 378.16 686.89 1.4862 600.00 0.0016667 378.16 686.89 1.4862 2.1397 2.6001 1577.2 -0.0055889 217.10 0.16888 600.00 0.0016667 378.16 686.89 1.4862 2.1397 2.6001 1577.2 -0.0055889 217.10 0.16888
121.38 27001. undefined 380.31 690.58 1.4916 600.00 0.0016667 380.31 690.58 1.4916 2.1440 2.6036 1578.5 -0.0055829 217.06 0.16907 600.00 0.0016667 380.31 690.58 1.4916 2.1440 2.6036 1578.5 -0.0055829 217.06 0.16907
122.38 27135. undefined 382.45 694.27 1.4971 600.00 0.0016667 382.45 694.27 1.4971 2.1483 2.6071 1579.7 -0.0055769 217.02 0.16926 600.00 0.0016667 382.45 694.27 1.4971 2.1483 2.6071 1579.7 -0.0055769 217.02 0.16926
123.38 27270. undefined 384.60 697.97 1.5025 600.00 0.0016667 384.60 697.97 1.5025 2.1526 2.6107 1581.0 -0.0055710 216.98 0.16945 600.00 0.0016667 384.60 697.97 1.5025 2.1526 2.6107 1581.0 -0.0055710 216.98 0.16945
124.38 27404. undefined 386.76 701.66 1.5079 600.00 0.0016667 386.76 701.66 1.5079 2.1569 2.6142 1582.2 -0.0055650 216.94 0.16964 600.00 0.0016667 386.76 701.66 1.5079 2.1569 2.6142 1582.2 -0.0055650 216.94 0.16964
125.38 27538. undefined 388.92 705.36 1.5133 600.00 0.0016667 388.92 705.36 1.5133 2.1612 2.6177 1583.5 -0.0055590 216.90 0.16984 600.00 0.0016667 388.92 705.36 1.5133 2.1612 2.6177 1583.5 -0.0055590 216.90 0.16984
126.38 27672. undefined 391.08 709.07 1.5188 600.00 0.0016667 391.08 709.07 1.5188 2.1655 2.6213 1584.7 -0.0055530 216.87 0.17003 600.00 0.0016667 391.08 709.07 1.5188 2.1655 2.6213 1584.7 -0.0055530 216.87 0.17003
127.38 27806. undefined 393.25 712.77 1.5242 600.00 0.0016667 393.25 712.77 1.5242 2.1697 2.6248 1585.9 -0.0055471 216.83 0.17022 600.00 0.0016667 393.25 712.77 1.5242 2.1697 2.6248 1585.9 -0.0055471 216.83 0.17022
128.38 27940. undefined 395.42 716.48 1.5296 600.00 0.0016667 395.42 716.48 1.5296 2.1740 2.6283 1587.2 -0.0055411 216.79 0.17042 600.00 0.0016667 395.42 716.48 1.5296 2.1740 2.6283 1587.2 -0.0055411 216.79 0.17042
129.38 28073. undefined 397.59 720.19 1.5350 600.00 0.0016667 397.59 720.19 1.5350 2.1783 2.6319 1588.4 -0.0055352 216.75 0.17061 600.00 0.0016667 397.59 720.19 1.5350 2.1783 2.6319 1588.4 -0.0055352 216.75 0.17061
130.38 28207. undefined 399.77 723.90 1.5404 600.00 0.0016667 399.77 723.90 1.5404 2.1825 2.6354 1589.6 -0.0055292 216.72 0.17080 600.00 0.0016667 399.77 723.90 1.5404 2.1825 2.6354 1589.6 -0.0055292 216.72 0.17080
131.38 28340. undefined 401.96 727.62 1.5458 600.00 0.0016667 401.96 727.62 1.5458 2.1868 2.6390 1590.9 -0.0055233 216.68 0.17100 600.00 0.0016667 401.96 727.62 1.5458 2.1868 2.6390 1590.9 -0.0055233 216.68 0.17100
132.38 28473. undefined 404.15 731.34 1.5512 600.00 0.0016667 404.15 731.34 1.5512 2.1911 2.6425 1592.1 -0.0055173 216.64 0.17119 600.00 0.0016667 404.15 731.34 1.5512 2.1911 2.6425 1592.1 -0.0055173 216.64 0.17119
133.38 28606. undefined 406.34 735.06 1.5566 600.00 0.0016667 406.34 735.06 1.5566 2.1953 2.6460 1593.3 -0.0055114 216.61 0.17139 600.00 0.0016667 406.34 735.06 1.5566 2.1953 2.6460 1593.3 -0.0055114 216.61 0.17139
134.38 28739. undefined 408.54 738.79 1.5620 600.00 0.0016667 408.54 738.79 1.5620 2.1996 2.6496 1594.5 -0.0055054 216.57 0.17158 600.00 0.0016667 408.54 738.79 1.5620 2.1996 2.6496 1594.5 -0.0055054 216.57 0.17158
135.38 28872. undefined 410.74 742.51 1.5674 600.00 0.0016667 410.74 742.51 1.5674 2.2038 2.6531 1595.7 -0.0054995 216.54 0.17178 600.00 0.0016667 410.74 742.51 1.5674 2.2038 2.6531 1595.7 -0.0054995 216.54 0.17178
136.38 29004. undefined 412.95 746.24 1.5728 600.00 0.0016667 412.95 746.24 1.5728 2.2081 2.6567 1596.9 -0.0054936 216.50 0.17197 600.00 0.0016667 412.95 746.24 1.5728 2.2081 2.6567 1596.9 -0.0054936 216.50 0.17197
137.38 29137. undefined 415.16 749.98 1.5782 600.00 0.0016667 415.16 749.98 1.5782 2.2123 2.6602 1598.2 -0.0054877 216.47 0.17217 600.00 0.0016667 415.16 749.98 1.5782 2.2123 2.6602 1598.2 -0.0054877 216.47 0.17217
138.38 29269. undefined 417.37 753.71 1.5836 600.00 0.0016667 417.37 753.71 1.5836 2.2165 2.6638 1599.4 -0.0054818 216.43 0.17237 600.00 0.0016667 417.37 753.71 1.5836 2.2165 2.6638 1599.4 -0.0054818 216.43 0.17237
139.38 29402. undefined 419.59 757.45 1.5890 600.00 0.0016667 419.59 757.45 1.5890 2.2208 2.6673 1600.6 -0.0054759 216.40 0.17256 600.00 0.0016667 419.59 757.45 1.5890 2.2208 2.6673 1600.6 -0.0054759 216.40 0.17256
140.38 29534. undefined 421.81 761.19 1.5944 600.00 0.0016667 421.81 761.19 1.5944 2.2250 2.6708 1601.8 -0.0054700 216.37 0.17276 600.00 0.0016667 421.81 761.19 1.5944 2.2250 2.6708 1601.8 -0.0054700 216.37 0.17276
141.38 29666. undefined 424.04 764.94 1.5998 600.00 0.0016667 424.04 764.94 1.5998 2.2292 2.6744 1603.0 -0.0054641 216.34 0.17296 600.00 0.0016667 424.04 764.94 1.5998 2.2292 2.6744 1603.0 -0.0054641 216.34 0.17296
142.38 29798. undefined 426.27 768.69 1.6051 600.00 0.0016667 426.27 768.69 1.6051 2.2334 2.6779 1604.2 -0.0054582 216.30 0.17316 600.00 0.0016667 426.27 768.69 1.6051 2.2334 2.6779 1604.2 -0.0054582 216.30 0.17316
143.38 29930. undefined 428.51 772.44 1.6105 600.00 0.0016667 428.51 772.44 1.6105 2.2377 2.6815 1605.4 -0.0054523 216.27 0.17335 600.00 0.0016667 428.51 772.44 1.6105 2.2377 2.6815 1605.4 -0.0054523 216.27 0.17335
144.38 30061. undefined 430.75 776.19 1.6159 600.00 0.0016667 430.75 776.19 1.6159 2.2419 2.6850 1606.6 -0.0054465 216.24 0.17355 600.00 0.0016667 430.75 776.19 1.6159 2.2419 2.6850 1606.6 -0.0054465 216.24 0.17355
145.38 30193. undefined 432.99 779.94 1.6212 600.00 0.0016667 432.99 779.94 1.6212 2.2461 2.6885 1607.8 -0.0054406 216.21 0.17375 600.00 0.0016667 432.99 779.94 1.6212 2.2461 2.6885 1607.8 -0.0054406 216.21 0.17375
146.38 30324. undefined 435.24 783.70 1.6266 600.00 0.0016667 435.24 783.70 1.6266 2.2503 2.6921 1609.0 -0.0054348 216.18 0.17395 600.00 0.0016667 435.24 783.70 1.6266 2.2503 2.6921 1609.0 -0.0054348 216.18 0.17395
147.38 30456. undefined 437.49 787.46 1.6320 600.00 0.0016667 437.49 787.46 1.6320 2.2545 2.6956 1610.1 -0.0054289 216.15 0.17415 600.00 0.0016667 437.49 787.46 1.6320 2.2545 2.6956 1610.1 -0.0054289 216.15 0.17415
148.38 30587. undefined 439.75 791.23 1.6373 600.00 0.0016667 439.75 791.23 1.6373 2.2587 2.6991 1611.3 -0.0054231 216.12 0.17435 600.00 0.0016667 439.75 791.23 1.6373 2.2587 2.6991 1611.3 -0.0054231 216.12 0.17435
149.38 30718. undefined 442.01 794.99 1.6427 600.00 0.0016667 442.01 794.99 1.6427 2.2629 2.7027 1612.5 -0.0054173 216.09 0.17455 600.00 0.0016667 442.01 794.99 1.6427 2.2629 2.7027 1612.5 -0.0054173 216.09 0.17455
150.38 30849. undefined 444.27 798.76 1.6480 600.00 0.0016667 444.27 798.76 1.6480 2.2671 2.7062 1613.7 -0.0054114 216.06 0.17475 600.00 0.0016667 444.27 798.76 1.6480 2.2671 2.7062 1613.7 -0.0054114 216.06 0.17475
151.38 30980. undefined 446.54 802.54 1.6534 600.00 0.0016667 446.54 802.54 1.6534 2.2712 2.7098 1614.9 -0.0054056 216.03 0.17495 600.00 0.0016667 446.54 802.54 1.6534 2.2712 2.7098 1614.9 -0.0054056 216.03 0.17495
152.38 31110. undefined 448.82 806.31 1.6587 600.00 0.0016667 448.82 806.31 1.6587 2.2754 2.7133 1616.1 -0.0053998 216.00 0.17515 600.00 0.0016667 448.82 806.31 1.6587 2.2754 2.7133 1616.1 -0.0053998 216.00 0.17515
153.38 31241. undefined 451.09 810.09 1.6641 600.00 0.0016667 451.09 810.09 1.6641 2.2796 2.7168 1617.2 -0.0053940 215.97 0.17535 600.00 0.0016667 451.09 810.09 1.6641 2.2796 2.7168 1617.2 -0.0053940 215.97 0.17535
154.38 31371. undefined 453.38 813.87 1.6694 600.00 0.0016667 453.38 813.87 1.6694 2.2838 2.7203 1618.4 -0.0053883 215.94 0.17555 600.00 0.0016667 453.38 813.87 1.6694 2.2838 2.7203 1618.4 -0.0053883 215.94 0.17555
155.38 31502. undefined 455.66 817.65 1.6748 600.00 0.0016667 455.66 817.65 1.6748 2.2879 2.7239 1619.6 -0.0053825 215.91 0.17575 600.00 0.0016667 455.66 817.65 1.6748 2.2879 2.7239 1619.6 -0.0053825 215.91 0.17575
156.38 31632. undefined 457.95 821.44 1.6801 600.00 0.0016667 457.95 821.44 1.6801 2.2921 2.7274 1620.7 -0.0053767 215.89 0.17595 600.00 0.0016667 457.95 821.44 1.6801 2.2921 2.7274 1620.7 -0.0053767 215.89 0.17595
157.38 31762. undefined 460.25 825.23 1.6854 600.00 0.0016667 460.25 825.23 1.6854 2.2962 2.7309 1621.9 -0.0053710 215.86 0.17615 600.00 0.0016667 460.25 825.23 1.6854 2.2962 2.7309 1621.9 -0.0053710 215.86 0.17615
158.38 31892. undefined 462.54 829.02 1.6908 600.00 0.0016667 462.54 829.02 1.6908 2.3004 2.7345 1623.1 -0.0053652 215.83 0.17636 600.00 0.0016667 462.54 829.02 1.6908 2.3004 2.7345 1623.1 -0.0053652 215.83 0.17636
159.38 32022. undefined 464.85 832.82 1.6961 600.00 0.0016667 464.85 832.82 1.6961 2.3045 2.7380 1624.2 -0.0053595 215.80 0.17656 600.00 0.0016667 464.85 832.82 1.6961 2.3045 2.7380 1624.2 -0.0053595 215.80 0.17656
160.38 32152. undefined 467.15 836.61 1.7014 600.00 0.0016667 467.15 836.61 1.7014 2.3087 2.7415 1625.4 -0.0053538 215.78 0.17676 600.00 0.0016667 467.15 836.61 1.7014 2.3087 2.7415 1625.4 -0.0053538 215.78 0.17676
161.38 32281. undefined 469.46 840.42 1.7068 600.00 0.0016667 469.46 840.42 1.7068 2.3128 2.7450 1626.6 -0.0053481 215.75 0.17696 600.00 0.0016667 469.46 840.42 1.7068 2.3128 2.7450 1626.6 -0.0053481 215.75 0.17696
162.38 32411. undefined 471.78 844.22 1.7121 600.00 0.0016667 471.78 844.22 1.7121 2.3170 2.7485 1627.7 -0.0053424 215.73 0.17717 600.00 0.0016667 471.78 844.22 1.7121 2.3170 2.7485 1627.7 -0.0053424 215.73 0.17717
163.38 32540. undefined 474.10 848.02 1.7174 600.00 0.0016667 474.10 848.02 1.7174 2.3211 2.7521 1628.9 -0.0053367 215.70 0.17737 600.00 0.0016667 474.10 848.02 1.7174 2.3211 2.7521 1628.9 -0.0053367 215.70 0.17737
164.38 32669. undefined 476.42 851.83 1.7227 600.00 0.0016667 476.42 851.83 1.7227 2.3252 2.7556 1630.0 -0.0053310 215.68 0.17758 600.00 0.0016667 476.42 851.83 1.7227 2.3252 2.7556 1630.0 -0.0053310 215.68 0.17758
165.38 32799. undefined 478.75 855.65 1.7280 600.00 0.0016667 478.75 855.65 1.7280 2.3293 2.7591 1631.2 -0.0053253 215.65 0.17778 600.00 0.0016667 478.75 855.65 1.7280 2.3293 2.7591 1631.2 -0.0053253 215.65 0.17778
166.38 32928. undefined 481.08 859.46 1.7333 600.00 0.0016667 481.08 859.46 1.7333 2.3334 2.7626 1632.3 -0.0053197 215.63 0.17798 600.00 0.0016667 481.08 859.46 1.7333 2.3334 2.7626 1632.3 -0.0053197 215.63 0.17798
167.38 33057. undefined 483.41 863.28 1.7386 600.00 0.0016667 483.41 863.28 1.7386 2.3376 2.7661 1633.5 -0.0053140 215.60 0.17819 600.00 0.0016667 483.41 863.28 1.7386 2.3376 2.7661 1633.5 -0.0053140 215.60 0.17819
168.38 33185. undefined 485.75 867.10 1.7439 600.00 0.0016667 485.75 867.10 1.7439 2.3417 2.7696 1634.6 -0.0053084 215.58 0.17839 600.00 0.0016667 485.75 867.10 1.7439 2.3417 2.7696 1634.6 -0.0053084 215.58 0.17839
169.38 33314. undefined 488.10 870.92 1.7492 600.00 0.0016667 488.10 870.92 1.7492 2.3458 2.7731 1635.8 -0.0053027 215.55 0.17860 600.00 0.0016667 488.10 870.92 1.7492 2.3458 2.7731 1635.8 -0.0053027 215.55 0.17860
170.38 33443. undefined 490.45 874.75 1.7545 600.00 0.0016667 490.45 874.75 1.7545 2.3499 2.7766 1636.9 -0.0052971 215.53 0.17881 600.00 0.0016667 490.45 874.75 1.7545 2.3499 2.7766 1636.9 -0.0052971 215.53 0.17881
171.38 33571. undefined 492.80 878.57 1.7598 600.00 0.0016667 492.80 878.57 1.7598 2.3539 2.7801 1638.0 -0.0052915 215.51 0.17901 600.00 0.0016667 492.80 878.57 1.7598 2.3539 2.7801 1638.0 -0.0052915 215.51 0.17901
172.38 33700. undefined 495.15 882.40 1.7651 600.00 0.0016667 495.15 882.40 1.7651 2.3580 2.7836 1639.2 -0.0052859 215.48 0.17922 600.00 0.0016667 495.15 882.40 1.7651 2.3580 2.7836 1639.2 -0.0052859 215.48 0.17922
173.38 33828. undefined 497.51 886.24 1.7704 600.00 0.0016667 497.51 886.24 1.7704 2.3621 2.7871 1640.3 -0.0052803 215.46 0.17943 600.00 0.0016667 497.51 886.24 1.7704 2.3621 2.7871 1640.3 -0.0052803 215.46 0.17943
174.38 33956. undefined 499.88 890.08 1.7757 600.00 0.0016667 499.88 890.08 1.7757 2.3662 2.7906 1641.4 -0.0052748 215.44 0.17963 600.00 0.0016667 499.88 890.08 1.7757 2.3662 2.7906 1641.4 -0.0052748 215.44 0.17963
175.38 34084. undefined 502.25 893.92 1.7810 600.00 0.0016667 502.25 893.92 1.7810 2.3703 2.7941 1642.6 -0.0052692 215.42 0.17984 600.00 0.0016667 502.25 893.92 1.7810 2.3703 2.7941 1642.6 -0.0052692 215.42 0.17984
176.38 34212. undefined 504.62 897.76 1.7863 600.00 0.0016667 504.62 897.76 1.7863 2.3743 2.7976 1643.7 -0.0052637 215.39 0.18005 600.00 0.0016667 504.62 897.76 1.7863 2.3743 2.7976 1643.7 -0.0052637 215.39 0.18005
177.38 34340. undefined 506.99 901.60 1.7916 600.00 0.0016667 506.99 901.60 1.7916 2.3784 2.8011 1644.8 -0.0052581 215.37 0.18025 600.00 0.0016667 506.99 901.60 1.7916 2.3784 2.8011 1644.8 -0.0052581 215.37 0.18025
178.38 34468. undefined 509.38 905.45 1.7968 600.00 0.0016667 509.38 905.45 1.7968 2.3824 2.8046 1646.0 -0.0052526 215.35 0.18046 600.00 0.0016667 509.38 905.45 1.7968 2.3824 2.8046 1646.0 -0.0052526 215.35 0.18046
179.38 34595. undefined 511.76 909.30 1.8021 600.00 0.0016667 511.76 909.30 1.8021 2.3865 2.8081 1647.1 -0.0052471 215.33 0.18067 600.00 0.0016667 511.76 909.30 1.8021 2.3865 2.8081 1647.1 -0.0052471 215.33 0.18067
180.38 34723. undefined 514.15 913.15 1.8074 600.00 0.0016667 514.15 913.15 1.8074 2.3905 2.8116 1648.2 -0.0052416 215.31 0.18088 600.00 0.0016667 514.15 913.15 1.8074 2.3905 2.8116 1648.2 -0.0052416 215.31 0.18088
181.38 34850. undefined 516.54 917.01 1.8127 600.00 0.0016667 516.54 917.01 1.8127 2.3946 2.8151 1649.3 -0.0052361 215.29 0.18109 600.00 0.0016667 516.54 917.01 1.8127 2.3946 2.8151 1649.3 -0.0052361 215.29 0.18109
182.38 34977. undefined 518.94 920.87 1.8179 600.00 0.0016667 518.94 920.87 1.8179 2.3986 2.8185 1650.4 -0.0052306 215.27 0.18130 600.00 0.0016667 518.94 920.87 1.8179 2.3986 2.8185 1650.4 -0.0052306 215.27 0.18130
183.38 35104. undefined 521.34 924.73 1.8232 600.00 0.0016667 521.34 924.73 1.8232 2.4027 2.8220 1651.6 -0.0052252 215.25 0.18151 600.00 0.0016667 521.34 924.73 1.8232 2.4027 2.8220 1651.6 -0.0052252 215.25 0.18151
184.38 35231. undefined 523.74 928.60 1.8285 600.00 0.0016667 523.74 928.60 1.8285 2.4067 2.8255 1652.7 -0.0052197 215.23 0.18172 600.00 0.0016667 523.74 928.60 1.8285 2.4067 2.8255 1652.7 -0.0052197 215.23 0.18172
185.38 35358. undefined 526.15 932.46 1.8337 600.00 0.0016667 526.15 932.46 1.8337 2.4107 2.8290 1653.8 -0.0052143 215.21 0.18193 600.00 0.0016667 526.15 932.46 1.8337 2.4107 2.8290 1653.8 -0.0052143 215.21 0.18193
186.38 35485. undefined 528.56 936.33 1.8390 600.00 0.0016667 528.56 936.33 1.8390 2.4147 2.8324 1654.9 -0.0052088 215.19 0.18214 600.00 0.0016667 528.56 936.33 1.8390 2.4147 2.8324 1654.9 -0.0052088 215.19 0.18214
187.38 35612. undefined 530.98 940.21 1.8442 600.00 0.0016667 530.98 940.21 1.8442 2.4187 2.8359 1656.0 -0.0052034 215.17 0.18235 600.00 0.0016667 530.98 940.21 1.8442 2.4187 2.8359 1656.0 -0.0052034 215.17 0.18235
188.38 35739. undefined 533.40 944.08 1.8495 600.00 0.0016667 533.40 944.08 1.8495 2.4227 2.8394 1657.1 -0.0051980 215.15 0.18256 600.00 0.0016667 533.40 944.08 1.8495 2.4227 2.8394 1657.1 -0.0051980 215.15 0.18256
189.38 35865. undefined 535.83 947.96 1.8547 600.00 0.0016667 535.83 947.96 1.8547 2.4267 2.8428 1658.2 -0.0051926 215.13 0.18277 600.00 0.0016667 535.83 947.96 1.8547 2.4267 2.8428 1658.2 -0.0051926 215.13 0.18277
190.38 35991. undefined 538.26 951.84 1.8600 600.00 0.0016667 538.26 951.84 1.8600 2.4307 2.8463 1659.3 -0.0051873 215.11 0.18298 600.00 0.0016667 538.26 951.84 1.8600 2.4307 2.8463 1659.3 -0.0051873 215.11 0.18298
191.38 36118. undefined 540.69 955.73 1.8652 600.00 0.0016667 540.69 955.73 1.8652 2.4347 2.8497 1660.4 -0.0051819 215.09 0.18319 600.00 0.0016667 540.69 955.73 1.8652 2.4347 2.8497 1660.4 -0.0051819 215.09 0.18319
192.38 36244. undefined 543.12 959.61 1.8705 600.00 0.0016667 543.12 959.61 1.8705 2.4387 2.8532 1661.5 -0.0051765 215.08 0.18341 600.00 0.0016667 543.12 959.61 1.8705 2.4387 2.8532 1661.5 -0.0051765 215.08 0.18341
193.38 36370. undefined 545.57 963.50 1.8757 600.00 0.0016667 545.57 963.50 1.8757 2.4427 2.8566 1662.6 -0.0051712 215.06 0.18362 600.00 0.0016667 545.57 963.50 1.8757 2.4427 2.8566 1662.6 -0.0051712 215.06 0.18362
194.38 36496. undefined 548.01 967.39 1.8809 600.00 0.0016667 548.01 967.39 1.8809 2.4467 2.8601 1663.7 -0.0051659 215.04 0.18383 600.00 0.0016667 548.01 967.39 1.8809 2.4467 2.8601 1663.7 -0.0051659 215.04 0.18383
195.38 36622. undefined 550.46 971.29 1.8862 600.00 0.0016667 550.46 971.29 1.8862 2.4506 2.8635 1664.8 -0.0051605 215.02 0.18405 600.00 0.0016667 550.46 971.29 1.8862 2.4506 2.8635 1664.8 -0.0051605 215.02 0.18405
196.38 36748. undefined 552.91 975.19 1.8914 600.00 0.0016667 552.91 975.19 1.8914 2.4546 2.8670 1665.9 -0.0051552 215.01 0.18426 600.00 0.0016667 552.91 975.19 1.8914 2.4546 2.8670 1665.9 -0.0051552 215.01 0.18426
197.38 36873. undefined 555.37 979.09 1.8966 600.00 0.0016667 555.37 979.09 1.8966 2.4586 2.8704 1667.0 -0.0051500 214.99 0.18447 600.00 0.0016667 555.37 979.09 1.8966 2.4586 2.8704 1667.0 -0.0051500 214.99 0.18447
198.38 36999. undefined 557.83 982.99 1.9018 600.00 0.0016667 557.83 982.99 1.9018 2.4625 2.8738 1668.1 -0.0051447 214.97 0.18469 600.00 0.0016667 557.83 982.99 1.9018 2.4625 2.8738 1668.1 -0.0051447 214.97 0.18469
199.38 37124. undefined 560.29 986.90 1.9071 600.00 0.0016667 560.29 986.90 1.9071 2.4665 2.8773 1669.2 -0.0051394 214.96 0.18490 600.00 0.0016667 560.29 986.90 1.9071 2.4665 2.8773 1669.2 -0.0051394 214.96 0.18490
200.38 37250. undefined 562.76 990.81 1.9123 600.00 0.0016667 562.76 990.81 1.9123 2.4704 2.8807 1670.3 -0.0051342 214.94 0.18511 600.00 0.0016667 562.76 990.81 1.9123 2.4704 2.8807 1670.3 -0.0051342 214.94 0.18511
201.38 37375. undefined 565.23 994.72 1.9175 600.00 0.0016667 565.23 994.72 1.9175 2.4744 2.8841 1671.3 -0.0051289 214.92 0.18533 600.00 0.0016667 565.23 994.72 1.9175 2.4744 2.8841 1671.3 -0.0051289 214.92 0.18533
202.38 37500. undefined 567.71 998.63 1.9227 600.00 0.0016667 567.71 998.63 1.9227 2.4783 2.8876 1672.4 -0.0051237 214.91 0.18554 600.00 0.0016667 567.71 998.63 1.9227 2.4783 2.8876 1672.4 -0.0051237 214.91 0.18554
203.38 37625. undefined 570.19 1002.5 1.9279 600.00 0.0016667 570.19 1002.5 1.9279 2.4822 2.8910 1673.5 -0.0051185 214.89 0.18576 600.00 0.0016667 570.19 1002.5 1.9279 2.4822 2.8910 1673.5 -0.0051185 214.89 0.18576
204.38 37750. undefined 572.67 1006.5 1.9331 600.00 0.0016667 572.67 1006.5 1.9331 2.4862 2.8944 1674.6 -0.0051133 214.88 0.18598 600.00 0.0016667 572.67 1006.5 1.9331 2.4862 2.8944 1674.6 -0.0051133 214.88 0.18598
205.38 37875. undefined 575.16 1010.4 1.9383 600.00 0.0016667 575.16 1010.4 1.9383 2.4901 2.8978 1675.7 -0.0051081 214.86 0.18619 600.00 0.0016667 575.16 1010.4 1.9383 2.4901 2.8978 1675.7 -0.0051081 214.86 0.18619
206.38 37999. undefined 577.65 1014.3 1.9435 600.00 0.0016667 577.65 1014.3 1.9435 2.4940 2.9012 1676.7 -0.0051029 214.85 0.18641 600.00 0.0016667 577.65 1014.3 1.9435 2.4940 2.9012 1676.7 -0.0051029 214.85 0.18641
207.38 38124. undefined 580.15 1018.2 1.9487 600.00 0.0016667 580.15 1018.2 1.9487 2.4979 2.9046 1677.8 -0.0050977 214.83 0.18662 600.00 0.0016667 580.15 1018.2 1.9487 2.4979 2.9046 1677.8 -0.0050977 214.83 0.18662
208.38 38249. undefined 582.65 1022.2 1.9539 600.00 0.0016667 582.65 1022.2 1.9539 2.5018 2.9080 1678.9 -0.0050926 214.82 0.18684 600.00 0.0016667 582.65 1022.2 1.9539 2.5018 2.9080 1678.9 -0.0050926 214.82 0.18684
209.38 38373. undefined 585.15 1026.1 1.9591 600.00 0.0016667 585.15 1026.1 1.9591 2.5057 2.9114 1679.9 -0.0050875 214.80 0.18706 600.00 0.0016667 585.15 1026.1 1.9591 2.5057 2.9114 1679.9 -0.0050875 214.80 0.18706
210.38 38497. undefined 587.66 1030.0 1.9643 600.00 0.0016667 587.66 1030.0 1.9643 2.5096 2.9148 1681.0 -0.0050823 214.79 0.18728 600.00 0.0016667 587.66 1030.0 1.9643 2.5096 2.9148 1681.0 -0.0050823 214.79 0.18728
211.38 38622. undefined 590.17 1034.0 1.9695 600.00 0.0016667 590.17 1034.0 1.9695 2.5135 2.9182 1682.1 -0.0050772 214.77 0.18749 600.00 0.0016667 590.17 1034.0 1.9695 2.5135 2.9182 1682.1 -0.0050772 214.77 0.18749
212.38 38746. undefined 592.69 1037.9 1.9747 600.00 0.0016667 592.69 1037.9 1.9747 2.5174 2.9216 1683.1 -0.0050721 214.76 0.18771 600.00 0.0016667 592.69 1037.9 1.9747 2.5174 2.9216 1683.1 -0.0050721 214.76 0.18771
213.38 38870. undefined 595.21 1041.9 1.9799 600.00 0.0016667 595.21 1041.9 1.9799 2.5212 2.9250 1684.2 -0.0050670 214.75 0.18793 600.00 0.0016667 595.21 1041.9 1.9799 2.5212 2.9250 1684.2 -0.0050670 214.75 0.18793
214.38 38994. undefined 597.73 1045.8 1.9851 600.00 0.0016667 597.73 1045.8 1.9851 2.5251 2.9284 1685.3 -0.0050620 214.73 0.18815 600.00 0.0016667 597.73 1045.8 1.9851 2.5251 2.9284 1685.3 -0.0050620 214.73 0.18815
215.38 39117. undefined 600.26 1049.8 1.9902 600.00 0.0016667 600.26 1049.8 1.9902 2.5290 2.9318 1686.3 -0.0050569 214.72 0.18837 600.00 0.0016667 600.26 1049.8 1.9902 2.5290 2.9318 1686.3 -0.0050569 214.72 0.18837
216.38 39241. undefined 602.79 1053.7 1.9954 600.00 0.0016667 602.79 1053.7 1.9954 2.5328 2.9352 1687.4 -0.0050518 214.71 0.18859 600.00 0.0016667 602.79 1053.7 1.9954 2.5328 2.9352 1687.4 -0.0050518 214.71 0.18859
217.38 39365. undefined 605.32 1057.7 2.0006 600.00 0.0016667 605.32 1057.7 2.0006 2.5367 2.9385 1688.5 -0.0050468 214.69 0.18881 600.00 0.0016667 605.32 1057.7 2.0006 2.5367 2.9385 1688.5 -0.0050468 214.69 0.18881
218.38 39488. undefined 607.86 1061.6 2.0057 600.00 0.0016667 607.86 1061.6 2.0057 2.5405 2.9419 1689.5 -0.0050418 214.68 0.18903 600.00 0.0016667 607.86 1061.6 2.0057 2.5405 2.9419 1689.5 -0.0050418 214.68 0.18903
219.38 39612. undefined 610.41 1065.6 2.0109 600.00 0.0016667 610.41 1065.6 2.0109 2.5444 2.9453 1690.6 -0.0050368 214.67 0.18925 600.00 0.0016667 610.41 1065.6 2.0109 2.5444 2.9453 1690.6 -0.0050368 214.67 0.18925
220.38 39735. undefined 612.95 1069.6 2.0161 600.00 0.0016667 612.95 1069.6 2.0161 2.5482 2.9487 1691.6 -0.0050318 214.66 0.18947 600.00 0.0016667 612.95 1069.6 2.0161 2.5482 2.9487 1691.6 -0.0050318 214.66 0.18947
221.38 39858. undefined 615.50 1073.5 2.0212 600.00 0.0016667 615.50 1073.5 2.0212 2.5521 2.9520 1692.7 -0.0050268 214.64 0.18969 600.00 0.0016667 615.50 1073.5 2.0212 2.5521 2.9520 1692.7 -0.0050268 214.64 0.18969
222.38 39981. undefined 618.06 1077.5 2.0264 600.00 0.0016667 618.06 1077.5 2.0264 2.5559 2.9554 1693.7 -0.0050218 214.63 0.18991 600.00 0.0016667 618.06 1077.5 2.0264 2.5559 2.9554 1693.7 -0.0050218 214.63 0.18991
223.38 40104. undefined 620.61 1081.5 2.0316 600.00 0.0016667 620.61 1081.5 2.0316 2.5597 2.9587 1694.8 -0.0050169 214.62 0.19013 600.00 0.0016667 620.61 1081.5 2.0316 2.5597 2.9587 1694.8 -0.0050169 214.62 0.19013
224.38 40227. undefined 623.17 1085.4 2.0367 600.00 0.0016667 623.17 1085.4 2.0367 2.5635 2.9621 1695.8 -0.0050119 214.61 0.19035 600.00 0.0016667 623.17 1085.4 2.0367 2.5635 2.9621 1695.8 -0.0050119 214.61 0.19035
225.38 40350. undefined 625.74 1089.4 2.0419 600.00 0.0016667 625.74 1089.4 2.0419 2.5673 2.9654 1696.9 -0.0050070 214.60 0.19057 600.00 0.0016667 625.74 1089.4 2.0419 2.5673 2.9654 1696.9 -0.0050070 214.60 0.19057
226.38 40473. undefined 628.31 1093.4 2.0470 600.00 0.0016667 628.31 1093.4 2.0470 2.5712 2.9688 1697.9 -0.0050021 214.59 0.19080 600.00 0.0016667 628.31 1093.4 2.0470 2.5712 2.9688 1697.9 -0.0050021 214.59 0.19080
227.38 40595. undefined 630.88 1097.4 2.0522 600.00 0.0016667 630.88 1097.4 2.0522 2.5750 2.9721 1698.9 -0.0049972 214.57 0.19102 600.00 0.0016667 630.88 1097.4 2.0522 2.5750 2.9721 1698.9 -0.0049972 214.57 0.19102
228.38 40718. undefined 633.46 1101.4 2.0573 600.00 0.0016667 633.46 1101.4 2.0573 2.5788 2.9755 1700.0 -0.0049923 214.56 0.19124 600.00 0.0016667 633.46 1101.4 2.0573 2.5788 2.9755 1700.0 -0.0049923 214.56 0.19124
229.38 40840. undefined 636.04 1105.3 2.0624 600.00 0.0016667 636.04 1105.3 2.0624 2.5825 2.9788 1701.0 -0.0049874 214.55 0.19146 600.00 0.0016667 636.04 1105.3 2.0624 2.5825 2.9788 1701.0 -0.0049874 214.55 0.19146
230.38 40963. undefined 638.62 1109.3 2.0676 600.00 0.0016667 638.62 1109.3 2.0676 2.5863 2.9821 1702.1 -0.0049825 214.54 0.19169 600.00 0.0016667 638.62 1109.3 2.0676 2.5863 2.9821 1702.1 -0.0049825 214.54 0.19169
231.38 41085. undefined 641.21 1113.3 2.0727 600.00 0.0016667 641.21 1113.3 2.0727 2.5901 2.9855 1703.1 -0.0049777 214.53 0.19191 600.00 0.0016667 641.21 1113.3 2.0727 2.5901 2.9855 1703.1 -0.0049777 214.53 0.19191
232.38 41207. undefined 643.80 1117.3 2.0778 600.00 0.0016667 643.80 1117.3 2.0778 2.5939 2.9888 1704.1 -0.0049728 214.52 0.19213 600.00 0.0016667 643.80 1117.3 2.0778 2.5939 2.9888 1704.1 -0.0049728 214.52 0.19213
233.38 41329. undefined 646.40 1121.3 2.0830 600.00 0.0016667 646.40 1121.3 2.0830 2.5977 2.9921 1705.2 -0.0049680 214.51 0.19236 600.00 0.0016667 646.40 1121.3 2.0830 2.5977 2.9921 1705.2 -0.0049680 214.51 0.19236
234.38 41451. undefined 649.00 1125.3 2.0881 600.00 0.0016667 649.00 1125.3 2.0881 2.6014 2.9954 1706.2 -0.0049632 214.50 0.19258 600.00 0.0016667 649.00 1125.3 2.0881 2.6014 2.9954 1706.2 -0.0049632 214.50 0.19258
235.38 41573. undefined 651.60 1129.3 2.0932 600.00 0.0016667 651.60 1129.3 2.0932 2.6052 2.9988 1707.2 -0.0049584 214.49 0.19281 600.00 0.0016667 651.60 1129.3 2.0932 2.6052 2.9988 1707.2 -0.0049584 214.49 0.19281
236.38 41695. undefined 654.21 1133.3 2.0983 600.00 0.0016667 654.21 1133.3 2.0983 2.6089 3.0021 1708.2 -0.0049536 214.48 0.19303 600.00 0.0016667 654.21 1133.3 2.0983 2.6089 3.0021 1708.2 -0.0049536 214.48 0.19303
237.38 41817. undefined 656.82 1137.3 2.1035 600.00 0.0016667 656.82 1137.3 2.1035 2.6127 3.0054 1709.3 -0.0049488 214.47 0.19326 600.00 0.0016667 656.82 1137.3 2.1035 2.6127 3.0054 1709.3 -0.0049488 214.47 0.19326
238.38 41938. undefined 659.44 1141.4 2.1086 600.00 0.0016667 659.44 1141.4 2.1086 2.6164 3.0087 1710.3 -0.0049440 214.46 0.19348 600.00 0.0016667 659.44 1141.4 2.1086 2.6164 3.0087 1710.3 -0.0049440 214.46 0.19348
239.38 42060. undefined 662.05 1145.4 2.1137 600.00 0.0016667 662.05 1145.4 2.1137 2.6202 3.0120 1711.3 -0.0049393 214.45 0.19371 600.00 0.0016667 662.05 1145.4 2.1137 2.6202 3.0120 1711.3 -0.0049393 214.45 0.19371
240.38 42181. undefined 664.68 1149.4 2.1188 600.00 0.0016667 664.68 1149.4 2.1188 2.6239 3.0153 1712.3 -0.0049346 214.44 0.19394 600.00 0.0016667 664.68 1149.4 2.1188 2.6239 3.0153 1712.3 -0.0049346 214.44 0.19394
241.38 42302. undefined 667.30 1153.4 2.1239 600.00 0.0016667 667.30 1153.4 2.1239 2.6276 3.0186 1713.4 -0.0049298 214.44 0.19416 600.00 0.0016667 667.30 1153.4 2.1239 2.6276 3.0186 1713.4 -0.0049298 214.44 0.19416
242.38 42424. undefined 669.93 1157.4 2.1290 600.00 0.0016667 669.93 1157.4 2.1290 2.6314 3.0219 1714.4 -0.0049251 214.43 0.19439 600.00 0.0016667 669.93 1157.4 2.1290 2.6314 3.0219 1714.4 -0.0049251 214.43 0.19439
243.38 42545. undefined 672.56 1161.5 2.1341 600.00 0.0016667 672.56 1161.5 2.1341 2.6351 3.0252 1715.4 -0.0049204 214.42 0.19462 600.00 0.0016667 672.56 1161.5 2.1341 2.6351 3.0252 1715.4 -0.0049204 214.42 0.19462
244.38 42666. undefined 675.20 1165.5 2.1392 600.00 0.0016667 675.20 1165.5 2.1392 2.6388 3.0284 1716.4 -0.0049157 214.41 0.19484 600.00 0.0016667 675.20 1165.5 2.1392 2.6388 3.0284 1716.4 -0.0049157 214.41 0.19484
245.38 42787. undefined 677.84 1169.5 2.1443 600.00 0.0016667 677.84 1169.5 2.1443 2.6425 3.0317 1717.4 -0.0049110 214.40 0.19507 600.00 0.0016667 677.84 1169.5 2.1443 2.6425 3.0317 1717.4 -0.0049110 214.40 0.19507
246.38 42907. undefined 680.49 1173.5 2.1494 600.00 0.0016667 680.49 1173.5 2.1494 2.6462 3.0350 1718.4 -0.0049064 214.39 0.19530 600.00 0.0016667 680.49 1173.5 2.1494 2.6462 3.0350 1718.4 -0.0049064 214.39 0.19530
247.38 43028. undefined 683.13 1177.6 2.1545 600.00 0.0016667 683.13 1177.6 2.1545 2.6499 3.0383 1719.5 -0.0049017 214.38 0.19553 600.00 0.0016667 683.13 1177.6 2.1545 2.6499 3.0383 1719.5 -0.0049017 214.38 0.19553
248.38 43149. undefined 685.79 1181.6 2.1596 600.00 0.0016667 685.79 1181.6 2.1596 2.6536 3.0415 1720.5 -0.0048971 214.38 0.19576 600.00 0.0016667 685.79 1181.6 2.1596 2.6536 3.0415 1720.5 -0.0048971 214.38 0.19576
249.38 43269. undefined 688.44 1185.7 2.1647 600.00 0.0016667 688.44 1185.7 2.1647 2.6573 3.0448 1721.5 -0.0048925 214.37 0.19598 600.00 0.0016667 688.44 1185.7 2.1647 2.6573 3.0448 1721.5 -0.0048925 214.37 0.19598
250.38 43390. undefined 691.10 1189.7 2.1698 600.00 0.0016667 691.10 1189.7 2.1698 2.6610 3.0481 1722.5 -0.0048879 214.36 0.19621 600.00 0.0016667 691.10 1189.7 2.1698 2.6610 3.0481 1722.5 -0.0048879 214.36 0.19621
251.38 43510. undefined 693.76 1193.8 2.1749 600.00 0.0016667 693.76 1193.8 2.1749 2.6646 3.0513 1723.5 -0.0048833 214.35 0.19644 600.00 0.0016667 693.76 1193.8 2.1749 2.6646 3.0513 1723.5 -0.0048833 214.35 0.19644
252.38 43631. undefined 696.43 1197.8 2.1799 600.00 0.0016667 696.43 1197.8 2.1799 2.6683 3.0546 1724.5 -0.0048787 214.35 0.19667 600.00 0.0016667 696.43 1197.8 2.1799 2.6683 3.0546 1724.5 -0.0048787 214.35 0.19667
253.38 43751. undefined 699.10 1201.9 2.1850 600.00 0.0016667 699.10 1201.9 2.1850 2.6720 3.0578 1725.5 -0.0048741 214.34 0.19690 600.00 0.0016667 699.10 1201.9 2.1850 2.6720 3.0578 1725.5 -0.0048741 214.34 0.19690
254.38 43871. undefined 701.77 1205.9 2.1901 600.00 0.0016667 701.77 1205.9 2.1901 2.6756 3.0611 1726.5 -0.0048695 214.33 0.19713 600.00 0.0016667 701.77 1205.9 2.1901 2.6756 3.0611 1726.5 -0.0048695 214.33 0.19713
255.38 43991. undefined 704.45 1210.0 2.1952 600.00 0.0016667 704.45 1210.0 2.1952 2.6793 3.0643 1727.5 -0.0048650 214.33 0.19736 600.00 0.0016667 704.45 1210.0 2.1952 2.6793 3.0643 1727.5 -0.0048650 214.33 0.19736
256.38 44111. undefined 707.13 1214.0 2.2002 600.00 0.0016667 707.13 1214.0 2.2002 2.6829 3.0676 1728.5 -0.0048604 214.32 0.19759 600.00 0.0016667 707.13 1214.0 2.2002 2.6829 3.0676 1728.5 -0.0048604 214.32 0.19759
257.38 44231. undefined 709.82 1218.1 2.2053 600.00 0.0016667 709.82 1218.1 2.2053 2.6866 3.0708 1729.5 -0.0048559 214.31 0.19783 600.00 0.0016667 709.82 1218.1 2.2053 2.6866 3.0708 1729.5 -0.0048559 214.31 0.19783
258.38 44351. undefined 712.51 1222.1 2.2103 600.00 0.0016667 712.51 1222.1 2.2103 2.6902 3.0740 1730.5 -0.0048514 214.31 0.19806 600.00 0.0016667 712.51 1222.1 2.2103 2.6902 3.0740 1730.5 -0.0048514 214.31 0.19806
259.38 44470. undefined 715.20 1226.2 2.2154 600.00 0.0016667 715.20 1226.2 2.2154 2.6938 3.0772 1731.5 -0.0048469 214.30 0.19829 600.00 0.0016667 715.20 1226.2 2.2154 2.6938 3.0772 1731.5 -0.0048469 214.30 0.19829
260.38 44590. undefined 717.89 1230.3 2.2205 600.00 0.0016667 717.89 1230.3 2.2205 2.6975 3.0805 1732.5 -0.0048424 214.29 0.19852 600.00 0.0016667 717.89 1230.3 2.2205 2.6975 3.0805 1732.5 -0.0048424 214.29 0.19852
261.38 44709. undefined 720.59 1234.4 2.2255 600.00 0.0016667 720.59 1234.4 2.2255 2.7011 3.0837 1733.5 -0.0048379 214.29 0.19875 600.00 0.0016667 720.59 1234.4 2.2255 2.7011 3.0837 1733.5 -0.0048379 214.29 0.19875
262.38 44829. undefined 723.30 1238.4 2.2306 600.00 0.0016667 723.30 1238.4 2.2306 2.7047 3.0869 1734.5 -0.0048334 214.28 0.19899 600.00 0.0016667 723.30 1238.4 2.2306 2.7047 3.0869 1734.5 -0.0048334 214.28 0.19899
263.38 44948. undefined 726.00 1242.5 2.2356 600.00 0.0016667 726.00 1242.5 2.2356 2.7083 3.0901 1735.5 -0.0048290 214.27 0.19922 600.00 0.0016667 726.00 1242.5 2.2356 2.7083 3.0901 1735.5 -0.0048290 214.27 0.19922
264.38 45067. undefined 728.71 1246.6 2.2407 600.00 0.0016667 728.71 1246.6 2.2407 2.7119 3.0933 1736.4 -0.0048246 214.27 0.19945 600.00 0.0016667 728.71 1246.6 2.2407 2.7119 3.0933 1736.4 -0.0048246 214.27 0.19945
265.38 45186. undefined 731.43 1250.7 2.2457 600.00 0.0016667 731.43 1250.7 2.2457 2.7155 3.0965 1737.4 -0.0048201 214.26 0.19969 600.00 0.0016667 731.43 1250.7 2.2457 2.7155 3.0965 1737.4 -0.0048201 214.26 0.19969
266.38 45305. undefined 734.14 1254.8 2.2508 600.00 0.0016667 734.14 1254.8 2.2508 2.7191 3.0997 1738.4 -0.0048157 214.26 0.19992 600.00 0.0016667 734.14 1254.8 2.2508 2.7191 3.0997 1738.4 -0.0048157 214.26 0.19992
267.38 45424. undefined 736.86 1258.8 2.2558 600.00 0.0016667 736.86 1258.8 2.2558 2.7227 3.1029 1739.4 -0.0048113 214.25 0.20015 600.00 0.0016667 736.86 1258.8 2.2558 2.7227 3.1029 1739.4 -0.0048113 214.25 0.20015
268.38 45543. undefined 739.59 1262.9 2.2608 600.00 0.0016667 739.59 1262.9 2.2608 2.7263 3.1061 1740.4 -0.0048069 214.25 0.20039 600.00 0.0016667 739.59 1262.9 2.2608 2.7263 3.1061 1740.4 -0.0048069 214.25 0.20039
269.38 45662. undefined 742.32 1267.0 2.2659 600.00 0.0016667 742.32 1267.0 2.2659 2.7299 3.1093 1741.4 -0.0048025 214.24 0.20062 600.00 0.0016667 742.32 1267.0 2.2659 2.7299 3.1093 1741.4 -0.0048025 214.24 0.20062
270.38 45781. undefined 745.05 1271.1 2.2709 600.00 0.0016667 745.05 1271.1 2.2709 2.7335 3.1125 1742.3 -0.0047982 214.24 0.20086 600.00 0.0016667 745.05 1271.1 2.2709 2.7335 3.1125 1742.3 -0.0047982 214.24 0.20086
271.38 45899. undefined 747.78 1275.2 2.2759 600.00 0.0016667 747.78 1275.2 2.2759 2.7370 3.1157 1743.3 -0.0047938 214.23 0.20109 600.00 0.0016667 747.78 1275.2 2.2759 2.7370 3.1157 1743.3 -0.0047938 214.23 0.20109
272.38 46018. undefined 750.52 1279.3 2.2809 600.00 0.0016667 750.52 1279.3 2.2809 2.7406 3.1189 1744.3 -0.0047895 214.23 0.20133 600.00 0.0016667 750.52 1279.3 2.2809 2.7406 3.1189 1744.3 -0.0047895 214.23 0.20133
273.38 46136. undefined 753.27 1283.4 2.2860 600.00 0.0016667 753.27 1283.4 2.2860 2.7442 3.1221 1745.3 -0.0047851 214.22 0.20156 600.00 0.0016667 753.27 1283.4 2.2860 2.7442 3.1221 1745.3 -0.0047851 214.22 0.20156
274.38 46255. undefined 756.01 1287.5 2.2910 600.00 0.0016667 756.01 1287.5 2.2910 2.7477 3.1252 1746.3 -0.0047808 214.22 0.20180 600.00 0.0016667 756.01 1287.5 2.2910 2.7477 3.1252 1746.3 -0.0047808 214.22 0.20180
275.38 46373. undefined 758.76 1291.6 2.2960 600.00 0.0016667 758.76 1291.6 2.2960 2.7513 3.1284 1747.2 -0.0047765 214.21 0.20204 600.00 0.0016667 758.76 1291.6 2.2960 2.7513 3.1284 1747.2 -0.0047765 214.21 0.20204
276.38 46491. undefined 761.51 1295.8 2.3010 600.00 0.0016667 761.51 1295.8 2.3010 2.7548 3.1316 1748.2 -0.0047722 214.21 0.20227 600.00 0.0016667 761.51 1295.8 2.3010 2.7548 3.1316 1748.2 -0.0047722 214.21 0.20227
277.38 46609. undefined 764.27 1299.9 2.3060 600.00 0.0016667 764.27 1299.9 2.3060 2.7584 3.1347 1749.2 -0.0047679 214.20 0.20251 600.00 0.0016667 764.27 1299.9 2.3060 2.7584 3.1347 1749.2 -0.0047679 214.20 0.20251
278.38 46727. undefined 767.03 1304.0 2.3110 600.00 0.0016667 767.03 1304.0 2.3110 2.7619 3.1379 1750.1 -0.0047636 214.20 0.20275 600.00 0.0016667 767.03 1304.0 2.3110 2.7619 3.1379 1750.1 -0.0047636 214.20 0.20275
279.38 46845. undefined 769.79 1308.1 2.3160 600.00 0.0016667 769.79 1308.1 2.3160 2.7654 3.1410 1751.1 -0.0047594 214.20 0.20299 600.00 0.0016667 769.79 1308.1 2.3160 2.7654 3.1410 1751.1 -0.0047594 214.20 0.20299
280.38 46963. undefined 772.56 1312.2 2.3210 600.00 0.0016667 772.56 1312.2 2.3210 2.7689 3.1442 1752.1 -0.0047551 214.19 0.20322 600.00 0.0016667 772.56 1312.2 2.3210 2.7689 3.1442 1752.1 -0.0047551 214.19 0.20322
281.38 47081. undefined 775.33 1316.3 2.3260 600.00 0.0016667 775.33 1316.3 2.3260 2.7725 3.1473 1753.0 -0.0047509 214.19 0.20346 600.00 0.0016667 775.33 1316.3 2.3260 2.7725 3.1473 1753.0 -0.0047509 214.19 0.20346
282.38 47199. undefined 778.11 1320.5 2.3310 600.00 0.0016667 778.11 1320.5 2.3310 2.7760 3.1505 1754.0 -0.0047466 214.19 0.20351 600.00 0.0016667 778.11 1320.5 2.3310 2.7760 3.1505 1754.0 -0.0047466 214.19 0.20351
283.38 47316. undefined 780.88 1324.6 2.3360 600.00 0.0016667 780.88 1324.6 2.3360 2.7795 3.1536 1755.0 -0.0047424 214.18 0.20375 600.00 0.0016667 780.88 1324.6 2.3360 2.7795 3.1536 1755.0 -0.0047424 214.18 0.20375
284.38 47434. undefined 783.67 1328.7 2.3410 600.00 0.0016667 783.67 1328.7 2.3410 2.7830 3.1567 1755.9 -0.0047382 214.18 0.20399 600.00 0.0016667 783.67 1328.7 2.3410 2.7830 3.1567 1755.9 -0.0047382 214.18 0.20399
285.38 47551. undefined 786.45 1332.9 2.3460 600.00 0.0016667 786.45 1332.9 2.3460 2.7865 3.1599 1756.9 -0.0047340 214.17 0.20423 600.00 0.0016667 786.45 1332.9 2.3460 2.7865 3.1599 1756.9 -0.0047340 214.17 0.20423
286.38 47668. undefined 789.24 1337.0 2.3510 600.00 0.0016667 789.24 1337.0 2.3510 2.7900 3.1630 1757.8 -0.0047298 214.17 0.20447 600.00 0.0016667 789.24 1337.0 2.3510 2.7900 3.1630 1757.8 -0.0047298 214.17 0.20447
287.38 47786. undefined 792.03 1341.1 2.3560 600.00 0.0016667 792.03 1341.1 2.3560 2.7935 3.1661 1758.8 -0.0047257 214.17 0.20471 600.00 0.0016667 792.03 1341.1 2.3560 2.7935 3.1661 1758.8 -0.0047257 214.17 0.20471
288.38 47903. undefined 794.82 1345.3 2.3610 600.00 0.0016667 794.82 1345.3 2.3610 2.7969 3.1692 1759.8 -0.0047215 214.17 0.20495 600.00 0.0016667 794.82 1345.3 2.3610 2.7969 3.1692 1759.8 -0.0047215 214.17 0.20495
289.38 48020. undefined 797.62 1349.4 2.3660 600.00 0.0016667 797.62 1349.4 2.3660 2.8004 3.1724 1760.7 -0.0047174 214.16 0.20519 600.00 0.0016667 797.62 1349.4 2.3660 2.8004 3.1724 1760.7 -0.0047174 214.16 0.20519
290.38 48137. undefined 800.43 1353.6 2.3709 600.00 0.0016667 800.43 1353.6 2.3709 2.8039 3.1755 1761.7 -0.0047132 214.16 0.20543 600.00 0.0016667 800.43 1353.6 2.3709 2.8039 3.1755 1761.7 -0.0047132 214.16 0.20543
291.38 48254. undefined 803.23 1357.7 2.3759 600.00 0.0016667 803.23 1357.7 2.3759 2.8074 3.1786 1762.6 -0.0047091 214.16 0.20567 600.00 0.0016667 803.23 1357.7 2.3759 2.8074 3.1786 1762.6 -0.0047091 214.16 0.20567
292.38 48371. undefined 806.04 1361.9 2.3809 600.00 0.0016667 806.04 1361.9 2.3809 2.8108 3.1817 1763.6 -0.0047050 214.15 0.20591 600.00 0.0016667 806.04 1361.9 2.3809 2.8108 3.1817 1763.6 -0.0047050 214.15 0.20591
293.38 48488. undefined 808.85 1366.0 2.3859 600.00 0.0016667 808.85 1366.0 2.3859 2.8143 3.1848 1764.5 -0.0047009 214.15 0.20615 600.00 0.0016667 808.85 1366.0 2.3859 2.8143 3.1848 1764.5 -0.0047009 214.15 0.20615
294.38 48604. undefined 811.67 1370.2 2.3908 600.00 0.0016667 811.67 1370.2 2.3908 2.8177 3.1879 1765.5 -0.0046968 214.15 0.20639 600.00 0.0016667 811.67 1370.2 2.3908 2.8177 3.1879 1765.5 -0.0046968 214.15 0.20639
295.38 48721. undefined 814.49 1374.4 2.3958 600.00 0.0016667 814.49 1374.4 2.3958 2.8212 3.1910 1766.4 -0.0046927 214.15 0.20663 600.00 0.0016667 814.49 1374.4 2.3958 2.8212 3.1910 1766.4 -0.0046927 214.15 0.20663
296.38 48837. undefined 817.31 1378.5 2.4007 600.00 0.0016667 817.31 1378.5 2.4007 2.8246 3.1941 1767.4 -0.0046886 214.14 0.20687 600.00 0.0016667 817.31 1378.5 2.4007 2.8246 3.1941 1767.4 -0.0046886 214.14 0.20687
297.38 48954. undefined 820.14 1382.7 2.4057 600.00 0.0016667 820.14 1382.7 2.4057 2.8281 3.1971 1768.3 -0.0046846 214.14 0.20712 600.00 0.0016667 820.14 1382.7 2.4057 2.8281 3.1971 1768.3 -0.0046846 214.14 0.20712
298.38 49070. undefined 822.97 1386.8 2.4107 600.00 0.0016667 822.97 1386.8 2.4107 2.8315 3.2002 1769.3 -0.0046805 214.14 0.20736 600.00 0.0016667 822.97 1386.8 2.4107 2.8315 3.2002 1769.3 -0.0046805 214.14 0.20736
299.38 49186. undefined 825.80 1391.0 2.4156 600.00 0.0016667 825.80 1391.0 2.4156 2.8349 3.2033 1770.2 -0.0046765 214.14 0.20760 600.00 0.0016667 825.80 1391.0 2.4156 2.8349 3.2033 1770.2 -0.0046765 214.14 0.20760
300.38 49303. undefined 828.64 1395.2 2.4206 600.00 0.0016667 828.64 1395.2 2.4206 2.8384 3.2064 1771.1 -0.0046725 214.14 0.20785 600.00 0.0016667 828.64 1395.2 2.4206 2.8384 3.2064 1771.1 -0.0046725 214.14 0.20785