Temperature (C) Pressure (psia) Quality (l+v) Internal Energy (l+v, kJ/kg) Enthalpy (l+v, kJ/kg) Entropy (l+v, J/g*K) Density (l, kg/m3) Volume (l, m3/kg) Internal Energy (l, kJ/kg) Enthalpy (l, kJ/kg) Entropy (l, J/g*K) Cv (l, J/g*K) Cp (l, J/g*K) Sound Spd. (l, m/s) Joule-Thomson (l, F/psia) Viscosity (l, uPa*s) Therm. Cond. (l, W/m*K) Density (v, kg/m3) Volume (v, m3/kg) Internal Energy (v, kJ/kg) Enthalpy (v, kJ/kg) Entropy (v, J/g*K) Cv (v, J/g*K) Cp (v, J/g*K) Sound Spd. (v, m/s) Joule-Thomson (v, F/psia) Viscosity (v, uPa*s) Therm. Cond. (v, W/m*K)
-187.62 2.4953e-08 3.0819e-12 -196.64 -196.64 -1.3959 733.13 0.0013640 -196.64 -196.64 -1.3959 1.3553 1.9158 2136.4 -0.0077592 10960. 0.20792 1.0669e-08 9.3732e+07 350.13 366.26 5.1858 0.69067 0.87923 143.28 6.1051 2.3259 0.0017061
-186.62 3.7339e-08 4.5277e-12 -194.73 -194.73 -1.3736 732.08 0.0013660 -194.73 -194.73 -1.3736 1.3539 1.9166 2129.6 -0.0077546 10073. 0.20765 1.5780e-08 6.3371e+07 350.82 367.14 5.1200 0.69462 0.88317 144.03 5.9178 2.3534 0.0017533
-185.62 5.5322e-08 6.5865e-12 -192.81 -192.81 -1.3516 731.04 0.0013679 -192.81 -192.81 -1.3516 1.3525 1.9174 2122.9 -0.0077498 9276.1 0.20737 2.3112e-08 4.3267e+07 351.52 368.02 5.0561 0.69857 0.88713 144.77 5.7383 2.3808 0.0018007
-184.62 8.1182e-08 9.4908e-12 -190.89 -190.89 -1.3298 730.00 0.0013699 -190.89 -190.89 -1.3298 1.3513 1.9182 2116.1 -0.0077448 8557.8 0.20708 3.3533e-08 2.9821e+07 352.22 368.91 4.9939 0.70253 0.89108 145.51 5.5662 2.4083 0.0018485
-183.62 1.1803e-07 1.3551e-11 -188.97 -188.97 -1.3083 728.96 0.0013718 -188.97 -188.97 -1.3083 1.3501 1.9191 2109.3 -0.0077395 7909.8 0.20678 4.8211e-08 2.0742e+07 352.92 369.81 4.9333 0.70648 0.89504 146.24 5.4011 2.4357 0.0018965
-182.62 1.7009e-07 1.9176e-11 -187.05 -187.05 -1.2869 727.92 0.0013738 -187.05 -187.05 -1.2869 1.3490 1.9201 2102.5 -0.0077340 7324.3 0.20647 6.8704e-08 1.4555e+07 353.63 370.70 4.8744 0.71043 0.89899 146.97 5.2426 2.4632 0.0019448
-181.62 2.4299e-07 2.6906e-11 -185.13 -185.13 -1.2658 726.88 0.0013757 -185.13 -185.13 -1.2658 1.3480 1.9210 2095.7 -0.0077283 6794.5 0.20616 9.7079e-08 1.0301e+07 354.35 371.60 4.8170 0.71438 0.90294 147.69 5.0904 2.4906 0.0019934
-180.62 3.4425e-07 3.7440e-11 -183.21 -183.21 -1.2450 725.85 0.0013777 -183.21 -183.21 -1.2450 1.3470 1.9220 2088.9 -0.0077225 6314.4 0.20584 1.3605e-07 7.3504e+06 355.06 372.51 4.7612 0.71833 0.90688 148.41 4.9442 2.5181 0.0020423
-179.62 4.8378e-07 5.1681e-11 -181.29 -181.29 -1.2243 724.81 0.0013797 -181.29 -181.29 -1.2243 1.3461 1.9231 2082.0 -0.0077164 5878.8 0.20551 1.8915e-07 5.2868e+06 355.78 373.42 4.7068 0.72227 0.91082 149.13 4.8038 2.5456 0.0020915
-178.62 6.7459e-07 7.0788e-11 -179.37 -179.37 -1.2038 723.78 0.0013816 -179.37 -179.37 -1.2038 1.3453 1.9241 2075.2 -0.0077102 5482.9 0.20517 2.6096e-07 3.8320e+06 356.51 374.33 4.6538 0.72620 0.91475 149.84 4.6688 2.5731 0.0021410
-177.62 9.3358e-07 9.6235e-11 -177.44 -177.44 -1.1836 722.75 0.0013836 -177.44 -177.44 -1.1836 1.3445 1.9252 2068.4 -0.0077039 5122.6 0.20483 3.5737e-07 2.7982e+06 357.23 375.25 4.6022 0.73012 0.91867 150.54 4.5390 2.6005 0.0021907
-176.62 1.2826e-06 1.2988e-10 -175.52 -175.52 -1.1635 721.72 0.0013856 -175.52 -175.52 -1.1635 1.3437 1.9263 2061.5 -0.0076973 4794.1 0.20447 4.8588e-07 2.0581e+06 357.97 376.17 4.5519 0.73403 0.92258 151.25 4.4142 2.6280 0.0022408
-175.62 1.7496e-06 1.7406e-10 -173.59 -173.59 -1.1437 720.69 0.0013876 -173.59 -173.59 -1.1437 1.3430 1.9274 2054.7 -0.0076907 4494.3 0.20411 6.5601e-07 1.5244e+06 358.70 377.09 4.5029 0.73792 0.92648 151.95 4.2941 2.6555 0.0022912
-174.62 2.3705e-06 2.3169e-10 -171.66 -171.66 -1.1240 719.66 0.0013895 -171.66 -171.66 -1.1240 1.3423 1.9286 2047.9 -0.0076838 4220.2 0.20375 8.7976e-07 1.1367e+06 359.44 378.02 4.4551 0.74181 0.93036 152.64 4.1784 2.6830 0.0023418
-173.62 3.1903e-06 3.0636e-10 -169.73 -169.73 -1.1045 718.64 0.0013915 -169.73 -169.73 -1.1045 1.3417 1.9298 2041.0 -0.0076769 3969.3 0.20338 1.1721e-06 8.5314e+05 360.19 378.95 4.4085 0.74568 0.93423 153.33 4.0671 2.7105 0.0023928
-172.62 4.2661e-06 4.0250e-10 -167.80 -167.80 -1.0852 717.61 0.0013935 -167.80 -167.80 -1.0852 1.3411 1.9310 2034.2 -0.0076698 3739.3 0.20300 1.5518e-06 6.4441e+05 360.93 379.89 4.3631 0.74953 0.93809 154.02 3.9599 2.7379 0.0024440
-171.62 5.6692e-06 5.2555e-10 -165.87 -165.87 -1.0661 716.58 0.0013955 -165.87 -165.87 -1.0661 1.3405 1.9322 2027.3 -0.0076625 3528.0 0.20261 2.0419e-06 4.8974e+05 361.69 380.83 4.3188 0.75337 0.94193 154.71 3.8566 2.7654 0.0024955
-170.62 7.4884e-06 6.8209e-10 -163.94 -163.94 -1.0472 715.56 0.0013975 -163.94 -163.94 -1.0472 1.3400 1.9334 2020.5 -0.0076552 3333.8 0.20222 2.6708e-06 3.7442e+05 362.44 381.77 4.2755 0.75720 0.94575 155.39 3.7570 2.7929 0.0025473
-169.62 9.8334e-06 8.8008e-10 -162.00 -162.00 -1.0284 714.54 0.0013995 -162.00 -162.00 -1.0284 1.3395 1.9347 2013.6 -0.0076477 3154.9 0.20182 3.4733e-06 2.8791e+05 363.20 382.72 4.2334 0.76100 0.94956 156.07 3.6609 2.8204 0.0025994
-168.62 1.2839e-05 1.1291e-09 -160.07 -160.07 -1.0098 713.52 0.0014015 -160.07 -160.07 -1.0098 1.3390 1.9359 2006.8 -0.0076401 2989.9 0.20141 4.4917e-06 2.2263e+05 363.96 383.67 4.1922 0.76479 0.95335 156.74 3.5683 2.8479 0.0026518
-167.62 1.6672e-05 1.4407e-09 -158.13 -158.13 -0.99134 712.49 0.0014035 -158.13 -158.13 -0.99134 1.3386 1.9372 2000.0 -0.0076323 2837.5 0.20100 5.7771e-06 1.7310e+05 364.73 384.63 4.1521 0.76856 0.95712 157.41 3.4790 2.8754 0.0027045
-166.62 2.1533e-05 1.8283e-09 -156.19 -156.19 -0.97306 711.47 0.0014055 -156.19 -156.19 -0.97306 1.3382 1.9385 1993.1 -0.0076245 2696.5 0.20058 7.3914e-06 1.3529e+05 365.50 385.59 4.1129 0.77232 0.96087 158.08 3.3927 2.9029 0.0027575
-165.62 2.7666e-05 2.3083e-09 -154.25 -154.25 -0.95494 710.45 0.0014075 -154.25 -154.25 -0.95494 1.3378 1.9398 1986.3 -0.0076165 2566.0 0.20016 9.4084e-06 1.0629e+05 366.27 386.55 4.0746 0.77605 0.96460 158.75 3.3095 2.9304 0.0028108
-164.62 3.5367e-05 2.8995e-09 -152.31 -152.31 -0.93698 709.44 0.0014096 -152.31 -152.31 -0.93698 1.3375 1.9411 1979.4 -0.0076084 2444.9 0.19973 1.1916e-05 83918. 367.05 387.52 4.0372 0.77976 0.96832 159.41 3.2291 2.9579 0.0028643
-163.62 4.4989e-05 3.6243e-09 -150.37 -150.37 -0.91917 708.42 0.0014116 -150.37 -150.37 -0.91917 1.3371 1.9424 1972.6 -0.0076002 2332.3 0.19930 1.5020e-05 66577. 367.83 388.49 4.0008 0.78346 0.97201 160.07 3.1514 2.9854 0.0029182
-162.62 5.6956e-05 4.5086e-09 -148.43 -148.43 -0.90151 707.40 0.0014136 -148.43 -148.43 -0.90151 1.3368 1.9437 1965.8 -0.0075919 2227.7 0.19886 1.8844e-05 53068. 368.62 389.46 3.9651 0.78713 0.97569 160.72 3.0764 3.0129 0.0029723
-161.62 7.1773e-05 5.5827e-09 -146.48 -146.48 -0.88400 706.38 0.0014157 -146.48 -146.48 -0.88400 1.3365 1.9451 1959.0 -0.0075834 2130.2 0.19841 2.3533e-05 42494. 369.41 390.44 3.9304 0.79079 0.97935 161.38 3.0038 3.0404 0.0030268
-160.62 9.0036e-05 6.8814e-09 -144.54 -144.54 -0.86663 705.37 0.0014177 -144.54 -144.54 -0.86663 1.3363 1.9465 1952.1 -0.0075748 2039.2 0.19796 2.9258e-05 34178. 370.20 391.42 3.8964 0.79443 0.98298 162.03 2.9337 3.0679 0.0030815
-159.62 0.00011245 8.4449e-09 -142.59 -142.59 -0.84940 704.35 0.0014197 -142.59 -142.59 -0.84940 1.3360 1.9478 1945.3 -0.0075661 1954.2 0.19751 3.6221e-05 27609. 371.00 392.40 3.8632 0.79805 0.98660 162.68 2.8658 3.0955 0.0031365
-158.62 0.00013985 1.0319e-08 -140.64 -140.64 -0.83231 703.34 0.0014218 -140.64 -140.64 -0.83231 1.3358 1.9492 1938.5 -0.0075573 1874.8 0.19705 4.4652e-05 22395. 371.80 393.39 3.8307 0.80164 0.99020 163.32 2.8002 3.1230 0.0031918
-157.62 0.00017320 1.2557e-08 -138.69 -138.69 -0.81536 702.32 0.0014238 -138.69 -138.69 -0.81536 1.3356 1.9506 1931.7 -0.0075484 1800.3 0.19658 5.4822e-05 18241. 372.60 394.38 3.7990 0.80522 0.99378 163.96 2.7367 3.1505 0.0032474
-156.62 0.00021364 1.5218e-08 -136.74 -136.74 -0.79854 701.31 0.0014259 -136.74 -136.74 -0.79854 1.3354 1.9520 1924.9 -0.0075393 1730.5 0.19611 6.7040e-05 14916. 373.41 395.38 3.7680 0.80878 0.99734 164.60 2.6752 3.1780 0.0033033
-155.62 0.00026248 1.8369e-08 -134.79 -134.79 -0.78185 700.30 0.0014280 -134.79 -134.79 -0.78185 1.3352 1.9534 1918.1 -0.0075302 1664.9 0.19564 8.1666e-05 12245. 374.22 396.38 3.7377 0.81232 1.0009 165.24 2.6157 3.2055 0.0033595
-154.62 0.00032125 2.2088e-08 -132.83 -132.83 -0.76530 699.29 0.0014300 -132.83 -132.83 -0.76530 1.3350 1.9548 1911.3 -0.0075209 1603.3 0.19516 9.9109e-05 10090. 375.03 397.38 3.7081 0.81585 1.0044 165.87 2.5580 3.2330 0.0034160
-153.62 0.00039171 2.6459e-08 -130.88 -130.88 -0.74887 698.27 0.0014321 -130.88 -130.88 -0.74887 1.3349 1.9563 1904.5 -0.0075114 1545.3 0.19468 0.00011984 8344.6 375.85 398.39 3.6792 0.81935 1.0079 166.50 2.5022 3.2606 0.0034727
-152.62 0.00047590 3.1579e-08 -128.92 -128.92 -0.73256 697.26 0.0014342 -128.92 -128.92 -0.73256 1.3348 1.9577 1897.8 -0.0075019 1490.6 0.19419 0.00014439 6925.9 376.67 399.40 3.6509 0.82284 1.0114 167.13 2.4481 3.2881 0.0035298
-151.62 0.00057613 3.7554e-08 -126.96 -126.96 -0.71638 696.25 0.0014363 -126.96 -126.96 -0.71638 1.3346 1.9592 1891.0 -0.0074922 1438.9 0.19370 0.00017336 5768.4 377.49 400.41 3.6232 0.82631 1.0149 167.76 2.3957 3.3156 0.0035872
-150.62 0.00069507 4.4503e-08 -125.00 -125.00 -0.70032 695.24 0.0014384 -125.00 -125.00 -0.70032 1.3345 1.9606 1884.2 -0.0074824 1390.2 0.19320 0.00020744 4820.7 378.32 401.42 3.5962 0.82976 1.0183 168.38 2.3448 3.3431 0.0036448
-149.62 0.00083574 5.2559e-08 -123.04 -123.04 -0.68438 694.23 0.0014404 -123.04 -123.04 -0.68438 1.3345 1.9621 1877.4 -0.0074724 1344.0 0.19270 0.00024740 4042.0 379.15 402.44 3.5697 0.83319 1.0218 169.00 2.2956 3.3706 0.0037027
-148.62 0.0010016 6.1866e-08 -121.08 -121.08 -0.66855 693.22 0.0014425 -121.08 -121.08 -0.66855 1.3344 1.9636 1870.7 -0.0074623 1300.3 0.19220 0.00029412 3400.0 379.99 403.47 3.5438 0.83661 1.0252 169.62 2.2478 3.3982 0.0037610
-147.62 0.0011965 7.2583e-08 -119.11 -119.11 -0.65284 692.21 0.0014447 -119.11 -119.11 -0.65284 1.3343 1.9651 1863.9 -0.0074521 1258.9 0.19169 0.00034856 2869.0 380.83 404.49 3.5185 0.84001 1.0286 170.24 2.2014 3.4257 0.0038195
-146.62 0.0014249 8.4885e-08 -117.15 -117.15 -0.63724 691.20 0.0014468 -117.15 -117.15 -0.63724 1.3343 1.9666 1857.2 -0.0074417 1219.6 0.19117 0.00041181 2428.3 381.67 405.52 3.4938 0.84340 1.0320 170.85 2.1565 3.4532 0.0038783
-145.62 0.0016917 9.8964e-08 -115.18 -115.18 -0.62175 690.19 0.0014489 -115.18 -115.18 -0.62175 1.3343 1.9682 1850.4 -0.0074312 1182.3 0.19066 0.00048510 2061.4 382.51 406.56 3.4695 0.84677 1.0353 171.46 2.1128 3.4807 0.0039374
-144.62 0.0020026 1.1503e-07 -113.21 -113.21 -0.60637 689.18 0.0014510 -113.21 -113.21 -0.60637 1.3343 1.9697 1843.7 -0.0074206 1146.8 0.19014 0.00056976 1755.1 383.36 407.59 3.4458 0.85012 1.0387 172.07 2.0705 3.5082 0.0039967
-143.62 0.0023637 1.3330e-07 -111.24 -111.24 -0.59110 688.17 0.0014531 -111.24 -111.24 -0.59110 1.3343 1.9713 1836.9 -0.0074098 1113.0 0.18962 0.00066731 1498.6 384.21 408.63 3.4226 0.85346 1.0420 172.68 2.0294 3.5358 0.0040564
-142.62 0.0027820 1.5402e-07 -109.27 -109.27 -0.57593 687.16 0.0014553 -109.27 -109.27 -0.57593 1.3343 1.9728 1830.2 -0.0073988 1080.8 0.18909 0.00077939 1283.1 385.07 409.68 3.3999 0.85679 1.0454 173.28 1.9896 3.5633 0.0041164
-141.62 0.0032653 1.7746e-07 -107.30 -107.30 -0.56087 686.15 0.0014574 -107.30 -107.30 -0.56087 1.3343 1.9744 1823.5 -0.0073878 1050.1 0.18856 0.00090784 1101.5 385.93 410.72 3.3777 0.86011 1.0487 173.88 1.9508 3.5908 0.0041766
-140.62 0.0038222 2.0390e-07 -105.32 -105.32 -0.54591 685.14 0.0014596 -105.32 -105.32 -0.54591 1.3344 1.9760 1816.7 -0.0073765 1020.7 0.18803 0.0010547 948.16 386.79 411.77 3.3560 0.86341 1.0520 174.48 1.9133 3.6183 0.0042372
-139.62 0.0044623 2.3364e-07 -103.34 -103.34 -0.53105 684.13 0.0014617 -103.34 -103.34 -0.53105 1.3344 1.9776 1810.0 -0.0073651 992.74 0.18749 0.0012221 818.26 387.65 412.83 3.3347 0.86670 1.0553 175.08 1.8768 3.6459 0.0042980
-138.62 0.0051963 2.6700e-07 -101.37 -101.37 -0.51629 683.12 0.0014639 -101.37 -101.37 -0.51629 1.3345 1.9792 1803.3 -0.0073536 965.97 0.18695 0.0014125 707.94 388.52 413.88 3.3139 0.86998 1.0586 175.67 1.8413 3.6734 0.0043592
-137.62 0.0060358 3.0432e-07 -99.386 -99.386 -0.50162 682.11 0.0014660 -99.386 -99.386 -0.50162 1.3346 1.9808 1796.6 -0.0073419 940.35 0.18641 0.0016287 614.00 389.39 414.94 3.2935 0.87325 1.0619 176.26 1.8069 3.7009 0.0044206
-136.62 0.0069938 3.4596e-07 -97.404 -97.404 -0.48705 681.10 0.0014682 -97.404 -97.404 -0.48705 1.3347 1.9825 1789.9 -0.0073301 915.81 0.18586 0.0018733 533.80 390.26 416.00 3.2735 0.87650 1.0651 176.85 1.7734 3.7284 0.0044823
-135.62 0.0080843 3.9232e-07 -95.421 -95.421 -0.47258 680.09 0.0014704 -95.421 -95.421 -0.47258 1.3348 1.9841 1783.2 -0.0073180 892.30 0.18531 0.0021497 465.17 391.14 417.07 3.2540 0.87975 1.0684 177.44 1.7409 3.7559 0.0045443
-134.62 0.0093230 4.4378e-07 -93.436 -93.436 -0.45820 679.08 0.0014726 -93.436 -93.436 -0.45820 1.3350 1.9858 1776.5 -0.0073059 869.75 0.18476 0.0024613 406.30 392.02 418.14 3.2348 0.88299 1.0716 178.02 1.7093 3.7834 0.0046066
-133.62 0.010727 5.0078e-07 -91.449 -91.449 -0.44391 678.07 0.0014748 -91.450 -91.449 -0.44391 1.3351 1.9875 1769.8 -0.0072935 848.11 0.18421 0.0028116 355.67 392.91 419.21 3.2161 0.88622 1.0749 178.61 1.6786 3.8109 0.0046691
-132.62 0.012315 5.6376e-07 -89.461 -89.461 -0.42971 677.06 0.0014770 -89.461 -89.461 -0.42971 1.3353 1.9892 1763.1 -0.0072810 827.32 0.18365 0.0032049 312.03 393.79 420.29 3.1977 0.88944 1.0781 179.19 1.6488 3.8385 0.0047320
-131.62 0.014106 6.3318e-07 -87.471 -87.471 -0.41559 676.04 0.0014792 -87.471 -87.471 -0.41560 1.3354 1.9909 1756.4 -0.0072684 807.34 0.18309 0.0036453 274.33 394.68 421.36 3.1798 0.89266 1.0813 179.76 1.6197 3.8660 0.0047951
-130.62 0.016124 7.0952e-07 -85.479 -85.479 -0.40157 675.03 0.0014814 -85.479 -85.479 -0.40157 1.3356 1.9926 1749.7 -0.0072555 788.12 0.18253 0.0041375 241.69 395.58 422.44 3.1622 0.89586 1.0846 180.34 1.5915 3.8935 0.0048586
-129.62 0.018392 7.9326e-07 -83.486 -83.485 -0.38763 674.02 0.0014836 -83.486 -83.486 -0.38763 1.3358 1.9944 1743.0 -0.0072425 769.63 0.18196 0.0046867 213.37 396.47 423.53 3.1450 0.89906 1.0878 180.91 1.5641 3.9210 0.0049223
-128.62 0.020935 8.8493e-07 -81.490 -81.490 -0.37378 673.01 0.0014859 -81.491 -81.490 -0.37378 1.3360 1.9961 1736.3 -0.0072294 751.83 0.18140 0.0052981 188.75 397.37 424.62 3.1281 0.90226 1.0910 181.48 1.5374 3.9485 0.0049863
-127.62 0.023783 9.8504e-07 -79.493 -79.493 -0.36001 672.00 0.0014881 -79.494 -79.493 -0.36001 1.3363 1.9979 1729.6 -0.0072160 734.67 0.18083 0.0059776 167.29 398.27 425.71 3.1116 0.90545 1.0942 182.05 1.5114 3.9760 0.0050506
-126.62 0.026966 1.0941e-06 -77.494 -77.494 -0.34632 670.98 0.0014904 -77.495 -77.495 -0.34632 1.3365 1.9997 1722.9 -0.0072025 718.14 0.18025 0.0067313 148.56 399.18 426.80 3.0954 0.90863 1.0974 182.62 1.4861 4.0035 0.0051152
-125.62 0.030515 1.2127e-06 -75.494 -75.493 -0.33271 669.97 0.0014926 -75.494 -75.494 -0.33272 1.3368 2.0015 1716.2 -0.0071888 702.18 0.17968 0.0075660 132.17 400.09 427.89 3.0795 0.91181 1.1006 183.18 1.4615 4.0310 0.0051800
-124.62 0.034467 1.3414e-06 -73.491 -73.491 -0.31918 668.95 0.0014949 -73.492 -73.492 -0.31919 1.3371 2.0033 1709.5 -0.0071749 686.79 0.17910 0.0084885 117.81 401.00 428.99 3.0640 0.91499 1.1038 183.74 1.4375 4.0584 0.0052452
-123.62 0.038859 1.4807e-06 -71.487 -71.487 -0.30573 667.94 0.0014971 -71.488 -71.487 -0.30574 1.3374 2.0051 1702.8 -0.0071609 671.93 0.17852 0.0095065 105.19 401.91 430.10 3.0488 0.91816 1.1070 184.30 1.4141 4.0859 0.0053106
-122.62 0.043731 1.6311e-06 -69.481 -69.480 -0.29236 666.92 0.0014994 -69.482 -69.481 -0.29237 1.3377 2.0070 1696.2 -0.0071466 657.57 0.17794 0.010628 94.092 402.83 431.20 3.0339 0.92134 1.1102 184.86 1.3913 4.1134 0.0053764
-121.62 0.049128 1.7933e-06 -67.473 -67.472 -0.27907 665.91 0.0015017 -67.474 -67.473 -0.27907 1.3380 2.0089 1689.5 -0.0071322 643.70 0.17736 0.011861 84.309 403.75 432.31 3.0193 0.92451 1.1134 185.41 1.3691 4.1409 0.0054424
-120.62 0.055096 1.9677e-06 -65.463 -65.462 -0.26585 664.89 0.0015040 -65.464 -65.463 -0.26585 1.3384 2.0107 1682.8 -0.0071176 630.28 0.17678 0.013215 75.669 404.67 433.42 3.0050 0.92767 1.1166 185.96 1.3475 4.1683 0.0055087
-119.62 0.061684 2.1548e-06 -63.451 -63.451 -0.25270 663.87 0.0015063 -63.452 -63.452 -0.25271 1.3387 2.0126 1676.1 -0.0071028 617.30 0.17619 0.014700 68.027 405.60 434.53 2.9909 0.93084 1.1198 186.51 1.3264 4.1958 0.0055752
-118.62 0.068946 2.3553e-06 -61.438 -61.437 -0.23963 662.86 0.0015086 -61.439 -61.438 -0.23963 1.3391 2.0146 1669.4 -0.0070878 604.74 0.17560 0.016325 61.255 406.53 435.64 2.9772 0.93401 1.1231 187.06 1.3058 4.2233 0.0056421
-117.62 0.076937 2.5695e-06 -59.422 -59.421 -0.22662 661.84 0.0015109 -59.423 -59.422 -0.22663 1.3395 2.0165 1662.8 -0.0070726 592.58 0.17501 0.018101 55.245 407.46 436.76 2.9638 0.93718 1.1263 187.60 1.2857 4.2507 0.0057092
-116.62 0.085718 2.7980e-06 -57.404 -57.403 -0.21369 660.82 0.0015133 -57.406 -57.405 -0.21370 1.3400 2.0184 1656.1 -0.0070573 580.80 0.17442 0.020040 49.901 408.39 437.88 2.9506 0.94035 1.1295 188.14 1.2660 4.2782 0.0057767
-115.62 0.095353 3.0412e-06 -55.385 -55.384 -0.20083 659.80 0.0015156 -55.386 -55.385 -0.20084 1.3404 2.0204 1649.4 -0.0070417 569.38 0.17383 0.022152 45.142 409.33 439.01 2.9377 0.94352 1.1327 188.68 1.2468 4.3056 0.0058444
-114.62 0.10591 3.2994e-06 -53.363 -53.362 -0.18804 658.78 0.0015180 -53.365 -53.364 -0.18805 1.3409 2.0224 1642.7 -0.0070260 558.32 0.17323 0.024451 40.898 410.27 440.13 2.9250 0.94669 1.1360 189.22 1.2281 4.3330 0.0059123
-113.62 0.11746 3.5729e-06 -51.340 -51.339 -0.17532 657.76 0.0015203 -51.342 -51.340 -0.17533 1.3413 2.0244 1636.0 -0.0070100 547.59 0.17264 0.026949 37.107 411.21 441.26 2.9126 0.94987 1.1392 189.75 1.2097 4.3604 0.0059806
-112.62 0.13008 3.8622e-06 -49.314 -49.313 -0.16266 656.73 0.0015227 -49.316 -49.315 -0.16267 1.3418 2.0264 1629.3 -0.0069938 537.18 0.17204 0.029661 33.715 412.16 442.39 2.9005 0.95305 1.1424 190.28 1.1918 4.3879 0.0060491
-111.62 0.14384 4.1674e-06 -47.287 -47.285 -0.15007 655.71 0.0015251 -47.289 -47.287 -0.15008 1.3424 2.0285 1622.7 -0.0069774 527.08 0.17144 0.032600 30.675 413.10 443.53 2.8885 0.95623 1.1457 190.81 1.1742 4.4153 0.0061180
-110.62 0.15884 4.4888e-06 -45.257 -45.255 -0.13754 654.69 0.0015274 -45.259 -45.258 -0.13755 1.3429 2.0305 1616.0 -0.0069609 517.28 0.17084 0.035781 27.948 414.06 444.66 2.8769 0.95942 1.1490 191.34 1.1570 4.4427 0.0061871
-109.62 0.17516 4.8263e-06 -43.226 -43.224 -0.12508 653.66 0.0015298 -43.228 -43.226 -0.12509 1.3435 2.0326 1609.3 -0.0069441 507.76 0.17024 0.039220 25.497 415.01 445.80 2.8654 0.96261 1.1522 191.86 1.1402 4.4701 0.0062564
-108.62 0.19290 5.1800e-06 -41.192 -41.190 -0.11268 652.64 0.0015322 -41.194 -41.192 -0.11269 1.3441 2.0347 1602.6 -0.0069271 498.51 0.16964 0.042933 23.292 415.96 446.94 2.8542 0.96581 1.1555 192.38 1.1236 4.4974 0.0063261
-107.62 0.21215 5.5498e-06 -39.156 -39.153 -0.10034 651.61 0.0015347 -39.158 -39.156 -0.10036 1.3447 2.0369 1595.9 -0.0069098 489.52 0.16903 0.046937 21.305 416.92 448.09 2.8433 0.96901 1.1588 192.90 1.1075 4.5248 0.0063960
-106.62 0.23301 5.9355e-06 -37.118 -37.115 -0.088065 650.58 0.0015371 -37.120 -37.118 -0.088082 1.3453 2.0390 1589.2 -0.0068924 480.79 0.16843 0.051250 19.512 417.88 449.23 2.8325 0.97222 1.1621 193.41 1.0916 4.5522 0.0064662
-105.62 0.25561 6.3369e-06 -35.078 -35.075 -0.075850 649.55 0.0015395 -35.080 -35.078 -0.075868 1.3460 2.0412 1582.6 -0.0068747 472.30 0.16782 0.055891 17.892 418.85 450.38 2.8220 0.97544 1.1655 193.93 1.0760 4.5795 0.0065367
-104.62 0.28004 6.7535e-06 -33.035 -33.032 -0.063695 648.52 0.0015420 -33.038 -33.035 -0.063714 1.3467 2.0434 1575.9 -0.0068569 464.04 0.16721 0.060878 16.426 419.81 451.53 2.8116 0.97867 1.1688 194.44 1.0608 4.6069 0.0066074
-103.62 0.30643 7.1848e-06 -30.991 -30.987 -0.051598 647.49 0.0015444 -30.994 -30.991 -0.051619 1.3474 2.0456 1569.2 -0.0068387 456.00 0.16660 0.066231 15.099 420.78 452.68 2.8015 0.98191 1.1722 194.94 1.0458 4.6342 0.0066785
-102.62 0.33490 7.6300e-06 -28.944 -28.940 -0.039560 646.46 0.0015469 -28.947 -28.944 -0.039582 1.3481 2.0478 1562.5 -0.0068204 448.18 0.16600 0.071971 13.894 421.75 453.84 2.7916 0.98516 1.1755 195.44 1.0310 4.6615 0.0067498
-101.62 0.36558 8.0885e-06 -26.895 -26.891 -0.027579 645.43 0.0015494 -26.898 -26.894 -0.027602 1.3489 2.0501 1555.8 -0.0068018 440.57 0.16539 0.078120 12.801 422.73 454.99 2.7818 0.98841 1.1789 195.95 1.0166 4.6888 0.0068213
-100.62 0.39862 8.5590e-06 -24.843 -24.839 -0.015654 644.39 0.0015519 -24.847 -24.843 -0.015678 1.3497 2.0524 1549.1 -0.0067830 433.16 0.16478 0.084699 11.807 423.70 456.15 2.7723 0.99168 1.1823 196.44 1.0024 4.7161 0.0068932
-99.625 0.43414 9.0406e-06 -22.790 -22.785 -0.0037852 643.36 0.0015544 -22.794 -22.789 -0.0038103 1.3505 2.0547 1542.4 -0.0067639 425.95 0.16416 0.091731 10.901 424.68 457.31 2.7630 0.99496 1.1858 196.94 0.98838 4.7434 0.0069653
-98.625 0.47230 9.5317e-06 -20.734 -20.728 0.0080289 642.32 0.0015569 -20.738 -20.733 0.0080027 1.3514 2.0570 1535.7 -0.0067447 418.92 0.16355 0.099240 10.077 425.66 458.48 2.7538 0.99825 1.1892 197.43 0.97464 4.7707 0.0070377
-97.625 0.51325 1.0031e-05 -18.675 -18.670 0.019789 641.28 0.0015594 -18.680 -18.674 0.019762 1.3522 2.0594 1529.0 -0.0067251 412.07 0.16294 0.10725 9.3239 426.65 459.64 2.7448 1.0016 1.1927 197.92 0.96112 4.7979 0.0071103
-96.625 0.55714 1.0536e-05 -16.615 -16.608 0.031496 640.24 0.0015619 -16.620 -16.614 0.031467 1.3531 2.0618 1522.3 -0.0067053 405.39 0.16233 0.11579 8.6365 427.63 460.81 2.7360 1.0049 1.1962 198.40 0.94783 4.8251 0.0071832
-95.625 0.60416 1.1046e-05 -14.552 -14.545 0.043150 639.20 0.0015645 -14.557 -14.550 0.043120 1.3540 2.0642 1515.7 -0.0066853 398.88 0.16171 0.12488 8.0078 428.62 461.98 2.7274 1.0082 1.1997 198.88 0.93475 4.8524 0.0072564
-94.625 0.65446 1.1558e-05 -12.486 -12.479 0.054752 638.16 0.0015670 -12.491 -12.484 0.054721 1.3550 2.0667 1509.0 -0.0066650 392.53 0.16110 0.13455 7.4323 429.61 463.15 2.7189 1.0116 1.2032 199.36 0.92188 4.8796 0.0073299
-93.625 0.70822 1.2069e-05 -10.418 -10.410 0.066303 637.12 0.0015696 -10.424 -10.416 0.066271 1.3560 2.0691 1502.3 -0.0066444 386.34 0.16048 0.14482 6.9050 430.60 464.32 2.7107 1.0149 1.2068 199.83 0.90921 4.9068 0.0074036
-92.625 0.76564 1.2577e-05 -8.3480 -8.3393 0.077804 636.07 0.0015722 -8.3535 -8.3452 0.077771 1.3570 2.0716 1495.6 -0.0066236 380.31 0.15987 0.15573 6.4212 431.60 465.49 2.7025 1.0183 1.2104 200.30 0.89673 4.9340 0.0074776
-91.625 0.82689 1.3079e-05 -6.2751 -6.2657 0.089254 635.02 0.0015747 -6.2808 -6.2719 0.089220 1.3580 2.0742 1488.9 -0.0066025 374.41 0.15925 0.16731 5.9769 432.59 466.67 2.6946 1.0217 1.2140 200.77 0.88445 4.9611 0.0075518
-90.625 0.89218 1.3571e-05 -4.1997 -4.1895 0.10066 633.98 0.0015773 -4.2056 -4.1959 0.10062 1.3591 2.0767 1482.2 -0.0065811 368.66 0.15864 0.17958 5.5685 433.59 467.84 2.6868 1.0251 1.2177 201.24 0.87236 4.9883 0.0076263
-89.625 0.96172 1.4050e-05 -2.1217 -2.1108 0.11201 632.93 0.0015800 -2.1279 -2.1174 0.11197 1.3602 2.0793 1475.5 -0.0065595 363.05 0.15802 0.19258 5.1928 434.59 469.02 2.6791 1.0285 1.2213 201.70 0.86045 5.0154 0.0077011
-88.625 1.0357 1.4511e-05 -0.041195 -0.029391 0.12332 631.88 0.0015826 -0.047516 -0.036215 0.12328 1.3613 2.0819 1468.8 -0.0065375 357.56 0.15740 0.20633 4.8466 435.59 470.20 2.6717 1.0320 1.2250 202.15 0.84873 5.0425 0.0077761
-87.625 1.1144 1.4952e-05 2.0419 2.0546 0.13457 630.83 0.0015852 2.0355 2.0476 0.13454 1.3625 2.0846 1462.1 -0.0065153 352.21 0.15679 0.22087 4.5276 436.60 471.39 2.6643 1.0354 1.2288 202.61 0.83718 5.0696 0.0078514
-86.625 1.1979 1.5365e-05 4.1277 4.1414 0.14579 629.77 0.0015879 4.1211 4.1342 0.14575 1.3637 2.0873 1455.4 -0.0064928 346.98 0.15617 0.23623 4.2331 437.61 472.57 2.6571 1.0389 1.2325 203.06 0.82580 5.0967 0.0079270
-85.625 1.2866 1.5748e-05 6.2162 6.2308 0.15695 628.72 0.0015905 6.2094 6.2235 0.15691 1.3649 2.0900 1448.8 -0.0064701 341.87 0.15555 0.25245 3.9612 438.61 473.75 2.6501 1.0424 1.2363 203.50 0.81460 5.1237 0.0080028
-84.625 1.3806 1.6094e-05 8.3073 8.3230 0.16807 627.66 0.0015932 8.3004 8.3155 0.16803 1.3661 2.0927 1442.1 -0.0064470 336.87 0.15494 0.26956 3.7097 439.63 474.94 2.6432 1.0460 1.2402 203.95 0.80356 5.1508 0.0080789
-83.625 1.4803 1.6397e-05 10.401 10.418 0.17915 626.60 0.0015959 10.394 10.410 0.17911 1.3674 2.0955 1435.4 -0.0064236 331.99 0.15432 0.28760 3.4771 440.64 476.13 2.6364 1.0495 1.2440 204.38 0.79269 5.1778 0.0081553
-82.625 1.5858 1.6652e-05 12.498 12.516 0.19019 625.54 0.0015986 12.491 12.508 0.19014 1.3687 2.0983 1428.7 -0.0063999 327.22 0.15370 0.30659 3.2616 441.65 477.31 2.6298 1.0531 1.2479 204.82 0.78199 5.2048 0.0082319
-81.625 1.6975 1.6851e-05 14.597 14.616 0.20118 624.48 0.0016013 14.590 14.609 0.20113 1.3700 2.1012 1422.0 -0.0063759 322.55 0.15309 0.32659 3.0619 442.67 478.50 2.6233 1.0567 1.2519 205.25 0.77144 5.2318 0.0083088
-80.625 1.8155 1.6987e-05 16.699 16.720 0.21212 623.42 0.0016041 16.692 16.712 0.21208 1.3714 2.1041 1415.4 -0.0063516 317.99 0.15247 0.34763 2.8766 443.69 479.70 2.6169 1.0603 1.2558 205.67 0.76106 5.2587 0.0083860
-79.625 1.9402 1.7054e-05 18.804 18.826 0.22303 622.36 0.0016068 18.797 18.819 0.22299 1.3728 2.1070 1408.7 -0.0063270 313.52 0.15186 0.36974 2.7046 444.71 480.89 2.6106 1.0639 1.2598 206.10 0.75083 5.2857 0.0084634
-78.625 2.0718 1.7041e-05 20.912 20.936 0.23389 621.29 0.0016096 20.905 20.928 0.23385 1.3742 2.1099 1402.0 -0.0063021 309.15 0.15124 0.39296 2.5448 445.73 482.08 2.6045 1.0676 1.2639 206.51 0.74076 5.3126 0.0085411
-77.625 2.2107 1.6942e-05 23.023 23.048 0.24472 620.22 0.0016123 23.016 23.040 0.24468 1.3757 2.1129 1395.3 -0.0062768 304.88 0.15062 0.41735 2.3961 446.75 483.27 2.5985 1.0712 1.2680 206.93 0.73084 5.3395 0.0086190
-76.625 2.3571 1.6746e-05 25.137 25.164 0.25550 619.15 0.0016151 25.130 25.156 0.25546 1.3772 2.1159 1388.7 -0.0062512 300.69 0.15001 0.44292 2.2577 447.78 484.47 2.5926 1.0749 1.2721 207.34 0.72107 5.3664 0.0086972
-75.625 2.5113 1.6444e-05 27.253 27.282 0.26624 618.08 0.0016179 27.247 27.275 0.26620 1.3787 2.1190 1382.0 -0.0062253 296.59 0.14939 0.46974 2.1288 448.81 485.67 2.5869 1.0787 1.2762 207.74 0.71146 5.3933 0.0087757
-74.625 2.6736 1.6026e-05 29.373 29.404 0.27695 617.01 0.0016207 29.366 29.396 0.27691 1.3802 2.1221 1375.4 -0.0061990 292.58 0.14878 0.49783 2.0087 449.83 486.86 2.5812 1.0824 1.2804 208.14 0.70200 5.4201 0.0088544
-73.625 2.8444 1.5481e-05 31.496 31.528 0.28761 615.93 0.0016236 31.489 31.521 0.28758 1.3818 2.1252 1368.7 -0.0061724 288.65 0.14816 0.52725 1.8966 450.86 488.06 2.5757 1.0862 1.2847 208.54 0.69268 5.4469 0.0089334
-72.625 3.0240 1.4797e-05 33.622 33.656 0.29824 614.85 0.0016264 33.615 33.649 0.29821 1.3834 2.1284 1362.0 -0.0061454 284.81 0.14755 0.55804 1.7920 451.90 489.26 2.5703 1.0900 1.2889 208.93 0.68351 5.4737 0.0090126
-71.625 3.2127 1.3962e-05 35.750 35.787 0.30883 613.78 0.0016293 35.745 35.781 0.30880 1.3851 2.1316 1355.4 -0.0061181 281.03 0.14694 0.59024 1.6942 452.93 490.46 2.5650 1.0938 1.2932 209.32 0.67448 5.5005 0.0090922
-70.625 3.4108 1.2964e-05 37.882 37.921 0.31938 612.69 0.0016321 37.877 37.915 0.31935 1.3867 2.1349 1348.7 -0.0060904 277.34 0.14632 0.62390 1.6028 453.96 491.66 2.5598 1.0976 1.2976 209.70 0.66560 5.5273 0.0091720
-69.625 3.6187 1.1788e-05 40.018 40.059 0.32990 611.61 0.0016350 40.013 40.053 0.32987 1.3884 2.1382 1342.1 -0.0060624 273.72 0.14571 0.65906 1.5173 455.00 492.86 2.5547 1.1015 1.3020 210.08 0.65687 5.5540 0.0092520
-68.625 3.8367 1.0421e-05 42.156 42.200 0.34038 610.53 0.0016379 42.152 42.195 0.34036 1.3902 2.1415 1335.5 -0.0060339 270.17 0.14510 0.69577 1.4372 456.04 494.06 2.5497 1.1054 1.3064 210.45 0.64827 5.5807 0.0093324
-67.625 4.0652 8.8483e-06 44.297 44.344 0.35082 609.44 0.0016409 44.294 44.340 0.35080 1.3919 2.1449 1328.8 -0.0060051 266.69 0.14449 0.73408 1.3622 457.08 495.26 2.5448 1.1093 1.3109 210.82 0.63981 5.6074 0.0094130
-66.625 4.3046 7.0533e-06 46.442 46.491 0.36123 608.35 0.0016438 46.439 46.488 0.36122 1.3937 2.1483 1322.2 -0.0059760 263.28 0.14388 0.77404 1.2919 458.12 496.46 2.5400 1.1133 1.3154 211.18 0.63150 5.6341 0.0094939
-65.625 4.5551 5.0202e-06 48.590 48.642 0.37161 607.26 0.0016467 48.588 48.640 0.37160 1.3955 2.1518 1315.6 -0.0059464 259.93 0.14327 0.81570 1.2259 459.16 497.67 2.5353 1.1172 1.3200 211.54 0.62332 5.6608 0.0095750
-64.625 4.8173 2.7315e-06 50.742 50.796 0.38195 606.16 0.0016497 50.740 50.795 0.38195 1.3974 2.1553 1308.9 -0.0059164 256.65 0.14266 0.85910 1.1640 460.21 498.87 2.5307 1.1212 1.3246 211.89 0.61527 5.6874 0.0096564
-63.625 5.0915 1.6944e-07 52.896 52.954 0.39226 605.07 0.0016527 52.896 52.954 0.39226 1.3993 2.1588 1302.3 -0.0058861 253.42 0.14205 0.90429 1.1058 461.25 500.07 2.5262 1.1252 1.3293 212.24 0.60736 5.7140 0.0097382
-62.625 169.15 undefined 54.344 56.272 0.39916 605.00 0.0016529 54.344 56.272 0.39916 1.4024 2.1583 1304.4 -0.0058982 252.90 0.14215 605.00 0.0016529 54.344 56.272 0.39916 1.4024 2.1583 1304.4 -0.0058982 252.90 0.14215
-61.625 343.82 undefined 55.748 59.667 0.40581 605.00 0.0016529 55.748 59.667 0.40581 1.4055 2.1576 1306.9 -0.0059127 252.56 0.14229 605.00 0.0016529 55.748 59.667 0.40581 1.4055 2.1576 1306.9 -0.0059127 252.56 0.14229
-60.625 518.21 undefined 57.155 63.061 0.41245 605.00 0.0016529 57.155 63.061 0.41245 1.4087 2.1570 1309.5 -0.0059267 252.22 0.14243 605.00 0.0016529 57.155 63.061 0.41245 1.4087 2.1570 1309.5 -0.0059267 252.22 0.14243
-59.625 692.31 undefined 58.566 66.455 0.41907 605.00 0.0016529 58.566 66.455 0.41907 1.4119 2.1564 1312.1 -0.0059403 251.89 0.14258 605.00 0.0016529 58.566 66.455 0.41907 1.4119 2.1564 1312.1 -0.0059403 251.89 0.14258
-58.625 866.13 undefined 59.979 69.850 0.42567 605.00 0.0016529 59.979 69.850 0.42567 1.4151 2.1559 1314.6 -0.0059535 251.56 0.14272 605.00 0.0016529 59.979 69.850 0.42567 1.4151 2.1559 1314.6 -0.0059535 251.56 0.14272
-57.625 1039.7 undefined 61.396 73.244 0.43226 605.00 0.0016529 61.396 73.244 0.43226 1.4183 2.1555 1317.2 -0.0059663 251.23 0.14287 605.00 0.0016529 61.396 73.244 0.43226 1.4183 2.1555 1317.2 -0.0059663 251.23 0.14287
-56.625 1212.9 undefined 62.816 76.639 0.43883 605.00 0.0016529 62.816 76.639 0.43883 1.4216 2.1552 1319.7 -0.0059787 250.91 0.14301 605.00 0.0016529 62.816 76.639 0.43883 1.4216 2.1552 1319.7 -0.0059787 250.91 0.14301
-55.625 1385.9 undefined 64.239 80.033 0.44539 605.00 0.0016529 64.239 80.033 0.44539 1.4248 2.1549 1322.2 -0.0059907 250.59 0.14316 605.00 0.0016529 64.239 80.033 0.44539 1.4248 2.1549 1322.2 -0.0059907 250.59 0.14316
-54.625 1558.6 undefined 65.666 83.428 0.45193 605.00 0.0016529 65.666 83.428 0.45193 1.4281 2.1547 1324.7 -0.0060023 250.28 0.14330 605.00 0.0016529 65.666 83.428 0.45193 1.4281 2.1547 1324.7 -0.0060023 250.28 0.14330
-53.625 1731.0 undefined 67.095 86.822 0.45846 605.00 0.0016529 67.095 86.822 0.45846 1.4313 2.1546 1327.1 -0.0060135 249.97 0.14345 605.00 0.0016529 67.095 86.822 0.45846 1.4313 2.1546 1327.1 -0.0060135 249.97 0.14345
-52.625 1903.1 undefined 68.528 90.217 0.46497 605.00 0.0016529 68.528 90.217 0.46497 1.4346 2.1545 1329.6 -0.0060244 249.66 0.14360 605.00 0.0016529 68.528 90.217 0.46497 1.4346 2.1545 1329.6 -0.0060244 249.66 0.14360
-51.625 2075.0 undefined 69.964 93.612 0.47147 605.00 0.0016529 69.964 93.612 0.47147 1.4379 2.1545 1332.0 -0.0060349 249.35 0.14374 605.00 0.0016529 69.964 93.612 0.47147 1.4379 2.1545 1332.0 -0.0060349 249.35 0.14374
-50.625 2246.6 undefined 71.404 97.007 0.47795 605.00 0.0016529 71.404 97.007 0.47795 1.4412 2.1546 1334.4 -0.0060450 249.06 0.14389 605.00 0.0016529 71.404 97.007 0.47795 1.4412 2.1546 1334.4 -0.0060450 249.06 0.14389
-49.625 2417.9 undefined 72.847 100.40 0.48442 605.00 0.0016529 72.847 100.40 0.48442 1.4445 2.1547 1336.8 -0.0060548 248.76 0.14404 605.00 0.0016529 72.847 100.40 0.48442 1.4445 2.1547 1336.8 -0.0060548 248.76 0.14404
-48.625 2589.0 undefined 74.293 103.80 0.49088 605.00 0.0016529 74.293 103.80 0.49088 1.4479 2.1549 1339.2 -0.0060643 248.47 0.14418 605.00 0.0016529 74.293 103.80 0.49088 1.4479 2.1549 1339.2 -0.0060643 248.47 0.14418
-47.625 2759.8 undefined 75.743 107.19 0.49732 605.00 0.0016529 75.743 107.19 0.49732 1.4512 2.1551 1341.6 -0.0060734 248.18 0.14433 605.00 0.0016529 75.743 107.19 0.49732 1.4512 2.1551 1341.6 -0.0060734 248.18 0.14433
-46.625 2930.3 undefined 77.195 110.59 0.50375 605.00 0.0016529 77.195 110.59 0.50375 1.4546 2.1554 1343.9 -0.0060822 247.89 0.14448 605.00 0.0016529 77.195 110.59 0.50375 1.4546 2.1554 1343.9 -0.0060822 247.89 0.14448
-45.625 3100.6 undefined 78.652 113.99 0.51016 605.00 0.0016529 78.652 113.99 0.51016 1.4579 2.1558 1346.2 -0.0060907 247.61 0.14463 605.00 0.0016529 78.652 113.99 0.51016 1.4579 2.1558 1346.2 -0.0060907 247.61 0.14463
-44.625 3270.6 undefined 80.111 117.38 0.51656 605.00 0.0016529 80.111 117.38 0.51656 1.4613 2.1562 1348.5 -0.0060989 247.33 0.14478 605.00 0.0016529 80.111 117.38 0.51656 1.4613 2.1562 1348.5 -0.0060989 247.33 0.14478
-43.625 3440.3 undefined 81.574 120.78 0.52295 605.00 0.0016529 81.574 120.78 0.52295 1.4647 2.1566 1350.8 -0.0061067 247.05 0.14492 605.00 0.0016529 81.574 120.78 0.52295 1.4647 2.1566 1350.8 -0.0061067 247.05 0.14492
-42.625 3609.8 undefined 83.041 124.18 0.52933 605.00 0.0016529 83.041 124.18 0.52933 1.4681 2.1572 1353.1 -0.0061143 246.78 0.14507 605.00 0.0016529 83.041 124.18 0.52933 1.4681 2.1572 1353.1 -0.0061143 246.78 0.14507
-41.625 3779.0 undefined 84.511 127.58 0.53569 605.00 0.0016529 84.511 127.58 0.53569 1.4716 2.1577 1355.4 -0.0061216 246.51 0.14522 605.00 0.0016529 84.511 127.58 0.53569 1.4716 2.1577 1355.4 -0.0061216 246.51 0.14522
-40.625 3948.0 undefined 85.984 130.98 0.54204 605.00 0.0016529 85.984 130.98 0.54204 1.4750 2.1584 1357.7 -0.0061285 246.24 0.14537 605.00 0.0016529 85.984 130.98 0.54204 1.4750 2.1584 1357.7 -0.0061285 246.24 0.14537
-39.625 4116.7 undefined 87.461 134.38 0.54838 605.00 0.0016529 87.461 134.38 0.54838 1.4785 2.1590 1359.9 -0.0061352 245.98 0.14552 605.00 0.0016529 87.461 134.38 0.54838 1.4785 2.1590 1359.9 -0.0061352 245.98 0.14552
-38.625 4285.1 undefined 88.941 137.78 0.55470 605.00 0.0016529 88.941 137.78 0.55470 1.4819 2.1598 1362.1 -0.0061417 245.72 0.14567 605.00 0.0016529 88.941 137.78 0.55470 1.4819 2.1598 1362.1 -0.0061417 245.72 0.14567
-37.625 4453.3 undefined 90.425 141.18 0.56101 605.00 0.0016529 90.425 141.18 0.56101 1.4854 2.1605 1364.3 -0.0061478 245.46 0.14582 605.00 0.0016529 90.425 141.18 0.56101 1.4854 2.1605 1364.3 -0.0061478 245.46 0.14582
-36.625 4621.3 undefined 91.912 144.58 0.56732 605.00 0.0016529 91.912 144.58 0.56732 1.4889 2.1614 1366.5 -0.0061537 245.21 0.14597 605.00 0.0016529 91.912 144.58 0.56732 1.4889 2.1614 1366.5 -0.0061537 245.21 0.14597
-35.625 4788.9 undefined 93.402 147.98 0.57361 605.00 0.0016529 93.402 147.98 0.57361 1.4925 2.1623 1368.7 -0.0061593 244.96 0.14613 605.00 0.0016529 93.402 147.98 0.57361 1.4925 2.1623 1368.7 -0.0061593 244.96 0.14613
-34.625 4956.4 undefined 94.897 151.38 0.57988 605.00 0.0016529 94.897 151.38 0.57988 1.4960 2.1632 1370.8 -0.0061646 244.71 0.14628 605.00 0.0016529 94.897 151.38 0.57988 1.4960 2.1632 1370.8 -0.0061646 244.71 0.14628
-33.625 5123.5 undefined 96.394 154.78 0.58615 605.00 0.0016529 96.394 154.78 0.58615 1.4996 2.1641 1373.0 -0.0061697 244.46 0.14643 605.00 0.0016529 96.394 154.78 0.58615 1.4996 2.1641 1373.0 -0.0061697 244.46 0.14643
-32.625 5290.5 undefined 97.896 158.19 0.59240 605.00 0.0016529 97.896 158.19 0.59240 1.5031 2.1652 1375.1 -0.0061746 244.22 0.14658 605.00 0.0016529 97.896 158.19 0.59240 1.5031 2.1652 1375.1 -0.0061746 244.22 0.14658
-31.625 5457.1 undefined 99.401 161.59 0.59865 605.00 0.0016529 99.401 161.59 0.59865 1.5067 2.1662 1377.2 -0.0061792 243.98 0.14673 605.00 0.0016529 99.401 161.59 0.59865 1.5067 2.1662 1377.2 -0.0061792 243.98 0.14673
-30.625 5623.6 undefined 100.91 165.00 0.60488 605.00 0.0016529 100.91 165.00 0.60488 1.5103 2.1673 1379.3 -0.0061836 243.74 0.14689 605.00 0.0016529 100.91 165.00 0.60488 1.5103 2.1673 1379.3 -0.0061836 243.74 0.14689
-29.625 5789.7 undefined 102.42 168.40 0.61110 605.00 0.0016529 102.42 168.40 0.61110 1.5139 2.1685 1381.4 -0.0061877 243.51 0.14704 605.00 0.0016529 102.42 168.40 0.61110 1.5139 2.1685 1381.4 -0.0061877 243.51 0.14704
-28.625 5955.7 undefined 103.94 171.81 0.61731 605.00 0.0016529 103.94 171.81 0.61731 1.5176 2.1697 1383.5 -0.0061916 243.28 0.14719 605.00 0.0016529 103.94 171.81 0.61731 1.5176 2.1697 1383.5 -0.0061916 243.28 0.14719
-27.625 6121.3 undefined 105.46 175.22 0.62352 605.00 0.0016529 105.46 175.22 0.62352 1.5212 2.1709 1385.6 -0.0061953 243.05 0.14735 605.00 0.0016529 105.46 175.22 0.62352 1.5212 2.1709 1385.6 -0.0061953 243.05 0.14735
-26.625 6286.8 undefined 106.98 178.63 0.62971 605.00 0.0016529 106.98 178.63 0.62971 1.5249 2.1722 1387.6 -0.0061988 242.82 0.14750 605.00 0.0016529 106.98 178.63 0.62971 1.5249 2.1722 1387.6 -0.0061988 242.82 0.14750
-25.625 6452.0 undefined 108.51 182.03 0.63589 605.00 0.0016529 108.51 182.03 0.63589 1.5286 2.1735 1389.7 -0.0062020 242.60 0.14765 605.00 0.0016529 108.51 182.03 0.63589 1.5286 2.1735 1389.7 -0.0062020 242.60 0.14765
-24.625 6616.9 undefined 110.04 185.45 0.64206 605.00 0.0016529 110.04 185.45 0.64206 1.5322 2.1749 1391.7 -0.0062050 242.38 0.14781 605.00 0.0016529 110.04 185.45 0.64206 1.5322 2.1749 1391.7 -0.0062050 242.38 0.14781
-23.625 6781.6 undefined 111.57 188.86 0.64822 605.00 0.0016529 111.57 188.86 0.64822 1.5360 2.1763 1393.7 -0.0062078 242.16 0.14796 605.00 0.0016529 111.57 188.86 0.64822 1.5360 2.1763 1393.7 -0.0062078 242.16 0.14796
-22.625 6946.1 undefined 113.11 192.27 0.65437 605.00 0.0016529 113.11 192.27 0.65437 1.5397 2.1777 1395.7 -0.0062105 241.94 0.14812 605.00 0.0016529 113.11 192.27 0.65437 1.5397 2.1777 1395.7 -0.0062105 241.94 0.14812
-21.625 7110.3 undefined 114.65 195.68 0.66051 605.00 0.0016529 114.65 195.68 0.66051 1.5434 2.1792 1397.7 -0.0062129 241.73 0.14827 605.00 0.0016529 114.65 195.68 0.66051 1.5434 2.1792 1397.7 -0.0062129 241.73 0.14827
-20.625 7274.3 undefined 116.20 199.10 0.66664 605.00 0.0016529 116.20 199.10 0.66664 1.5472 2.1807 1399.7 -0.0062151 241.52 0.14843 605.00 0.0016529 116.20 199.10 0.66664 1.5472 2.1807 1399.7 -0.0062151 241.52 0.14843
-19.625 7438.0 undefined 117.74 202.51 0.67276 605.00 0.0016529 117.74 202.51 0.67276 1.5509 2.1823 1401.6 -0.0062171 241.31 0.14858 605.00 0.0016529 117.74 202.51 0.67276 1.5509 2.1823 1401.6 -0.0062171 241.31 0.14858
-18.625 7601.5 undefined 119.30 205.93 0.67888 605.00 0.0016529 119.30 205.93 0.67888 1.5547 2.1839 1403.6 -0.0062189 241.10 0.14874 605.00 0.0016529 119.30 205.93 0.67888 1.5547 2.1839 1403.6 -0.0062189 241.10 0.14874
-17.625 7764.8 undefined 120.85 209.34 0.68498 605.00 0.0016529 120.85 209.34 0.68498 1.5585 2.1855 1405.5 -0.0062205 240.90 0.14890 605.00 0.0016529 120.85 209.34 0.68498 1.5585 2.1855 1405.5 -0.0062205 240.90 0.14890
-16.625 7927.8 undefined 122.41 212.76 0.69107 605.00 0.0016529 122.41 212.76 0.69107 1.5623 2.1872 1407.4 -0.0062220 240.70 0.14905 605.00 0.0016529 122.41 212.76 0.69107 1.5623 2.1872 1407.4 -0.0062220 240.70 0.14905
-15.625 8090.6 undefined 123.98 216.18 0.69716 605.00 0.0016529 123.98 216.18 0.69716 1.5661 2.1889 1409.4 -0.0062232 240.50 0.14921 605.00 0.0016529 123.98 216.18 0.69716 1.5661 2.1889 1409.4 -0.0062232 240.50 0.14921
-14.625 8253.2 undefined 125.55 219.60 0.70324 605.00 0.0016529 125.55 219.60 0.70324 1.5700 2.1907 1411.3 -0.0062243 240.30 0.14937 605.00 0.0016529 125.55 219.60 0.70324 1.5700 2.1907 1411.3 -0.0062243 240.30 0.14937
-13.625 8415.5 undefined 127.12 223.02 0.70931 605.00 0.0016529 127.12 223.02 0.70931 1.5738 2.1924 1413.2 -0.0062252 240.10 0.14953 605.00 0.0016529 127.12 223.02 0.70931 1.5738 2.1924 1413.2 -0.0062252 240.10 0.14953
-12.625 8577.6 undefined 128.69 226.45 0.71537 605.00 0.0016529 128.69 226.45 0.71537 1.5777 2.1943 1415.0 -0.0062259 239.91 0.14968 605.00 0.0016529 128.69 226.45 0.71537 1.5777 2.1943 1415.0 -0.0062259 239.91 0.14968
-11.625 8739.4 undefined 130.27 229.87 0.72142 605.00 0.0016529 130.27 229.87 0.72142 1.5816 2.1961 1416.9 -0.0062265 239.72 0.14984 605.00 0.0016529 130.27 229.87 0.72142 1.5816 2.1961 1416.9 -0.0062265 239.72 0.14984
-10.625 8901.1 undefined 131.86 233.30 0.72746 605.00 0.0016529 131.86 233.30 0.72746 1.5855 2.1980 1418.8 -0.0062269 239.53 0.15000 605.00 0.0016529 131.86 233.30 0.72746 1.5855 2.1980 1418.8 -0.0062269 239.53 0.15000
-9.6250 9062.5 undefined 133.44 236.72 0.73350 605.00 0.0016529 133.44 236.72 0.73350 1.5894 2.1999 1420.6 -0.0062271 239.34 0.15016 605.00 0.0016529 133.44 236.72 0.73350 1.5894 2.1999 1420.6 -0.0062271 239.34 0.15016
-8.6250 9223.6 undefined 135.04 240.15 0.73952 605.00 0.0016529 135.04 240.15 0.73952 1.5933 2.2019 1422.5 -0.0062272 239.16 0.15032 605.00 0.0016529 135.04 240.15 0.73952 1.5933 2.2019 1422.5 -0.0062272 239.16 0.15032
-7.6250 9384.6 undefined 136.63 243.58 0.74554 605.00 0.0016529 136.63 243.58 0.74554 1.5972 2.2038 1424.3 -0.0062271 238.98 0.15048 605.00 0.0016529 136.63 243.58 0.74554 1.5972 2.2038 1424.3 -0.0062271 238.98 0.15048
-6.6250 9545.3 undefined 138.23 247.01 0.75155 605.00 0.0016529 138.23 247.01 0.75155 1.6011 2.2058 1426.1 -0.0062269 238.80 0.15064 605.00 0.0016529 138.23 247.01 0.75155 1.6011 2.2058 1426.1 -0.0062269 238.80 0.15064
-5.6250 9705.7 undefined 139.83 250.44 0.75756 605.00 0.0016529 139.83 250.44 0.75756 1.6051 2.2079 1428.0 -0.0062265 238.62 0.15080 605.00 0.0016529 139.83 250.44 0.75756 1.6051 2.2079 1428.0 -0.0062265 238.62 0.15080
-4.6250 9866.0 undefined 141.44 253.88 0.76355 605.00 0.0016529 141.44 253.88 0.76355 1.6091 2.2100 1429.8 -0.0062260 238.44 0.15096 605.00 0.0016529 141.44 253.88 0.76355 1.6091 2.2100 1429.8 -0.0062260 238.44 0.15096
-3.6250 10026. undefined 143.05 257.31 0.76954 605.00 0.0016529 143.05 257.31 0.76954 1.6130 2.2121 1431.6 -0.0062253 238.27 0.15112 605.00 0.0016529 143.05 257.31 0.76954 1.6130 2.2121 1431.6 -0.0062253 238.27 0.15112
-2.6250 10186. undefined 144.67 260.75 0.77552 605.00 0.0016529 144.67 260.75 0.77552 1.6170 2.2142 1433.3 -0.0062245 238.09 0.15128 605.00 0.0016529 144.67 260.75 0.77552 1.6170 2.2142 1433.3 -0.0062245 238.09 0.15128
-1.6250 10345. undefined 146.29 264.19 0.78150 605.00 0.0016529 146.29 264.19 0.78150 1.6210 2.2163 1435.1 -0.0062235 237.92 0.15144 605.00 0.0016529 146.29 264.19 0.78150 1.6210 2.2163 1435.1 -0.0062235 237.92 0.15144
-0.62500 10505. undefined 147.91 267.62 0.78746 605.00 0.0016529 147.91 267.62 0.78746 1.6250 2.2185 1436.9 -0.0062224 237.75 0.15160 605.00 0.0016529 147.91 267.62 0.78746 1.6250 2.2185 1436.9 -0.0062224 237.75 0.15160
0.37500 10664. undefined 149.54 271.06 0.79342 605.00 0.0016529 149.54 271.06 0.79342 1.6290 2.2208 1438.6 -0.0062212 237.59 0.15176 605.00 0.0016529 149.54 271.06 0.79342 1.6290 2.2208 1438.6 -0.0062212 237.59 0.15176
1.3750 10823. undefined 151.17 274.51 0.79937 605.00 0.0016529 151.17 274.51 0.79937 1.6331 2.2230 1440.4 -0.0062198 237.42 0.15193 605.00 0.0016529 151.17 274.51 0.79937 1.6331 2.2230 1440.4 -0.0062198 237.42 0.15193
2.3750 10982. undefined 152.80 277.95 0.80532 605.00 0.0016529 152.80 277.95 0.80532 1.6371 2.2253 1442.1 -0.0062183 237.26 0.15209 605.00 0.0016529 152.80 277.95 0.80532 1.6371 2.2253 1442.1 -0.0062183 237.26 0.15209
3.3750 11140. undefined 154.44 281.40 0.81126 605.00 0.0016529 154.44 281.40 0.81126 1.6412 2.2276 1443.9 -0.0062167 237.10 0.15225 605.00 0.0016529 154.44 281.40 0.81126 1.6412 2.2276 1443.9 -0.0062167 237.10 0.15225
4.3750 11298. undefined 156.08 284.84 0.81719 605.00 0.0016529 156.08 284.84 0.81719 1.6452 2.2299 1445.6 -0.0062150 236.94 0.15241 605.00 0.0016529 156.08 284.84 0.81719 1.6452 2.2299 1445.6 -0.0062150 236.94 0.15241
5.3750 11456. undefined 157.73 288.29 0.82311 605.00 0.0016529 157.73 288.29 0.82311 1.6493 2.2322 1447.3 -0.0062131 236.78 0.15258 605.00 0.0016529 157.73 288.29 0.82311 1.6493 2.2322 1447.3 -0.0062131 236.78 0.15258
6.3750 11614. undefined 159.38 291.74 0.82903 605.00 0.0016529 159.38 291.74 0.82903 1.6534 2.2346 1449.0 -0.0062111 236.62 0.15274 605.00 0.0016529 159.38 291.74 0.82903 1.6534 2.2346 1449.0 -0.0062111 236.62 0.15274
7.3750 11772. undefined 161.04 295.19 0.83494 605.00 0.0016529 161.04 295.19 0.83494 1.6575 2.2370 1450.7 -0.0062090 236.47 0.15290 605.00 0.0016529 161.04 295.19 0.83494 1.6575 2.2370 1450.7 -0.0062090 236.47 0.15290
8.3750 11929. undefined 162.70 298.65 0.84085 605.00 0.0016529 162.70 298.65 0.84085 1.6616 2.2395 1452.4 -0.0062068 236.31 0.15307 605.00 0.0016529 162.70 298.65 0.84085 1.6616 2.2395 1452.4 -0.0062068 236.31 0.15307
9.3750 12086. undefined 164.36 302.10 0.84675 605.00 0.0016529 164.36 302.10 0.84675 1.6657 2.2419 1454.1 -0.0062045 236.16 0.15323 605.00 0.0016529 164.36 302.10 0.84675 1.6657 2.2419 1454.1 -0.0062045 236.16 0.15323
10.375 12243. undefined 166.03 305.56 0.85264 605.00 0.0016529 166.03 305.56 0.85264 1.6698 2.2444 1455.8 -0.0062021 236.01 0.15340 605.00 0.0016529 166.03 305.56 0.85264 1.6698 2.2444 1455.8 -0.0062021 236.01 0.15340
11.375 12400. undefined 167.70 309.01 0.85853 605.00 0.0016529 167.70 309.01 0.85853 1.6739 2.2469 1457.5 -0.0061995 235.87 0.15356 605.00 0.0016529 167.70 309.01 0.85853 1.6739 2.2469 1457.5 -0.0061995 235.87 0.15356
12.375 12556. undefined 169.38 312.47 0.86441 605.00 0.0016529 169.38 312.47 0.86441 1.6781 2.2494 1459.1 -0.0061969 235.72 0.15373 605.00 0.0016529 169.38 312.47 0.86441 1.6781 2.2494 1459.1 -0.0061969 235.72 0.15373
13.375 12713. undefined 171.06 315.94 0.87028 605.00 0.0016529 171.06 315.94 0.87028 1.6822 2.2520 1460.8 -0.0061941 235.57 0.15389 605.00 0.0016529 171.06 315.94 0.87028 1.6822 2.2520 1460.8 -0.0061941 235.57 0.15389
14.375 12869. undefined 172.74 319.40 0.87615 605.00 0.0016529 172.74 319.40 0.87615 1.6864 2.2545 1462.4 -0.0061912 235.43 0.15406 605.00 0.0016529 172.74 319.40 0.87615 1.6864 2.2545 1462.4 -0.0061912 235.43 0.15406
15.375 13025. undefined 174.43 322.87 0.88201 605.00 0.0016529 174.43 322.87 0.88201 1.6906 2.2571 1464.1 -0.0061883 235.29 0.15422 605.00 0.0016529 174.43 322.87 0.88201 1.6906 2.2571 1464.1 -0.0061883 235.29 0.15422
16.375 13181. undefined 176.12 326.33 0.88787 605.00 0.0016529 176.12 326.33 0.88787 1.6947 2.2597 1465.7 -0.0061852 235.15 0.15439 605.00 0.0016529 176.12 326.33 0.88787 1.6947 2.2597 1465.7 -0.0061852 235.15 0.15439
17.375 13336. undefined 177.82 329.80 0.89372 605.00 0.0016529 177.82 329.80 0.89372 1.6989 2.2624 1467.3 -0.0061821 235.01 0.15456 605.00 0.0016529 177.82 329.80 0.89372 1.6989 2.2624 1467.3 -0.0061821 235.01 0.15456
18.375 13491. undefined 179.52 333.27 0.89956 605.00 0.0016529 179.52 333.27 0.89956 1.7031 2.2650 1469.0 -0.0061789 234.87 0.15473 605.00 0.0016529 179.52 333.27 0.89956 1.7031 2.2650 1469.0 -0.0061789 234.87 0.15473
19.375 13646. undefined 181.23 336.74 0.90540 605.00 0.0016529 181.23 336.74 0.90540 1.7073 2.2677 1470.6 -0.0061755 234.74 0.15489 605.00 0.0016529 181.23 336.74 0.90540 1.7073 2.2677 1470.6 -0.0061755 234.74 0.15489
20.375 13801. undefined 182.94 340.22 0.91124 605.00 0.0016529 182.94 340.22 0.91124 1.7115 2.2704 1472.2 -0.0061721 234.60 0.15506 605.00 0.0016529 182.94 340.22 0.91124 1.7115 2.2704 1472.2 -0.0061721 234.60 0.15506
21.375 13956. undefined 184.65 343.69 0.91706 605.00 0.0016529 184.65 343.69 0.91706 1.7157 2.2731 1473.8 -0.0061686 234.47 0.15523 605.00 0.0016529 184.65 343.69 0.91706 1.7157 2.2731 1473.8 -0.0061686 234.47 0.15523
22.375 14110. undefined 186.37 347.17 0.92289 605.00 0.0016529 186.37 347.17 0.92289 1.7199 2.2758 1475.4 -0.0061650 234.34 0.15540 605.00 0.0016529 186.37 347.17 0.92289 1.7199 2.2758 1475.4 -0.0061650 234.34 0.15540
23.375 14265. undefined 188.09 350.65 0.92870 605.00 0.0016529 188.09 350.65 0.92870 1.7241 2.2786 1477.0 -0.0061613 234.21 0.15556 605.00 0.0016529 188.09 350.65 0.92870 1.7241 2.2786 1477.0 -0.0061613 234.21 0.15556
24.375 14419. undefined 189.81 354.13 0.93452 605.00 0.0016529 189.81 354.13 0.93452 1.7284 2.2814 1478.6 -0.0061576 234.08 0.15573 605.00 0.0016529 189.81 354.13 0.93452 1.7284 2.2814 1478.6 -0.0061576 234.08 0.15573
25.375 14573. undefined 191.55 357.62 0.94032 605.00 0.0016529 191.55 357.62 0.94032 1.7326 2.2842 1480.2 -0.0061537 233.95 0.15590 605.00 0.0016529 191.55 357.62 0.94032 1.7326 2.2842 1480.2 -0.0061537 233.95 0.15590
26.375 14726. undefined 193.28 361.10 0.94612 605.00 0.0016529 193.28 361.10 0.94612 1.7368 2.2870 1481.7 -0.0061498 233.82 0.15607 605.00 0.0016529 193.28 361.10 0.94612 1.7368 2.2870 1481.7 -0.0061498 233.82 0.15607
27.375 14880. undefined 195.02 364.59 0.95192 605.00 0.0016529 195.02 364.59 0.95192 1.7411 2.2898 1483.3 -0.0061458 233.70 0.15624 605.00 0.0016529 195.02 364.59 0.95192 1.7411 2.2898 1483.3 -0.0061458 233.70 0.15624
28.375 15033. undefined 196.76 368.08 0.95771 605.00 0.0016529 196.76 368.08 0.95771 1.7453 2.2927 1484.9 -0.0061418 233.58 0.15641 605.00 0.0016529 196.76 368.08 0.95771 1.7453 2.2927 1484.9 -0.0061418 233.58 0.15641
29.375 15186. undefined 198.51 371.57 0.96350 605.00 0.0016529 198.51 371.57 0.96350 1.7496 2.2955 1486.4 -0.0061376 233.45 0.15658 605.00 0.0016529 198.51 371.57 0.96350 1.7496 2.2955 1486.4 -0.0061376 233.45 0.15658
30.375 15339. undefined 200.26 375.07 0.96928 605.00 0.0016529 200.26 375.07 0.96928 1.7539 2.2984 1488.0 -0.0061334 233.33 0.15675 605.00 0.0016529 200.26 375.07 0.96928 1.7539 2.2984 1488.0 -0.0061334 233.33 0.15675
31.375 15492. undefined 202.02 378.56 0.97505 605.00 0.0016529 202.02 378.56 0.97505 1.7581 2.3013 1489.5 -0.0061291 233.21 0.15692 605.00 0.0016529 202.02 378.56 0.97505 1.7581 2.3013 1489.5 -0.0061291 233.21 0.15692
32.375 15644. undefined 203.78 382.06 0.98082 605.00 0.0016529 203.78 382.06 0.98082 1.7624 2.3042 1491.1 -0.0061248 233.10 0.15709 605.00 0.0016529 203.78 382.06 0.98082 1.7624 2.3042 1491.1 -0.0061248 233.10 0.15709
33.375 15796. undefined 205.54 385.56 0.98659 605.00 0.0016529 205.54 385.56 0.98659 1.7667 2.3072 1492.6 -0.0061204 232.98 0.15727 605.00 0.0016529 205.54 385.56 0.98659 1.7667 2.3072 1492.6 -0.0061204 232.98 0.15727
34.375 15948. undefined 207.31 389.06 0.99235 605.00 0.0016529 207.31 389.06 0.99235 1.7710 2.3101 1494.2 -0.0061159 232.86 0.15744 605.00 0.0016529 207.31 389.06 0.99235 1.7710 2.3101 1494.2 -0.0061159 232.86 0.15744
35.375 16100. undefined 209.08 392.57 0.99811 605.00 0.0016529 209.08 392.57 0.99811 1.7753 2.3131 1495.7 -0.0061114 232.75 0.15761 605.00 0.0016529 209.08 392.57 0.99811 1.7753 2.3131 1495.7 -0.0061114 232.75 0.15761
36.375 16252. undefined 210.86 396.07 1.0039 605.00 0.0016529 210.86 396.07 1.0039 1.7795 2.3161 1497.2 -0.0061068 232.63 0.15778 605.00 0.0016529 210.86 396.07 1.0039 1.7795 2.3161 1497.2 -0.0061068 232.63 0.15778
37.375 16404. undefined 212.64 399.58 1.0096 605.00 0.0016529 212.64 399.58 1.0096 1.7838 2.3191 1498.7 -0.0061021 232.52 0.15795 605.00 0.0016529 212.64 399.58 1.0096 1.7838 2.3191 1498.7 -0.0061021 232.52 0.15795
38.375 16555. undefined 214.43 403.09 1.0153 605.00 0.0016529 214.43 403.09 1.0153 1.7882 2.3221 1500.2 -0.0060974 232.41 0.15813 605.00 0.0016529 214.43 403.09 1.0153 1.7882 2.3221 1500.2 -0.0060974 232.41 0.15813
39.375 16706. undefined 216.22 406.61 1.0211 605.00 0.0016529 216.22 406.61 1.0211 1.7925 2.3251 1501.7 -0.0060926 232.30 0.15830 605.00 0.0016529 216.22 406.61 1.0211 1.7925 2.3251 1501.7 -0.0060926 232.30 0.15830
40.375 16857. undefined 218.01 410.12 1.0268 605.00 0.0016529 218.01 410.12 1.0268 1.7968 2.3281 1503.2 -0.0060878 232.19 0.15847 605.00 0.0016529 218.01 410.12 1.0268 1.7968 2.3281 1503.2 -0.0060878 232.19 0.15847
41.375 17008. undefined 219.81 413.64 1.0325 605.00 0.0016529 219.81 413.64 1.0325 1.8011 2.3312 1504.7 -0.0060829 232.08 0.15865 605.00 0.0016529 219.81 413.64 1.0325 1.8011 2.3312 1504.7 -0.0060829 232.08 0.15865
42.375 17158. undefined 221.62 417.16 1.0383 605.00 0.0016529 221.62 417.16 1.0383 1.8054 2.3343 1506.2 -0.0060780 231.98 0.15882 605.00 0.0016529 221.62 417.16 1.0383 1.8054 2.3343 1506.2 -0.0060780 231.98 0.15882
43.375 17309. undefined 223.42 420.68 1.0440 605.00 0.0016529 223.42 420.68 1.0440 1.8097 2.3373 1507.7 -0.0060730 231.87 0.15900 605.00 0.0016529 223.42 420.68 1.0440 1.8097 2.3373 1507.7 -0.0060730 231.87 0.15900
44.375 17459. undefined 225.24 424.20 1.0497 605.00 0.0016529 225.24 424.20 1.0497 1.8141 2.3404 1509.2 -0.0060679 231.77 0.15917 605.00 0.0016529 225.24 424.20 1.0497 1.8141 2.3404 1509.2 -0.0060679 231.77 0.15917
45.375 17609. undefined 227.05 427.73 1.0554 605.00 0.0016529 227.05 427.73 1.0554 1.8184 2.3435 1510.7 -0.0060628 231.66 0.15934 605.00 0.0016529 227.05 427.73 1.0554 1.8184 2.3435 1510.7 -0.0060628 231.66 0.15934
46.375 17759. undefined 228.87 431.26 1.0611 605.00 0.0016529 228.87 431.26 1.0611 1.8227 2.3467 1512.2 -0.0060577 231.56 0.15952 605.00 0.0016529 228.87 431.26 1.0611 1.8227 2.3467 1512.2 -0.0060577 231.56 0.15952
47.375 17908. undefined 230.70 434.79 1.0668 605.00 0.0016529 230.70 434.79 1.0668 1.8270 2.3498 1513.6 -0.0060525 231.46 0.15970 605.00 0.0016529 230.70 434.79 1.0668 1.8270 2.3498 1513.6 -0.0060525 231.46 0.15970
48.375 18058. undefined 232.53 438.32 1.0725 605.00 0.0016529 232.53 438.32 1.0725 1.8314 2.3529 1515.1 -0.0060473 231.36 0.15987 605.00 0.0016529 232.53 438.32 1.0725 1.8314 2.3529 1515.1 -0.0060473 231.36 0.15987
49.375 18207. undefined 234.36 441.85 1.0782 605.00 0.0016529 234.36 441.85 1.0782 1.8357 2.3561 1516.6 -0.0060420 231.26 0.16005 605.00 0.0016529 234.36 441.85 1.0782 1.8357 2.3561 1516.6 -0.0060420 231.26 0.16005
50.375 18356. undefined 236.20 445.39 1.0839 605.00 0.0016529 236.20 445.39 1.0839 1.8401 2.3593 1518.0 -0.0060367 231.16 0.16022 605.00 0.0016529 236.20 445.39 1.0839 1.8401 2.3593 1518.0 -0.0060367 231.16 0.16022
51.375 18505. undefined 238.04 448.93 1.0896 605.00 0.0016529 238.04 448.93 1.0896 1.8444 2.3624 1519.5 -0.0060313 231.07 0.16040 605.00 0.0016529 238.04 448.93 1.0896 1.8444 2.3624 1519.5 -0.0060313 231.07 0.16040
52.375 18654. undefined 239.89 452.47 1.0953 605.00 0.0016529 239.89 452.47 1.0953 1.8488 2.3656 1520.9 -0.0060260 230.97 0.16058 605.00 0.0016529 239.89 452.47 1.0953 1.8488 2.3656 1520.9 -0.0060260 230.97 0.16058
53.375 18803. undefined 241.74 456.02 1.1010 605.00 0.0016529 241.74 456.02 1.1010 1.8531 2.3688 1522.4 -0.0060205 230.88 0.16075 605.00 0.0016529 241.74 456.02 1.1010 1.8531 2.3688 1522.4 -0.0060205 230.88 0.16075
54.375 18951. undefined 243.59 459.56 1.1066 605.00 0.0016529 243.59 459.56 1.1066 1.8575 2.3720 1523.8 -0.0060150 230.78 0.16093 605.00 0.0016529 243.59 459.56 1.1066 1.8575 2.3720 1523.8 -0.0060150 230.78 0.16093
55.375 19099. undefined 245.45 463.11 1.1123 605.00 0.0016529 245.45 463.11 1.1123 1.8618 2.3753 1525.2 -0.0060095 230.69 0.16111 605.00 0.0016529 245.45 463.11 1.1123 1.8618 2.3753 1525.2 -0.0060095 230.69 0.16111
56.375 19247. undefined 247.32 466.66 1.1180 605.00 0.0016529 247.32 466.66 1.1180 1.8662 2.3785 1526.7 -0.0060040 230.60 0.16129 605.00 0.0016529 247.32 466.66 1.1180 1.8662 2.3785 1526.7 -0.0060040 230.60 0.16129
57.375 19395. undefined 249.19 470.22 1.1236 605.00 0.0016529 249.19 470.22 1.1236 1.8705 2.3818 1528.1 -0.0059984 230.50 0.16147 605.00 0.0016529 249.19 470.22 1.1236 1.8705 2.3818 1528.1 -0.0059984 230.50 0.16147
58.375 19543. undefined 251.06 473.77 1.1293 605.00 0.0016529 251.06 473.77 1.1293 1.8749 2.3850 1529.5 -0.0059928 230.41 0.16165 605.00 0.0016529 251.06 473.77 1.1293 1.8749 2.3850 1529.5 -0.0059928 230.41 0.16165
59.375 19690. undefined 252.93 477.33 1.1349 605.00 0.0016529 252.93 477.33 1.1349 1.8793 2.3883 1530.9 -0.0059872 230.33 0.16182 605.00 0.0016529 252.93 477.33 1.1349 1.8793 2.3883 1530.9 -0.0059872 230.33 0.16182
60.375 19838. undefined 254.82 480.89 1.1406 605.00 0.0016529 254.82 480.89 1.1406 1.8836 2.3915 1532.4 -0.0059815 230.24 0.16200 605.00 0.0016529 254.82 480.89 1.1406 1.8836 2.3915 1532.4 -0.0059815 230.24 0.16200
61.375 19985. undefined 256.70 484.46 1.1462 605.00 0.0016529 256.70 484.46 1.1462 1.8880 2.3948 1533.8 -0.0059758 230.15 0.16218 605.00 0.0016529 256.70 484.46 1.1462 1.8880 2.3948 1533.8 -0.0059758 230.15 0.16218
62.375 20132. undefined 258.59 488.02 1.1519 605.00 0.0016529 258.59 488.02 1.1519 1.8924 2.3981 1535.2 -0.0059700 230.06 0.16236 605.00 0.0016529 258.59 488.02 1.1519 1.8924 2.3981 1535.2 -0.0059700 230.06 0.16236
63.375 20279. undefined 260.49 491.59 1.1575 605.00 0.0016529 260.49 491.59 1.1575 1.8967 2.4014 1536.6 -0.0059643 229.98 0.16254 605.00 0.0016529 260.49 491.59 1.1575 1.8967 2.4014 1536.6 -0.0059643 229.98 0.16254
64.375 20425. undefined 262.39 495.16 1.1631 605.00 0.0016529 262.39 495.16 1.1631 1.9011 2.4047 1538.0 -0.0059585 229.89 0.16272 605.00 0.0016529 262.39 495.16 1.1631 1.9011 2.4047 1538.0 -0.0059585 229.89 0.16272
65.375 20572. undefined 264.29 498.73 1.1688 605.00 0.0016529 264.29 498.73 1.1688 1.9055 2.4081 1539.4 -0.0059527 229.81 0.16290 605.00 0.0016529 264.29 498.73 1.1688 1.9055 2.4081 1539.4 -0.0059527 229.81 0.16290
66.375 20718. undefined 266.20 502.31 1.1744 605.00 0.0016529 266.20 502.31 1.1744 1.9098 2.4114 1540.8 -0.0059468 229.72 0.16309 605.00 0.0016529 266.20 502.31 1.1744 1.9098 2.4114 1540.8 -0.0059468 229.72 0.16309
67.375 20864. undefined 268.11 505.88 1.1800 605.00 0.0016529 268.11 505.88 1.1800 1.9142 2.4147 1542.2 -0.0059409 229.64 0.16327 605.00 0.0016529 268.11 505.88 1.1800 1.9142 2.4147 1542.2 -0.0059409 229.64 0.16327
68.375 21010. undefined 270.03 509.46 1.1856 605.00 0.0016529 270.03 509.46 1.1856 1.9186 2.4181 1543.5 -0.0059350 229.56 0.16345 605.00 0.0016529 270.03 509.46 1.1856 1.9186 2.4181 1543.5 -0.0059350 229.56 0.16345
69.375 21156. undefined 271.95 513.05 1.1913 605.00 0.0016529 271.95 513.05 1.1913 1.9230 2.4214 1544.9 -0.0059291 229.48 0.16363 605.00 0.0016529 271.95 513.05 1.1913 1.9230 2.4214 1544.9 -0.0059291 229.48 0.16363
70.375 21302. undefined 273.87 516.63 1.1969 605.00 0.0016529 273.87 516.63 1.1969 1.9273 2.4248 1546.3 -0.0059232 229.40 0.16381 605.00 0.0016529 273.87 516.63 1.1969 1.9273 2.4248 1546.3 -0.0059232 229.40 0.16381
71.375 21447. undefined 275.80 520.22 1.2025 605.00 0.0016529 275.80 520.22 1.2025 1.9317 2.4281 1547.7 -0.0059172 229.32 0.16399 605.00 0.0016529 275.80 520.22 1.2025 1.9317 2.4281 1547.7 -0.0059172 229.32 0.16399
72.375 21593. undefined 277.73 523.81 1.2081 605.00 0.0016529 277.73 523.81 1.2081 1.9361 2.4315 1549.1 -0.0059112 229.24 0.16418 605.00 0.0016529 277.73 523.81 1.2081 1.9361 2.4315 1549.1 -0.0059112 229.24 0.16418
73.375 21738. undefined 279.67 527.40 1.2137 605.00 0.0016529 279.67 527.40 1.2137 1.9405 2.4349 1550.4 -0.0059052 229.17 0.16436 605.00 0.0016529 279.67 527.40 1.2137 1.9405 2.4349 1550.4 -0.0059052 229.17 0.16436
74.375 21883. undefined 281.62 531.00 1.2193 605.00 0.0016529 281.62 531.00 1.2193 1.9448 2.4383 1551.8 -0.0058992 229.09 0.16454 605.00 0.0016529 281.62 531.00 1.2193 1.9448 2.4383 1551.8 -0.0058992 229.09 0.16454
75.375 22028. undefined 283.56 534.59 1.2249 605.00 0.0016529 283.56 534.59 1.2249 1.9492 2.4417 1553.2 -0.0058932 229.01 0.16473 605.00 0.0016529 283.56 534.59 1.2249 1.9492 2.4417 1553.2 -0.0058932 229.01 0.16473
76.375 22172. undefined 285.51 538.19 1.2305 605.00 0.0016529 285.51 538.19 1.2305 1.9536 2.4451 1554.5 -0.0058871 228.94 0.16491 605.00 0.0016529 285.51 538.19 1.2305 1.9536 2.4451 1554.5 -0.0058871 228.94 0.16491
77.375 22317. undefined 287.47 541.80 1.2361 605.00 0.0016529 287.47 541.80 1.2361 1.9580 2.4485 1555.9 -0.0058810 228.86 0.16510 605.00 0.0016529 287.47 541.80 1.2361 1.9580 2.4485 1555.9 -0.0058810 228.86 0.16510
78.375 22461. undefined 289.43 545.40 1.2416 605.00 0.0016529 289.43 545.40 1.2416 1.9623 2.4519 1557.2 -0.0058750 228.79 0.16528 605.00 0.0016529 289.43 545.40 1.2416 1.9623 2.4519 1557.2 -0.0058750 228.79 0.16528
79.375 22605. undefined 291.39 549.01 1.2472 605.00 0.0016529 291.39 549.01 1.2472 1.9667 2.4553 1558.6 -0.0058689 228.72 0.16547 605.00 0.0016529 291.39 549.01 1.2472 1.9667 2.4553 1558.6 -0.0058689 228.72 0.16547
80.375 22749. undefined 293.36 552.62 1.2528 605.00 0.0016529 293.36 552.62 1.2528 1.9711 2.4587 1559.9 -0.0058627 228.64 0.16565 605.00 0.0016529 293.36 552.62 1.2528 1.9711 2.4587 1559.9 -0.0058627 228.64 0.16565
81.375 22893. undefined 295.34 556.23 1.2584 605.00 0.0016529 295.34 556.23 1.2584 1.9755 2.4622 1561.3 -0.0058566 228.57 0.16584 605.00 0.0016529 295.34 556.23 1.2584 1.9755 2.4622 1561.3 -0.0058566 228.57 0.16584
82.375 23037. undefined 297.31 559.85 1.2639 605.00 0.0016529 297.31 559.85 1.2639 1.9798 2.4656 1562.6 -0.0058504 228.50 0.16602 605.00 0.0016529 297.31 559.85 1.2639 1.9798 2.4656 1562.6 -0.0058504 228.50 0.16602
83.375 23180. undefined 299.30 563.47 1.2695 605.00 0.0016529 299.30 563.47 1.2695 1.9842 2.4691 1563.9 -0.0058443 228.43 0.16621 605.00 0.0016529 299.30 563.47 1.2695 1.9842 2.4691 1563.9 -0.0058443 228.43 0.16621
84.375 23324. undefined 301.28 567.09 1.2751 605.00 0.0016529 301.28 567.09 1.2751 1.9886 2.4725 1565.3 -0.0058381 228.36 0.16639 605.00 0.0016529 301.28 567.09 1.2751 1.9886 2.4725 1565.3 -0.0058381 228.36 0.16639
85.375 23467. undefined 303.27 570.71 1.2806 605.00 0.0016529 303.27 570.71 1.2806 1.9929 2.4760 1566.6 -0.0058319 228.29 0.16658 605.00 0.0016529 303.27 570.71 1.2806 1.9929 2.4760 1566.6 -0.0058319 228.29 0.16658
86.375 23610. undefined 305.27 574.34 1.2862 605.00 0.0016529 305.27 574.34 1.2862 1.9973 2.4794 1567.9 -0.0058257 228.23 0.16677 605.00 0.0016529 305.27 574.34 1.2862 1.9973 2.4794 1567.9 -0.0058257 228.23 0.16677
87.375 23753. undefined 307.27 577.96 1.2917 605.00 0.0016529 307.27 577.96 1.2917 2.0017 2.4829 1569.2 -0.0058195 228.16 0.16695 605.00 0.0016529 307.27 577.96 1.2917 2.0017 2.4829 1569.2 -0.0058195 228.16 0.16695
88.375 23896. undefined 309.27 581.59 1.2973 605.00 0.0016529 309.27 581.59 1.2973 2.0060 2.4864 1570.6 -0.0058133 228.09 0.16714 605.00 0.0016529 309.27 581.59 1.2973 2.0060 2.4864 1570.6 -0.0058133 228.09 0.16714
89.375 24038. undefined 311.28 585.23 1.3028 605.00 0.0016529 311.28 585.23 1.3028 2.0104 2.4898 1571.9 -0.0058071 228.03 0.16733 605.00 0.0016529 311.28 585.23 1.3028 2.0104 2.4898 1571.9 -0.0058071 228.03 0.16733
90.375 24181. undefined 313.29 588.86 1.3084 605.00 0.0016529 313.29 588.86 1.3084 2.0148 2.4933 1573.2 -0.0058009 227.96 0.16752 605.00 0.0016529 313.29 588.86 1.3084 2.0148 2.4933 1573.2 -0.0058009 227.96 0.16752
91.375 24323. undefined 315.31 592.50 1.3139 605.00 0.0016529 315.31 592.50 1.3139 2.0191 2.4968 1574.5 -0.0057946 227.90 0.16771 605.00 0.0016529 315.31 592.50 1.3139 2.0191 2.4968 1574.5 -0.0057946 227.90 0.16771
92.375 24465. undefined 317.33 596.14 1.3195 605.00 0.0016529 317.33 596.14 1.3195 2.0235 2.5003 1575.8 -0.0057884 227.83 0.16790 605.00 0.0016529 317.33 596.14 1.3195 2.0235 2.5003 1575.8 -0.0057884 227.83 0.16790
93.375 24607. undefined 319.36 599.79 1.3250 605.00 0.0016529 319.36 599.79 1.3250 2.0279 2.5038 1577.1 -0.0057821 227.77 0.16808 605.00 0.0016529 319.36 599.79 1.3250 2.0279 2.5038 1577.1 -0.0057821 227.77 0.16808
94.375 24749. undefined 321.39 603.43 1.3305 605.00 0.0016529 321.39 603.43 1.3305 2.0322 2.5073 1578.4 -0.0057759 227.71 0.16827 605.00 0.0016529 321.39 603.43 1.3305 2.0322 2.5073 1578.4 -0.0057759 227.71 0.16827
95.375 24891. undefined 323.42 607.08 1.3361 605.00 0.0016529 323.42 607.08 1.3361 2.0366 2.5108 1579.7 -0.0057696 227.65 0.16846 605.00 0.0016529 323.42 607.08 1.3361 2.0366 2.5108 1579.7 -0.0057696 227.65 0.16846
96.375 25032. undefined 325.46 610.74 1.3416 605.00 0.0016529 325.46 610.74 1.3416 2.0409 2.5143 1581.0 -0.0057633 227.58 0.16865 605.00 0.0016529 325.46 610.74 1.3416 2.0409 2.5143 1581.0 -0.0057633 227.58 0.16865
97.375 25174. undefined 327.50 614.39 1.3471 605.00 0.0016529 327.50 614.39 1.3471 2.0453 2.5178 1582.3 -0.0057571 227.52 0.16884 605.00 0.0016529 327.50 614.39 1.3471 2.0453 2.5178 1582.3 -0.0057571 227.52 0.16884
98.375 25315. undefined 329.55 618.05 1.3526 605.00 0.0016529 329.55 618.05 1.3526 2.0496 2.5213 1583.6 -0.0057508 227.46 0.16903 605.00 0.0016529 329.55 618.05 1.3526 2.0496 2.5213 1583.6 -0.0057508 227.46 0.16903
99.375 25456. undefined 331.60 621.71 1.3581 605.00 0.0016529 331.60 621.71 1.3581 2.0540 2.5248 1584.9 -0.0057445 227.40 0.16922 605.00 0.0016529 331.60 621.71 1.3581 2.0540 2.5248 1584.9 -0.0057445 227.40 0.16922
100.38 25597. undefined 333.66 625.37 1.3637 605.00 0.0016529 333.66 625.37 1.3637 2.0583 2.5283 1586.2 -0.0057382 227.35 0.16941 605.00 0.0016529 333.66 625.37 1.3637 2.0583 2.5283 1586.2 -0.0057382 227.35 0.16941
101.38 25738. undefined 335.72 629.03 1.3692 605.00 0.0016529 335.72 629.03 1.3692 2.0627 2.5318 1587.5 -0.0057319 227.29 0.16961 605.00 0.0016529 335.72 629.03 1.3692 2.0627 2.5318 1587.5 -0.0057319 227.29 0.16961
102.38 25878. undefined 337.78 632.70 1.3747 605.00 0.0016529 337.78 632.70 1.3747 2.0670 2.5353 1588.8 -0.0057256 227.23 0.16980 605.00 0.0016529 337.78 632.70 1.3747 2.0670 2.5353 1588.8 -0.0057256 227.23 0.16980
103.38 26019. undefined 339.85 636.37 1.3802 605.00 0.0016529 339.85 636.37 1.3802 2.0714 2.5389 1590.0 -0.0057193 227.17 0.16999 605.00 0.0016529 339.85 636.37 1.3802 2.0714 2.5389 1590.0 -0.0057193 227.17 0.16999
104.38 26159. undefined 341.93 640.04 1.3857 605.00 0.0016529 341.93 640.04 1.3857 2.0757 2.5424 1591.3 -0.0057130 227.12 0.17018 605.00 0.0016529 341.93 640.04 1.3857 2.0757 2.5424 1591.3 -0.0057130 227.12 0.17018
105.38 26299. undefined 344.00 643.72 1.3912 605.00 0.0016529 344.00 643.72 1.3912 2.0800 2.5459 1592.6 -0.0057068 227.06 0.17037 605.00 0.0016529 344.00 643.72 1.3912 2.0800 2.5459 1592.6 -0.0057068 227.06 0.17037
106.38 26440. undefined 346.09 647.40 1.3967 605.00 0.0016529 346.09 647.40 1.3967 2.0844 2.5495 1593.8 -0.0057005 227.00 0.17057 605.00 0.0016529 346.09 647.40 1.3967 2.0844 2.5495 1593.8 -0.0057005 227.00 0.17057
107.38 26579. undefined 348.17 651.08 1.4021 605.00 0.0016529 348.17 651.08 1.4021 2.0887 2.5530 1595.1 -0.0056942 226.95 0.17076 605.00 0.0016529 348.17 651.08 1.4021 2.0887 2.5530 1595.1 -0.0056942 226.95 0.17076
108.38 26719. undefined 350.26 654.76 1.4076 605.00 0.0016529 350.26 654.76 1.4076 2.0930 2.5565 1596.4 -0.0056879 226.90 0.17095 605.00 0.0016529 350.26 654.76 1.4076 2.0930 2.5565 1596.4 -0.0056879 226.90 0.17095
109.38 26859. undefined 352.36 658.45 1.4131 605.00 0.0016529 352.36 658.45 1.4131 2.0974 2.5601 1597.6 -0.0056816 226.84 0.17115 605.00 0.0016529 352.36 658.45 1.4131 2.0974 2.5601 1597.6 -0.0056816 226.84 0.17115
110.38 26998. undefined 354.46 662.14 1.4186 605.00 0.0016529 354.46 662.14 1.4186 2.1017 2.5636 1598.9 -0.0056753 226.79 0.17134 605.00 0.0016529 354.46 662.14 1.4186 2.1017 2.5636 1598.9 -0.0056753 226.79 0.17134
111.38 27138. undefined 356.56 665.83 1.4241 605.00 0.0016529 356.56 665.83 1.4241 2.1060 2.5672 1600.2 -0.0056690 226.74 0.17153 605.00 0.0016529 356.56 665.83 1.4241 2.1060 2.5672 1600.2 -0.0056690 226.74 0.17153
112.38 27277. undefined 358.67 669.53 1.4296 605.00 0.0016529 358.67 669.53 1.4296 2.1103 2.5707 1601.4 -0.0056627 226.68 0.17173 605.00 0.0016529 358.67 669.53 1.4296 2.1103 2.5707 1601.4 -0.0056627 226.68 0.17173
113.38 27416. undefined 360.78 673.22 1.4350 605.00 0.0016529 360.78 673.22 1.4350 2.1146 2.5743 1602.7 -0.0056564 226.63 0.17192 605.00 0.0016529 360.78 673.22 1.4350 2.1146 2.5743 1602.7 -0.0056564 226.63 0.17192
114.38 27555. undefined 362.90 676.92 1.4405 605.00 0.0016529 362.90 676.92 1.4405 2.1190 2.5778 1603.9 -0.0056501 226.58 0.17212 605.00 0.0016529 362.90 676.92 1.4405 2.1190 2.5778 1603.9 -0.0056501 226.58 0.17212
115.38 27694. undefined 365.02 680.63 1.4460 605.00 0.0016529 365.02 680.63 1.4460 2.1233 2.5814 1605.2 -0.0056438 226.53 0.17231 605.00 0.0016529 365.02 680.63 1.4460 2.1233 2.5814 1605.2 -0.0056438 226.53 0.17231
116.38 27832. undefined 367.15 684.33 1.4514 605.00 0.0016529 367.15 684.33 1.4514 2.1276 2.5849 1606.4 -0.0056375 226.48 0.17251 605.00 0.0016529 367.15 684.33 1.4514 2.1276 2.5849 1606.4 -0.0056375 226.48 0.17251
117.38 27971. undefined 369.28 688.04 1.4569 605.00 0.0016529 369.28 688.04 1.4569 2.1319 2.5885 1607.6 -0.0056313 226.43 0.17271 605.00 0.0016529 369.28 688.04 1.4569 2.1319 2.5885 1607.6 -0.0056313 226.43 0.17271
118.38 28109. undefined 371.41 691.75 1.4623 605.00 0.0016529 371.41 691.75 1.4623 2.1362 2.5920 1608.9 -0.0056250 226.38 0.17290 605.00 0.0016529 371.41 691.75 1.4623 2.1362 2.5920 1608.9 -0.0056250 226.38 0.17290
119.38 28247. undefined 373.55 695.46 1.4678 605.00 0.0016529 373.55 695.46 1.4678 2.1405 2.5956 1610.1 -0.0056187 226.33 0.17310 605.00 0.0016529 373.55 695.46 1.4678 2.1405 2.5956 1610.1 -0.0056187 226.33 0.17310
120.38 28385. undefined 375.69 699.18 1.4733 605.00 0.0016529 375.69 699.18 1.4733 2.1448 2.5991 1611.3 -0.0056125 226.28 0.17330 605.00 0.0016529 375.69 699.18 1.4733 2.1448 2.5991 1611.3 -0.0056125 226.28 0.17330
121.38 28523. undefined 377.84 702.90 1.4787 605.00 0.0016529 377.84 702.90 1.4787 2.1491 2.6027 1612.6 -0.0056062 226.24 0.17349 605.00 0.0016529 377.84 702.90 1.4787 2.1491 2.6027 1612.6 -0.0056062 226.24 0.17349
122.38 28661. undefined 379.99 706.62 1.4841 605.00 0.0016529 379.99 706.62 1.4841 2.1534 2.6062 1613.8 -0.0055999 226.19 0.17369 605.00 0.0016529 379.99 706.62 1.4841 2.1534 2.6062 1613.8 -0.0055999 226.19 0.17369
123.38 28799. undefined 382.14 710.34 1.4896 605.00 0.0016529 382.14 710.34 1.4896 2.1576 2.6098 1615.0 -0.0055937 226.14 0.17389 605.00 0.0016529 382.14 710.34 1.4896 2.1576 2.6098 1615.0 -0.0055937 226.14 0.17389
124.38 28936. undefined 384.30 714.07 1.4950 605.00 0.0016529 384.30 714.07 1.4950 2.1619 2.6134 1616.3 -0.0055874 226.10 0.17409 605.00 0.0016529 384.30 714.07 1.4950 2.1619 2.6134 1616.3 -0.0055874 226.10 0.17409
125.38 29074. undefined 386.47 717.80 1.5005 605.00 0.0016529 386.47 717.80 1.5005 2.1662 2.6169 1617.5 -0.0055812 226.05 0.17428 605.00 0.0016529 386.47 717.80 1.5005 2.1662 2.6169 1617.5 -0.0055812 226.05 0.17428
126.38 29211. undefined 388.64 721.53 1.5059 605.00 0.0016529 388.64 721.53 1.5059 2.1705 2.6205 1618.7 -0.0055750 226.01 0.17448 605.00 0.0016529 388.64 721.53 1.5059 2.1705 2.6205 1618.7 -0.0055750 226.01 0.17448
127.38 29348. undefined 390.81 725.27 1.5113 605.00 0.0016529 390.81 725.27 1.5113 2.1748 2.6240 1619.9 -0.0055687 225.96 0.17468 605.00 0.0016529 390.81 725.27 1.5113 2.1748 2.6240 1619.9 -0.0055687 225.96 0.17468
128.38 29485. undefined 392.99 729.01 1.5168 605.00 0.0016529 392.99 729.01 1.5168 2.1790 2.6276 1621.1 -0.0055625 225.92 0.17488 605.00 0.0016529 392.99 729.01 1.5168 2.1790 2.6276 1621.1 -0.0055625 225.92 0.17488
129.38 29622. undefined 395.17 732.75 1.5222 605.00 0.0016529 395.17 732.75 1.5222 2.1833 2.6312 1622.3 -0.0055563 225.87 0.17508 605.00 0.0016529 395.17 732.75 1.5222 2.1833 2.6312 1622.3 -0.0055563 225.87 0.17508
130.38 29759. undefined 397.35 736.49 1.5276 605.00 0.0016529 397.35 736.49 1.5276 2.1876 2.6347 1623.6 -0.0055501 225.83 0.17528 605.00 0.0016529 397.35 736.49 1.5276 2.1876 2.6347 1623.6 -0.0055501 225.83 0.17528
131.38 29895. undefined 399.54 740.24 1.5330 605.00 0.0016529 399.54 740.24 1.5330 2.1918 2.6383 1624.8 -0.0055439 225.79 0.17548 605.00 0.0016529 399.54 740.24 1.5330 2.1918 2.6383 1624.8 -0.0055439 225.79 0.17548
132.38 30032. undefined 401.74 743.99 1.5384 605.00 0.0016529 401.74 743.99 1.5384 2.1961 2.6419 1626.0 -0.0055377 225.74 0.17568 605.00 0.0016529 401.74 743.99 1.5384 2.1961 2.6419 1626.0 -0.0055377 225.74 0.17568
133.38 30168. undefined 403.93 747.74 1.5439 605.00 0.0016529 403.93 747.74 1.5439 2.2003 2.6454 1627.2 -0.0055315 225.70 0.17588 605.00 0.0016529 403.93 747.74 1.5439 2.2003 2.6454 1627.2 -0.0055315 225.70 0.17588
134.38 30304. undefined 406.14 751.49 1.5493 605.00 0.0016529 406.14 751.49 1.5493 2.2046 2.6490 1628.4 -0.0055253 225.66 0.17608 605.00 0.0016529 406.14 751.49 1.5493 2.2046 2.6490 1628.4 -0.0055253 225.66 0.17608
135.38 30440. undefined 408.34 755.25 1.5547 605.00 0.0016529 408.34 755.25 1.5547 2.2088 2.6526 1629.6 -0.0055192 225.62 0.17628 605.00 0.0016529 408.34 755.25 1.5547 2.2088 2.6526 1629.6 -0.0055192 225.62 0.17628
136.38 30576. undefined 410.55 759.01 1.5601 605.00 0.0016529 410.55 759.01 1.5601 2.2131 2.6561 1630.8 -0.0055130 225.58 0.17649 605.00 0.0016529 410.55 759.01 1.5601 2.2131 2.6561 1630.8 -0.0055130 225.58 0.17649
137.38 30712. undefined 412.77 762.77 1.5655 605.00 0.0016529 412.77 762.77 1.5655 2.2173 2.6597 1632.0 -0.0055068 225.54 0.17669 605.00 0.0016529 412.77 762.77 1.5655 2.2173 2.6597 1632.0 -0.0055068 225.54 0.17669
138.38 30848. undefined 414.99 766.54 1.5709 605.00 0.0016529 414.99 766.54 1.5709 2.2215 2.6632 1633.1 -0.0055007 225.50 0.17689 605.00 0.0016529 414.99 766.54 1.5709 2.2215 2.6632 1633.1 -0.0055007 225.50 0.17689
139.38 30983. undefined 417.21 770.31 1.5763 605.00 0.0016529 417.21 770.31 1.5763 2.2257 2.6668 1634.3 -0.0054946 225.46 0.17709 605.00 0.0016529 417.21 770.31 1.5763 2.2257 2.6668 1634.3 -0.0054946 225.46 0.17709
140.38 31119. undefined 419.44 774.08 1.5817 605.00 0.0016529 419.44 774.08 1.5817 2.2300 2.6704 1635.5 -0.0054884 225.42 0.17729 605.00 0.0016529 419.44 774.08 1.5817 2.2300 2.6704 1635.5 -0.0054884 225.42 0.17729
141.38 31254. undefined 421.67 777.85 1.5871 605.00 0.0016529 421.67 777.85 1.5871 2.2342 2.6739 1636.7 -0.0054823 225.38 0.17750 605.00 0.0016529 421.67 777.85 1.5871 2.2342 2.6739 1636.7 -0.0054823 225.38 0.17750
142.38 31389. undefined 423.91 781.63 1.5925 605.00 0.0016529 423.91 781.63 1.5925 2.2384 2.6775 1637.9 -0.0054762 225.34 0.17770 605.00 0.0016529 423.91 781.63 1.5925 2.2384 2.6775 1637.9 -0.0054762 225.34 0.17770
143.38 31524. undefined 426.15 785.41 1.5978 605.00 0.0016529 426.15 785.41 1.5978 2.2426 2.6811 1639.1 -0.0054701 225.30 0.17790 605.00 0.0016529 426.15 785.41 1.5978 2.2426 2.6811 1639.1 -0.0054701 225.30 0.17790
144.38 31659. undefined 428.39 789.19 1.6032 605.00 0.0016529 428.39 789.19 1.6032 2.2468 2.6846 1640.3 -0.0054640 225.27 0.17811 605.00 0.0016529 428.39 789.19 1.6032 2.2468 2.6846 1640.3 -0.0054640 225.27 0.17811
145.38 31794. undefined 430.64 792.97 1.6086 605.00 0.0016529 430.64 792.97 1.6086 2.2510 2.6882 1641.4 -0.0054579 225.23 0.17831 605.00 0.0016529 430.64 792.97 1.6086 2.2510 2.6882 1641.4 -0.0054579 225.23 0.17831
146.38 31928. undefined 432.90 796.76 1.6140 605.00 0.0016529 432.90 796.76 1.6140 2.2552 2.6917 1642.6 -0.0054519 225.19 0.17852 605.00 0.0016529 432.90 796.76 1.6140 2.2552 2.6917 1642.6 -0.0054519 225.19 0.17852
147.38 32063. undefined 435.15 800.55 1.6194 605.00 0.0016529 435.15 800.55 1.6194 2.2594 2.6953 1643.8 -0.0054458 225.16 0.17872 605.00 0.0016529 435.15 800.55 1.6194 2.2594 2.6953 1643.8 -0.0054458 225.16 0.17872
148.38 32197. undefined 437.42 804.34 1.6247 605.00 0.0016529 437.42 804.34 1.6247 2.2636 2.6988 1644.9 -0.0054398 225.12 0.17893 605.00 0.0016529 437.42 804.34 1.6247 2.2636 2.6988 1644.9 -0.0054398 225.12 0.17893
149.38 32332. undefined 439.68 808.14 1.6301 605.00 0.0016529 439.68 808.14 1.6301 2.2678 2.7024 1646.1 -0.0054337 225.08 0.17913 605.00 0.0016529 439.68 808.14 1.6301 2.2678 2.7024 1646.1 -0.0054337 225.08 0.17913
150.38 32466. undefined 441.95 811.94 1.6355 605.00 0.0016529 441.95 811.94 1.6355 2.2720 2.7060 1647.3 -0.0054277 225.05 0.17934 605.00 0.0016529 441.95 811.94 1.6355 2.2720 2.7060 1647.3 -0.0054277 225.05 0.17934
151.38 32600. undefined 444.23 815.74 1.6408 605.00 0.0016529 444.23 815.74 1.6408 2.2762 2.7095 1648.4 -0.0054217 225.01 0.17954 605.00 0.0016529 444.23 815.74 1.6408 2.2762 2.7095 1648.4 -0.0054217 225.01 0.17954
152.38 32734. undefined 446.50 819.54 1.6462 605.00 0.0016529 446.50 819.54 1.6462 2.2803 2.7131 1649.6 -0.0054157 224.98 0.17975 605.00 0.0016529 446.50 819.54 1.6462 2.2803 2.7131 1649.6 -0.0054157 224.98 0.17975
153.38 32867. undefined 448.79 823.35 1.6515 605.00 0.0016529 448.79 823.35 1.6515 2.2845 2.7166 1650.8 -0.0054097 224.95 0.17996 605.00 0.0016529 448.79 823.35 1.6515 2.2845 2.7166 1650.8 -0.0054097 224.95 0.17996
154.38 33001. undefined 451.07 827.16 1.6569 605.00 0.0016529 451.07 827.16 1.6569 2.2887 2.7202 1651.9 -0.0054037 224.91 0.18016 605.00 0.0016529 451.07 827.16 1.6569 2.2887 2.7202 1651.9 -0.0054037 224.91 0.18016
155.38 33134. undefined 453.36 830.97 1.6622 605.00 0.0016529 453.36 830.97 1.6622 2.2928 2.7237 1653.1 -0.0053977 224.88 0.18037 605.00 0.0016529 453.36 830.97 1.6622 2.2928 2.7237 1653.1 -0.0053977 224.88 0.18037
156.38 33268. undefined 455.66 834.79 1.6676 605.00 0.0016529 455.66 834.79 1.6676 2.2970 2.7272 1654.2 -0.0053918 224.85 0.18058 605.00 0.0016529 455.66 834.79 1.6676 2.2970 2.7272 1654.2 -0.0053918 224.85 0.18058
157.38 33401. undefined 457.96 838.61 1.6729 605.00 0.0016529 457.96 838.61 1.6729 2.3012 2.7308 1655.4 -0.0053858 224.81 0.18078 605.00 0.0016529 457.96 838.61 1.6729 2.3012 2.7308 1655.4 -0.0053858 224.81 0.18078
158.38 33534. undefined 460.26 842.43 1.6783 605.00 0.0016529 460.26 842.43 1.6783 2.3053 2.7343 1656.5 -0.0053799 224.78 0.18099 605.00 0.0016529 460.26 842.43 1.6783 2.3053 2.7343 1656.5 -0.0053799 224.78 0.18099
159.38 33667. undefined 462.57 846.25 1.6836 605.00 0.0016529 462.57 846.25 1.6836 2.3094 2.7379 1657.7 -0.0053739 224.75 0.18120 605.00 0.0016529 462.57 846.25 1.6836 2.3094 2.7379 1657.7 -0.0053739 224.75 0.18120
160.38 33800. undefined 464.88 850.08 1.6890 605.00 0.0016529 464.88 850.08 1.6890 2.3136 2.7414 1658.8 -0.0053680 224.72 0.18141 605.00 0.0016529 464.88 850.08 1.6890 2.3136 2.7414 1658.8 -0.0053680 224.72 0.18141
161.38 33933. undefined 467.20 853.90 1.6943 605.00 0.0016529 467.20 853.90 1.6943 2.3177 2.7450 1660.0 -0.0053621 224.68 0.18162 605.00 0.0016529 467.20 853.90 1.6943 2.3177 2.7450 1660.0 -0.0053621 224.68 0.18162
162.38 34066. undefined 469.51 857.74 1.6996 605.00 0.0016529 469.51 857.74 1.6996 2.3219 2.7485 1661.1 -0.0053562 224.65 0.18183 605.00 0.0016529 469.51 857.74 1.6996 2.3219 2.7485 1661.1 -0.0053562 224.65 0.18183
163.38 34198. undefined 471.84 861.57 1.7050 605.00 0.0016529 471.84 861.57 1.7050 2.3260 2.7520 1662.2 -0.0053504 224.62 0.18204 605.00 0.0016529 471.84 861.57 1.7050 2.3260 2.7520 1662.2 -0.0053504 224.62 0.18204
164.38 34331. undefined 474.17 865.41 1.7103 605.00 0.0016529 474.17 865.41 1.7103 2.3301 2.7556 1663.4 -0.0053445 224.59 0.18225 605.00 0.0016529 474.17 865.41 1.7103 2.3301 2.7556 1663.4 -0.0053445 224.59 0.18225
165.38 34463. undefined 476.50 869.25 1.7156 605.00 0.0016529 476.50 869.25 1.7156 2.3342 2.7591 1664.5 -0.0053386 224.56 0.18246 605.00 0.0016529 476.50 869.25 1.7156 2.3342 2.7591 1664.5 -0.0053386 224.56 0.18246
166.38 34595. undefined 478.84 873.09 1.7209 605.00 0.0016529 478.84 873.09 1.7209 2.3383 2.7626 1665.7 -0.0053328 224.53 0.18267 605.00 0.0016529 478.84 873.09 1.7209 2.3383 2.7626 1665.7 -0.0053328 224.53 0.18267
167.38 34727. undefined 481.18 876.94 1.7263 605.00 0.0016529 481.18 876.94 1.7263 2.3424 2.7662 1666.8 -0.0053270 224.50 0.18288 605.00 0.0016529 481.18 876.94 1.7263 2.3424 2.7662 1666.8 -0.0053270 224.50 0.18288
168.38 34859. undefined 483.52 880.78 1.7316 605.00 0.0016529 483.52 880.78 1.7316 2.3465 2.7697 1667.9 -0.0053211 224.47 0.18309 605.00 0.0016529 483.52 880.78 1.7316 2.3465 2.7697 1667.9 -0.0053211 224.47 0.18309
169.38 34991. undefined 485.87 884.63 1.7369 605.00 0.0016529 485.87 884.63 1.7369 2.3506 2.7732 1669.0 -0.0053153 224.44 0.18330 605.00 0.0016529 485.87 884.63 1.7369 2.3506 2.7732 1669.0 -0.0053153 224.44 0.18330
170.38 35123. undefined 488.22 888.49 1.7422 605.00 0.0016529 488.22 888.49 1.7422 2.3547 2.7767 1670.2 -0.0053095 224.42 0.18351 605.00 0.0016529 488.22 888.49 1.7422 2.3547 2.7767 1670.2 -0.0053095 224.42 0.18351
171.38 35254. undefined 490.58 892.34 1.7475 605.00 0.0016529 490.58 892.34 1.7475 2.3588 2.7802 1671.3 -0.0053038 224.39 0.18372 605.00 0.0016529 490.58 892.34 1.7475 2.3588 2.7802 1671.3 -0.0053038 224.39 0.18372
172.38 35386. undefined 492.94 896.20 1.7528 605.00 0.0016529 492.94 896.20 1.7528 2.3629 2.7838 1672.4 -0.0052980 224.36 0.18393 605.00 0.0016529 492.94 896.20 1.7528 2.3629 2.7838 1672.4 -0.0052980 224.36 0.18393
173.38 35517. undefined 495.30 900.07 1.7581 605.00 0.0016529 495.30 900.07 1.7581 2.3670 2.7873 1673.5 -0.0052922 224.33 0.18415 605.00 0.0016529 495.30 900.07 1.7581 2.3670 2.7873 1673.5 -0.0052922 224.33 0.18415
174.38 35648. undefined 497.67 903.93 1.7634 605.00 0.0016529 497.67 903.93 1.7634 2.3710 2.7908 1674.7 -0.0052865 224.31 0.18436 605.00 0.0016529 497.67 903.93 1.7634 2.3710 2.7908 1674.7 -0.0052865 224.31 0.18436
175.38 35779. undefined 500.05 907.80 1.7687 605.00 0.0016529 500.05 907.80 1.7687 2.3751 2.7943 1675.8 -0.0052808 224.28 0.18457 605.00 0.0016529 500.05 907.80 1.7687 2.3751 2.7943 1675.8 -0.0052808 224.28 0.18457
176.38 35910. undefined 502.42 911.67 1.7740 605.00 0.0016529 502.42 911.67 1.7740 2.3792 2.7978 1676.9 -0.0052751 224.25 0.18478 605.00 0.0016529 502.42 911.67 1.7740 2.3792 2.7978 1676.9 -0.0052751 224.25 0.18478
177.38 36041. undefined 504.80 915.54 1.7793 605.00 0.0016529 504.80 915.54 1.7793 2.3832 2.8013 1678.0 -0.0052694 224.22 0.18500 605.00 0.0016529 504.80 915.54 1.7793 2.3832 2.8013 1678.0 -0.0052694 224.22 0.18500
178.38 36172. undefined 507.19 919.42 1.7846 605.00 0.0016529 507.19 919.42 1.7846 2.3873 2.8048 1679.1 -0.0052637 224.20 0.18521 605.00 0.0016529 507.19 919.42 1.7846 2.3873 2.8048 1679.1 -0.0052637 224.20 0.18521
179.38 36303. undefined 509.58 923.29 1.7899 605.00 0.0016529 509.58 923.29 1.7899 2.3913 2.8083 1680.2 -0.0052580 224.17 0.18543 605.00 0.0016529 509.58 923.29 1.7899 2.3913 2.8083 1680.2 -0.0052580 224.17 0.18543
180.38 36433. undefined 511.97 927.17 1.7951 605.00 0.0016529 511.97 927.17 1.7951 2.3954 2.8118 1681.3 -0.0052523 224.15 0.18564 605.00 0.0016529 511.97 927.17 1.7951 2.3954 2.8118 1681.3 -0.0052523 224.15 0.18564
181.38 36564. undefined 514.37 931.06 1.8004 605.00 0.0016529 514.37 931.06 1.8004 2.3994 2.8153 1682.4 -0.0052467 224.12 0.18586 605.00 0.0016529 514.37 931.06 1.8004 2.3994 2.8153 1682.4 -0.0052467 224.12 0.18586
182.38 36694. undefined 516.77 934.95 1.8057 605.00 0.0016529 516.77 934.95 1.8057 2.4034 2.8188 1683.5 -0.0052411 224.10 0.18607 605.00 0.0016529 516.77 934.95 1.8057 2.4034 2.8188 1683.5 -0.0052411 224.10 0.18607
183.38 36824. undefined 519.18 938.83 1.8110 605.00 0.0016529 519.18 938.83 1.8110 2.4075 2.8223 1684.6 -0.0052354 224.07 0.18629 605.00 0.0016529 519.18 938.83 1.8110 2.4075 2.8223 1684.6 -0.0052354 224.07 0.18629
184.38 36954. undefined 521.59 942.73 1.8163 605.00 0.0016529 521.59 942.73 1.8163 2.4115 2.8258 1685.7 -0.0052298 224.05 0.18650 605.00 0.0016529 521.59 942.73 1.8163 2.4115 2.8258 1685.7 -0.0052298 224.05 0.18650
185.38 37084. undefined 524.00 946.62 1.8215 605.00 0.0016529 524.00 946.62 1.8215 2.4155 2.8293 1686.8 -0.0052242 224.02 0.18672 605.00 0.0016529 524.00 946.62 1.8215 2.4155 2.8293 1686.8 -0.0052242 224.02 0.18672
186.38 37214. undefined 526.42 950.52 1.8268 605.00 0.0016529 526.42 950.52 1.8268 2.4195 2.8328 1687.9 -0.0052187 224.00 0.18693 605.00 0.0016529 526.42 950.52 1.8268 2.4195 2.8328 1687.9 -0.0052187 224.00 0.18693
187.38 37344. undefined 528.84 954.42 1.8321 605.00 0.0016529 528.84 954.42 1.8321 2.4235 2.8362 1689.0 -0.0052131 223.98 0.18715 605.00 0.0016529 528.84 954.42 1.8321 2.4235 2.8362 1689.0 -0.0052131 223.98 0.18715
188.38 37473. undefined 531.26 958.32 1.8373 605.00 0.0016529 531.26 958.32 1.8373 2.4275 2.8397 1690.1 -0.0052075 223.95 0.18737 605.00 0.0016529 531.26 958.32 1.8373 2.4275 2.8397 1690.1 -0.0052075 223.95 0.18737
189.38 37603. undefined 533.69 962.23 1.8426 605.00 0.0016529 533.69 962.23 1.8426 2.4315 2.8432 1691.2 -0.0052020 223.93 0.18758 605.00 0.0016529 533.69 962.23 1.8426 2.4315 2.8432 1691.2 -0.0052020 223.93 0.18758
190.38 37732. undefined 536.13 966.14 1.8478 605.00 0.0016529 536.13 966.14 1.8478 2.4355 2.8467 1692.3 -0.0051965 223.91 0.18780 605.00 0.0016529 536.13 966.14 1.8478 2.4355 2.8467 1692.3 -0.0051965 223.91 0.18780
191.38 37862. undefined 538.56 970.05 1.8531 605.00 0.0016529 538.56 970.05 1.8531 2.4395 2.8501 1693.4 -0.0051909 223.88 0.18802 605.00 0.0016529 538.56 970.05 1.8531 2.4395 2.8501 1693.4 -0.0051909 223.88 0.18802
192.38 37991. undefined 541.01 973.96 1.8583 605.00 0.0016529 541.01 973.96 1.8583 2.4435 2.8536 1694.5 -0.0051854 223.86 0.18824 605.00 0.0016529 541.01 973.96 1.8583 2.4435 2.8536 1694.5 -0.0051854 223.86 0.18824
193.38 38120. undefined 543.45 977.88 1.8636 605.00 0.0016529 543.45 977.88 1.8636 2.4475 2.8571 1695.6 -0.0051800 223.84 0.18845 605.00 0.0016529 543.45 977.88 1.8636 2.4475 2.8571 1695.6 -0.0051800 223.84 0.18845
194.38 38249. undefined 545.90 981.80 1.8688 605.00 0.0016529 545.90 981.80 1.8688 2.4515 2.8605 1696.6 -0.0051745 223.82 0.18867 605.00 0.0016529 545.90 981.80 1.8688 2.4515 2.8605 1696.6 -0.0051745 223.82 0.18867
195.38 38378. undefined 548.35 985.72 1.8741 605.00 0.0016529 548.35 985.72 1.8741 2.4554 2.8640 1697.7 -0.0051690 223.80 0.18889 605.00 0.0016529 548.35 985.72 1.8741 2.4554 2.8640 1697.7 -0.0051690 223.80 0.18889
196.38 38506. undefined 550.81 989.64 1.8793 605.00 0.0016529 550.81 989.64 1.8793 2.4594 2.8674 1698.8 -0.0051636 223.77 0.18911 605.00 0.0016529 550.81 989.64 1.8793 2.4594 2.8674 1698.8 -0.0051636 223.77 0.18911
197.38 38635. undefined 553.27 993.57 1.8845 605.00 0.0016529 553.27 993.57 1.8845 2.4633 2.8709 1699.9 -0.0051582 223.75 0.18933 605.00 0.0016529 553.27 993.57 1.8845 2.4633 2.8709 1699.9 -0.0051582 223.75 0.18933
198.38 38764. undefined 555.74 997.50 1.8898 605.00 0.0016529 555.74 997.50 1.8898 2.4673 2.8743 1701.0 -0.0051527 223.73 0.18955 605.00 0.0016529 555.74 997.50 1.8898 2.4673 2.8743 1701.0 -0.0051527 223.73 0.18955
199.38 38892. undefined 558.21 1001.4 1.8950 605.00 0.0016529 558.21 1001.4 1.8950 2.4712 2.8778 1702.0 -0.0051473 223.71 0.18977 605.00 0.0016529 558.21 1001.4 1.8950 2.4712 2.8778 1702.0 -0.0051473 223.71 0.18977
200.38 39020. undefined 560.68 1005.4 1.9002 605.00 0.0016529 560.68 1005.4 1.9002 2.4752 2.8812 1703.1 -0.0051420 223.69 0.18999 605.00 0.0016529 560.68 1005.4 1.9002 2.4752 2.8812 1703.1 -0.0051420 223.69 0.18999
201.38 39149. undefined 563.16 1009.3 1.9055 605.00 0.0016529 563.16 1009.3 1.9055 2.4791 2.8847 1704.2 -0.0051366 223.67 0.19021 605.00 0.0016529 563.16 1009.3 1.9055 2.4791 2.8847 1704.2 -0.0051366 223.67 0.19021
202.38 39277. undefined 565.64 1013.2 1.9107 605.00 0.0016529 565.64 1013.2 1.9107 2.4831 2.8881 1705.3 -0.0051312 223.65 0.19043 605.00 0.0016529 565.64 1013.2 1.9107 2.4831 2.8881 1705.3 -0.0051312 223.65 0.19043
203.38 39405. undefined 568.12 1017.2 1.9159 605.00 0.0016529 568.12 1017.2 1.9159 2.4870 2.8915 1706.3 -0.0051259 223.63 0.19065 605.00 0.0016529 568.12 1017.2 1.9159 2.4870 2.8915 1706.3 -0.0051259 223.63 0.19065
204.38 39533. undefined 570.61 1021.1 1.9211 605.00 0.0016529 570.61 1021.1 1.9211 2.4909 2.8950 1707.4 -0.0051205 223.61 0.19087 605.00 0.0016529 570.61 1021.1 1.9211 2.4909 2.8950 1707.4 -0.0051205 223.61 0.19087
205.38 39660. undefined 573.11 1025.1 1.9263 605.00 0.0016529 573.11 1025.1 1.9263 2.4948 2.8984 1708.5 -0.0051152 223.59 0.19109 605.00 0.0016529 573.11 1025.1 1.9263 2.4948 2.8984 1708.5 -0.0051152 223.59 0.19109
206.38 39788. undefined 575.60 1029.0 1.9316 605.00 0.0016529 575.60 1029.0 1.9316 2.4987 2.9018 1709.5 -0.0051099 223.57 0.19132 605.00 0.0016529 575.60 1029.0 1.9316 2.4987 2.9018 1709.5 -0.0051099 223.57 0.19132
207.38 39916. undefined 578.10 1033.0 1.9368 605.00 0.0016529 578.10 1033.0 1.9368 2.5026 2.9052 1710.6 -0.0051046 223.55 0.19154 605.00 0.0016529 578.10 1033.0 1.9368 2.5026 2.9052 1710.6 -0.0051046 223.55 0.19154
208.38 40043. undefined 580.61 1037.0 1.9420 605.00 0.0016529 580.61 1037.0 1.9420 2.5065 2.9087 1711.6 -0.0050993 223.54 0.19176 605.00 0.0016529 580.61 1037.0 1.9420 2.5065 2.9087 1711.6 -0.0050993 223.54 0.19176
209.38 40170. undefined 583.12 1040.9 1.9472 605.00 0.0016529 583.12 1040.9 1.9472 2.5104 2.9121 1712.7 -0.0050941 223.52 0.19198 605.00 0.0016529 583.12 1040.9 1.9472 2.5104 2.9121 1712.7 -0.0050941 223.52 0.19198
210.38 40298. undefined 585.63 1044.9 1.9524 605.00 0.0016529 585.63 1044.9 1.9524 2.5143 2.9155 1713.8 -0.0050888 223.50 0.19221 605.00 0.0016529 585.63 1044.9 1.9524 2.5143 2.9155 1713.8 -0.0050888 223.50 0.19221
211.38 40425. undefined 588.15 1048.8 1.9576 605.00 0.0016529 588.15 1048.8 1.9576 2.5182 2.9189 1714.8 -0.0050836 223.48 0.19243 605.00 0.0016529 588.15 1048.8 1.9576 2.5182 2.9189 1714.8 -0.0050836 223.48 0.19243
212.38 40552. undefined 590.67 1052.8 1.9628 605.00 0.0016529 590.67 1052.8 1.9628 2.5221 2.9223 1715.9 -0.0050784 223.46 0.19265 605.00 0.0016529 590.67 1052.8 1.9628 2.5221 2.9223 1715.9 -0.0050784 223.46 0.19265
213.38 40679. undefined 593.19 1056.8 1.9680 605.00 0.0016529 593.19 1056.8 1.9680 2.5260 2.9257 1716.9 -0.0050732 223.45 0.19288 605.00 0.0016529 593.19 1056.8 1.9680 2.5260 2.9257 1716.9 -0.0050732 223.45 0.19288
214.38 40806. undefined 595.72 1060.8 1.9732 605.00 0.0016529 595.72 1060.8 1.9732 2.5298 2.9291 1718.0 -0.0050680 223.43 0.19310 605.00 0.0016529 595.72 1060.8 1.9732 2.5298 2.9291 1718.0 -0.0050680 223.43 0.19310
215.38 40932. undefined 598.25 1064.7 1.9783 605.00 0.0016529 598.25 1064.7 1.9783 2.5337 2.9325 1719.0 -0.0050628 223.41 0.19333 605.00 0.0016529 598.25 1064.7 1.9783 2.5337 2.9325 1719.0 -0.0050628 223.41 0.19333
216.38 41059. undefined 600.78 1068.7 1.9835 605.00 0.0016529 600.78 1068.7 1.9835 2.5375 2.9359 1720.1 -0.0050576 223.40 0.19355 605.00 0.0016529 600.78 1068.7 1.9835 2.5375 2.9359 1720.1 -0.0050576 223.40 0.19355
217.38 41186. undefined 603.32 1072.7 1.9887 605.00 0.0016529 603.32 1072.7 1.9887 2.5414 2.9393 1721.1 -0.0050525 223.38 0.19378 605.00 0.0016529 603.32 1072.7 1.9887 2.5414 2.9393 1721.1 -0.0050525 223.38 0.19378
218.38 41312. undefined 605.87 1076.7 1.9939 605.00 0.0016529 605.87 1076.7 1.9939 2.5452 2.9427 1722.1 -0.0050473 223.36 0.19400 605.00 0.0016529 605.87 1076.7 1.9939 2.5452 2.9427 1722.1 -0.0050473 223.36 0.19400
219.38 41438. undefined 608.41 1080.7 1.9991 605.00 0.0016529 608.41 1080.7 1.9991 2.5491 2.9461 1723.2 -0.0050422 223.35 0.19423 605.00 0.0016529 608.41 1080.7 1.9991 2.5491 2.9461 1723.2 -0.0050422 223.35 0.19423
220.38 41565. undefined 610.97 1084.6 2.0042 605.00 0.0016529 610.97 1084.6 2.0042 2.5529 2.9494 1724.2 -0.0050371 223.33 0.19445 605.00 0.0016529 610.97 1084.6 2.0042 2.5529 2.9494 1724.2 -0.0050371 223.33 0.19445
221.38 41691. undefined 613.52 1088.6 2.0094 605.00 0.0016529 613.52 1088.6 2.0094 2.5568 2.9528 1725.3 -0.0050320 223.31 0.19468 605.00 0.0016529 613.52 1088.6 2.0094 2.5568 2.9528 1725.3 -0.0050320 223.31 0.19468
222.38 41817. undefined 616.08 1092.6 2.0146 605.00 0.0016529 616.08 1092.6 2.0146 2.5606 2.9562 1726.3 -0.0050269 223.30 0.19491 605.00 0.0016529 616.08 1092.6 2.0146 2.5606 2.9562 1726.3 -0.0050269 223.30 0.19491
223.38 41943. undefined 618.64 1096.6 2.0197 605.00 0.0016529 618.64 1096.6 2.0197 2.5644 2.9595 1727.3 -0.0050218 223.28 0.19513 605.00 0.0016529 618.64 1096.6 2.0197 2.5644 2.9595 1727.3 -0.0050218 223.28 0.19513
224.38 42068. undefined 621.21 1100.6 2.0249 605.00 0.0016529 621.21 1100.6 2.0249 2.5682 2.9629 1728.4 -0.0050168 223.27 0.19536 605.00 0.0016529 621.21 1100.6 2.0249 2.5682 2.9629 1728.4 -0.0050168 223.27 0.19536
225.38 42194. undefined 623.78 1104.6 2.0301 605.00 0.0016529 623.78 1104.6 2.0301 2.5720 2.9663 1729.4 -0.0050117 223.25 0.19559 605.00 0.0016529 623.78 1104.6 2.0301 2.5720 2.9663 1729.4 -0.0050117 223.25 0.19559
226.38 42320. undefined 626.35 1108.6 2.0352 605.00 0.0016529 626.35 1108.6 2.0352 2.5758 2.9696 1730.4 -0.0050067 223.24 0.19582 605.00 0.0016529 626.35 1108.6 2.0352 2.5758 2.9696 1730.4 -0.0050067 223.24 0.19582
227.38 42445. undefined 628.93 1112.6 2.0404 605.00 0.0016529 628.93 1112.6 2.0404 2.5796 2.9730 1731.5 -0.0050017 223.22 0.19604 605.00 0.0016529 628.93 1112.6 2.0404 2.5796 2.9730 1731.5 -0.0050017 223.22 0.19604
228.38 42571. undefined 631.51 1116.7 2.0455 605.00 0.0016529 631.51 1116.7 2.0455 2.5834 2.9763 1732.5 -0.0049967 223.21 0.19627 605.00 0.0016529 631.51 1116.7 2.0455 2.5834 2.9763 1732.5 -0.0049967 223.21 0.19627
229.38 42696. undefined 634.10 1120.7 2.0507 605.00 0.0016529 634.10 1120.7 2.0507 2.5872 2.9797 1733.5 -0.0049917 223.19 0.19650 605.00 0.0016529 634.10 1120.7 2.0507 2.5872 2.9797 1733.5 -0.0049917 223.19 0.19650
230.38 42821. undefined 636.69 1124.7 2.0558 605.00 0.0016529 636.69 1124.7 2.0558 2.5910 2.9830 1734.6 -0.0049867 223.18 0.19673 605.00 0.0016529 636.69 1124.7 2.0558 2.5910 2.9830 1734.6 -0.0049867 223.18 0.19673
231.38 42946. undefined 639.28 1128.7 2.0610 605.00 0.0016529 639.28 1128.7 2.0610 2.5948 2.9864 1735.6 -0.0049818 223.17 0.19696 605.00 0.0016529 639.28 1128.7 2.0610 2.5948 2.9864 1735.6 -0.0049818 223.17 0.19696
232.38 43071. undefined 641.88 1132.7 2.0661 605.00 0.0016529 641.88 1132.7 2.0661 2.5985 2.9897 1736.6 -0.0049768 223.15 0.19719 605.00 0.0016529 641.88 1132.7 2.0661 2.5985 2.9897 1736.6 -0.0049768 223.15 0.19719
233.38 43196. undefined 644.48 1136.8 2.0713 605.00 0.0016529 644.48 1136.8 2.0713 2.6023 2.9930 1737.6 -0.0049719 223.14 0.19742 605.00 0.0016529 644.48 1136.8 2.0713 2.6023 2.9930 1737.6 -0.0049719 223.14 0.19742
234.38 43321. undefined 647.08 1140.8 2.0764 605.00 0.0016529 647.08 1140.8 2.0764 2.6061 2.9964 1738.6 -0.0049670 223.13 0.19765 605.00 0.0016529 647.08 1140.8 2.0764 2.6061 2.9964 1738.6 -0.0049670 223.13 0.19765
235.38 43446. undefined 649.69 1144.8 2.0815 605.00 0.0016529 649.69 1144.8 2.0815 2.6098 2.9997 1739.7 -0.0049621 223.11 0.19788 605.00 0.0016529 649.69 1144.8 2.0815 2.6098 2.9997 1739.7 -0.0049621 223.11 0.19788
236.38 43570. undefined 652.30 1148.8 2.0867 605.00 0.0016529 652.30 1148.8 2.0867 2.6136 3.0030 1740.7 -0.0049572 223.10 0.19811 605.00 0.0016529 652.30 1148.8 2.0867 2.6136 3.0030 1740.7 -0.0049572 223.10 0.19811
237.38 43695. undefined 654.92 1152.9 2.0918 605.00 0.0016529 654.92 1152.9 2.0918 2.6173 3.0063 1741.7 -0.0049523 223.09 0.19834 605.00 0.0016529 654.92 1152.9 2.0918 2.6173 3.0063 1741.7 -0.0049523 223.09 0.19834
238.38 43819. undefined 657.53 1156.9 2.0969 605.00 0.0016529 657.53 1156.9 2.0969 2.6211 3.0096 1742.7 -0.0049474 223.07 0.19857 605.00 0.0016529 657.53 1156.9 2.0969 2.6211 3.0096 1742.7 -0.0049474 223.07 0.19857
239.38 43944. undefined 660.16 1161.0 2.1020 605.00 0.0016529 660.16 1161.0 2.1020 2.6248 3.0130 1743.7 -0.0049426 223.06 0.19880 605.00 0.0016529 660.16 1161.0 2.1020 2.6248 3.0130 1743.7 -0.0049426 223.06 0.19880
240.38 44068. undefined 662.78 1165.0 2.1072 605.00 0.0016529 662.78 1165.0 2.1072 2.6285 3.0163 1744.7 -0.0049377 223.05 0.19904 605.00 0.0016529 662.78 1165.0 2.1072 2.6285 3.0163 1744.7 -0.0049377 223.05 0.19904
241.38 44192. undefined 665.41 1169.0 2.1123 605.00 0.0016529 665.41 1169.0 2.1123 2.6323 3.0196 1745.7 -0.0049329 223.04 0.19927 605.00 0.0016529 665.41 1169.0 2.1123 2.6323 3.0196 1745.7 -0.0049329 223.04 0.19927
242.38 44316. undefined 668.05 1173.1 2.1174 605.00 0.0016529 668.05 1173.1 2.1174 2.6360 3.0229 1746.8 -0.0049281 223.02 0.19950 605.00 0.0016529 668.05 1173.1 2.1174 2.6360 3.0229 1746.8 -0.0049281 223.02 0.19950
243.38 44440. undefined 670.69 1177.1 2.1225 605.00 0.0016529 670.69 1177.1 2.1225 2.6397 3.0262 1747.8 -0.0049233 223.01 0.19973 605.00 0.0016529 670.69 1177.1 2.1225 2.6397 3.0262 1747.8 -0.0049233 223.01 0.19973
244.38 44564. undefined 673.33 1181.2 2.1276 605.00 0.0016529 673.33 1181.2 2.1276 2.6434 3.0295 1748.8 -0.0049185 223.00 0.19997 605.00 0.0016529 673.33 1181.2 2.1276 2.6434 3.0295 1748.8 -0.0049185 223.00 0.19997
245.38 44688. undefined 675.97 1185.2 2.1327 605.00 0.0016529 675.97 1185.2 2.1327 2.6471 3.0327 1749.8 -0.0049137 222.99 0.20020 605.00 0.0016529 675.97 1185.2 2.1327 2.6471 3.0327 1749.8 -0.0049137 222.99 0.20020
246.38 44811. undefined 678.62 1189.3 2.1378 605.00 0.0016529 678.62 1189.3 2.1378 2.6508 3.0360 1750.8 -0.0049090 222.98 0.20043 605.00 0.0016529 678.62 1189.3 2.1378 2.6508 3.0360 1750.8 -0.0049090 222.98 0.20043
247.38 44935. undefined 681.27 1193.4 2.1429 605.00 0.0016529 681.27 1193.4 2.1429 2.6545 3.0393 1751.8 -0.0049042 222.97 0.20067 605.00 0.0016529 681.27 1193.4 2.1429 2.6545 3.0393 1751.8 -0.0049042 222.97 0.20067
248.38 45058. undefined 683.93 1197.4 2.1480 605.00 0.0016529 683.93 1197.4 2.1480 2.6582 3.0426 1752.8 -0.0048995 222.96 0.20090 605.00 0.0016529 683.93 1197.4 2.1480 2.6582 3.0426 1752.8 -0.0048995 222.96 0.20090
249.38 45182. undefined 686.59 1201.5 2.1531 605.00 0.0016529 686.59 1201.5 2.1531 2.6619 3.0459 1753.8 -0.0048948 222.95 0.20114 605.00 0.0016529 686.59 1201.5 2.1531 2.6619 3.0459 1753.8 -0.0048948 222.95 0.20114
250.38 45305. undefined 689.25 1205.6 2.1582 605.00 0.0016529 689.25 1205.6 2.1582 2.6656 3.0491 1754.8 -0.0048901 222.93 0.20137 605.00 0.0016529 689.25 1205.6 2.1582 2.6656 3.0491 1754.8 -0.0048901 222.93 0.20137
251.38 45428. undefined 691.92 1209.6 2.1633 605.00 0.0016529 691.92 1209.6 2.1633 2.6692 3.0524 1755.8 -0.0048854 222.92 0.20161 605.00 0.0016529 691.92 1209.6 2.1633 2.6692 3.0524 1755.8 -0.0048854 222.92 0.20161
252.38 45551. undefined 694.59 1213.7 2.1684 605.00 0.0016529 694.59 1213.7 2.1684 2.6729 3.0557 1756.8 -0.0048807 222.91 0.20184 605.00 0.0016529 694.59 1213.7 2.1684 2.6729 3.0557 1756.8 -0.0048807 222.91 0.20184
253.38 45674. undefined 697.27 1217.8 2.1735 605.00 0.0016529 697.27 1217.8 2.1735 2.6766 3.0589 1757.8 -0.0048760 222.90 0.20208 605.00 0.0016529 697.27 1217.8 2.1735 2.6766 3.0589 1757.8 -0.0048760 222.90 0.20208
254.38 45797. undefined 699.95 1221.9 2.1785 605.00 0.0016529 699.95 1221.9 2.1785 2.6802 3.0622 1758.7 -0.0048714 222.89 0.20231 605.00 0.0016529 699.95 1221.9 2.1785 2.6802 3.0622 1758.7 -0.0048714 222.89 0.20231
255.38 45920. undefined 702.63 1225.9 2.1836 605.00 0.0016529 702.63 1225.9 2.1836 2.6839 3.0654 1759.7 -0.0048667 222.88 0.20255 605.00 0.0016529 702.63 1225.9 2.1836 2.6839 3.0654 1759.7 -0.0048667 222.88 0.20255
256.38 46043. undefined 705.31 1230.0 2.1887 605.00 0.0016529 705.31 1230.0 2.1887 2.6875 3.0687 1760.7 -0.0048621 222.87 0.20279 605.00 0.0016529 705.31 1230.0 2.1887 2.6875 3.0687 1760.7 -0.0048621 222.87 0.20279
257.38 46165. undefined 708.00 1234.1 2.1938 605.00 0.0016529 708.00 1234.1 2.1938 2.6911 3.0719 1761.7 -0.0048575 222.86 0.20302 605.00 0.0016529 708.00 1234.1 2.1938 2.6911 3.0719 1761.7 -0.0048575 222.86 0.20302
258.38 46288. undefined 710.70 1238.2 2.1988 605.00 0.0016529 710.70 1238.2 2.1988 2.6948 3.0752 1762.7 -0.0048529 222.85 0.20326 605.00 0.0016529 710.70 1238.2 2.1988 2.6948 3.0752 1762.7 -0.0048529 222.85 0.20326
259.38 46410. undefined 713.39 1242.3 2.2039 605.00 0.0016529 713.39 1242.3 2.2039 2.6984 3.0784 1763.7 -0.0048483 222.85 0.20350 605.00 0.0016529 713.39 1242.3 2.2039 2.6984 3.0784 1763.7 -0.0048483 222.85 0.20350
260.38 46533. undefined 716.09 1246.4 2.2090 605.00 0.0016529 716.09 1246.4 2.2090 2.7020 3.0816 1764.7 -0.0048437 222.84 0.20374 605.00 0.0016529 716.09 1246.4 2.2090 2.7020 3.0816 1764.7 -0.0048437 222.84 0.20374
261.38 46655. undefined 718.80 1250.5 2.2140 605.00 0.0016529 718.80 1250.5 2.2140 2.7057 3.0849 1765.7 -0.0048392 222.83 0.20397 605.00 0.0016529 718.80 1250.5 2.2140 2.7057 3.0849 1765.7 -0.0048392 222.83 0.20397
262.38 46777. undefined 721.50 1254.6 2.2191 605.00 0.0016529 721.50 1254.6 2.2191 2.7093 3.0881 1766.6 -0.0048346 222.82 0.20421 605.00 0.0016529 721.50 1254.6 2.2191 2.7093 3.0881 1766.6 -0.0048346 222.82 0.20421
263.38 46899. undefined 724.22 1258.7 2.2242 605.00 0.0016529 724.22 1258.7 2.2242 2.7129 3.0913 1767.6 -0.0048301 222.81 0.20445 605.00 0.0016529 724.22 1258.7 2.2242 2.7129 3.0913 1767.6 -0.0048301 222.81 0.20445
264.38 47021. undefined 726.93 1262.8 2.2292 605.00 0.0016529 726.93 1262.8 2.2292 2.7165 3.0945 1768.6 -0.0048256 222.80 0.20469 605.00 0.0016529 726.93 1262.8 2.2292 2.7165 3.0945 1768.6 -0.0048256 222.80 0.20469
265.38 47143. undefined 729.65 1266.9 2.2343 605.00 0.0016529 729.65 1266.9 2.2343 2.7201 3.0977 1769.6 -0.0048211 222.79 0.20493 605.00 0.0016529 729.65 1266.9 2.2343 2.7201 3.0977 1769.6 -0.0048211 222.79 0.20493
266.38 47265. undefined 732.37 1271.0 2.2393 605.00 0.0016529 732.37 1271.0 2.2393 2.7237 3.1010 1770.5 -0.0048166 222.78 0.20517 605.00 0.0016529 732.37 1271.0 2.2393 2.7237 3.1010 1770.5 -0.0048166 222.78 0.20517
267.38 47387. undefined 735.10 1275.1 2.2444 605.00 0.0016529 735.10 1275.1 2.2444 2.7273 3.1042 1771.5 -0.0048121 222.78 0.20541 605.00 0.0016529 735.10 1275.1 2.2444 2.7273 3.1042 1771.5 -0.0048121 222.78 0.20541
268.38 47508. undefined 737.82 1279.2 2.2494 605.00 0.0016529 737.82 1279.2 2.2494 2.7308 3.1074 1772.5 -0.0048076 222.77 0.20565 605.00 0.0016529 737.82 1279.2 2.2494 2.7308 3.1074 1772.5 -0.0048076 222.77 0.20565
269.38 47630. undefined 740.56 1283.4 2.2545 605.00 0.0016529 740.56 1283.4 2.2545 2.7344 3.1106 1773.5 -0.0048031 222.76 0.20589 605.00 0.0016529 740.56 1283.4 2.2545 2.7344 3.1106 1773.5 -0.0048031 222.76 0.20589
270.38 47751. undefined 743.29 1287.5 2.2595 605.00 0.0016529 743.29 1287.5 2.2595 2.7380 3.1138 1774.4 -0.0047987 222.75 0.20613 605.00 0.0016529 743.29 1287.5 2.2595 2.7380 3.1138 1774.4 -0.0047987 222.75 0.20613
271.38 47873. undefined 746.03 1291.6 2.2645 605.00 0.0016529 746.03 1291.6 2.2645 2.7416 3.1169 1775.4 -0.0047942 222.74 0.20637 605.00 0.0016529 746.03 1291.6 2.2645 2.7416 3.1169 1775.4 -0.0047942 222.74 0.20637
272.38 47994. undefined 748.78 1295.7 2.2696 605.00 0.0016529 748.78 1295.7 2.2696 2.7451 3.1201 1776.4 -0.0047898 222.74 0.20661 605.00 0.0016529 748.78 1295.7 2.2696 2.7451 3.1201 1776.4 -0.0047898 222.74 0.20661
273.38 48115. undefined 751.52 1299.9 2.2746 605.00 0.0016529 751.52 1299.9 2.2746 2.7487 3.1233 1777.3 -0.0047854 222.73 0.20685 605.00 0.0016529 751.52 1299.9 2.2746 2.7487 3.1233 1777.3 -0.0047854 222.73 0.20685
274.38 48236. undefined 754.27 1304.0 2.2796 605.00 0.0016529 754.27 1304.0 2.2796 2.7522 3.1265 1778.3 -0.0047810 222.72 0.20709 605.00 0.0016529 754.27 1304.0 2.2796 2.7522 3.1265 1778.3 -0.0047810 222.72 0.20709
275.38 48357. undefined 757.03 1308.1 2.2846 605.00 0.0016529 757.03 1308.1 2.2846 2.7558 3.1297 1779.3 -0.0047766 222.72 0.20734 605.00 0.0016529 757.03 1308.1 2.2846 2.7558 3.1297 1779.3 -0.0047766 222.72 0.20734
276.38 48478. undefined 759.79 1312.3 2.2897 605.00 0.0016529 759.79 1312.3 2.2897 2.7593 3.1328 1780.2 -0.0047723 222.71 0.20758 605.00 0.0016529 759.79 1312.3 2.2897 2.7593 3.1328 1780.2 -0.0047723 222.71 0.20758
277.38 48599. undefined 762.55 1316.4 2.2947 605.00 0.0016529 762.55 1316.4 2.2947 2.7629 3.1360 1781.2 -0.0047679 222.70 0.20782 605.00 0.0016529 762.55 1316.4 2.2947 2.7629 3.1360 1781.2 -0.0047679 222.70 0.20782
278.38 48720. undefined 765.31 1320.5 2.2997 605.00 0.0016529 765.31 1320.5 2.2997 2.7664 3.1392 1782.2 -0.0047635 222.69 0.20806 605.00 0.0016529 765.31 1320.5 2.2997 2.7664 3.1392 1782.2 -0.0047635 222.69 0.20806
279.38 48840. undefined 768.08 1324.7 2.3047 605.00 0.0016529 768.08 1324.7 2.3047 2.7699 3.1423 1783.1 -0.0047592 222.69 0.20831 605.00 0.0016529 768.08 1324.7 2.3047 2.7699 3.1423 1783.1 -0.0047592 222.69 0.20831
280.38 48961. undefined 770.85 1328.8 2.3097 605.00 0.0016529 770.85 1328.8 2.3097 2.7734 3.1455 1784.1 -0.0047549 222.68 0.20855 605.00 0.0016529 770.85 1328.8 2.3097 2.7734 3.1455 1784.1 -0.0047549 222.68 0.20855
281.38 49081. undefined 773.63 1333.0 2.3147 605.00 0.0016529 773.63 1333.0 2.3147 2.7770 3.1486 1785.0 -0.0047506 222.68 0.20880 605.00 0.0016529 773.63 1333.0 2.3147 2.7770 3.1486 1785.0 -0.0047506 222.68 0.20880
282.38 49202. undefined 776.41 1337.1 2.3197 605.00 0.0016529 776.41 1337.1 2.3197 2.7805 3.1518 1786.0 -0.0047463 222.67 0.20886 605.00 0.0016529 776.41 1337.1 2.3197 2.7805 3.1518 1786.0 -0.0047463 222.67 0.20886
283.38 49322. undefined 779.19 1341.3 2.3248 605.00 0.0016529 779.19 1341.3 2.3248 2.7840 3.1549 1786.9 -0.0047420 222.66 0.20910 605.00 0.0016529 779.19 1341.3 2.3248 2.7840 3.1549 1786.9 -0.0047420 222.66 0.20910
284.38 49442. undefined 781.97 1345.4 2.3298 605.00 0.0016529 781.97 1345.4 2.3298 2.7875 3.1581 1787.9 -0.0047377 222.66 0.20935 605.00 0.0016529 781.97 1345.4 2.3298 2.7875 3.1581 1787.9 -0.0047377 222.66 0.20935
285.38 49562. undefined 784.76 1349.6 2.3348 605.00 0.0016529 784.76 1349.6 2.3348 2.7910 3.1612 1788.8 -0.0047334 222.65 0.20959 605.00 0.0016529 784.76 1349.6 2.3348 2.7910 3.1612 1788.8 -0.0047334 222.65 0.20959
286.38 49682. undefined 787.56 1353.7 2.3397 605.00 0.0016529 787.56 1353.7 2.3397 2.7945 3.1644 1789.8 -0.0047292 222.65 0.20984 605.00 0.0016529 787.56 1353.7 2.3397 2.7945 3.1644 1789.8 -0.0047292 222.65 0.20984
287.38 49802. undefined 790.35 1357.9 2.3447 605.00 0.0016529 790.35 1357.9 2.3447 2.7979 3.1675 1790.7 -0.0047249 222.64 0.21008 605.00 0.0016529 790.35 1357.9 2.3447 2.7979 3.1675 1790.7 -0.0047249 222.64 0.21008
288.38 49922. undefined 793.15 1362.1 2.3497 605.00 0.0016529 793.15 1362.1 2.3497 2.8014 3.1706 1791.7 -0.0047207 222.63 0.21033 605.00 0.0016529 793.15 1362.1 2.3497 2.8014 3.1706 1791.7 -0.0047207 222.63 0.21033
289.38 50042. undefined 795.95 1366.2 2.3547 605.00 0.0016529 795.95 1366.2 2.3547 2.8049 3.1737 1792.6 -0.0047165 222.63 0.21057 605.00 0.0016529 795.95 1366.2 2.3547 2.8049 3.1737 1792.6 -0.0047165 222.63 0.21057
290.38 50162. undefined 798.76 1370.4 2.3597 605.00 0.0016529 798.76 1370.4 2.3597 2.8084 3.1769 1793.6 -0.0047123 222.62 0.21082 605.00 0.0016529 798.76 1370.4 2.3597 2.8084 3.1769 1793.6 -0.0047123 222.62 0.21082
291.38 50281. undefined 801.57 1374.6 2.3647 605.00 0.0016529 801.57 1374.6 2.3647 2.8118 3.1800 1794.5 -0.0047081 222.62 0.21106 605.00 0.0016529 801.57 1374.6 2.3647 2.8118 3.1800 1794.5 -0.0047081 222.62 0.21106
292.38 50401. undefined 804.38 1378.8 2.3697 605.00 0.0016529 804.38 1378.8 2.3697 2.8153 3.1831 1795.5 -0.0047039 222.61 0.21131 605.00 0.0016529 804.38 1378.8 2.3697 2.8153 3.1831 1795.5 -0.0047039 222.61 0.21131
293.38 50520. undefined 807.20 1382.9 2.3746 605.00 0.0016529 807.20 1382.9 2.3746 2.8188 3.1862 1796.4 -0.0046997 222.61 0.21156 605.00 0.0016529 807.20 1382.9 2.3746 2.8188 3.1862 1796.4 -0.0046997 222.61 0.21156
294.38 50640. undefined 810.02 1387.1 2.3796 605.00 0.0016529 810.02 1387.1 2.3796 2.8222 3.1893 1797.4 -0.0046956 222.60 0.21180 605.00 0.0016529 810.02 1387.1 2.3796 2.8222 3.1893 1797.4 -0.0046956 222.60 0.21180
295.38 50759. undefined 812.85 1391.3 2.3846 605.00 0.0016529 812.85 1391.3 2.3846 2.8256 3.1924 1798.3 -0.0046914 222.60 0.21205 605.00 0.0016529 812.85 1391.3 2.3846 2.8256 3.1924 1798.3 -0.0046914 222.60 0.21205
296.38 50878. undefined 815.67 1395.5 2.3896 605.00 0.0016529 815.67 1395.5 2.3896 2.8291 3.1955 1799.2 -0.0046873 222.59 0.21230 605.00 0.0016529 815.67 1395.5 2.3896 2.8291 3.1955 1799.2 -0.0046873 222.59 0.21230
297.38 50997. undefined 818.50 1399.7 2.3945 605.00 0.0016529 818.50 1399.7 2.3945 2.8325 3.1986 1800.2 -0.0046832 222.59 0.21255 605.00 0.0016529 818.50 1399.7 2.3945 2.8325 3.1986 1800.2 -0.0046832 222.59 0.21255
298.38 51116. undefined 821.34 1403.9 2.3995 605.00 0.0016529 821.34 1403.9 2.3995 2.8360 3.2017 1801.1 -0.0046791 222.58 0.21280 605.00 0.0016529 821.34 1403.9 2.3995 2.8360 3.2017 1801.1 -0.0046791 222.58 0.21280
299.38 51235. undefined 824.18 1408.1 2.4044 605.00 0.0016529 824.18 1408.1 2.4044 2.8394 3.2048 1802.0 -0.0046750 222.58 0.21304 605.00 0.0016529 824.18 1408.1 2.4044 2.8394 3.2048 1802.0 -0.0046750 222.58 0.21304
300.38 51354. undefined 827.02 1412.3 2.4094 605.00 0.0016529 827.02 1412.3 2.4094 2.8428 3.2078 1803.0 -0.0046709 222.58 0.21329 605.00 0.0016529 827.02 1412.3 2.4094 2.8428 3.2078 1803.0 -0.0046709 222.58 0.21329