Temperature (C) Pressure (psia) Quality (l+v) Internal Energy (l+v, kJ/kg) Enthalpy (l+v, kJ/kg) Entropy (l+v, J/g*K) Density (l, kg/m3) Volume (l, m3/kg) Internal Energy (l, kJ/kg) Enthalpy (l, kJ/kg) Entropy (l, J/g*K) Cv (l, J/g*K) Cp (l, J/g*K) Sound Spd. (l, m/s) Joule-Thomson (l, F/psia) Viscosity (l, uPa*s) Therm. Cond. (l, W/m*K) Density (v, kg/m3) Volume (v, m3/kg) Internal Energy (v, kJ/kg) Enthalpy (v, kJ/kg) Entropy (v, J/g*K) Cv (v, J/g*K) Cp (v, J/g*K) Sound Spd. (v, m/s) Joule-Thomson (v, F/psia) Viscosity (v, uPa*s) Therm. Cond. (v, W/m*K)
-187.62 2.4953e-08 2.7951e-12 -196.64 -196.64 -1.3959 733.13 0.0013640 -196.64 -196.64 -1.3959 1.3553 1.9158 2136.4 -0.0077592 10960. 0.20792 1.0669e-08 9.3732e+07 350.13 366.26 5.1858 0.69067 0.87923 143.28 6.1051 2.3259 0.0017061
-186.62 3.7339e-08 4.1036e-12 -194.73 -194.73 -1.3736 732.08 0.0013660 -194.73 -194.73 -1.3736 1.3539 1.9166 2129.6 -0.0077546 10073. 0.20765 1.5780e-08 6.3371e+07 350.82 367.14 5.1200 0.69462 0.88317 144.03 5.9178 2.3534 0.0017533
-185.62 5.5322e-08 5.9653e-12 -192.81 -192.81 -1.3516 731.04 0.0013679 -192.81 -192.81 -1.3516 1.3525 1.9174 2122.9 -0.0077498 9276.1 0.20737 2.3112e-08 4.3267e+07 351.52 368.02 5.0561 0.69857 0.88713 144.77 5.7383 2.3808 0.0018007
-184.62 8.1182e-08 8.5896e-12 -190.89 -190.89 -1.3298 730.00 0.0013699 -190.89 -190.89 -1.3298 1.3513 1.9182 2116.1 -0.0077448 8557.8 0.20708 3.3533e-08 2.9821e+07 352.22 368.91 4.9939 0.70253 0.89108 145.51 5.5662 2.4083 0.0018485
-183.62 1.1803e-07 1.2255e-11 -188.97 -188.97 -1.3083 728.96 0.0013718 -188.97 -188.97 -1.3083 1.3501 1.9191 2109.3 -0.0077395 7909.8 0.20678 4.8211e-08 2.0742e+07 352.92 369.81 4.9333 0.70648 0.89504 146.24 5.4011 2.4357 0.0018965
-182.62 1.7009e-07 1.7330e-11 -187.05 -187.05 -1.2869 727.92 0.0013738 -187.05 -187.05 -1.2869 1.3490 1.9201 2102.5 -0.0077340 7324.3 0.20647 6.8704e-08 1.4555e+07 353.63 370.70 4.8744 0.71043 0.89899 146.97 5.2426 2.4632 0.0019448
-181.62 2.4299e-07 2.4297e-11 -185.13 -185.13 -1.2658 726.88 0.0013757 -185.13 -185.13 -1.2658 1.3480 1.9210 2095.7 -0.0077283 6794.5 0.20616 9.7079e-08 1.0301e+07 354.35 371.60 4.8170 0.71438 0.90294 147.69 5.0904 2.4906 0.0019934
-180.62 3.4425e-07 3.3783e-11 -183.21 -183.21 -1.2450 725.85 0.0013777 -183.21 -183.21 -1.2450 1.3470 1.9220 2088.9 -0.0077225 6314.4 0.20584 1.3605e-07 7.3504e+06 355.06 372.51 4.7612 0.71833 0.90688 148.41 4.9442 2.5181 0.0020423
-179.62 4.8378e-07 4.6597e-11 -181.29 -181.29 -1.2243 724.81 0.0013797 -181.29 -181.29 -1.2243 1.3461 1.9231 2082.0 -0.0077164 5878.8 0.20551 1.8915e-07 5.2868e+06 355.78 373.42 4.7068 0.72227 0.91082 149.13 4.8038 2.5456 0.0020915
-178.62 6.7459e-07 6.3775e-11 -179.37 -179.37 -1.2038 723.78 0.0013816 -179.37 -179.37 -1.2038 1.3453 1.9241 2075.2 -0.0077102 5482.9 0.20517 2.6096e-07 3.8320e+06 356.51 374.33 4.6538 0.72620 0.91475 149.84 4.6688 2.5731 0.0021410
-177.62 9.3358e-07 8.6630e-11 -177.44 -177.44 -1.1836 722.75 0.0013836 -177.44 -177.44 -1.1836 1.3445 1.9252 2068.4 -0.0077039 5122.6 0.20483 3.5737e-07 2.7982e+06 357.23 375.25 4.6022 0.73012 0.91867 150.54 4.5390 2.6005 0.0021907
-176.62 1.2826e-06 1.1682e-10 -175.52 -175.52 -1.1635 721.72 0.0013856 -175.52 -175.52 -1.1635 1.3437 1.9263 2061.5 -0.0076973 4794.1 0.20447 4.8588e-07 2.0581e+06 357.97 376.17 4.5519 0.73403 0.92258 151.25 4.4142 2.6280 0.0022408
-175.62 1.7496e-06 1.5643e-10 -173.59 -173.59 -1.1437 720.69 0.0013876 -173.59 -173.59 -1.1437 1.3430 1.9274 2054.7 -0.0076907 4494.3 0.20411 6.5601e-07 1.5244e+06 358.70 377.09 4.5029 0.73792 0.92648 151.95 4.2941 2.6555 0.0022912
-174.62 2.3705e-06 2.0804e-10 -171.66 -171.66 -1.1240 719.66 0.0013895 -171.66 -171.66 -1.1240 1.3423 1.9286 2047.9 -0.0076838 4220.2 0.20375 8.7976e-07 1.1367e+06 359.44 378.02 4.4551 0.74181 0.93036 152.64 4.1784 2.6830 0.0023418
-173.62 3.1903e-06 2.7485e-10 -169.73 -169.73 -1.1045 718.64 0.0013915 -169.73 -169.73 -1.1045 1.3417 1.9298 2041.0 -0.0076769 3969.3 0.20338 1.1721e-06 8.5314e+05 360.19 378.95 4.4085 0.74568 0.93423 153.33 4.0671 2.7105 0.0023928
-172.62 4.2661e-06 3.6080e-10 -167.80 -167.80 -1.0852 717.61 0.0013935 -167.80 -167.80 -1.0852 1.3411 1.9310 2034.2 -0.0076698 3739.3 0.20300 1.5518e-06 6.4441e+05 360.93 379.89 4.3631 0.74953 0.93809 154.02 3.9599 2.7379 0.0024440
-171.62 5.6692e-06 4.7067e-10 -165.87 -165.87 -1.0661 716.58 0.0013955 -165.87 -165.87 -1.0661 1.3405 1.9322 2027.3 -0.0076625 3528.0 0.20261 2.0419e-06 4.8974e+05 361.69 380.83 4.3188 0.75337 0.94193 154.71 3.8566 2.7654 0.0024955
-170.62 7.4884e-06 6.1030e-10 -163.94 -163.94 -1.0472 715.56 0.0013975 -163.94 -163.94 -1.0472 1.3400 1.9334 2020.5 -0.0076552 3333.8 0.20222 2.6708e-06 3.7442e+05 362.44 381.77 4.2755 0.75720 0.94575 155.39 3.7570 2.7929 0.0025473
-169.62 9.8334e-06 7.8673e-10 -162.00 -162.00 -1.0284 714.54 0.0013995 -162.00 -162.00 -1.0284 1.3395 1.9347 2013.6 -0.0076477 3154.9 0.20182 3.4733e-06 2.8791e+05 363.20 382.72 4.2334 0.76100 0.94956 156.07 3.6609 2.8204 0.0025994
-168.62 1.2839e-05 1.0084e-09 -160.07 -160.07 -1.0098 713.52 0.0014015 -160.07 -160.07 -1.0098 1.3390 1.9359 2006.8 -0.0076401 2989.9 0.20141 4.4917e-06 2.2263e+05 363.96 383.67 4.1922 0.76479 0.95335 156.74 3.5683 2.8479 0.0026518
-167.62 1.6672e-05 1.2854e-09 -158.13 -158.13 -0.99134 712.49 0.0014035 -158.13 -158.13 -0.99134 1.3386 1.9372 2000.0 -0.0076323 2837.5 0.20100 5.7771e-06 1.7310e+05 364.73 384.63 4.1521 0.76856 0.95712 157.41 3.4790 2.8754 0.0027045
-166.62 2.1533e-05 1.6297e-09 -156.19 -156.19 -0.97306 711.47 0.0014055 -156.19 -156.19 -0.97306 1.3382 1.9385 1993.1 -0.0076245 2696.5 0.20058 7.3914e-06 1.3529e+05 365.50 385.59 4.1129 0.77232 0.96087 158.08 3.3927 2.9029 0.0027575
-165.62 2.7666e-05 2.0554e-09 -154.25 -154.25 -0.95494 710.45 0.0014075 -154.25 -154.25 -0.95494 1.3378 1.9398 1986.3 -0.0076165 2566.0 0.20016 9.4084e-06 1.0629e+05 366.27 386.55 4.0746 0.77605 0.96460 158.75 3.3095 2.9304 0.0028108
-164.62 3.5367e-05 2.5793e-09 -152.31 -152.31 -0.93698 709.44 0.0014096 -152.31 -152.31 -0.93698 1.3375 1.9411 1979.4 -0.0076084 2444.9 0.19973 1.1916e-05 83918. 367.05 387.52 4.0372 0.77976 0.96832 159.41 3.2291 2.9579 0.0028643
-163.62 4.4989e-05 3.2206e-09 -150.37 -150.37 -0.91917 708.42 0.0014116 -150.37 -150.37 -0.91917 1.3371 1.9424 1972.6 -0.0076002 2332.3 0.19930 1.5020e-05 66577. 367.83 388.49 4.0008 0.78346 0.97201 160.07 3.1514 2.9854 0.0029182
-162.62 5.6956e-05 4.0022e-09 -148.43 -148.43 -0.90151 707.40 0.0014136 -148.43 -148.43 -0.90151 1.3368 1.9437 1965.8 -0.0075919 2227.7 0.19886 1.8844e-05 53068. 368.62 389.46 3.9651 0.78713 0.97569 160.72 3.0764 3.0129 0.0029723
-161.62 7.1773e-05 4.9502e-09 -146.48 -146.48 -0.88400 706.38 0.0014157 -146.48 -146.48 -0.88400 1.3365 1.9451 1959.0 -0.0075834 2130.2 0.19841 2.3533e-05 42494. 369.41 390.44 3.9304 0.79079 0.97935 161.38 3.0038 3.0404 0.0030268
-160.62 9.0036e-05 6.0950e-09 -144.54 -144.54 -0.86663 705.37 0.0014177 -144.54 -144.54 -0.86663 1.3363 1.9465 1952.1 -0.0075748 2039.2 0.19796 2.9258e-05 34178. 370.20 391.42 3.8964 0.79443 0.98298 162.03 2.9337 3.0679 0.0030815
-159.62 0.00011245 7.4714e-09 -142.59 -142.59 -0.84940 704.35 0.0014197 -142.59 -142.59 -0.84940 1.3360 1.9478 1945.3 -0.0075661 1954.2 0.19751 3.6221e-05 27609. 371.00 392.40 3.8632 0.79805 0.98660 162.68 2.8658 3.0955 0.0031365
-158.62 0.00013985 9.1191e-09 -140.64 -140.64 -0.83231 703.34 0.0014218 -140.64 -140.64 -0.83231 1.3358 1.9492 1938.5 -0.0075573 1874.8 0.19705 4.4652e-05 22395. 371.80 393.39 3.8307 0.80164 0.99020 163.32 2.8002 3.1230 0.0031918
-157.62 0.00017320 1.1083e-08 -138.69 -138.69 -0.81536 702.32 0.0014238 -138.69 -138.69 -0.81536 1.3356 1.9506 1931.7 -0.0075484 1800.3 0.19658 5.4822e-05 18241. 372.60 394.38 3.7990 0.80522 0.99378 163.96 2.7367 3.1505 0.0032474
-156.62 0.00021364 1.3416e-08 -136.74 -136.74 -0.79854 701.31 0.0014259 -136.74 -136.74 -0.79854 1.3354 1.9520 1924.9 -0.0075393 1730.5 0.19611 6.7040e-05 14916. 373.41 395.38 3.7680 0.80878 0.99734 164.60 2.6752 3.1780 0.0033033
-155.62 0.00026248 1.6174e-08 -134.79 -134.79 -0.78185 700.30 0.0014280 -134.79 -134.79 -0.78185 1.3352 1.9534 1918.1 -0.0075302 1664.9 0.19564 8.1666e-05 12245. 374.22 396.38 3.7377 0.81232 1.0009 165.24 2.6157 3.2055 0.0033595
-154.62 0.00032125 1.9424e-08 -132.83 -132.83 -0.76530 699.29 0.0014300 -132.83 -132.83 -0.76530 1.3350 1.9548 1911.3 -0.0075209 1603.3 0.19516 9.9109e-05 10090. 375.03 397.38 3.7081 0.81585 1.0044 165.87 2.5580 3.2330 0.0034160
-153.62 0.00039171 2.3238e-08 -130.88 -130.88 -0.74887 698.27 0.0014321 -130.88 -130.88 -0.74887 1.3349 1.9563 1904.5 -0.0075114 1545.3 0.19468 0.00011984 8344.6 375.85 398.39 3.6792 0.81935 1.0079 166.50 2.5022 3.2606 0.0034727
-152.62 0.00047590 2.7698e-08 -128.92 -128.92 -0.73256 697.26 0.0014342 -128.92 -128.92 -0.73256 1.3348 1.9577 1897.8 -0.0075019 1490.6 0.19419 0.00014439 6925.9 376.67 399.40 3.6509 0.82284 1.0114 167.13 2.4481 3.2881 0.0035298
-151.62 0.00057613 3.2895e-08 -126.96 -126.96 -0.71638 696.25 0.0014363 -126.96 -126.96 -0.71638 1.3346 1.9592 1891.0 -0.0074922 1438.9 0.19370 0.00017336 5768.4 377.49 400.41 3.6232 0.82631 1.0149 167.76 2.3957 3.3156 0.0035872
-150.62 0.00069507 3.8928e-08 -125.00 -125.00 -0.70032 695.24 0.0014384 -125.00 -125.00 -0.70032 1.3345 1.9606 1884.2 -0.0074824 1390.2 0.19320 0.00020744 4820.7 378.32 401.42 3.5962 0.82976 1.0183 168.38 2.3448 3.3431 0.0036448
-149.62 0.00083574 4.5910e-08 -123.04 -123.04 -0.68438 694.23 0.0014404 -123.04 -123.04 -0.68438 1.3345 1.9621 1877.4 -0.0074724 1344.0 0.19270 0.00024740 4042.0 379.15 402.44 3.5697 0.83319 1.0218 169.00 2.2956 3.3706 0.0037027
-148.62 0.0010016 5.3961e-08 -121.08 -121.08 -0.66855 693.22 0.0014425 -121.08 -121.08 -0.66855 1.3344 1.9636 1870.7 -0.0074623 1300.3 0.19220 0.00029412 3400.0 379.99 403.47 3.5438 0.83661 1.0252 169.62 2.2478 3.3982 0.0037610
-147.62 0.0011965 6.3215e-08 -119.11 -119.11 -0.65284 692.21 0.0014447 -119.11 -119.11 -0.65284 1.3343 1.9651 1863.9 -0.0074521 1258.9 0.19169 0.00034856 2869.0 380.83 404.49 3.5185 0.84001 1.0286 170.24 2.2014 3.4257 0.0038195
-146.62 0.0014249 7.3817e-08 -117.15 -117.15 -0.63724 691.20 0.0014468 -117.15 -117.15 -0.63724 1.3343 1.9666 1857.2 -0.0074417 1219.6 0.19117 0.00041181 2428.3 381.67 405.52 3.4938 0.84340 1.0320 170.85 2.1565 3.4532 0.0038783
-145.62 0.0016917 8.5927e-08 -115.18 -115.18 -0.62175 690.19 0.0014489 -115.18 -115.18 -0.62175 1.3343 1.9682 1850.4 -0.0074312 1182.3 0.19066 0.00048510 2061.4 382.51 406.56 3.4695 0.84677 1.0353 171.46 2.1128 3.4807 0.0039374
-144.62 0.0020026 9.9714e-08 -113.21 -113.21 -0.60637 689.18 0.0014510 -113.21 -113.21 -0.60637 1.3343 1.9697 1843.7 -0.0074206 1146.8 0.19014 0.00056976 1755.1 383.36 407.59 3.4458 0.85012 1.0387 172.07 2.0705 3.5082 0.0039967
-143.62 0.0023637 1.1536e-07 -111.24 -111.24 -0.59110 688.17 0.0014531 -111.24 -111.24 -0.59110 1.3343 1.9713 1836.9 -0.0074098 1113.0 0.18962 0.00066731 1498.6 384.21 408.63 3.4226 0.85346 1.0420 172.68 2.0294 3.5358 0.0040564
-142.62 0.0027820 1.3308e-07 -109.27 -109.27 -0.57593 687.16 0.0014553 -109.27 -109.27 -0.57593 1.3343 1.9728 1830.2 -0.0073988 1080.8 0.18909 0.00077939 1283.1 385.07 409.68 3.3999 0.85679 1.0454 173.28 1.9896 3.5633 0.0041164
-141.62 0.0032653 1.5307e-07 -107.30 -107.30 -0.56087 686.15 0.0014574 -107.30 -107.30 -0.56087 1.3343 1.9744 1823.5 -0.0073878 1050.1 0.18856 0.00090784 1101.5 385.93 410.72 3.3777 0.86011 1.0487 173.88 1.9508 3.5908 0.0041766
-140.62 0.0038222 1.7556e-07 -105.32 -105.32 -0.54591 685.14 0.0014596 -105.32 -105.32 -0.54591 1.3344 1.9760 1816.7 -0.0073765 1020.7 0.18803 0.0010547 948.16 386.79 411.77 3.3560 0.86341 1.0520 174.48 1.9133 3.6183 0.0042372
-139.62 0.0044623 2.0079e-07 -103.34 -103.34 -0.53105 684.13 0.0014617 -103.34 -103.34 -0.53105 1.3344 1.9776 1810.0 -0.0073651 992.74 0.18749 0.0012221 818.26 387.65 412.83 3.3347 0.86670 1.0553 175.08 1.8768 3.6459 0.0042980
-138.62 0.0051963 2.2903e-07 -101.37 -101.37 -0.51629 683.12 0.0014639 -101.37 -101.37 -0.51629 1.3345 1.9792 1803.3 -0.0073536 965.97 0.18695 0.0014125 707.94 388.52 413.88 3.3139 0.86998 1.0586 175.67 1.8413 3.6734 0.0043592
-137.62 0.0060358 2.6054e-07 -99.386 -99.386 -0.50162 682.11 0.0014660 -99.386 -99.386 -0.50162 1.3346 1.9808 1796.6 -0.0073419 940.35 0.18641 0.0016287 614.00 389.39 414.94 3.2935 0.87325 1.0619 176.26 1.8069 3.7009 0.0044206
-136.62 0.0069938 2.9561e-07 -97.404 -97.404 -0.48705 681.10 0.0014682 -97.404 -97.404 -0.48705 1.3347 1.9825 1789.9 -0.0073301 915.81 0.18586 0.0018733 533.80 390.26 416.00 3.2735 0.87650 1.0651 176.85 1.7734 3.7284 0.0044823
-135.62 0.0080843 3.3454e-07 -95.421 -95.421 -0.47258 680.09 0.0014704 -95.421 -95.421 -0.47258 1.3348 1.9841 1783.2 -0.0073180 892.30 0.18531 0.0021497 465.17 391.14 417.07 3.2540 0.87975 1.0684 177.44 1.7409 3.7559 0.0045443
-134.62 0.0093230 3.7763e-07 -93.436 -93.436 -0.45820 679.08 0.0014726 -93.436 -93.436 -0.45820 1.3350 1.9858 1776.5 -0.0073059 869.75 0.18476 0.0024613 406.30 392.02 418.14 3.2348 0.88299 1.0716 178.02 1.7093 3.7834 0.0046066
-133.62 0.010727 4.2522e-07 -91.449 -91.449 -0.44391 678.07 0.0014748 -91.450 -91.449 -0.44391 1.3351 1.9875 1769.8 -0.0072935 848.11 0.18421 0.0028116 355.67 392.91 419.21 3.2161 0.88622 1.0749 178.61 1.6786 3.8109 0.0046691
-132.62 0.012315 4.7763e-07 -89.461 -89.461 -0.42971 677.06 0.0014770 -89.461 -89.461 -0.42971 1.3353 1.9892 1763.1 -0.0072810 827.32 0.18365 0.0032049 312.03 393.79 420.29 3.1977 0.88944 1.0781 179.19 1.6488 3.8385 0.0047320
-131.62 0.014106 5.3521e-07 -87.471 -87.471 -0.41559 676.04 0.0014792 -87.471 -87.471 -0.41560 1.3354 1.9909 1756.4 -0.0072684 807.34 0.18309 0.0036453 274.33 394.68 421.36 3.1798 0.89266 1.0813 179.76 1.6197 3.8660 0.0047951
-130.62 0.016124 5.9832e-07 -85.479 -85.479 -0.40157 675.03 0.0014814 -85.479 -85.479 -0.40157 1.3356 1.9926 1749.7 -0.0072555 788.12 0.18253 0.0041375 241.69 395.58 422.44 3.1622 0.89586 1.0846 180.34 1.5915 3.8935 0.0048586
-129.62 0.018392 6.6730e-07 -83.486 -83.485 -0.38763 674.02 0.0014836 -83.486 -83.486 -0.38763 1.3358 1.9944 1743.0 -0.0072425 769.63 0.18196 0.0046867 213.37 396.47 423.53 3.1450 0.89906 1.0878 180.91 1.5641 3.9210 0.0049223
-128.62 0.020935 7.4254e-07 -81.490 -81.490 -0.37378 673.01 0.0014859 -81.491 -81.490 -0.37378 1.3360 1.9961 1736.3 -0.0072294 751.83 0.18140 0.0052981 188.75 397.37 424.62 3.1281 0.90226 1.0910 181.48 1.5374 3.9485 0.0049863
-127.62 0.023783 8.2438e-07 -79.493 -79.493 -0.36001 672.00 0.0014881 -79.494 -79.493 -0.36001 1.3363 1.9979 1729.6 -0.0072160 734.67 0.18083 0.0059776 167.29 398.27 425.71 3.1116 0.90545 1.0942 182.05 1.5114 3.9760 0.0050506
-126.62 0.026966 9.1321e-07 -77.494 -77.494 -0.34632 670.98 0.0014904 -77.495 -77.495 -0.34632 1.3365 1.9997 1722.9 -0.0072025 718.14 0.18025 0.0067313 148.56 399.18 426.80 3.0954 0.90863 1.0974 182.62 1.4861 4.0035 0.0051152
-125.62 0.030515 1.0094e-06 -75.494 -75.493 -0.33271 669.97 0.0014926 -75.494 -75.494 -0.33272 1.3368 2.0015 1716.2 -0.0071888 702.18 0.17968 0.0075660 132.17 400.09 427.89 3.0795 0.91181 1.1006 183.18 1.4615 4.0310 0.0051800
-124.62 0.034467 1.1132e-06 -73.491 -73.491 -0.31918 668.95 0.0014949 -73.492 -73.492 -0.31919 1.3371 2.0033 1709.5 -0.0071749 686.79 0.17910 0.0084885 117.81 401.00 428.99 3.0640 0.91499 1.1038 183.74 1.4375 4.0584 0.0052452
-123.62 0.038859 1.2252e-06 -71.487 -71.487 -0.30574 667.94 0.0014971 -71.488 -71.487 -0.30574 1.3374 2.0051 1702.8 -0.0071609 671.93 0.17852 0.0095065 105.19 401.91 430.10 3.0488 0.91816 1.1070 184.30 1.4141 4.0859 0.0053106
-122.62 0.043731 1.3455e-06 -69.481 -69.480 -0.29236 666.92 0.0014994 -69.482 -69.481 -0.29237 1.3377 2.0070 1696.2 -0.0071466 657.57 0.17794 0.010628 94.092 402.83 431.20 3.0339 0.92134 1.1102 184.86 1.3913 4.1134 0.0053764
-121.62 0.049128 1.4745e-06 -67.473 -67.472 -0.27907 665.91 0.0015017 -67.474 -67.473 -0.27907 1.3380 2.0089 1689.5 -0.0071322 643.70 0.17736 0.011861 84.309 403.75 432.31 3.0193 0.92451 1.1134 185.41 1.3691 4.1409 0.0054424
-120.62 0.055096 1.6125e-06 -65.463 -65.463 -0.26585 664.89 0.0015040 -65.464 -65.463 -0.26585 1.3384 2.0107 1682.8 -0.0071176 630.28 0.17678 0.013215 75.669 404.67 433.42 3.0050 0.92767 1.1166 185.96 1.3475 4.1683 0.0055087
-119.62 0.061684 1.7598e-06 -63.451 -63.451 -0.25270 663.87 0.0015063 -63.452 -63.452 -0.25271 1.3387 2.0126 1676.1 -0.0071028 617.30 0.17619 0.014700 68.027 405.60 434.53 2.9909 0.93084 1.1198 186.51 1.3264 4.1958 0.0055752
-118.62 0.068946 1.9165e-06 -61.438 -61.437 -0.23963 662.86 0.0015086 -61.439 -61.438 -0.23963 1.3391 2.0146 1669.4 -0.0070878 604.74 0.17560 0.016325 61.255 406.53 435.64 2.9772 0.93401 1.1231 187.06 1.3058 4.2233 0.0056421
-117.62 0.076937 2.0830e-06 -59.422 -59.421 -0.22663 661.84 0.0015109 -59.423 -59.422 -0.22663 1.3395 2.0165 1662.8 -0.0070726 592.58 0.17501 0.018101 55.245 407.46 436.76 2.9638 0.93718 1.1263 187.60 1.2857 4.2507 0.0057092
-116.62 0.085718 2.2594e-06 -57.405 -57.404 -0.21369 660.82 0.0015133 -57.406 -57.405 -0.21370 1.3400 2.0184 1656.1 -0.0070573 580.80 0.17442 0.020040 49.901 408.39 437.88 2.9506 0.94035 1.1295 188.14 1.2660 4.2782 0.0057767
-115.62 0.095353 2.4458e-06 -55.385 -55.384 -0.20083 659.80 0.0015156 -55.386 -55.385 -0.20084 1.3404 2.0204 1649.4 -0.0070417 569.38 0.17383 0.022152 45.142 409.33 439.01 2.9377 0.94352 1.1327 188.68 1.2468 4.3056 0.0058444
-114.62 0.10591 2.6422e-06 -53.364 -53.363 -0.18804 658.78 0.0015180 -53.365 -53.364 -0.18805 1.3409 2.0224 1642.7 -0.0070260 558.32 0.17323 0.024451 40.898 410.27 440.13 2.9250 0.94669 1.1360 189.22 1.2281 4.3330 0.0059123
-113.62 0.11746 2.8486e-06 -51.340 -51.339 -0.17532 657.76 0.0015203 -51.342 -51.340 -0.17533 1.3413 2.0244 1636.0 -0.0070100 547.59 0.17264 0.026949 37.107 411.21 441.26 2.9126 0.94987 1.1392 189.75 1.2097 4.3604 0.0059806
-112.62 0.13008 3.0650e-06 -49.315 -49.313 -0.16266 656.73 0.0015227 -49.316 -49.315 -0.16267 1.3418 2.0264 1629.3 -0.0069938 537.18 0.17204 0.029661 33.715 412.16 442.39 2.9005 0.95305 1.1424 190.28 1.1918 4.3879 0.0060491
-111.62 0.14384 3.2913e-06 -47.287 -47.286 -0.15007 655.71 0.0015251 -47.289 -47.287 -0.15008 1.3424 2.0285 1622.7 -0.0069774 527.08 0.17144 0.032600 30.675 413.10 443.53 2.8885 0.95623 1.1457 190.81 1.1742 4.4153 0.0061180
-110.62 0.15884 3.5271e-06 -45.258 -45.256 -0.13754 654.69 0.0015274 -45.259 -45.258 -0.13755 1.3429 2.0305 1616.0 -0.0069609 517.28 0.17084 0.035781 27.948 414.06 444.66 2.8769 0.95942 1.1490 191.34 1.1570 4.4427 0.0061871
-109.62 0.17516 3.7721e-06 -43.226 -43.224 -0.12508 653.66 0.0015298 -43.228 -43.226 -0.12509 1.3435 2.0326 1609.3 -0.0069441 507.76 0.17024 0.039220 25.497 415.01 445.80 2.8654 0.96261 1.1522 191.86 1.1402 4.4701 0.0062564
-108.62 0.19290 4.0260e-06 -41.192 -41.190 -0.11268 652.64 0.0015322 -41.194 -41.192 -0.11269 1.3441 2.0347 1602.6 -0.0069271 498.51 0.16964 0.042933 23.292 415.96 446.94 2.8542 0.96581 1.1555 192.38 1.1236 4.4974 0.0063261
-107.62 0.21215 4.2882e-06 -39.156 -39.154 -0.10034 651.61 0.0015347 -39.158 -39.156 -0.10036 1.3447 2.0369 1595.9 -0.0069098 489.52 0.16903 0.046937 21.305 416.92 448.09 2.8433 0.96901 1.1588 192.90 1.1075 4.5248 0.0063960
-106.62 0.23301 4.5580e-06 -37.118 -37.116 -0.088069 650.58 0.0015371 -37.120 -37.118 -0.088082 1.3453 2.0390 1589.2 -0.0068924 480.79 0.16843 0.051250 19.512 417.88 449.23 2.8325 0.97222 1.1621 193.41 1.0916 4.5522 0.0064662
-105.62 0.25561 4.8346e-06 -35.078 -35.075 -0.075854 649.55 0.0015395 -35.080 -35.078 -0.075868 1.3460 2.0412 1582.6 -0.0068747 472.30 0.16782 0.055891 17.892 418.85 450.38 2.8220 0.97544 1.1655 193.93 1.0760 4.5795 0.0065367
-104.62 0.28004 5.1172e-06 -33.036 -33.033 -0.063700 648.52 0.0015420 -33.038 -33.035 -0.063714 1.3467 2.0434 1575.9 -0.0068569 464.04 0.16721 0.060878 16.426 419.81 451.53 2.8116 0.97867 1.1688 194.44 1.0608 4.6069 0.0066074
-103.62 0.30643 5.4045e-06 -30.991 -30.988 -0.051604 647.49 0.0015444 -30.994 -30.991 -0.051619 1.3474 2.0456 1569.2 -0.0068387 456.00 0.16660 0.066231 15.099 420.78 452.68 2.8015 0.98191 1.1722 194.94 1.0458 4.6342 0.0066785
-102.62 0.33490 5.6955e-06 -28.945 -28.941 -0.039566 646.46 0.0015469 -28.947 -28.944 -0.039582 1.3481 2.0478 1562.5 -0.0068204 448.18 0.16600 0.071971 13.894 421.75 453.84 2.7916 0.98516 1.1755 195.44 1.0310 4.6615 0.0067498
-101.62 0.36558 5.9886e-06 -26.896 -26.892 -0.027585 645.43 0.0015494 -26.898 -26.894 -0.027602 1.3489 2.0501 1555.8 -0.0068018 440.57 0.16539 0.078120 12.801 422.73 454.99 2.7818 0.98841 1.1789 195.95 1.0166 4.6888 0.0068213
-100.62 0.39862 6.2823e-06 -24.844 -24.840 -0.015661 644.39 0.0015519 -24.847 -24.843 -0.015678 1.3497 2.0524 1549.1 -0.0067830 433.16 0.16478 0.084699 11.807 423.70 456.15 2.7723 0.99168 1.1823 196.44 1.0024 4.7161 0.0068932
-99.625 0.43414 6.5748e-06 -22.791 -22.786 -0.0037921 643.36 0.0015544 -22.794 -22.789 -0.0038103 1.3505 2.0547 1542.4 -0.0067639 425.95 0.16416 0.091731 10.901 424.68 457.31 2.7630 0.99496 1.1858 196.94 0.98838 4.7434 0.0069653
-98.625 0.47230 6.8641e-06 -20.735 -20.730 0.0080216 642.32 0.0015569 -20.738 -20.733 0.0080027 1.3514 2.0570 1535.7 -0.0067447 418.92 0.16355 0.099240 10.077 425.66 458.48 2.7538 0.99825 1.1892 197.43 0.97464 4.7707 0.0070377
-97.625 0.51325 7.1479e-06 -18.677 -18.671 0.019781 641.28 0.0015594 -18.680 -18.674 0.019762 1.3522 2.0594 1529.0 -0.0067251 412.07 0.16294 0.10725 9.3239 426.65 459.64 2.7448 1.0016 1.1927 197.92 0.96112 4.7979 0.0071103
-96.625 0.55714 7.4238e-06 -16.616 -16.610 0.031487 640.24 0.0015619 -16.620 -16.614 0.031467 1.3531 2.0618 1522.3 -0.0067053 405.39 0.16233 0.11579 8.6365 427.63 460.81 2.7360 1.0049 1.1962 198.40 0.94783 4.8251 0.0071832
-95.625 0.60416 7.6891e-06 -14.553 -14.546 0.043141 639.20 0.0015645 -14.557 -14.550 0.043120 1.3540 2.0642 1515.7 -0.0066853 398.88 0.16171 0.12488 8.0078 428.62 461.98 2.7274 1.0082 1.1997 198.88 0.93475 4.8524 0.0072564
-94.625 0.65446 7.9409e-06 -12.488 -12.481 0.054742 638.16 0.0015670 -12.491 -12.484 0.054721 1.3550 2.0667 1509.0 -0.0066650 392.53 0.16110 0.13455 7.4323 429.61 463.15 2.7189 1.0116 1.2032 199.36 0.92188 4.8796 0.0073299
-93.625 0.70822 8.1758e-06 -10.420 -10.412 0.066293 637.12 0.0015696 -10.424 -10.416 0.066271 1.3560 2.0691 1502.3 -0.0066444 386.34 0.16048 0.14482 6.9050 430.60 464.32 2.7107 1.0149 1.2068 199.83 0.90921 4.9068 0.0074036
-92.625 0.76564 8.3905e-06 -8.3498 -8.3412 0.077793 636.07 0.0015722 -8.3535 -8.3452 0.077771 1.3570 2.0716 1495.6 -0.0066236 380.31 0.15987 0.15573 6.4212 431.60 465.49 2.7025 1.0183 1.2104 200.30 0.89673 4.9340 0.0074776
-91.625 0.82689 8.5809e-06 -6.2771 -6.2678 0.089243 635.02 0.0015747 -6.2808 -6.2719 0.089220 1.3580 2.0742 1488.9 -0.0066025 374.41 0.15925 0.16731 5.9769 432.59 466.67 2.6946 1.0217 1.2140 200.77 0.88445 4.9611 0.0075518
-90.625 0.89218 8.7431e-06 -4.2018 -4.1918 0.10064 633.98 0.0015773 -4.2056 -4.1959 0.10062 1.3591 2.0767 1482.2 -0.0065811 368.66 0.15864 0.17958 5.5685 433.59 467.84 2.6868 1.0251 1.2177 201.24 0.87236 4.9883 0.0076263
-89.625 0.96172 8.8725e-06 -2.1240 -2.1132 0.11200 632.93 0.0015800 -2.1279 -2.1174 0.11197 1.3602 2.0793 1475.5 -0.0065595 363.05 0.15802 0.19258 5.1928 434.59 469.02 2.6791 1.0285 1.2213 201.70 0.86045 5.0154 0.0077011
-88.625 1.0357 8.9643e-06 -0.043611 -0.032000 0.12330 631.88 0.0015826 -0.047516 -0.036215 0.12328 1.3613 2.0819 1468.8 -0.0065375 357.56 0.15740 0.20633 4.8466 435.59 470.20 2.6717 1.0320 1.2250 202.15 0.84873 5.0425 0.0077761
-87.625 1.1144 9.0134e-06 2.0394 2.0519 0.13456 630.83 0.0015852 2.0355 2.0476 0.13454 1.3625 2.0846 1462.1 -0.0065153 352.21 0.15679 0.22087 4.5276 436.60 471.39 2.6643 1.0354 1.2288 202.61 0.83718 5.0696 0.0078514
-86.625 1.1979 9.0140e-06 4.1250 4.1384 0.14577 629.77 0.0015879 4.1211 4.1342 0.14575 1.3637 2.0873 1455.4 -0.0064928 346.98 0.15617 0.23623 4.2331 437.61 472.57 2.6571 1.0389 1.2325 203.06 0.82580 5.0967 0.0079270
-85.625 1.2866 8.9604e-06 6.2132 6.2277 0.15694 628.72 0.0015905 6.2094 6.2235 0.15691 1.3649 2.0900 1448.8 -0.0064701 341.87 0.15555 0.25245 3.9612 438.61 473.75 2.6501 1.0424 1.2363 203.50 0.81460 5.1237 0.0080028
-84.625 1.3806 8.8461e-06 8.3042 8.3197 0.16806 627.66 0.0015932 8.3004 8.3155 0.16803 1.3661 2.0927 1442.1 -0.0064470 336.87 0.15494 0.26956 3.7097 439.63 474.94 2.6432 1.0460 1.2402 203.95 0.80356 5.1508 0.0080789
-83.625 1.4803 8.6643e-06 10.398 10.414 0.17913 626.60 0.0015959 10.394 10.410 0.17911 1.3674 2.0955 1435.4 -0.0064236 331.99 0.15432 0.28760 3.4771 440.64 476.13 2.6364 1.0495 1.2440 204.38 0.79269 5.1778 0.0081553
-82.625 1.5858 8.4078e-06 12.494 12.512 0.19017 625.54 0.0015986 12.491 12.508 0.19014 1.3687 2.0983 1428.7 -0.0063999 327.22 0.15370 0.30659 3.2616 441.65 477.31 2.6298 1.0531 1.2479 204.82 0.78199 5.2048 0.0082319
-81.625 1.6975 8.0689e-06 14.593 14.612 0.20115 624.48 0.0016013 14.590 14.609 0.20113 1.3700 2.1012 1422.0 -0.0063759 322.55 0.15309 0.32659 3.0619 442.67 478.50 2.6233 1.0567 1.2519 205.25 0.77144 5.2318 0.0083088
-80.625 1.8155 7.6394e-06 16.695 16.716 0.21210 623.42 0.0016041 16.692 16.712 0.21208 1.3714 2.1041 1415.4 -0.0063516 317.99 0.15247 0.34763 2.8766 443.69 479.70 2.6169 1.0603 1.2558 205.67 0.76106 5.2587 0.0083860
-79.625 1.9402 7.1105e-06 18.800 18.822 0.22300 622.36 0.0016068 18.797 18.819 0.22299 1.3728 2.1070 1408.7 -0.0063270 313.52 0.15186 0.36974 2.7046 444.71 480.89 2.6106 1.0639 1.2598 206.10 0.75083 5.2857 0.0084634
-78.625 2.0718 6.4732e-06 20.908 20.931 0.23387 621.29 0.0016096 20.905 20.928 0.23385 1.3742 2.1099 1402.0 -0.0063021 309.15 0.15124 0.39296 2.5448 445.73 482.08 2.6045 1.0676 1.2639 206.51 0.74076 5.3126 0.0085411
-77.625 2.2107 5.7176e-06 23.018 23.043 0.24469 620.22 0.0016123 23.016 23.040 0.24468 1.3757 2.1129 1395.3 -0.0062768 304.88 0.15062 0.41735 2.3961 446.75 483.27 2.5985 1.0712 1.2680 206.93 0.73084 5.3395 0.0086190
-76.625 2.3571 4.8335e-06 25.132 25.158 0.25547 619.15 0.0016151 25.130 25.156 0.25546 1.3772 2.1159 1388.7 -0.0062512 300.69 0.15001 0.44292 2.2577 447.78 484.47 2.5926 1.0749 1.2721 207.34 0.72107 5.3664 0.0086972
-75.625 2.5113 3.8100e-06 27.248 27.276 0.26621 618.08 0.0016179 27.247 27.275 0.26620 1.3787 2.1190 1382.0 -0.0062253 296.59 0.14939 0.46974 2.1288 448.81 485.67 2.5869 1.0787 1.2762 207.74 0.71146 5.3933 0.0087757
-74.625 2.6736 2.6356e-06 29.367 29.397 0.27691 617.01 0.0016207 29.366 29.396 0.27691 1.3802 2.1221 1375.4 -0.0061990 292.58 0.14878 0.49783 2.0087 449.83 486.86 2.5812 1.0824 1.2804 208.14 0.70200 5.4201 0.0088544
-73.625 2.8444 1.2984e-06 31.490 31.522 0.28758 615.93 0.0016236 31.489 31.521 0.28758 1.3818 2.1252 1368.7 -0.0061724 288.65 0.14816 0.52725 1.8966 450.86 488.06 2.5757 1.0862 1.2847 208.54 0.69268 5.4469 0.0089334
-72.625 28.450 undefined 33.515 33.834 0.29771 615.00 0.0016260 33.515 33.834 0.29771 1.3836 2.1279 1363.3 -0.0061509 285.25 0.14765 615.00 0.0016260 33.515 33.834 0.29771 1.3836 2.1279 1363.3 -0.0061509 285.25 0.14765
-71.625 217.18 undefined 34.900 37.335 0.30460 615.00 0.0016260 34.900 37.335 0.30460 1.3867 2.1271 1365.8 -0.0061638 284.75 0.14781 615.00 0.0016260 34.900 37.335 0.30460 1.3867 2.1271 1365.8 -0.0061638 284.75 0.14781
-70.625 405.56 undefined 36.289 40.835 0.31147 615.00 0.0016260 36.289 40.835 0.31147 1.3897 2.1264 1368.4 -0.0061763 284.26 0.14796 615.00 0.0016260 36.289 40.835 0.31147 1.3897 2.1264 1368.4 -0.0061763 284.26 0.14796
-69.625 593.58 undefined 37.680 44.334 0.31832 615.00 0.0016260 37.680 44.334 0.31832 1.3928 2.1258 1370.9 -0.0061884 283.78 0.14811 615.00 0.0016260 37.680 44.334 0.31832 1.3928 2.1258 1370.9 -0.0061884 283.78 0.14811
-68.625 781.26 undefined 39.074 47.833 0.32515 615.00 0.0016260 39.074 47.833 0.32515 1.3958 2.1253 1373.5 -0.0062001 283.30 0.14827 615.00 0.0016260 39.074 47.833 0.32515 1.3958 2.1253 1373.5 -0.0062001 283.30 0.14827
-67.625 968.58 undefined 40.471 51.330 0.33197 615.00 0.0016260 40.471 51.330 0.33197 1.3989 2.1248 1376.0 -0.0062114 282.82 0.14842 615.00 0.0016260 40.471 51.330 0.33197 1.3989 2.1248 1376.0 -0.0062114 282.82 0.14842
-66.625 1155.6 undefined 41.872 54.827 0.33877 615.00 0.0016260 41.872 54.827 0.33877 1.4020 2.1244 1378.5 -0.0062223 282.35 0.14858 615.00 0.0016260 41.872 54.827 0.33877 1.4020 2.1244 1378.5 -0.0062223 282.35 0.14858
-65.625 1342.2 undefined 43.275 58.323 0.34555 615.00 0.0016260 43.275 58.323 0.34555 1.4051 2.1241 1380.9 -0.0062329 281.89 0.14873 615.00 0.0016260 43.275 58.323 0.34555 1.4051 2.1241 1380.9 -0.0062329 281.89 0.14873
-64.625 1528.5 undefined 44.682 61.818 0.35231 615.00 0.0016260 44.682 61.818 0.35231 1.4082 2.1239 1383.4 -0.0062431 281.44 0.14889 615.00 0.0016260 44.682 61.818 0.35231 1.4082 2.1239 1383.4 -0.0062431 281.44 0.14889
-63.625 1714.5 undefined 46.092 65.313 0.35905 615.00 0.0016260 46.092 65.313 0.35905 1.4113 2.1237 1385.8 -0.0062530 280.98 0.14904 615.00 0.0016260 46.092 65.313 0.35905 1.4113 2.1237 1385.8 -0.0062530 280.98 0.14904
-62.625 1900.1 undefined 47.505 68.807 0.36578 615.00 0.0016260 47.505 68.807 0.36578 1.4145 2.1235 1388.3 -0.0062625 280.54 0.14920 615.00 0.0016260 47.505 68.807 0.36578 1.4145 2.1235 1388.3 -0.0062625 280.54 0.14920
-61.625 2085.5 undefined 48.921 72.301 0.37249 615.00 0.0016260 48.921 72.301 0.37249 1.4176 2.1235 1390.7 -0.0062716 280.10 0.14935 615.00 0.0016260 48.921 72.301 0.37249 1.4176 2.1235 1390.7 -0.0062716 280.10 0.14935
-60.625 2270.4 undefined 50.340 75.794 0.37918 615.00 0.0016260 50.340 75.794 0.37918 1.4208 2.1235 1393.1 -0.0062805 279.66 0.14951 615.00 0.0016260 50.340 75.794 0.37918 1.4208 2.1235 1393.1 -0.0062805 279.66 0.14951
-59.625 2455.1 undefined 51.762 79.287 0.38586 615.00 0.0016260 51.762 79.287 0.38586 1.4239 2.1235 1395.5 -0.0062890 279.23 0.14967 615.00 0.0016260 51.762 79.287 0.38586 1.4239 2.1235 1395.5 -0.0062890 279.23 0.14967
-58.625 2639.4 undefined 53.188 82.779 0.39252 615.00 0.0016260 53.188 82.779 0.39252 1.4271 2.1236 1397.9 -0.0062972 278.81 0.14982 615.00 0.0016260 53.188 82.779 0.39252 1.4271 2.1236 1397.9 -0.0062972 278.81 0.14982
-57.625 2823.5 undefined 54.617 86.270 0.39917 615.00 0.0016260 54.617 86.270 0.39917 1.4303 2.1238 1400.2 -0.0063050 278.39 0.14998 615.00 0.0016260 54.617 86.270 0.39917 1.4303 2.1238 1400.2 -0.0063050 278.39 0.14998
-56.625 3007.1 undefined 56.049 89.762 0.40580 615.00 0.0016260 56.049 89.762 0.40580 1.4335 2.1240 1402.6 -0.0063126 277.98 0.15014 615.00 0.0016260 56.049 89.762 0.40580 1.4335 2.1240 1402.6 -0.0063126 277.98 0.15014
-55.625 3190.5 undefined 57.484 93.253 0.41241 615.00 0.0016260 57.484 93.253 0.41241 1.4368 2.1243 1404.9 -0.0063199 277.57 0.15030 615.00 0.0016260 57.484 93.253 0.41241 1.4368 2.1243 1404.9 -0.0063199 277.57 0.15030
-54.625 3373.6 undefined 58.922 96.743 0.41901 615.00 0.0016260 58.922 96.743 0.41901 1.4400 2.1246 1407.2 -0.0063269 277.16 0.15045 615.00 0.0016260 58.922 96.743 0.41901 1.4400 2.1246 1407.2 -0.0063269 277.16 0.15045
-53.625 3556.3 undefined 60.364 100.23 0.42559 615.00 0.0016260 60.364 100.23 0.42559 1.4432 2.1250 1409.5 -0.0063335 276.76 0.15061 615.00 0.0016260 60.364 100.23 0.42559 1.4432 2.1250 1409.5 -0.0063335 276.76 0.15061
-52.625 3738.8 undefined 61.809 103.72 0.43215 615.00 0.0016260 61.809 103.72 0.43215 1.4465 2.1255 1411.8 -0.0063399 276.37 0.15077 615.00 0.0016260 61.809 103.72 0.43215 1.4465 2.1255 1411.8 -0.0063399 276.37 0.15077
-51.625 3920.9 undefined 63.257 107.21 0.43871 615.00 0.0016260 63.257 107.21 0.43871 1.4498 2.1260 1414.1 -0.0063461 275.98 0.15093 615.00 0.0016260 63.257 107.21 0.43871 1.4498 2.1260 1414.1 -0.0063461 275.98 0.15093
-50.625 4102.7 undefined 64.708 110.70 0.44524 615.00 0.0016260 64.708 110.70 0.44524 1.4531 2.1265 1416.3 -0.0063519 275.59 0.15109 615.00 0.0016260 64.708 110.70 0.44524 1.4531 2.1265 1416.3 -0.0063519 275.59 0.15109
-49.625 4284.3 undefined 66.163 114.19 0.45177 615.00 0.0016260 66.163 114.19 0.45177 1.4564 2.1271 1418.5 -0.0063575 275.21 0.15125 615.00 0.0016260 66.163 114.19 0.45177 1.4564 2.1271 1418.5 -0.0063575 275.21 0.15125
-48.625 4465.5 undefined 67.621 117.68 0.45827 615.00 0.0016260 67.621 117.68 0.45827 1.4597 2.1278 1420.8 -0.0063628 274.83 0.15141 615.00 0.0016260 67.621 117.68 0.45827 1.4597 2.1278 1420.8 -0.0063628 274.83 0.15141
-47.625 4646.4 undefined 69.082 121.17 0.46477 615.00 0.0016260 69.082 121.17 0.46477 1.4631 2.1285 1423.0 -0.0063678 274.46 0.15157 615.00 0.0016260 69.082 121.17 0.46477 1.4631 2.1285 1423.0 -0.0063678 274.46 0.15157
-46.625 4827.0 undefined 70.547 124.66 0.47125 615.00 0.0016260 70.547 124.66 0.47125 1.4664 2.1292 1425.2 -0.0063726 274.10 0.15173 615.00 0.0016260 70.547 124.66 0.47125 1.4664 2.1292 1425.2 -0.0063726 274.10 0.15173
-45.625 5007.3 undefined 72.015 128.15 0.47772 615.00 0.0016260 72.015 128.15 0.47772 1.4698 2.1300 1427.3 -0.0063772 273.73 0.15189 615.00 0.0016260 72.015 128.15 0.47772 1.4698 2.1300 1427.3 -0.0063772 273.73 0.15189
-44.625 5187.3 undefined 73.487 131.64 0.48417 615.00 0.0016260 73.487 131.64 0.48417 1.4732 2.1308 1429.5 -0.0063815 273.37 0.15205 615.00 0.0016260 73.487 131.64 0.48417 1.4732 2.1308 1429.5 -0.0063815 273.37 0.15205
-43.625 5367.0 undefined 74.962 135.13 0.49061 615.00 0.0016260 74.962 135.13 0.49061 1.4766 2.1317 1431.7 -0.0063856 273.02 0.15221 615.00 0.0016260 74.962 135.13 0.49061 1.4766 2.1317 1431.7 -0.0063856 273.02 0.15221
-42.625 5546.4 undefined 76.440 138.62 0.49704 615.00 0.0016260 76.440 138.62 0.49704 1.4800 2.1327 1433.8 -0.0063894 272.67 0.15237 615.00 0.0016260 76.440 138.62 0.49704 1.4800 2.1327 1433.8 -0.0063894 272.67 0.15237
-41.625 5725.5 undefined 77.922 142.11 0.50345 615.00 0.0016260 77.922 142.11 0.50345 1.4834 2.1336 1435.9 -0.0063930 272.32 0.15254 615.00 0.0016260 77.922 142.11 0.50345 1.4834 2.1336 1435.9 -0.0063930 272.32 0.15254
-40.625 5904.4 undefined 79.407 145.60 0.50985 615.00 0.0016260 79.407 145.60 0.50985 1.4868 2.1347 1438.0 -0.0063964 271.98 0.15270 615.00 0.0016260 79.407 145.60 0.50985 1.4868 2.1347 1438.0 -0.0063964 271.98 0.15270
-39.625 6082.9 undefined 80.895 149.09 0.51624 615.00 0.0016260 80.895 149.09 0.51624 1.4903 2.1357 1440.1 -0.0063995 271.64 0.15286 615.00 0.0016260 80.895 149.09 0.51624 1.4903 2.1357 1440.1 -0.0063995 271.64 0.15286
-38.625 6261.2 undefined 82.387 152.58 0.52261 615.00 0.0016260 82.387 152.58 0.52261 1.4938 2.1368 1442.2 -0.0064024 271.31 0.15302 615.00 0.0016260 82.387 152.58 0.52261 1.4938 2.1368 1442.2 -0.0064024 271.31 0.15302
-37.625 6439.1 undefined 83.883 156.07 0.52898 615.00 0.0016260 83.883 156.07 0.52898 1.4973 2.1380 1444.3 -0.0064051 270.98 0.15319 615.00 0.0016260 83.883 156.07 0.52898 1.4973 2.1380 1444.3 -0.0064051 270.98 0.15319
-36.625 6616.8 undefined 85.382 159.56 0.53533 615.00 0.0016260 85.382 159.56 0.53533 1.5008 2.1392 1446.3 -0.0064076 270.65 0.15335 615.00 0.0016260 85.382 159.56 0.53533 1.5008 2.1392 1446.3 -0.0064076 270.65 0.15335
-35.625 6794.2 undefined 86.884 163.05 0.54167 615.00 0.0016260 86.884 163.05 0.54167 1.5043 2.1404 1448.4 -0.0064099 270.33 0.15351 615.00 0.0016260 86.884 163.05 0.54167 1.5043 2.1404 1448.4 -0.0064099 270.33 0.15351
-34.625 6971.3 undefined 88.390 166.55 0.54799 615.00 0.0016260 88.390 166.55 0.54799 1.5079 2.1417 1450.4 -0.0064120 270.01 0.15368 615.00 0.0016260 88.390 166.55 0.54799 1.5079 2.1417 1450.4 -0.0064120 270.01 0.15368
-33.625 7148.1 undefined 89.900 170.04 0.55431 615.00 0.0016260 89.900 170.04 0.55431 1.5114 2.1430 1452.4 -0.0064139 269.70 0.15384 615.00 0.0016260 89.900 170.04 0.55431 1.5114 2.1430 1452.4 -0.0064139 269.70 0.15384
-32.625 7324.6 undefined 91.413 173.53 0.56061 615.00 0.0016260 91.413 173.53 0.56061 1.5150 2.1444 1454.4 -0.0064156 269.38 0.15401 615.00 0.0016260 91.413 173.53 0.56061 1.5150 2.1444 1454.4 -0.0064156 269.38 0.15401
-31.625 7500.9 undefined 92.930 177.02 0.56691 615.00 0.0016260 92.930 177.02 0.56691 1.5186 2.1458 1456.4 -0.0064170 269.08 0.15417 615.00 0.0016260 92.930 177.02 0.56691 1.5186 2.1458 1456.4 -0.0064170 269.08 0.15417
-30.625 7676.8 undefined 94.450 180.52 0.57319 615.00 0.0016260 94.450 180.52 0.57319 1.5222 2.1472 1458.4 -0.0064183 268.77 0.15434 615.00 0.0016260 94.450 180.52 0.57319 1.5222 2.1472 1458.4 -0.0064183 268.77 0.15434
-29.625 7852.5 undefined 95.974 184.01 0.57946 615.00 0.0016260 95.974 184.01 0.57946 1.5258 2.1487 1460.3 -0.0064194 268.47 0.15450 615.00 0.0016260 95.974 184.01 0.57946 1.5258 2.1487 1460.3 -0.0064194 268.47 0.15450
-28.625 8027.9 undefined 97.502 187.50 0.58572 615.00 0.0016260 97.502 187.50 0.58572 1.5294 2.1502 1462.3 -0.0064204 268.17 0.15467 615.00 0.0016260 97.502 187.50 0.58572 1.5294 2.1502 1462.3 -0.0064204 268.17 0.15467
-27.625 8203.1 undefined 99.033 191.00 0.59197 615.00 0.0016260 99.033 191.00 0.59197 1.5331 2.1517 1464.2 -0.0064211 267.88 0.15483 615.00 0.0016260 99.033 191.00 0.59197 1.5331 2.1517 1464.2 -0.0064211 267.88 0.15483
-26.625 8377.9 undefined 100.57 194.49 0.59821 615.00 0.0016260 100.57 194.49 0.59821 1.5367 2.1533 1466.2 -0.0064217 267.59 0.15500 615.00 0.0016260 100.57 194.49 0.59821 1.5367 2.1533 1466.2 -0.0064217 267.59 0.15500
-25.625 8552.5 undefined 102.11 197.99 0.60444 615.00 0.0016260 102.11 197.99 0.60444 1.5404 2.1549 1468.1 -0.0064221 267.30 0.15517 615.00 0.0016260 102.11 197.99 0.60444 1.5404 2.1549 1468.1 -0.0064221 267.30 0.15517
-24.625 8726.8 undefined 103.65 201.49 0.61065 615.00 0.0016260 103.65 201.49 0.61065 1.5441 2.1566 1470.0 -0.0064223 267.02 0.15533 615.00 0.0016260 103.65 201.49 0.61065 1.5441 2.1566 1470.0 -0.0064223 267.02 0.15533
-23.625 8900.8 undefined 105.19 204.98 0.61686 615.00 0.0016260 105.19 204.98 0.61686 1.5478 2.1583 1471.9 -0.0064223 266.74 0.15550 615.00 0.0016260 105.19 204.98 0.61686 1.5478 2.1583 1471.9 -0.0064223 266.74 0.15550
-22.625 9074.6 undefined 106.74 208.48 0.62306 615.00 0.0016260 106.74 208.48 0.62306 1.5515 2.1600 1473.8 -0.0064222 266.46 0.15567 615.00 0.0016260 106.74 208.48 0.62306 1.5515 2.1600 1473.8 -0.0064222 266.46 0.15567
-21.625 9248.1 undefined 108.30 211.98 0.62925 615.00 0.0016260 108.30 211.98 0.62925 1.5553 2.1618 1475.6 -0.0064219 266.19 0.15584 615.00 0.0016260 108.30 211.98 0.62925 1.5553 2.1618 1475.6 -0.0064219 266.19 0.15584
-20.625 9421.3 undefined 109.86 215.48 0.63543 615.00 0.0016260 109.86 215.48 0.63543 1.5590 2.1636 1477.5 -0.0064215 265.91 0.15600 615.00 0.0016260 109.86 215.48 0.63543 1.5590 2.1636 1477.5 -0.0064215 265.91 0.15600
-19.625 9594.3 undefined 111.42 218.98 0.64160 615.00 0.0016260 111.42 218.98 0.64160 1.5628 2.1654 1479.4 -0.0064209 265.65 0.15617 615.00 0.0016260 111.42 218.98 0.64160 1.5628 2.1654 1479.4 -0.0064209 265.65 0.15617
-18.625 9767.0 undefined 112.98 222.48 0.64776 615.00 0.0016260 112.98 222.48 0.64776 1.5666 2.1673 1481.2 -0.0064201 265.38 0.15634 615.00 0.0016260 112.98 222.48 0.64776 1.5666 2.1673 1481.2 -0.0064201 265.38 0.15634
-17.625 9939.4 undefined 114.55 225.98 0.65391 615.00 0.0016260 114.55 225.98 0.65391 1.5704 2.1692 1483.0 -0.0064192 265.12 0.15651 615.00 0.0016260 114.55 225.98 0.65391 1.5704 2.1692 1483.0 -0.0064192 265.12 0.15651
-16.625 10112. undefined 116.12 229.48 0.66005 615.00 0.0016260 116.12 229.48 0.66005 1.5742 2.1711 1484.8 -0.0064182 264.86 0.15668 615.00 0.0016260 116.12 229.48 0.66005 1.5742 2.1711 1484.8 -0.0064182 264.86 0.15668
-15.625 10283. undefined 117.70 232.99 0.66618 615.00 0.0016260 117.70 232.99 0.66618 1.5780 2.1730 1486.7 -0.0064170 264.60 0.15685 615.00 0.0016260 117.70 232.99 0.66618 1.5780 2.1730 1486.7 -0.0064170 264.60 0.15685
-14.625 10455. undefined 119.28 236.49 0.67230 615.00 0.0016260 119.28 236.49 0.67230 1.5818 2.1750 1488.5 -0.0064156 264.35 0.15702 615.00 0.0016260 119.28 236.49 0.67230 1.5818 2.1750 1488.5 -0.0064156 264.35 0.15702
-13.625 10627. undefined 120.86 240.00 0.67842 615.00 0.0016260 120.86 240.00 0.67842 1.5857 2.1770 1490.2 -0.0064142 264.10 0.15719 615.00 0.0016260 120.86 240.00 0.67842 1.5857 2.1770 1490.2 -0.0064142 264.10 0.15719
-12.625 10798. undefined 122.45 243.50 0.68452 615.00 0.0016260 122.45 243.50 0.68452 1.5895 2.1791 1492.0 -0.0064125 263.85 0.15736 615.00 0.0016260 122.45 243.50 0.68452 1.5895 2.1791 1492.0 -0.0064125 263.85 0.15736
-11.625 10968. undefined 124.04 247.01 0.69062 615.00 0.0016260 124.04 247.01 0.69062 1.5934 2.1812 1493.8 -0.0064108 263.61 0.15753 615.00 0.0016260 124.04 247.01 0.69062 1.5934 2.1812 1493.8 -0.0064108 263.61 0.15753
-10.625 11139. undefined 125.64 250.52 0.69671 615.00 0.0016260 125.64 250.52 0.69671 1.5973 2.1833 1495.6 -0.0064089 263.36 0.15770 615.00 0.0016260 125.64 250.52 0.69671 1.5973 2.1833 1495.6 -0.0064089 263.36 0.15770
-9.6250 11309. undefined 127.24 254.03 0.70279 615.00 0.0016260 127.24 254.03 0.70279 1.6012 2.1854 1497.3 -0.0064069 263.12 0.15787 615.00 0.0016260 127.24 254.03 0.70279 1.6012 2.1854 1497.3 -0.0064069 263.12 0.15787
-8.6250 11480. undefined 128.84 257.54 0.70886 615.00 0.0016260 128.84 257.54 0.70886 1.6051 2.1876 1499.1 -0.0064047 262.89 0.15804 615.00 0.0016260 128.84 257.54 0.70886 1.6051 2.1876 1499.1 -0.0064047 262.89 0.15804
-7.6250 11649. undefined 130.45 261.05 0.71492 615.00 0.0016260 130.45 261.05 0.71492 1.6090 2.1898 1500.8 -0.0064024 262.65 0.15822 615.00 0.0016260 130.45 261.05 0.71492 1.6090 2.1898 1500.8 -0.0064024 262.65 0.15822
-6.6250 11819. undefined 132.06 264.56 0.72098 615.00 0.0016260 132.06 264.56 0.72098 1.6130 2.1920 1502.5 -0.0064000 262.42 0.15839 615.00 0.0016260 132.06 264.56 0.72098 1.6130 2.1920 1502.5 -0.0064000 262.42 0.15839
-5.6250 11988. undefined 133.67 268.07 0.72703 615.00 0.0016260 133.67 268.07 0.72703 1.6169 2.1943 1504.2 -0.0063975 262.19 0.15856 615.00 0.0016260 133.67 268.07 0.72703 1.6169 2.1943 1504.2 -0.0063975 262.19 0.15856
-4.6250 12157. undefined 135.29 271.59 0.73307 615.00 0.0016260 135.29 271.59 0.73307 1.6209 2.1966 1506.0 -0.0063949 261.96 0.15873 615.00 0.0016260 135.29 271.59 0.73307 1.6209 2.1966 1506.0 -0.0063949 261.96 0.15873
-3.6250 12326. undefined 136.91 275.10 0.73910 615.00 0.0016260 136.91 275.10 0.73910 1.6249 2.1989 1507.7 -0.0063921 261.74 0.15891 615.00 0.0016260 136.91 275.10 0.73910 1.6249 2.1989 1507.7 -0.0063921 261.74 0.15891
-2.6250 12495. undefined 138.54 278.62 0.74513 615.00 0.0016260 138.54 278.62 0.74513 1.6288 2.2012 1509.4 -0.0063892 261.52 0.15908 615.00 0.0016260 138.54 278.62 0.74513 1.6288 2.2012 1509.4 -0.0063892 261.52 0.15908
-1.6250 12663. undefined 140.17 282.14 0.75114 615.00 0.0016260 140.17 282.14 0.75114 1.6328 2.2036 1511.0 -0.0063863 261.30 0.15925 615.00 0.0016260 140.17 282.14 0.75114 1.6328 2.2036 1511.0 -0.0063863 261.30 0.15925
-0.62500 12831. undefined 141.81 285.66 0.75715 615.00 0.0016260 141.81 285.66 0.75715 1.6368 2.2059 1512.7 -0.0063832 261.08 0.15943 615.00 0.0016260 141.81 285.66 0.75715 1.6368 2.2059 1512.7 -0.0063832 261.08 0.15943
0.37500 12999. undefined 143.44 289.18 0.76316 615.00 0.0016260 143.44 289.18 0.76316 1.6408 2.2084 1514.4 -0.0063800 260.87 0.15960 615.00 0.0016260 143.44 289.18 0.76316 1.6408 2.2084 1514.4 -0.0063800 260.87 0.15960
1.3750 13167. undefined 145.09 292.70 0.76915 615.00 0.0016260 145.09 292.70 0.76915 1.6449 2.2108 1516.1 -0.0063767 260.65 0.15978 615.00 0.0016260 145.09 292.70 0.76915 1.6449 2.2108 1516.1 -0.0063767 260.65 0.15978
2.3750 13334. undefined 146.73 296.22 0.77514 615.00 0.0016260 146.73 296.22 0.77514 1.6489 2.2132 1517.7 -0.0063732 260.44 0.15995 615.00 0.0016260 146.73 296.22 0.77514 1.6489 2.2132 1517.7 -0.0063732 260.44 0.15995
3.3750 13501. undefined 148.39 299.75 0.78112 615.00 0.0016260 148.39 299.75 0.78112 1.6530 2.2157 1519.4 -0.0063697 260.24 0.16013 615.00 0.0016260 148.39 299.75 0.78112 1.6530 2.2157 1519.4 -0.0063697 260.24 0.16013
4.3750 13668. undefined 150.04 303.27 0.78709 615.00 0.0016260 150.04 303.27 0.78709 1.6570 2.2182 1521.0 -0.0063661 260.03 0.16030 615.00 0.0016260 150.04 303.27 0.78709 1.6570 2.2182 1521.0 -0.0063661 260.03 0.16030
5.3750 13835. undefined 151.70 306.80 0.79306 615.00 0.0016260 151.70 306.80 0.79306 1.6611 2.2208 1522.6 -0.0063624 259.83 0.16048 615.00 0.0016260 151.70 306.80 0.79306 1.6611 2.2208 1522.6 -0.0063624 259.83 0.16048
6.3750 14001. undefined 153.36 310.33 0.79902 615.00 0.0016260 153.36 310.33 0.79902 1.6652 2.2233 1524.3 -0.0063586 259.63 0.16065 615.00 0.0016260 153.36 310.33 0.79902 1.6652 2.2233 1524.3 -0.0063586 259.63 0.16065
7.3750 14167. undefined 155.03 313.86 0.80498 615.00 0.0016260 155.03 313.86 0.80498 1.6692 2.2259 1525.9 -0.0063547 259.43 0.16083 615.00 0.0016260 155.03 313.86 0.80498 1.6692 2.2259 1525.9 -0.0063547 259.43 0.16083
8.3750 14333. undefined 156.70 317.39 0.81092 615.00 0.0016260 156.70 317.39 0.81092 1.6733 2.2285 1527.5 -0.0063507 259.23 0.16101 615.00 0.0016260 156.70 317.39 0.81092 1.6733 2.2285 1527.5 -0.0063507 259.23 0.16101
9.3750 14499. undefined 158.38 320.92 0.81686 615.00 0.0016260 158.38 320.92 0.81686 1.6774 2.2311 1529.1 -0.0063467 259.04 0.16118 615.00 0.0016260 158.38 320.92 0.81686 1.6774 2.2311 1529.1 -0.0063467 259.04 0.16118
10.375 14664. undefined 160.06 324.46 0.82280 615.00 0.0016260 160.06 324.46 0.82280 1.6815 2.2338 1530.7 -0.0063425 258.84 0.16136 615.00 0.0016260 160.06 324.46 0.82280 1.6815 2.2338 1530.7 -0.0063425 258.84 0.16136
11.375 14829. undefined 161.74 327.99 0.82873 615.00 0.0016260 161.74 327.99 0.82873 1.6857 2.2364 1532.3 -0.0063383 258.65 0.16154 615.00 0.0016260 161.74 327.99 0.82873 1.6857 2.2364 1532.3 -0.0063383 258.65 0.16154
12.375 14994. undefined 163.43 331.53 0.83465 615.00 0.0016260 163.43 331.53 0.83465 1.6898 2.2391 1533.9 -0.0063339 258.46 0.16171 615.00 0.0016260 163.43 331.53 0.83465 1.6898 2.2391 1533.9 -0.0063339 258.46 0.16171
13.375 15159. undefined 165.12 335.07 0.84056 615.00 0.0016260 165.12 335.07 0.84056 1.6939 2.2418 1535.5 -0.0063295 258.28 0.16189 615.00 0.0016260 165.12 335.07 0.84056 1.6939 2.2418 1535.5 -0.0063295 258.28 0.16189
14.375 15324. undefined 166.81 338.61 0.84647 615.00 0.0016260 166.81 338.61 0.84647 1.6981 2.2445 1537.1 -0.0063250 258.09 0.16207 615.00 0.0016260 166.81 338.61 0.84647 1.6981 2.2445 1537.1 -0.0063250 258.09 0.16207
15.375 15488. undefined 168.51 342.15 0.85237 615.00 0.0016260 168.51 342.15 0.85237 1.7022 2.2473 1538.6 -0.0063205 257.91 0.16225 615.00 0.0016260 168.51 342.15 0.85237 1.7022 2.2473 1538.6 -0.0063205 257.91 0.16225
16.375 15652. undefined 170.22 345.69 0.85827 615.00 0.0016260 170.22 345.69 0.85827 1.7064 2.2500 1540.2 -0.0063158 257.73 0.16243 615.00 0.0016260 170.22 345.69 0.85827 1.7064 2.2500 1540.2 -0.0063158 257.73 0.16243
17.375 15816. undefined 171.93 349.24 0.86416 615.00 0.0016260 171.93 349.24 0.86416 1.7106 2.2528 1541.7 -0.0063111 257.55 0.16261 615.00 0.0016260 171.93 349.24 0.86416 1.7106 2.2528 1541.7 -0.0063111 257.55 0.16261
18.375 15979. undefined 173.64 352.78 0.87005 615.00 0.0016260 173.64 352.78 0.87005 1.7147 2.2556 1543.3 -0.0063063 257.37 0.16279 615.00 0.0016260 173.64 352.78 0.87005 1.7147 2.2556 1543.3 -0.0063063 257.37 0.16279
19.375 16143. undefined 175.36 356.33 0.87592 615.00 0.0016260 175.36 356.33 0.87592 1.7189 2.2584 1544.8 -0.0063014 257.20 0.16297 615.00 0.0016260 175.36 356.33 0.87592 1.7189 2.2584 1544.8 -0.0063014 257.20 0.16297
20.375 16306. undefined 177.08 359.88 0.88180 615.00 0.0016260 177.08 359.88 0.88180 1.7231 2.2613 1546.4 -0.0062965 257.02 0.16315 615.00 0.0016260 177.08 359.88 0.88180 1.7231 2.2613 1546.4 -0.0062965 257.02 0.16315
21.375 16469. undefined 178.80 363.44 0.88767 615.00 0.0016260 178.80 363.44 0.88767 1.7273 2.2641 1547.9 -0.0062915 256.85 0.16333 615.00 0.0016260 178.80 363.44 0.88767 1.7273 2.2641 1547.9 -0.0062915 256.85 0.16333
22.375 16632. undefined 180.53 366.99 0.89353 615.00 0.0016260 180.53 366.99 0.89353 1.7315 2.2670 1549.4 -0.0062864 256.68 0.16351 615.00 0.0016260 180.53 366.99 0.89353 1.7315 2.2670 1549.4 -0.0062864 256.68 0.16351
23.375 16794. undefined 182.27 370.54 0.89938 615.00 0.0016260 182.27 370.54 0.89938 1.7357 2.2699 1551.0 -0.0062813 256.51 0.16369 615.00 0.0016260 182.27 370.54 0.89938 1.7357 2.2699 1551.0 -0.0062813 256.51 0.16369
24.375 16956. undefined 184.00 374.10 0.90523 615.00 0.0016260 184.00 374.10 0.90523 1.7399 2.2728 1552.5 -0.0062761 256.35 0.16387 615.00 0.0016260 184.00 374.10 0.90523 1.7399 2.2728 1552.5 -0.0062761 256.35 0.16387
25.375 17118. undefined 185.75 377.66 0.91108 615.00 0.0016260 185.75 377.66 0.91108 1.7442 2.2757 1554.0 -0.0062709 256.18 0.16405 615.00 0.0016260 185.75 377.66 0.91108 1.7442 2.2757 1554.0 -0.0062709 256.18 0.16405
26.375 17280. undefined 187.49 381.22 0.91692 615.00 0.0016260 187.49 381.22 0.91692 1.7484 2.2787 1555.5 -0.0062655 256.02 0.16423 615.00 0.0016260 187.49 381.22 0.91692 1.7484 2.2787 1555.5 -0.0062655 256.02 0.16423
27.375 17442. undefined 189.24 384.78 0.92275 615.00 0.0016260 189.24 384.78 0.92275 1.7526 2.2816 1557.0 -0.0062602 255.86 0.16442 615.00 0.0016260 189.24 384.78 0.92275 1.7526 2.2816 1557.0 -0.0062602 255.86 0.16442
28.375 17603. undefined 191.00 388.35 0.92858 615.00 0.0016260 191.00 388.35 0.92858 1.7569 2.2846 1558.5 -0.0062547 255.70 0.16460 615.00 0.0016260 191.00 388.35 0.92858 1.7569 2.2846 1558.5 -0.0062547 255.70 0.16460
29.375 17764. undefined 192.76 391.91 0.93441 615.00 0.0016260 192.76 391.91 0.93441 1.7611 2.2876 1560.0 -0.0062492 255.54 0.16478 615.00 0.0016260 192.76 391.91 0.93441 1.7611 2.2876 1560.0 -0.0062492 255.54 0.16478
30.375 17925. undefined 194.52 395.48 0.94023 615.00 0.0016260 194.52 395.48 0.94023 1.7654 2.2906 1561.5 -0.0062437 255.39 0.16496 615.00 0.0016260 194.52 395.48 0.94023 1.7654 2.2906 1561.5 -0.0062437 255.39 0.16496
31.375 18086. undefined 196.29 399.05 0.94604 615.00 0.0016260 196.29 399.05 0.94604 1.7696 2.2936 1563.0 -0.0062381 255.23 0.16515 615.00 0.0016260 196.29 399.05 0.94604 1.7696 2.2936 1563.0 -0.0062381 255.23 0.16515
32.375 18247. undefined 198.06 402.62 0.95185 615.00 0.0016260 198.06 402.62 0.95185 1.7739 2.2967 1564.4 -0.0062325 255.08 0.16533 615.00 0.0016260 198.06 402.62 0.95185 1.7739 2.2967 1564.4 -0.0062325 255.08 0.16533
33.375 18407. undefined 199.84 406.19 0.95765 615.00 0.0016260 199.84 406.19 0.95765 1.7782 2.2997 1565.9 -0.0062268 254.93 0.16551 615.00 0.0016260 199.84 406.19 0.95765 1.7782 2.2997 1565.9 -0.0062268 254.93 0.16551
34.375 18567. undefined 201.62 409.77 0.96345 615.00 0.0016260 201.62 409.77 0.96345 1.7824 2.3028 1567.4 -0.0062210 254.78 0.16570 615.00 0.0016260 201.62 409.77 0.96345 1.7824 2.3028 1567.4 -0.0062210 254.78 0.16570
35.375 18727. undefined 203.40 413.35 0.96924 615.00 0.0016260 203.40 413.35 0.96924 1.7867 2.3059 1568.9 -0.0062152 254.63 0.16588 615.00 0.0016260 203.40 413.35 0.96924 1.7867 2.3059 1568.9 -0.0062152 254.63 0.16588
36.375 18887. undefined 205.19 416.93 0.97503 615.00 0.0016260 205.19 416.93 0.97503 1.7910 2.3090 1570.3 -0.0062094 254.48 0.16607 615.00 0.0016260 205.19 416.93 0.97503 1.7910 2.3090 1570.3 -0.0062094 254.48 0.16607
37.375 19046. undefined 206.98 420.51 0.98082 615.00 0.0016260 206.98 420.51 0.98082 1.7953 2.3121 1571.8 -0.0062035 254.34 0.16625 615.00 0.0016260 206.98 420.51 0.98082 1.7953 2.3121 1571.8 -0.0062035 254.34 0.16625
38.375 19205. undefined 208.78 424.09 0.98660 615.00 0.0016260 208.78 424.09 0.98660 1.7996 2.3152 1573.2 -0.0061976 254.19 0.16644 615.00 0.0016260 208.78 424.09 0.98660 1.7996 2.3152 1573.2 -0.0061976 254.19 0.16644
39.375 19364. undefined 210.58 427.67 0.99237 615.00 0.0016260 210.58 427.67 0.99237 1.8039 2.3183 1574.7 -0.0061916 254.05 0.16662 615.00 0.0016260 210.58 427.67 0.99237 1.8039 2.3183 1574.7 -0.0061916 254.05 0.16662
40.375 19523. undefined 212.39 431.26 0.99814 615.00 0.0016260 212.39 431.26 0.99814 1.8082 2.3215 1576.1 -0.0061856 253.91 0.16681 615.00 0.0016260 212.39 431.26 0.99814 1.8082 2.3215 1576.1 -0.0061856 253.91 0.16681
41.375 19682. undefined 214.20 434.85 1.0039 615.00 0.0016260 214.20 434.85 1.0039 1.8125 2.3246 1577.5 -0.0061796 253.77 0.16700 615.00 0.0016260 214.20 434.85 1.0039 1.8125 2.3246 1577.5 -0.0061796 253.77 0.16700
42.375 19840. undefined 216.01 438.44 1.0097 615.00 0.0016260 216.01 438.44 1.0097 1.8168 2.3278 1579.0 -0.0061735 253.63 0.16718 615.00 0.0016260 216.01 438.44 1.0097 1.8168 2.3278 1579.0 -0.0061735 253.63 0.16718
43.375 19999. undefined 217.83 442.03 1.0154 615.00 0.0016260 217.83 442.03 1.0154 1.8211 2.3310 1580.4 -0.0061673 253.49 0.16737 615.00 0.0016260 217.83 442.03 1.0154 1.8211 2.3310 1580.4 -0.0061673 253.49 0.16737
44.375 20157. undefined 219.65 445.63 1.0212 615.00 0.0016260 219.65 445.63 1.0212 1.8254 2.3342 1581.8 -0.0061612 253.36 0.16756 615.00 0.0016260 219.65 445.63 1.0212 1.8254 2.3342 1581.8 -0.0061612 253.36 0.16756
45.375 20314. undefined 221.48 449.23 1.0269 615.00 0.0016260 221.48 449.23 1.0269 1.8297 2.3374 1583.2 -0.0061550 253.23 0.16774 615.00 0.0016260 221.48 449.23 1.0269 1.8297 2.3374 1583.2 -0.0061550 253.23 0.16774
46.375 20472. undefined 223.31 452.83 1.0327 615.00 0.0016260 223.31 452.83 1.0327 1.8340 2.3406 1584.7 -0.0061488 253.09 0.16793 615.00 0.0016260 223.31 452.83 1.0327 1.8340 2.3406 1584.7 -0.0061488 253.09 0.16793
47.375 20630. undefined 225.15 456.43 1.0384 615.00 0.0016260 225.15 456.43 1.0384 1.8383 2.3438 1586.1 -0.0061425 252.96 0.16812 615.00 0.0016260 225.15 456.43 1.0384 1.8383 2.3438 1586.1 -0.0061425 252.96 0.16812
48.375 20787. undefined 226.99 460.03 1.0441 615.00 0.0016260 226.99 460.03 1.0441 1.8427 2.3471 1587.5 -0.0061362 252.83 0.16831 615.00 0.0016260 226.99 460.03 1.0441 1.8427 2.3471 1587.5 -0.0061362 252.83 0.16831
49.375 20944. undefined 228.84 463.64 1.0499 615.00 0.0016260 228.84 463.64 1.0499 1.8470 2.3503 1588.9 -0.0061299 252.70 0.16850 615.00 0.0016260 228.84 463.64 1.0499 1.8470 2.3503 1588.9 -0.0061299 252.70 0.16850
50.375 21101. undefined 230.68 467.24 1.0556 615.00 0.0016260 230.68 467.24 1.0556 1.8513 2.3536 1590.3 -0.0061235 252.58 0.16868 615.00 0.0016260 230.68 467.24 1.0556 1.8513 2.3536 1590.3 -0.0061235 252.58 0.16868
51.375 21257. undefined 232.54 470.85 1.0613 615.00 0.0016260 232.54 470.85 1.0613 1.8557 2.3569 1591.7 -0.0061171 252.45 0.16887 615.00 0.0016260 232.54 470.85 1.0613 1.8557 2.3569 1591.7 -0.0061171 252.45 0.16887
52.375 21414. undefined 234.40 474.47 1.0670 615.00 0.0016260 234.40 474.47 1.0670 1.8600 2.3602 1593.1 -0.0061107 252.32 0.16906 615.00 0.0016260 234.40 474.47 1.0670 1.8600 2.3602 1593.1 -0.0061107 252.32 0.16906
53.375 21570. undefined 236.26 478.08 1.0727 615.00 0.0016260 236.26 478.08 1.0727 1.8643 2.3635 1594.5 -0.0061043 252.20 0.16925 615.00 0.0016260 236.26 478.08 1.0727 1.8643 2.3635 1594.5 -0.0061043 252.20 0.16925
54.375 21726. undefined 238.12 481.70 1.0784 615.00 0.0016260 238.12 481.70 1.0784 1.8687 2.3668 1595.9 -0.0060978 252.08 0.16944 615.00 0.0016260 238.12 481.70 1.0784 1.8687 2.3668 1595.9 -0.0060978 252.08 0.16944
55.375 21882. undefined 240.00 485.31 1.0841 615.00 0.0016260 240.00 485.31 1.0841 1.8730 2.3701 1597.2 -0.0060913 251.96 0.16963 615.00 0.0016260 240.00 485.31 1.0841 1.8730 2.3701 1597.2 -0.0060913 251.96 0.16963
56.375 22038. undefined 241.87 488.94 1.0898 615.00 0.0016260 241.87 488.94 1.0898 1.8774 2.3734 1598.6 -0.0060848 251.84 0.16982 615.00 0.0016260 241.87 488.94 1.0898 1.8774 2.3734 1598.6 -0.0060848 251.84 0.16982
57.375 22193. undefined 243.75 492.56 1.0955 615.00 0.0016260 243.75 492.56 1.0955 1.8817 2.3767 1600.0 -0.0060783 251.72 0.17001 615.00 0.0016260 243.75 492.56 1.0955 1.8817 2.3767 1600.0 -0.0060783 251.72 0.17001
58.375 22349. undefined 245.63 496.18 1.1012 615.00 0.0016260 245.63 496.18 1.1012 1.8861 2.3801 1601.4 -0.0060717 251.60 0.17021 615.00 0.0016260 245.63 496.18 1.1012 1.8861 2.3801 1601.4 -0.0060717 251.60 0.17021
59.375 22504. undefined 247.52 499.81 1.1069 615.00 0.0016260 247.52 499.81 1.1069 1.8904 2.3834 1602.7 -0.0060651 251.48 0.17040 615.00 0.0016260 247.52 499.81 1.1069 1.8904 2.3834 1602.7 -0.0060651 251.48 0.17040
60.375 22659. undefined 249.41 503.44 1.1126 615.00 0.0016260 249.41 503.44 1.1126 1.8948 2.3868 1604.1 -0.0060585 251.37 0.17059 615.00 0.0016260 249.41 503.44 1.1126 1.8948 2.3868 1604.1 -0.0060585 251.37 0.17059
61.375 22813. undefined 251.31 507.07 1.1183 615.00 0.0016260 251.31 507.07 1.1183 1.8991 2.3901 1605.4 -0.0060519 251.25 0.17078 615.00 0.0016260 251.31 507.07 1.1183 1.8991 2.3901 1605.4 -0.0060519 251.25 0.17078
62.375 22968. undefined 253.21 510.71 1.1240 615.00 0.0016260 253.21 510.71 1.1240 1.9035 2.3935 1606.8 -0.0060452 251.14 0.17097 615.00 0.0016260 253.21 510.71 1.1240 1.9035 2.3935 1606.8 -0.0060452 251.14 0.17097
63.375 23122. undefined 255.12 514.34 1.1296 615.00 0.0016260 255.12 514.34 1.1296 1.9078 2.3969 1608.2 -0.0060386 251.03 0.17117 615.00 0.0016260 255.12 514.34 1.1296 1.9078 2.3969 1608.2 -0.0060386 251.03 0.17117
64.375 23276. undefined 257.03 517.98 1.1353 615.00 0.0016260 257.03 517.98 1.1353 1.9122 2.4003 1609.5 -0.0060319 250.92 0.17136 615.00 0.0016260 257.03 517.98 1.1353 1.9122 2.4003 1609.5 -0.0060319 250.92 0.17136
65.375 23430. undefined 258.94 521.62 1.1410 615.00 0.0016260 258.94 521.62 1.1410 1.9165 2.4037 1610.9 -0.0060252 250.81 0.17155 615.00 0.0016260 258.94 521.62 1.1410 1.9165 2.4037 1610.9 -0.0060252 250.81 0.17155
66.375 23584. undefined 260.86 525.26 1.1466 615.00 0.0016260 260.86 525.26 1.1466 1.9209 2.4071 1612.2 -0.0060185 250.70 0.17175 615.00 0.0016260 260.86 525.26 1.1466 1.9209 2.4071 1612.2 -0.0060185 250.70 0.17175
67.375 23738. undefined 262.78 528.91 1.1523 615.00 0.0016260 262.78 528.91 1.1523 1.9253 2.4105 1613.5 -0.0060118 250.59 0.17194 615.00 0.0016260 262.78 528.91 1.1523 1.9253 2.4105 1613.5 -0.0060118 250.59 0.17194
68.375 23891. undefined 264.71 532.56 1.1579 615.00 0.0016260 264.71 532.56 1.1579 1.9296 2.4139 1614.9 -0.0060050 250.49 0.17213 615.00 0.0016260 264.71 532.56 1.1579 1.9296 2.4139 1614.9 -0.0060050 250.49 0.17213
69.375 24045. undefined 266.64 536.21 1.1636 615.00 0.0016260 266.64 536.21 1.1636 1.9340 2.4173 1616.2 -0.0059983 250.38 0.17233 615.00 0.0016260 266.64 536.21 1.1636 1.9340 2.4173 1616.2 -0.0059983 250.38 0.17233
70.375 24198. undefined 268.58 539.86 1.1692 615.00 0.0016260 268.58 539.86 1.1692 1.9383 2.4208 1617.5 -0.0059915 250.28 0.17252 615.00 0.0016260 268.58 539.86 1.1692 1.9383 2.4208 1617.5 -0.0059915 250.28 0.17252
71.375 24351. undefined 270.52 543.52 1.1749 615.00 0.0016260 270.52 543.52 1.1749 1.9427 2.4242 1618.9 -0.0059847 250.17 0.17272 615.00 0.0016260 270.52 543.52 1.1749 1.9427 2.4242 1618.9 -0.0059847 250.17 0.17272
72.375 24503. undefined 272.47 547.17 1.1805 615.00 0.0016260 272.47 547.17 1.1805 1.9471 2.4277 1620.2 -0.0059779 250.07 0.17291 615.00 0.0016260 272.47 547.17 1.1805 1.9471 2.4277 1620.2 -0.0059779 250.07 0.17291
73.375 24656. undefined 274.42 550.83 1.1861 615.00 0.0016260 274.42 550.83 1.1861 1.9514 2.4311 1621.5 -0.0059711 249.97 0.17311 615.00 0.0016260 274.42 550.83 1.1861 1.9514 2.4311 1621.5 -0.0059711 249.97 0.17311
74.375 24808. undefined 276.37 554.49 1.1918 615.00 0.0016260 276.37 554.49 1.1918 1.9558 2.4346 1622.8 -0.0059643 249.87 0.17330 615.00 0.0016260 276.37 554.49 1.1918 1.9558 2.4346 1622.8 -0.0059643 249.87 0.17330
75.375 24960. undefined 278.33 558.16 1.1974 615.00 0.0016260 278.33 558.16 1.1974 1.9602 2.4380 1624.1 -0.0059575 249.77 0.17350 615.00 0.0016260 278.33 558.16 1.1974 1.9602 2.4380 1624.1 -0.0059575 249.77 0.17350
76.375 25112. undefined 280.29 561.82 1.2030 615.00 0.0016260 280.29 561.82 1.2030 1.9645 2.4415 1625.4 -0.0059507 249.67 0.17370 615.00 0.0016260 280.29 561.82 1.2030 1.9645 2.4415 1625.4 -0.0059507 249.67 0.17370
77.375 25264. undefined 282.26 565.49 1.2086 615.00 0.0016260 282.26 565.49 1.2086 1.9689 2.4450 1626.8 -0.0059438 249.57 0.17389 615.00 0.0016260 282.26 565.49 1.2086 1.9689 2.4450 1626.8 -0.0059438 249.57 0.17389
78.375 25416. undefined 284.23 569.17 1.2142 615.00 0.0016260 284.23 569.17 1.2142 1.9732 2.4485 1628.1 -0.0059370 249.48 0.17409 615.00 0.0016260 284.23 569.17 1.2142 1.9732 2.4485 1628.1 -0.0059370 249.48 0.17409
79.375 25567. undefined 286.20 572.84 1.2198 615.00 0.0016260 286.20 572.84 1.2198 1.9776 2.4520 1629.4 -0.0059301 249.38 0.17429 615.00 0.0016260 286.20 572.84 1.2198 1.9776 2.4520 1629.4 -0.0059301 249.38 0.17429
80.375 25719. undefined 288.18 576.52 1.2255 615.00 0.0016260 288.18 576.52 1.2255 1.9820 2.4554 1630.7 -0.0059233 249.29 0.17449 615.00 0.0016260 288.18 576.52 1.2255 1.9820 2.4554 1630.7 -0.0059233 249.29 0.17449
81.375 25870. undefined 290.17 580.19 1.2311 615.00 0.0016260 290.17 580.19 1.2311 1.9863 2.4589 1632.0 -0.0059164 249.19 0.17468 615.00 0.0016260 290.17 580.19 1.2311 1.9863 2.4589 1632.0 -0.0059164 249.19 0.17468
82.375 26021. undefined 292.15 583.87 1.2367 615.00 0.0016260 292.15 583.87 1.2367 1.9907 2.4625 1633.2 -0.0059095 249.10 0.17488 615.00 0.0016260 292.15 583.87 1.2367 1.9907 2.4625 1633.2 -0.0059095 249.10 0.17488
83.375 26172. undefined 294.15 587.56 1.2423 615.00 0.0016260 294.15 587.56 1.2423 1.9951 2.4660 1634.5 -0.0059027 249.01 0.17508 615.00 0.0016260 294.15 587.56 1.2423 1.9951 2.4660 1634.5 -0.0059027 249.01 0.17508
84.375 26322. undefined 296.14 591.24 1.2479 615.00 0.0016260 296.14 591.24 1.2479 1.9994 2.4695 1635.8 -0.0058958 248.92 0.17528 615.00 0.0016260 296.14 591.24 1.2479 1.9994 2.4695 1635.8 -0.0058958 248.92 0.17528
85.375 26473. undefined 298.15 594.93 1.2534 615.00 0.0016260 298.15 594.93 1.2534 2.0038 2.4730 1637.1 -0.0058889 248.82 0.17548 615.00 0.0016260 298.15 594.93 1.2534 2.0038 2.4730 1637.1 -0.0058889 248.82 0.17548
86.375 26623. undefined 300.15 598.62 1.2590 615.00 0.0016260 300.15 598.62 1.2590 2.0081 2.4765 1638.4 -0.0058820 248.74 0.17568 615.00 0.0016260 300.15 598.62 1.2590 2.0081 2.4765 1638.4 -0.0058820 248.74 0.17568
87.375 26773. undefined 302.16 602.32 1.2646 615.00 0.0016260 302.16 602.32 1.2646 2.0125 2.4800 1639.7 -0.0058751 248.65 0.17588 615.00 0.0016260 302.16 602.32 1.2646 2.0125 2.4800 1639.7 -0.0058751 248.65 0.17588
88.375 26923. undefined 304.18 606.01 1.2702 615.00 0.0016260 304.18 606.01 1.2702 2.0168 2.4836 1640.9 -0.0058682 248.56 0.17608 615.00 0.0016260 304.18 606.01 1.2702 2.0168 2.4836 1640.9 -0.0058682 248.56 0.17608
89.375 27073. undefined 306.20 609.71 1.2758 615.00 0.0016260 306.20 609.71 1.2758 2.0212 2.4871 1642.2 -0.0058613 248.47 0.17628 615.00 0.0016260 306.20 609.71 1.2758 2.0212 2.4871 1642.2 -0.0058613 248.47 0.17628
90.375 27223. undefined 308.22 613.41 1.2813 615.00 0.0016260 308.22 613.41 1.2813 2.0255 2.4906 1643.5 -0.0058544 248.39 0.17648 615.00 0.0016260 308.22 613.41 1.2813 2.0255 2.4906 1643.5 -0.0058544 248.39 0.17648
91.375 27372. undefined 310.25 617.11 1.2869 615.00 0.0016260 310.25 617.11 1.2869 2.0299 2.4942 1644.8 -0.0058476 248.30 0.17668 615.00 0.0016260 310.25 617.11 1.2869 2.0299 2.4942 1644.8 -0.0058476 248.30 0.17668
92.375 27521. undefined 312.28 620.82 1.2925 615.00 0.0016260 312.28 620.82 1.2925 2.0342 2.4977 1646.0 -0.0058407 248.22 0.17688 615.00 0.0016260 312.28 620.82 1.2925 2.0342 2.4977 1646.0 -0.0058407 248.22 0.17688
93.375 27670. undefined 314.32 624.53 1.2980 615.00 0.0016260 314.32 624.53 1.2980 2.0386 2.5013 1647.3 -0.0058338 248.13 0.17708 615.00 0.0016260 314.32 624.53 1.2980 2.0386 2.5013 1647.3 -0.0058338 248.13 0.17708
94.375 27819. undefined 316.36 628.24 1.3036 615.00 0.0016260 316.36 628.24 1.3036 2.0429 2.5048 1648.5 -0.0058269 248.05 0.17728 615.00 0.0016260 316.36 628.24 1.3036 2.0429 2.5048 1648.5 -0.0058269 248.05 0.17728
95.375 27968. undefined 318.40 631.95 1.3092 615.00 0.0016260 318.40 631.95 1.3092 2.0473 2.5084 1649.8 -0.0058200 247.97 0.17748 615.00 0.0016260 318.40 631.95 1.3092 2.0473 2.5084 1649.8 -0.0058200 247.97 0.17748
96.375 28117. undefined 320.45 635.67 1.3147 615.00 0.0016260 320.45 635.67 1.3147 2.0516 2.5119 1651.1 -0.0058131 247.89 0.17769 615.00 0.0016260 320.45 635.67 1.3147 2.0516 2.5119 1651.1 -0.0058131 247.89 0.17769
97.375 28265. undefined 322.51 639.39 1.3203 615.00 0.0016260 322.51 639.39 1.3203 2.0560 2.5155 1652.3 -0.0058062 247.81 0.17789 615.00 0.0016260 322.51 639.39 1.3203 2.0560 2.5155 1652.3 -0.0058062 247.81 0.17789
98.375 28414. undefined 324.56 643.11 1.3258 615.00 0.0016260 324.56 643.11 1.3258 2.0603 2.5191 1653.6 -0.0057993 247.73 0.17809 615.00 0.0016260 324.56 643.11 1.3258 2.0603 2.5191 1653.6 -0.0057993 247.73 0.17809
99.375 28562. undefined 326.63 646.83 1.3314 615.00 0.0016260 326.63 646.83 1.3314 2.0647 2.5226 1654.8 -0.0057924 247.65 0.17830 615.00 0.0016260 326.63 646.83 1.3314 2.0647 2.5226 1654.8 -0.0057924 247.65 0.17830
100.38 28710. undefined 328.69 650.56 1.3369 615.00 0.0016260 328.69 650.56 1.3369 2.0690 2.5262 1656.0 -0.0057855 247.57 0.17850 615.00 0.0016260 328.69 650.56 1.3369 2.0690 2.5262 1656.0 -0.0057855 247.57 0.17850
101.38 28858. undefined 330.76 654.28 1.3424 615.00 0.0016260 330.76 654.28 1.3424 2.0733 2.5298 1657.3 -0.0057787 247.49 0.17870 615.00 0.0016260 330.76 654.28 1.3424 2.0733 2.5298 1657.3 -0.0057787 247.49 0.17870
102.38 29005. undefined 332.84 658.02 1.3480 615.00 0.0016260 332.84 658.02 1.3480 2.0777 2.5333 1658.5 -0.0057718 247.42 0.17891 615.00 0.0016260 332.84 658.02 1.3480 2.0777 2.5333 1658.5 -0.0057718 247.42 0.17891
103.38 29153. undefined 334.92 661.75 1.3535 615.00 0.0016260 334.92 661.75 1.3535 2.0820 2.5369 1659.8 -0.0057649 247.34 0.17911 615.00 0.0016260 334.92 661.75 1.3535 2.0820 2.5369 1659.8 -0.0057649 247.34 0.17911
104.38 29300. undefined 337.00 665.49 1.3590 615.00 0.0016260 337.00 665.49 1.3590 2.0863 2.5405 1661.0 -0.0057580 247.26 0.17932 615.00 0.0016260 337.00 665.49 1.3590 2.0863 2.5405 1661.0 -0.0057580 247.26 0.17932
105.38 29447. undefined 339.09 669.22 1.3646 615.00 0.0016260 339.09 669.22 1.3646 2.0906 2.5441 1662.2 -0.0057512 247.19 0.17952 615.00 0.0016260 339.09 669.22 1.3646 2.0906 2.5441 1662.2 -0.0057512 247.19 0.17952
106.38 29594. undefined 341.18 672.96 1.3701 615.00 0.0016260 341.18 672.96 1.3701 2.0950 2.5477 1663.5 -0.0057443 247.12 0.17973 615.00 0.0016260 341.18 672.96 1.3701 2.0950 2.5477 1663.5 -0.0057443 247.12 0.17973
107.38 29741. undefined 343.28 676.71 1.3756 615.00 0.0016260 343.28 676.71 1.3756 2.0993 2.5513 1664.7 -0.0057375 247.04 0.17993 615.00 0.0016260 343.28 676.71 1.3756 2.0993 2.5513 1664.7 -0.0057375 247.04 0.17993
108.38 29888. undefined 345.38 680.45 1.3811 615.00 0.0016260 345.38 680.45 1.3811 2.1036 2.5548 1665.9 -0.0057306 246.97 0.18014 615.00 0.0016260 345.38 680.45 1.3811 2.1036 2.5548 1665.9 -0.0057306 246.97 0.18014
109.38 30034. undefined 347.49 684.20 1.3866 615.00 0.0016260 347.49 684.20 1.3866 2.1079 2.5584 1667.1 -0.0057238 246.90 0.18034 615.00 0.0016260 347.49 684.20 1.3866 2.1079 2.5584 1667.1 -0.0057238 246.90 0.18034
110.38 30181. undefined 349.60 687.96 1.3921 615.00 0.0016260 349.60 687.96 1.3921 2.1122 2.5620 1668.4 -0.0057170 246.83 0.18055 615.00 0.0016260 349.60 687.96 1.3921 2.1122 2.5620 1668.4 -0.0057170 246.83 0.18055
111.38 30327. undefined 351.71 691.71 1.3976 615.00 0.0016260 351.71 691.71 1.3976 2.1166 2.5656 1669.6 -0.0057101 246.76 0.18076 615.00 0.0016260 351.71 691.71 1.3976 2.1166 2.5656 1669.6 -0.0057101 246.76 0.18076
112.38 30473. undefined 353.83 695.47 1.4031 615.00 0.0016260 353.83 695.47 1.4031 2.1209 2.5692 1670.8 -0.0057033 246.69 0.18096 615.00 0.0016260 353.83 695.47 1.4031 2.1209 2.5692 1670.8 -0.0057033 246.69 0.18096
113.38 30619. undefined 355.95 699.23 1.4086 615.00 0.0016260 355.95 699.23 1.4086 2.1252 2.5728 1672.0 -0.0056965 246.62 0.18117 615.00 0.0016260 355.95 699.23 1.4086 2.1252 2.5728 1672.0 -0.0056965 246.62 0.18117
114.38 30765. undefined 358.08 702.99 1.4141 615.00 0.0016260 358.08 702.99 1.4141 2.1295 2.5764 1673.2 -0.0056897 246.55 0.18138 615.00 0.0016260 358.08 702.99 1.4141 2.1295 2.5764 1673.2 -0.0056897 246.55 0.18138
115.38 30911. undefined 360.21 706.75 1.4196 615.00 0.0016260 360.21 706.75 1.4196 2.1338 2.5800 1674.4 -0.0056829 246.48 0.18159 615.00 0.0016260 360.21 706.75 1.4196 2.1338 2.5800 1674.4 -0.0056829 246.48 0.18159
116.38 31056. undefined 362.35 710.52 1.4251 615.00 0.0016260 362.35 710.52 1.4251 2.1381 2.5836 1675.6 -0.0056761 246.41 0.18179 615.00 0.0016260 362.35 710.52 1.4251 2.1381 2.5836 1675.6 -0.0056761 246.41 0.18179
117.38 31201. undefined 364.49 714.29 1.4306 615.00 0.0016260 364.49 714.29 1.4306 2.1424 2.5872 1676.8 -0.0056693 246.35 0.18200 615.00 0.0016260 364.49 714.29 1.4306 2.1424 2.5872 1676.8 -0.0056693 246.35 0.18200
118.38 31347. undefined 366.63 718.06 1.4361 615.00 0.0016260 366.63 718.06 1.4361 2.1467 2.5908 1678.0 -0.0056626 246.28 0.18221 615.00 0.0016260 366.63 718.06 1.4361 2.1467 2.5908 1678.0 -0.0056626 246.28 0.18221
119.38 31492. undefined 368.78 721.83 1.4416 615.00 0.0016260 368.78 721.83 1.4416 2.1510 2.5944 1679.2 -0.0056558 246.22 0.18242 615.00 0.0016260 368.78 721.83 1.4416 2.1510 2.5944 1679.2 -0.0056558 246.22 0.18242
120.38 31636. undefined 370.94 725.61 1.4471 615.00 0.0016260 370.94 725.61 1.4471 2.1552 2.5980 1680.4 -0.0056491 246.15 0.18263 615.00 0.0016260 370.94 725.61 1.4471 2.1552 2.5980 1680.4 -0.0056491 246.15 0.18263
121.38 31781. undefined 373.09 729.39 1.4525 615.00 0.0016260 373.09 729.39 1.4525 2.1595 2.6016 1681.6 -0.0056423 246.09 0.18284 615.00 0.0016260 373.09 729.39 1.4525 2.1595 2.6016 1681.6 -0.0056423 246.09 0.18284
122.38 31926. undefined 375.26 733.17 1.4580 615.00 0.0016260 375.26 733.17 1.4580 2.1638 2.6052 1682.8 -0.0056356 246.02 0.18305 615.00 0.0016260 375.26 733.17 1.4580 2.1638 2.6052 1682.8 -0.0056356 246.02 0.18305
123.38 32070. undefined 377.42 736.96 1.4635 615.00 0.0016260 377.42 736.96 1.4635 2.1681 2.6088 1684.0 -0.0056289 245.96 0.18326 615.00 0.0016260 377.42 736.96 1.4635 2.1681 2.6088 1684.0 -0.0056289 245.96 0.18326
124.38 32214. undefined 379.59 740.75 1.4689 615.00 0.0016260 379.59 740.75 1.4689 2.1724 2.6124 1685.2 -0.0056221 245.90 0.18347 615.00 0.0016260 379.59 740.75 1.4689 2.1724 2.6124 1685.2 -0.0056221 245.90 0.18347
125.38 32359. undefined 381.77 744.54 1.4744 615.00 0.0016260 381.77 744.54 1.4744 2.1766 2.6160 1686.4 -0.0056154 245.84 0.18368 615.00 0.0016260 381.77 744.54 1.4744 2.1766 2.6160 1686.4 -0.0056154 245.84 0.18368
126.38 32503. undefined 383.94 748.33 1.4799 615.00 0.0016260 383.94 748.33 1.4799 2.1809 2.6196 1687.5 -0.0056088 245.78 0.18389 615.00 0.0016260 383.94 748.33 1.4799 2.1809 2.6196 1687.5 -0.0056088 245.78 0.18389
127.38 32646. undefined 386.13 752.13 1.4853 615.00 0.0016260 386.13 752.13 1.4853 2.1852 2.6232 1688.7 -0.0056021 245.72 0.18410 615.00 0.0016260 386.13 752.13 1.4853 2.1852 2.6232 1688.7 -0.0056021 245.72 0.18410
128.38 32790. undefined 388.32 755.93 1.4908 615.00 0.0016260 388.32 755.93 1.4908 2.1894 2.6268 1689.9 -0.0055954 245.66 0.18431 615.00 0.0016260 388.32 755.93 1.4908 2.1894 2.6268 1689.9 -0.0055954 245.66 0.18431
129.38 32934. undefined 390.51 759.73 1.4962 615.00 0.0016260 390.51 759.73 1.4962 2.1937 2.6304 1691.1 -0.0055887 245.60 0.18453 615.00 0.0016260 390.51 759.73 1.4962 2.1937 2.6304 1691.1 -0.0055887 245.60 0.18453
130.38 33077. undefined 392.70 763.53 1.5017 615.00 0.0016260 392.70 763.53 1.5017 2.1979 2.6340 1692.3 -0.0055821 245.54 0.18474 615.00 0.0016260 392.70 763.53 1.5017 2.1979 2.6340 1692.3 -0.0055821 245.54 0.18474
131.38 33220. undefined 394.90 767.34 1.5071 615.00 0.0016260 394.90 767.34 1.5071 2.2022 2.6376 1693.4 -0.0055755 245.48 0.18495 615.00 0.0016260 394.90 767.34 1.5071 2.2022 2.6376 1693.4 -0.0055755 245.48 0.18495
132.38 33364. undefined 397.11 771.15 1.5126 615.00 0.0016260 397.11 771.15 1.5126 2.2064 2.6412 1694.6 -0.0055688 245.42 0.18516 615.00 0.0016260 397.11 771.15 1.5126 2.2064 2.6412 1694.6 -0.0055688 245.42 0.18516
133.38 33507. undefined 399.32 774.96 1.5180 615.00 0.0016260 399.32 774.96 1.5180 2.2107 2.6448 1695.8 -0.0055622 245.37 0.18538 615.00 0.0016260 399.32 774.96 1.5180 2.2107 2.6448 1695.8 -0.0055622 245.37 0.18538
134.38 33649. undefined 401.53 778.77 1.5234 615.00 0.0016260 401.53 778.77 1.5234 2.2149 2.6485 1696.9 -0.0055556 245.31 0.18559 615.00 0.0016260 401.53 778.77 1.5234 2.2149 2.6485 1696.9 -0.0055556 245.31 0.18559
135.38 33792. undefined 403.75 782.59 1.5289 615.00 0.0016260 403.75 782.59 1.5289 2.2191 2.6521 1698.1 -0.0055490 245.25 0.18580 615.00 0.0016260 403.75 782.59 1.5289 2.2191 2.6521 1698.1 -0.0055490 245.25 0.18580
136.38 33935. undefined 405.97 786.41 1.5343 615.00 0.0016260 405.97 786.41 1.5343 2.2234 2.6557 1699.3 -0.0055424 245.20 0.18602 615.00 0.0016260 405.97 786.41 1.5343 2.2234 2.6557 1699.3 -0.0055424 245.20 0.18602
137.38 34077. undefined 408.19 790.23 1.5397 615.00 0.0016260 408.19 790.23 1.5397 2.2276 2.6593 1700.4 -0.0055359 245.14 0.18623 615.00 0.0016260 408.19 790.23 1.5397 2.2276 2.6593 1700.4 -0.0055359 245.14 0.18623
138.38 34219. undefined 410.42 794.05 1.5452 615.00 0.0016260 410.42 794.05 1.5452 2.2318 2.6629 1701.6 -0.0055293 245.09 0.18645 615.00 0.0016260 410.42 794.05 1.5452 2.2318 2.6629 1701.6 -0.0055293 245.09 0.18645
139.38 34361. undefined 412.66 797.88 1.5506 615.00 0.0016260 412.66 797.88 1.5506 2.2360 2.6665 1702.7 -0.0055228 245.03 0.18666 615.00 0.0016260 412.66 797.88 1.5506 2.2360 2.6665 1702.7 -0.0055228 245.03 0.18666
140.38 34503. undefined 414.89 801.71 1.5560 615.00 0.0016260 414.89 801.71 1.5560 2.2403 2.6701 1703.9 -0.0055163 244.98 0.18688 615.00 0.0016260 414.89 801.71 1.5560 2.2403 2.6701 1703.9 -0.0055163 244.98 0.18688
141.38 34645. undefined 417.14 805.54 1.5614 615.00 0.0016260 417.14 805.54 1.5614 2.2445 2.6737 1705.0 -0.0055097 244.93 0.18709 615.00 0.0016260 417.14 805.54 1.5614 2.2445 2.6737 1705.0 -0.0055097 244.93 0.18709
142.38 34787. undefined 419.38 809.38 1.5668 615.00 0.0016260 419.38 809.38 1.5668 2.2487 2.6773 1706.2 -0.0055032 244.87 0.18731 615.00 0.0016260 419.38 809.38 1.5668 2.2487 2.6773 1706.2 -0.0055032 244.87 0.18731
143.38 34929. undefined 421.63 813.22 1.5722 615.00 0.0016260 421.63 813.22 1.5722 2.2529 2.6809 1707.3 -0.0054968 244.82 0.18752 615.00 0.0016260 421.63 813.22 1.5722 2.2529 2.6809 1707.3 -0.0054968 244.82 0.18752
144.38 35070. undefined 423.89 817.06 1.5776 615.00 0.0016260 423.89 817.06 1.5776 2.2571 2.6845 1708.5 -0.0054903 244.77 0.18774 615.00 0.0016260 423.89 817.06 1.5776 2.2571 2.6845 1708.5 -0.0054903 244.77 0.18774
145.38 35211. undefined 426.15 820.90 1.5830 615.00 0.0016260 426.15 820.90 1.5830 2.2613 2.6880 1709.6 -0.0054838 244.72 0.18796 615.00 0.0016260 426.15 820.90 1.5830 2.2613 2.6880 1709.6 -0.0054838 244.72 0.18796
146.38 35353. undefined 428.41 824.75 1.5884 615.00 0.0016260 428.41 824.75 1.5884 2.2655 2.6916 1710.8 -0.0054774 244.67 0.18817 615.00 0.0016260 428.41 824.75 1.5884 2.2655 2.6916 1710.8 -0.0054774 244.67 0.18817
147.38 35494. undefined 430.68 828.60 1.5938 615.00 0.0016260 430.68 828.60 1.5938 2.2697 2.6952 1711.9 -0.0054709 244.62 0.18839 615.00 0.0016260 430.68 828.60 1.5938 2.2697 2.6952 1711.9 -0.0054709 244.62 0.18839
148.38 35634. undefined 432.95 832.45 1.5992 615.00 0.0016260 432.95 832.45 1.5992 2.2738 2.6988 1713.0 -0.0054645 244.57 0.18861 615.00 0.0016260 432.95 832.45 1.5992 2.2738 2.6988 1713.0 -0.0054645 244.57 0.18861
149.38 35775. undefined 435.23 836.30 1.6046 615.00 0.0016260 435.23 836.30 1.6046 2.2780 2.7024 1714.2 -0.0054581 244.52 0.18883 615.00 0.0016260 435.23 836.30 1.6046 2.2780 2.7024 1714.2 -0.0054581 244.52 0.18883
150.38 35916. undefined 437.51 840.16 1.6100 615.00 0.0016260 437.51 840.16 1.6100 2.2822 2.7060 1715.3 -0.0054517 244.47 0.18904 615.00 0.0016260 437.51 840.16 1.6100 2.2822 2.7060 1715.3 -0.0054517 244.47 0.18904
151.38 36056. undefined 439.79 844.02 1.6154 615.00 0.0016260 439.79 844.02 1.6154 2.2864 2.7096 1716.4 -0.0054453 244.42 0.18926 615.00 0.0016260 439.79 844.02 1.6154 2.2864 2.7096 1716.4 -0.0054453 244.42 0.18926
152.38 36197. undefined 442.08 847.88 1.6208 615.00 0.0016260 442.08 847.88 1.6208 2.2905 2.7132 1717.6 -0.0054390 244.38 0.18948 615.00 0.0016260 442.08 847.88 1.6208 2.2905 2.7132 1717.6 -0.0054390 244.38 0.18948
153.38 36337. undefined 444.37 851.74 1.6262 615.00 0.0016260 444.37 851.74 1.6262 2.2947 2.7168 1718.7 -0.0054326 244.33 0.18970 615.00 0.0016260 444.37 851.74 1.6262 2.2947 2.7168 1718.7 -0.0054326 244.33 0.18970
154.38 36477. undefined 446.67 855.61 1.6316 615.00 0.0016260 446.67 855.61 1.6316 2.2988 2.7203 1719.8 -0.0054263 244.28 0.18992 615.00 0.0016260 446.67 855.61 1.6316 2.2988 2.7203 1719.8 -0.0054263 244.28 0.18992
155.38 36617. undefined 448.97 859.48 1.6369 615.00 0.0016260 448.97 859.48 1.6369 2.3030 2.7239 1720.9 -0.0054200 244.24 0.19014 615.00 0.0016260 448.97 859.48 1.6369 2.3030 2.7239 1720.9 -0.0054200 244.24 0.19014
156.38 36757. undefined 451.27 863.35 1.6423 615.00 0.0016260 451.27 863.35 1.6423 2.3071 2.7275 1722.1 -0.0054137 244.19 0.19036 615.00 0.0016260 451.27 863.35 1.6423 2.3071 2.7275 1722.1 -0.0054137 244.19 0.19036
157.38 36896. undefined 453.58 867.23 1.6477 615.00 0.0016260 453.58 867.23 1.6477 2.3113 2.7311 1723.2 -0.0054074 244.14 0.19058 615.00 0.0016260 453.58 867.23 1.6477 2.3113 2.7311 1723.2 -0.0054074 244.14 0.19058
158.38 37036. undefined 455.90 871.11 1.6530 615.00 0.0016260 455.90 871.11 1.6530 2.3154 2.7347 1724.3 -0.0054011 244.10 0.19080 615.00 0.0016260 455.90 871.11 1.6530 2.3154 2.7347 1724.3 -0.0054011 244.10 0.19080
159.38 37175. undefined 458.21 874.99 1.6584 615.00 0.0016260 458.21 874.99 1.6584 2.3196 2.7382 1725.4 -0.0053948 244.05 0.19102 615.00 0.0016260 458.21 874.99 1.6584 2.3196 2.7382 1725.4 -0.0053948 244.05 0.19102
160.38 37315. undefined 460.54 878.87 1.6638 615.00 0.0016260 460.54 878.87 1.6638 2.3237 2.7418 1726.5 -0.0053886 244.01 0.19124 615.00 0.0016260 460.54 878.87 1.6638 2.3237 2.7418 1726.5 -0.0053886 244.01 0.19124
161.38 37454. undefined 462.86 882.76 1.6691 615.00 0.0016260 462.86 882.76 1.6691 2.3278 2.7454 1727.6 -0.0053824 243.97 0.19146 615.00 0.0016260 462.86 882.76 1.6691 2.3278 2.7454 1727.6 -0.0053824 243.97 0.19146
162.38 37593. undefined 465.19 886.65 1.6745 615.00 0.0016260 465.19 886.65 1.6745 2.3319 2.7489 1728.8 -0.0053761 243.92 0.19168 615.00 0.0016260 465.19 886.65 1.6745 2.3319 2.7489 1728.8 -0.0053761 243.92 0.19168
163.38 37732. undefined 467.53 890.54 1.6798 615.00 0.0016260 467.53 890.54 1.6798 2.3361 2.7525 1729.9 -0.0053699 243.88 0.19191 615.00 0.0016260 467.53 890.54 1.6798 2.3361 2.7525 1729.9 -0.0053699 243.88 0.19191
164.38 37871. undefined 469.86 894.43 1.6852 615.00 0.0016260 469.86 894.43 1.6852 2.3402 2.7561 1731.0 -0.0053638 243.84 0.19213 615.00 0.0016260 469.86 894.43 1.6852 2.3402 2.7561 1731.0 -0.0053638 243.84 0.19213
165.38 38009. undefined 472.21 898.33 1.6905 615.00 0.0016260 472.21 898.33 1.6905 2.3443 2.7596 1732.1 -0.0053576 243.80 0.19235 615.00 0.0016260 472.21 898.33 1.6905 2.3443 2.7596 1732.1 -0.0053576 243.80 0.19235
166.38 38148. undefined 474.55 902.23 1.6959 615.00 0.0016260 474.55 902.23 1.6959 2.3484 2.7632 1733.2 -0.0053514 243.75 0.19257 615.00 0.0016260 474.55 902.23 1.6959 2.3484 2.7632 1733.2 -0.0053514 243.75 0.19257
167.38 38286. undefined 476.90 906.13 1.7012 615.00 0.0016260 476.90 906.13 1.7012 2.3525 2.7668 1734.3 -0.0053453 243.71 0.19280 615.00 0.0016260 476.90 906.13 1.7012 2.3525 2.7668 1734.3 -0.0053453 243.71 0.19280
168.38 38424. undefined 479.26 910.03 1.7066 615.00 0.0016260 479.26 910.03 1.7066 2.3566 2.7703 1735.4 -0.0053392 243.67 0.19302 615.00 0.0016260 479.26 910.03 1.7066 2.3566 2.7703 1735.4 -0.0053392 243.67 0.19302
169.38 38563. undefined 481.62 913.94 1.7119 615.00 0.0016260 481.62 913.94 1.7119 2.3607 2.7739 1736.5 -0.0053330 243.63 0.19324 615.00 0.0016260 481.62 913.94 1.7119 2.3607 2.7739 1736.5 -0.0053330 243.63 0.19324
170.38 38701. undefined 483.98 917.85 1.7172 615.00 0.0016260 483.98 917.85 1.7172 2.3648 2.7774 1737.6 -0.0053269 243.59 0.19347 615.00 0.0016260 483.98 917.85 1.7172 2.3648 2.7774 1737.6 -0.0053269 243.59 0.19347
171.38 38839. undefined 486.35 921.76 1.7226 615.00 0.0016260 486.35 921.76 1.7226 2.3688 2.7810 1738.7 -0.0053209 243.55 0.19369 615.00 0.0016260 486.35 921.76 1.7226 2.3688 2.7810 1738.7 -0.0053209 243.55 0.19369
172.38 38976. undefined 488.72 925.68 1.7279 615.00 0.0016260 488.72 925.68 1.7279 2.3729 2.7845 1739.8 -0.0053148 243.51 0.19392 615.00 0.0016260 488.72 925.68 1.7279 2.3729 2.7845 1739.8 -0.0053148 243.51 0.19392
173.38 39114. undefined 491.09 929.60 1.7332 615.00 0.0016260 491.09 929.60 1.7332 2.3770 2.7881 1740.9 -0.0053088 243.47 0.19414 615.00 0.0016260 491.09 929.60 1.7332 2.3770 2.7881 1740.9 -0.0053088 243.47 0.19414
174.38 39251. undefined 493.47 933.52 1.7385 615.00 0.0016260 493.47 933.52 1.7385 2.3810 2.7916 1741.9 -0.0053027 243.43 0.19437 615.00 0.0016260 493.47 933.52 1.7385 2.3810 2.7916 1741.9 -0.0053027 243.43 0.19437
175.38 39389. undefined 495.85 937.44 1.7438 615.00 0.0016260 495.85 937.44 1.7438 2.3851 2.7951 1743.0 -0.0052967 243.39 0.19459 615.00 0.0016260 495.85 937.44 1.7438 2.3851 2.7951 1743.0 -0.0052967 243.39 0.19459
176.38 39526. undefined 498.24 941.37 1.7492 615.00 0.0016260 498.24 941.37 1.7492 2.3892 2.7987 1744.1 -0.0052907 243.36 0.19482 615.00 0.0016260 498.24 941.37 1.7492 2.3892 2.7987 1744.1 -0.0052907 243.36 0.19482
177.38 39663. undefined 500.63 945.30 1.7545 615.00 0.0016260 500.63 945.30 1.7545 2.3932 2.8022 1745.2 -0.0052847 243.32 0.19504 615.00 0.0016260 500.63 945.30 1.7545 2.3932 2.8022 1745.2 -0.0052847 243.32 0.19504
178.38 39800. undefined 503.03 949.23 1.7598 615.00 0.0016260 503.03 949.23 1.7598 2.3973 2.8057 1746.3 -0.0052787 243.28 0.19527 615.00 0.0016260 503.03 949.23 1.7598 2.3973 2.8057 1746.3 -0.0052787 243.28 0.19527
179.38 39937. undefined 505.43 953.16 1.7651 615.00 0.0016260 505.43 953.16 1.7651 2.4013 2.8093 1747.4 -0.0052728 243.25 0.19550 615.00 0.0016260 505.43 953.16 1.7651 2.4013 2.8093 1747.4 -0.0052728 243.25 0.19550
180.38 40074. undefined 507.83 957.10 1.7704 615.00 0.0016260 507.83 957.10 1.7704 2.4053 2.8128 1748.4 -0.0052668 243.21 0.19572 615.00 0.0016260 507.83 957.10 1.7704 2.4053 2.8128 1748.4 -0.0052668 243.21 0.19572
181.38 40210. undefined 510.24 961.04 1.7757 615.00 0.0016260 510.24 961.04 1.7757 2.4094 2.8163 1749.5 -0.0052609 243.17 0.19595 615.00 0.0016260 510.24 961.04 1.7757 2.4094 2.8163 1749.5 -0.0052609 243.17 0.19595
182.38 40347. undefined 512.65 964.98 1.7810 615.00 0.0016260 512.65 964.98 1.7810 2.4134 2.8198 1750.6 -0.0052550 243.14 0.19618 615.00 0.0016260 512.65 964.98 1.7810 2.4134 2.8198 1750.6 -0.0052550 243.14 0.19618
183.38 40483. undefined 515.06 968.92 1.7863 615.00 0.0016260 515.06 968.92 1.7863 2.4174 2.8234 1751.7 -0.0052491 243.10 0.19640 615.00 0.0016260 515.06 968.92 1.7863 2.4174 2.8234 1751.7 -0.0052491 243.10 0.19640
184.38 40620. undefined 517.48 972.87 1.7916 615.00 0.0016260 517.48 972.87 1.7916 2.4214 2.8269 1752.7 -0.0052432 243.07 0.19663 615.00 0.0016260 517.48 972.87 1.7916 2.4214 2.8269 1752.7 -0.0052432 243.07 0.19663
185.38 40756. undefined 519.91 976.82 1.7969 615.00 0.0016260 519.91 976.82 1.7969 2.4254 2.8304 1753.8 -0.0052374 243.03 0.19686 615.00 0.0016260 519.91 976.82 1.7969 2.4254 2.8304 1753.8 -0.0052374 243.03 0.19686
186.38 40892. undefined 522.33 980.77 1.8022 615.00 0.0016260 522.33 980.77 1.8022 2.4294 2.8339 1754.9 -0.0052315 243.00 0.19709 615.00 0.0016260 522.33 980.77 1.8022 2.4294 2.8339 1754.9 -0.0052315 243.00 0.19709
187.38 41028. undefined 524.77 984.73 1.8075 615.00 0.0016260 524.77 984.73 1.8075 2.4334 2.8374 1756.0 -0.0052257 242.96 0.19732 615.00 0.0016260 524.77 984.73 1.8075 2.4334 2.8374 1756.0 -0.0052257 242.96 0.19732
188.38 41164. undefined 527.20 988.68 1.8127 615.00 0.0016260 527.20 988.68 1.8127 2.4374 2.8409 1757.0 -0.0052199 242.93 0.19755 615.00 0.0016260 527.20 988.68 1.8127 2.4374 2.8409 1757.0 -0.0052199 242.93 0.19755
189.38 41299. undefined 529.64 992.65 1.8180 615.00 0.0016260 529.64 992.65 1.8180 2.4414 2.8444 1758.1 -0.0052141 242.90 0.19778 615.00 0.0016260 529.64 992.65 1.8180 2.4414 2.8444 1758.1 -0.0052141 242.90 0.19778
190.38 41435. undefined 532.08 996.61 1.8233 615.00 0.0016260 532.08 996.61 1.8233 2.4454 2.8479 1759.1 -0.0052083 242.86 0.19801 615.00 0.0016260 532.08 996.61 1.8233 2.4454 2.8479 1759.1 -0.0052083 242.86 0.19801
191.38 41570. undefined 534.53 1000.6 1.8286 615.00 0.0016260 534.53 1000.6 1.8286 2.4494 2.8514 1760.2 -0.0052025 242.83 0.19824 615.00 0.0016260 534.53 1000.6 1.8286 2.4494 2.8514 1760.2 -0.0052025 242.83 0.19824
192.38 41706. undefined 536.98 1004.5 1.8338 615.00 0.0016260 536.98 1004.5 1.8338 2.4534 2.8549 1761.3 -0.0051968 242.80 0.19847 615.00 0.0016260 536.98 1004.5 1.8338 2.4534 2.8549 1761.3 -0.0051968 242.80 0.19847
193.38 41841. undefined 539.44 1008.5 1.8391 615.00 0.0016260 539.44 1008.5 1.8391 2.4573 2.8584 1762.3 -0.0051911 242.76 0.19870 615.00 0.0016260 539.44 1008.5 1.8391 2.4573 2.8584 1762.3 -0.0051911 242.76 0.19870
194.38 41976. undefined 541.90 1012.5 1.8444 615.00 0.0016260 541.90 1012.5 1.8444 2.4613 2.8619 1763.4 -0.0051853 242.73 0.19893 615.00 0.0016260 541.90 1012.5 1.8444 2.4613 2.8619 1763.4 -0.0051853 242.73 0.19893
195.38 42111. undefined 544.36 1016.5 1.8496 615.00 0.0016260 544.36 1016.5 1.8496 2.4653 2.8653 1764.4 -0.0051796 242.70 0.19916 615.00 0.0016260 544.36 1016.5 1.8496 2.4653 2.8653 1764.4 -0.0051796 242.70 0.19916
196.38 42246. undefined 546.83 1020.4 1.8549 615.00 0.0016260 546.83 1020.4 1.8549 2.4692 2.8688 1765.5 -0.0051740 242.67 0.19939 615.00 0.0016260 546.83 1020.4 1.8549 2.4692 2.8688 1765.5 -0.0051740 242.67 0.19939
197.38 42380. undefined 549.30 1024.4 1.8602 615.00 0.0016260 549.30 1024.4 1.8602 2.4732 2.8723 1766.5 -0.0051683 242.64 0.19962 615.00 0.0016260 549.30 1024.4 1.8602 2.4732 2.8723 1766.5 -0.0051683 242.64 0.19962
198.38 42515. undefined 551.77 1028.4 1.8654 615.00 0.0016260 551.77 1028.4 1.8654 2.4771 2.8758 1767.6 -0.0051626 242.61 0.19985 615.00 0.0016260 551.77 1028.4 1.8654 2.4771 2.8758 1767.6 -0.0051626 242.61 0.19985
199.38 42649. undefined 554.25 1032.4 1.8707 615.00 0.0016260 554.25 1032.4 1.8707 2.4811 2.8792 1768.6 -0.0051570 242.58 0.20009 615.00 0.0016260 554.25 1032.4 1.8707 2.4811 2.8792 1768.6 -0.0051570 242.58 0.20009
200.38 42784. undefined 556.74 1036.4 1.8759 615.00 0.0016260 556.74 1036.4 1.8759 2.4850 2.8827 1769.7 -0.0051514 242.55 0.20032 615.00 0.0016260 556.74 1036.4 1.8759 2.4850 2.8827 1769.7 -0.0051514 242.55 0.20032
201.38 42918. undefined 559.22 1040.4 1.8812 615.00 0.0016260 559.22 1040.4 1.8812 2.4889 2.8862 1770.7 -0.0051458 242.52 0.20055 615.00 0.0016260 559.22 1040.4 1.8812 2.4889 2.8862 1770.7 -0.0051458 242.52 0.20055
202.38 43052. undefined 561.71 1044.4 1.8864 615.00 0.0016260 561.71 1044.4 1.8864 2.4928 2.8896 1771.8 -0.0051402 242.49 0.20079 615.00 0.0016260 561.71 1044.4 1.8864 2.4928 2.8896 1771.8 -0.0051402 242.49 0.20079
203.38 43186. undefined 564.21 1048.4 1.8916 615.00 0.0016260 564.21 1048.4 1.8916 2.4968 2.8931 1772.8 -0.0051346 242.46 0.20102 615.00 0.0016260 564.21 1048.4 1.8916 2.4968 2.8931 1772.8 -0.0051346 242.46 0.20102
204.38 43320. undefined 566.71 1052.4 1.8969 615.00 0.0016260 566.71 1052.4 1.8969 2.5007 2.8965 1773.9 -0.0051290 242.43 0.20125 615.00 0.0016260 566.71 1052.4 1.8969 2.5007 2.8965 1773.9 -0.0051290 242.43 0.20125
205.38 43454. undefined 569.21 1056.4 1.9021 615.00 0.0016260 569.21 1056.4 1.9021 2.5046 2.9000 1774.9 -0.0051235 242.40 0.20149 615.00 0.0016260 569.21 1056.4 1.9021 2.5046 2.9000 1774.9 -0.0051235 242.40 0.20149
206.38 43588. undefined 571.72 1060.4 1.9073 615.00 0.0016260 571.72 1060.4 1.9073 2.5085 2.9034 1775.9 -0.0051180 242.37 0.20172 615.00 0.0016260 571.72 1060.4 1.9073 2.5085 2.9034 1775.9 -0.0051180 242.37 0.20172
207.38 43721. undefined 574.23 1064.4 1.9126 615.00 0.0016260 574.23 1064.4 1.9126 2.5124 2.9069 1777.0 -0.0051124 242.35 0.20196 615.00 0.0016260 574.23 1064.4 1.9126 2.5124 2.9069 1777.0 -0.0051124 242.35 0.20196
208.38 43855. undefined 576.74 1068.4 1.9178 615.00 0.0016260 576.74 1068.4 1.9178 2.5163 2.9103 1778.0 -0.0051069 242.32 0.20219 615.00 0.0016260 576.74 1068.4 1.9178 2.5163 2.9103 1778.0 -0.0051069 242.32 0.20219
209.38 43988. undefined 579.26 1072.4 1.9230 615.00 0.0016260 579.26 1072.4 1.9230 2.5202 2.9138 1779.0 -0.0051015 242.29 0.20243 615.00 0.0016260 579.26 1072.4 1.9230 2.5202 2.9138 1779.0 -0.0051015 242.29 0.20243
210.38 44121. undefined 581.78 1076.4 1.9283 615.00 0.0016260 581.78 1076.4 1.9283 2.5240 2.9172 1780.1 -0.0050960 242.26 0.20266 615.00 0.0016260 581.78 1076.4 1.9283 2.5240 2.9172 1780.1 -0.0050960 242.26 0.20266
211.38 44254. undefined 584.31 1080.4 1.9335 615.00 0.0016260 584.31 1080.4 1.9335 2.5279 2.9206 1781.1 -0.0050905 242.24 0.20290 615.00 0.0016260 584.31 1080.4 1.9335 2.5279 2.9206 1781.1 -0.0050905 242.24 0.20290
212.38 44387. undefined 586.84 1084.5 1.9387 615.00 0.0016260 586.84 1084.5 1.9387 2.5318 2.9241 1782.1 -0.0050851 242.21 0.20313 615.00 0.0016260 586.84 1084.5 1.9387 2.5318 2.9241 1782.1 -0.0050851 242.21 0.20313
213.38 44520. undefined 589.37 1088.5 1.9439 615.00 0.0016260 589.37 1088.5 1.9439 2.5357 2.9275 1783.2 -0.0050797 242.18 0.20337 615.00 0.0016260 589.37 1088.5 1.9439 2.5357 2.9275 1783.2 -0.0050797 242.18 0.20337
214.38 44653. undefined 591.91 1092.5 1.9491 615.00 0.0016260 591.91 1092.5 1.9491 2.5395 2.9309 1784.2 -0.0050743 242.16 0.20361 615.00 0.0016260 591.91 1092.5 1.9491 2.5395 2.9309 1784.2 -0.0050743 242.16 0.20361
215.38 44786. undefined 594.45 1096.5 1.9543 615.00 0.0016260 594.45 1096.5 1.9543 2.5434 2.9343 1785.2 -0.0050689 242.13 0.20384 615.00 0.0016260 594.45 1096.5 1.9543 2.5434 2.9343 1785.2 -0.0050689 242.13 0.20384
216.38 44918. undefined 597.00 1100.6 1.9595 615.00 0.0016260 597.00 1100.6 1.9595 2.5472 2.9377 1786.2 -0.0050635 242.11 0.20408 615.00 0.0016260 597.00 1100.6 1.9595 2.5472 2.9377 1786.2 -0.0050635 242.11 0.20408
217.38 45051. undefined 599.54 1104.6 1.9647 615.00 0.0016260 599.54 1104.6 1.9647 2.5511 2.9411 1787.3 -0.0050582 242.08 0.20432 615.00 0.0016260 599.54 1104.6 1.9647 2.5511 2.9411 1787.3 -0.0050582 242.08 0.20432
218.38 45183. undefined 602.10 1108.6 1.9699 615.00 0.0016260 602.10 1108.6 1.9699 2.5549 2.9445 1788.3 -0.0050528 242.06 0.20456 615.00 0.0016260 602.10 1108.6 1.9699 2.5549 2.9445 1788.3 -0.0050528 242.06 0.20456
219.38 45315. undefined 604.65 1112.7 1.9751 615.00 0.0016260 604.65 1112.7 1.9751 2.5587 2.9479 1789.3 -0.0050475 242.03 0.20480 615.00 0.0016260 604.65 1112.7 1.9751 2.5587 2.9479 1789.3 -0.0050475 242.03 0.20480
220.38 45447. undefined 607.22 1116.7 1.9803 615.00 0.0016260 607.22 1116.7 1.9803 2.5626 2.9513 1790.3 -0.0050422 242.01 0.20503 615.00 0.0016260 607.22 1116.7 1.9803 2.5626 2.9513 1790.3 -0.0050422 242.01 0.20503
221.38 45579. undefined 609.78 1120.8 1.9855 615.00 0.0016260 609.78 1120.8 1.9855 2.5664 2.9547 1791.3 -0.0050369 241.98 0.20527 615.00 0.0016260 609.78 1120.8 1.9855 2.5664 2.9547 1791.3 -0.0050369 241.98 0.20527
222.38 45711. undefined 612.35 1124.8 1.9907 615.00 0.0016260 612.35 1124.8 1.9907 2.5702 2.9581 1792.3 -0.0050316 241.96 0.20551 615.00 0.0016260 612.35 1124.8 1.9907 2.5702 2.9581 1792.3 -0.0050316 241.96 0.20551
223.38 45843. undefined 614.92 1128.9 1.9959 615.00 0.0016260 614.92 1128.9 1.9959 2.5740 2.9615 1793.4 -0.0050263 241.93 0.20575 615.00 0.0016260 614.92 1128.9 1.9959 2.5740 2.9615 1793.4 -0.0050263 241.93 0.20575
224.38 45975. undefined 617.50 1132.9 2.0011 615.00 0.0016260 617.50 1132.9 2.0011 2.5778 2.9649 1794.4 -0.0050211 241.91 0.20599 615.00 0.0016260 617.50 1132.9 2.0011 2.5778 2.9649 1794.4 -0.0050211 241.91 0.20599
225.38 46106. undefined 620.08 1137.0 2.0062 615.00 0.0016260 620.08 1137.0 2.0062 2.5816 2.9683 1795.4 -0.0050159 241.89 0.20623 615.00 0.0016260 620.08 1137.0 2.0062 2.5816 2.9683 1795.4 -0.0050159 241.89 0.20623
226.38 46238. undefined 622.66 1141.0 2.0114 615.00 0.0016260 622.66 1141.0 2.0114 2.5854 2.9717 1796.4 -0.0050106 241.86 0.20647 615.00 0.0016260 622.66 1141.0 2.0114 2.5854 2.9717 1796.4 -0.0050106 241.86 0.20647
227.38 46369. undefined 625.25 1145.1 2.0166 615.00 0.0016260 625.25 1145.1 2.0166 2.5892 2.9750 1797.4 -0.0050054 241.84 0.20671 615.00 0.0016260 625.25 1145.1 2.0166 2.5892 2.9750 1797.4 -0.0050054 241.84 0.20671
228.38 46501. undefined 627.84 1149.2 2.0218 615.00 0.0016260 627.84 1149.2 2.0218 2.5930 2.9784 1798.4 -0.0050003 241.82 0.20695 615.00 0.0016260 627.84 1149.2 2.0218 2.5930 2.9784 1798.4 -0.0050003 241.82 0.20695
229.38 46632. undefined 630.43 1153.2 2.0269 615.00 0.0016260 630.43 1153.2 2.0269 2.5968 2.9818 1799.4 -0.0049951 241.80 0.20719 615.00 0.0016260 630.43 1153.2 2.0269 2.5968 2.9818 1799.4 -0.0049951 241.80 0.20719
230.38 46763. undefined 633.03 1157.3 2.0321 615.00 0.0016260 633.03 1157.3 2.0321 2.6006 2.9851 1800.4 -0.0049899 241.77 0.20744 615.00 0.0016260 633.03 1157.3 2.0321 2.6006 2.9851 1800.4 -0.0049899 241.77 0.20744
231.38 46894. undefined 635.63 1161.4 2.0373 615.00 0.0016260 635.63 1161.4 2.0373 2.6043 2.9885 1801.4 -0.0049848 241.75 0.20768 615.00 0.0016260 635.63 1161.4 2.0373 2.6043 2.9885 1801.4 -0.0049848 241.75 0.20768
232.38 47025. undefined 638.24 1165.4 2.0424 615.00 0.0016260 638.24 1165.4 2.0424 2.6081 2.9918 1802.4 -0.0049797 241.73 0.20792 615.00 0.0016260 638.24 1165.4 2.0424 2.6081 2.9918 1802.4 -0.0049797 241.73 0.20792
233.38 47155. undefined 640.85 1169.5 2.0476 615.00 0.0016260 640.85 1169.5 2.0476 2.6119 2.9952 1803.4 -0.0049745 241.71 0.20816 615.00 0.0016260 640.85 1169.5 2.0476 2.6119 2.9952 1803.4 -0.0049745 241.71 0.20816
234.38 47286. undefined 643.46 1173.6 2.0527 615.00 0.0016260 643.46 1173.6 2.0527 2.6156 2.9985 1804.4 -0.0049694 241.69 0.20840 615.00 0.0016260 643.46 1173.6 2.0527 2.6156 2.9985 1804.4 -0.0049694 241.69 0.20840
235.38 47416. undefined 646.08 1177.7 2.0579 615.00 0.0016260 646.08 1177.7 2.0579 2.6194 3.0019 1805.4 -0.0049644 241.67 0.20865 615.00 0.0016260 646.08 1177.7 2.0579 2.6194 3.0019 1805.4 -0.0049644 241.67 0.20865
236.38 47547. undefined 648.70 1181.7 2.0630 615.00 0.0016260 648.70 1181.7 2.0630 2.6231 3.0052 1806.4 -0.0049593 241.65 0.20889 615.00 0.0016260 648.70 1181.7 2.0630 2.6231 3.0052 1806.4 -0.0049593 241.65 0.20889
237.38 47677. undefined 651.33 1185.8 2.0682 615.00 0.0016260 651.33 1185.8 2.0682 2.6269 3.0086 1807.4 -0.0049542 241.63 0.20913 615.00 0.0016260 651.33 1185.8 2.0682 2.6269 3.0086 1807.4 -0.0049542 241.63 0.20913
238.38 47807. undefined 653.96 1189.9 2.0733 615.00 0.0016260 653.96 1189.9 2.0733 2.6306 3.0119 1808.4 -0.0049492 241.60 0.20938 615.00 0.0016260 653.96 1189.9 2.0733 2.6306 3.0119 1808.4 -0.0049492 241.60 0.20938
239.38 47937. undefined 656.59 1194.0 2.0785 615.00 0.0016260 656.59 1194.0 2.0785 2.6343 3.0152 1809.4 -0.0049442 241.58 0.20962 615.00 0.0016260 656.59 1194.0 2.0785 2.6343 3.0152 1809.4 -0.0049442 241.58 0.20962
240.38 48067. undefined 659.22 1198.1 2.0836 615.00 0.0016260 659.22 1198.1 2.0836 2.6380 3.0185 1810.4 -0.0049392 241.56 0.20987 615.00 0.0016260 659.22 1198.1 2.0836 2.6380 3.0185 1810.4 -0.0049392 241.56 0.20987
241.38 48197. undefined 661.86 1202.2 2.0887 615.00 0.0016260 661.86 1202.2 2.0887 2.6418 3.0219 1811.4 -0.0049342 241.55 0.21011 615.00 0.0016260 661.86 1202.2 2.0887 2.6418 3.0219 1811.4 -0.0049342 241.55 0.21011
242.38 48327. undefined 664.51 1206.3 2.0939 615.00 0.0016260 664.51 1206.3 2.0939 2.6455 3.0252 1812.3 -0.0049292 241.53 0.21036 615.00 0.0016260 664.51 1206.3 2.0939 2.6455 3.0252 1812.3 -0.0049292 241.53 0.21036
243.38 48457. undefined 667.16 1210.4 2.0990 615.00 0.0016260 667.16 1210.4 2.0990 2.6492 3.0285 1813.3 -0.0049242 241.51 0.21060 615.00 0.0016260 667.16 1210.4 2.0990 2.6492 3.0285 1813.3 -0.0049242 241.51 0.21060
244.38 48586. undefined 669.81 1214.5 2.1041 615.00 0.0016260 669.81 1214.5 2.1041 2.6529 3.0318 1814.3 -0.0049193 241.49 0.21085 615.00 0.0016260 669.81 1214.5 2.1041 2.6529 3.0318 1814.3 -0.0049193 241.49 0.21085
245.38 48716. undefined 672.46 1218.6 2.1093 615.00 0.0016260 672.46 1218.6 2.1093 2.6566 3.0351 1815.3 -0.0049143 241.47 0.21109 615.00 0.0016260 672.46 1218.6 2.1093 2.6566 3.0351 1815.3 -0.0049143 241.47 0.21109
246.38 48845. undefined 675.12 1222.7 2.1144 615.00 0.0016260 675.12 1222.7 2.1144 2.6603 3.0384 1816.3 -0.0049094 241.45 0.21134 615.00 0.0016260 675.12 1222.7 2.1144 2.6603 3.0384 1816.3 -0.0049094 241.45 0.21134
247.38 48975. undefined 677.78 1226.8 2.1195 615.00 0.0016260 677.78 1226.8 2.1195 2.6640 3.0417 1817.3 -0.0049045 241.43 0.21158 615.00 0.0016260 677.78 1226.8 2.1195 2.6640 3.0417 1817.3 -0.0049045 241.43 0.21158
248.38 49104. undefined 680.45 1230.9 2.1246 615.00 0.0016260 680.45 1230.9 2.1246 2.6676 3.0450 1818.2 -0.0048996 241.41 0.21183 615.00 0.0016260 680.45 1230.9 2.1246 2.6676 3.0450 1818.2 -0.0048996 241.41 0.21183
249.38 49233. undefined 683.12 1235.1 2.1297 615.00 0.0016260 683.12 1235.1 2.1297 2.6713 3.0483 1819.2 -0.0048947 241.39 0.21208 615.00 0.0016260 683.12 1235.1 2.1297 2.6713 3.0483 1819.2 -0.0048947 241.39 0.21208
250.38 49362. undefined 685.79 1239.2 2.1348 615.00 0.0016260 685.79 1239.2 2.1348 2.6750 3.0516 1820.2 -0.0048899 241.38 0.21233 615.00 0.0016260 685.79 1239.2 2.1348 2.6750 3.0516 1820.2 -0.0048899 241.38 0.21233
251.38 49491. undefined 688.47 1243.3 2.1400 615.00 0.0016260 688.47 1243.3 2.1400 2.6787 3.0549 1821.2 -0.0048850 241.36 0.21257 615.00 0.0016260 688.47 1243.3 2.1400 2.6787 3.0549 1821.2 -0.0048850 241.36 0.21257
252.38 49619. undefined 691.15 1247.4 2.1451 615.00 0.0016260 691.15 1247.4 2.1451 2.6823 3.0582 1822.1 -0.0048802 241.34 0.21282 615.00 0.0016260 691.15 1247.4 2.1451 2.6823 3.0582 1822.1 -0.0048802 241.34 0.21282
253.38 49748. undefined 693.83 1251.6 2.1502 615.00 0.0016260 693.83 1251.6 2.1502 2.6860 3.0614 1823.1 -0.0048754 241.32 0.21307 615.00 0.0016260 693.83 1251.6 2.1502 2.6860 3.0614 1823.1 -0.0048754 241.32 0.21307
254.38 49877. undefined 696.52 1255.7 2.1553 615.00 0.0016260 696.52 1255.7 2.1553 2.6896 3.0647 1824.1 -0.0048706 241.31 0.21332 615.00 0.0016260 696.52 1255.7 2.1553 2.6896 3.0647 1824.1 -0.0048706 241.31 0.21332
255.38 50005. undefined 699.21 1259.8 2.1604 615.00 0.0016260 699.21 1259.8 2.1604 2.6933 3.0680 1825.1 -0.0048658 241.29 0.21357 615.00 0.0016260 699.21 1259.8 2.1604 2.6933 3.0680 1825.1 -0.0048658 241.29 0.21357
256.38 50134. undefined 701.91 1264.0 2.1655 615.00 0.0016260 701.91 1264.0 2.1655 2.6969 3.0712 1826.0 -0.0048610 241.27 0.21382 615.00 0.0016260 701.91 1264.0 2.1655 2.6969 3.0712 1826.0 -0.0048610 241.27 0.21382
257.38 50262. undefined 704.60 1268.1 2.1705 615.00 0.0016260 704.60 1268.1 2.1705 2.7005 3.0745 1827.0 -0.0048562 241.26 0.21406 615.00 0.0016260 704.60 1268.1 2.1705 2.7005 3.0745 1827.0 -0.0048562 241.26 0.21406
258.38 50390. undefined 707.31 1272.2 2.1756 615.00 0.0016260 707.31 1272.2 2.1756 2.7042 3.0777 1828.0 -0.0048515 241.24 0.21431 615.00 0.0016260 707.31 1272.2 2.1756 2.7042 3.0777 1828.0 -0.0048515 241.24 0.21431
259.38 50518. undefined 710.01 1276.4 2.1807 615.00 0.0016260 710.01 1276.4 2.1807 2.7078 3.0810 1828.9 -0.0048467 241.22 0.21456 615.00 0.0016260 710.01 1276.4 2.1807 2.7078 3.0810 1828.9 -0.0048467 241.22 0.21456
260.38 50646. undefined 712.72 1280.5 2.1858 615.00 0.0016260 712.72 1280.5 2.1858 2.7114 3.0842 1829.9 -0.0048420 241.21 0.21481 615.00 0.0016260 712.72 1280.5 2.1858 2.7114 3.0842 1829.9 -0.0048420 241.21 0.21481
261.38 50774. undefined 715.44 1284.7 2.1909 615.00 0.0016260 715.44 1284.7 2.1909 2.7150 3.0875 1830.9 -0.0048373 241.19 0.21506 615.00 0.0016260 715.44 1284.7 2.1909 2.7150 3.0875 1830.9 -0.0048373 241.19 0.21506
262.38 50902. undefined 718.15 1288.8 2.1960 615.00 0.0016260 718.15 1288.8 2.1960 2.7186 3.0907 1831.8 -0.0048326 241.18 0.21532 615.00 0.0016260 718.15 1288.8 2.1960 2.7186 3.0907 1831.8 -0.0048326 241.18 0.21532
263.38 51029. undefined 720.87 1293.0 2.2010 615.00 0.0016260 720.87 1293.0 2.2010 2.7222 3.0940 1832.8 -0.0048279 241.16 0.21557 615.00 0.0016260 720.87 1293.0 2.2010 2.7222 3.0940 1832.8 -0.0048279 241.16 0.21557
264.38 51157. undefined 723.60 1297.1 2.2061 615.00 0.0016260 723.60 1297.1 2.2061 2.7258 3.0972 1833.7 -0.0048233 241.15 0.21582 615.00 0.0016260 723.60 1297.1 2.2061 2.7258 3.0972 1833.7 -0.0048233 241.15 0.21582
265.38 51285. undefined 726.32 1301.3 2.2112 615.00 0.0016260 726.32 1301.3 2.2112 2.7294 3.1004 1834.7 -0.0048186 241.13 0.21607 615.00 0.0016260 726.32 1301.3 2.2112 2.7294 3.1004 1834.7 -0.0048186 241.13 0.21607
266.38 51412. undefined 729.06 1305.4 2.2162 615.00 0.0016260 729.06 1305.4 2.2162 2.7330 3.1037 1835.6 -0.0048140 241.12 0.21632 615.00 0.0016260 729.06 1305.4 2.2162 2.7330 3.1037 1835.6 -0.0048140 241.12 0.21632
267.38 51539. undefined 731.79 1309.6 2.2213 615.00 0.0016260 731.79 1309.6 2.2213 2.7366 3.1069 1836.6 -0.0048094 241.10 0.21657 615.00 0.0016260 731.79 1309.6 2.2213 2.7366 3.1069 1836.6 -0.0048094 241.10 0.21657
268.38 51666. undefined 734.53 1313.8 2.2264 615.00 0.0016260 734.53 1313.8 2.2264 2.7402 3.1101 1837.6 -0.0048047 241.09 0.21683 615.00 0.0016260 734.53 1313.8 2.2264 2.7402 3.1101 1837.6 -0.0048047 241.09 0.21683
269.38 51794. undefined 737.27 1317.9 2.2314 615.00 0.0016260 737.27 1317.9 2.2314 2.7437 3.1133 1838.5 -0.0048002 241.07 0.21708 615.00 0.0016260 737.27 1317.9 2.2314 2.7437 3.1133 1838.5 -0.0048002 241.07 0.21708
270.38 51921. undefined 740.02 1322.1 2.2365 615.00 0.0016260 740.02 1322.1 2.2365 2.7473 3.1165 1839.5 -0.0047956 241.06 0.21733 615.00 0.0016260 740.02 1322.1 2.2365 2.7473 3.1165 1839.5 -0.0047956 241.06 0.21733
271.38 52047. undefined 742.77 1326.3 2.2415 615.00 0.0016260 742.77 1326.3 2.2415 2.7509 3.1197 1840.4 -0.0047910 241.04 0.21759 615.00 0.0016260 742.77 1326.3 2.2415 2.7509 3.1197 1840.4 -0.0047910 241.04 0.21759
272.38 52174. undefined 745.52 1330.4 2.2466 615.00 0.0016260 745.52 1330.4 2.2466 2.7544 3.1229 1841.4 -0.0047864 241.03 0.21784 615.00 0.0016260 745.52 1330.4 2.2466 2.7544 3.1229 1841.4 -0.0047864 241.03 0.21784
273.38 52301. undefined 748.27 1334.6 2.2516 615.00 0.0016260 748.27 1334.6 2.2516 2.7580 3.1261 1842.3 -0.0047819 241.02 0.21809 615.00 0.0016260 748.27 1334.6 2.2516 2.7580 3.1261 1842.3 -0.0047819 241.02 0.21809
274.38 52428. undefined 751.03 1338.8 2.2567 615.00 0.0016260 751.03 1338.8 2.2567 2.7615 3.1293 1843.2 -0.0047774 241.00 0.21835 615.00 0.0016260 751.03 1338.8 2.2567 2.7615 3.1293 1843.2 -0.0047774 241.00 0.21835
275.38 52554. undefined 753.80 1343.0 2.2617 615.00 0.0016260 753.80 1343.0 2.2617 2.7650 3.1325 1844.2 -0.0047728 240.99 0.21860 615.00 0.0016260 753.80 1343.0 2.2617 2.7650 3.1325 1844.2 -0.0047728 240.99 0.21860
276.38 52681. undefined 756.56 1347.2 2.2668 615.00 0.0016260 756.56 1347.2 2.2668 2.7686 3.1357 1845.1 -0.0047683 240.98 0.21886 615.00 0.0016260 756.56 1347.2 2.2668 2.7686 3.1357 1845.1 -0.0047683 240.98 0.21886
277.38 52807. undefined 759.33 1351.4 2.2718 615.00 0.0016260 759.33 1351.4 2.2718 2.7721 3.1389 1846.1 -0.0047638 240.96 0.21911 615.00 0.0016260 759.33 1351.4 2.2718 2.7721 3.1389 1846.1 -0.0047638 240.96 0.21911
278.38 52933. undefined 762.11 1355.5 2.2768 615.00 0.0016260 762.11 1355.5 2.2768 2.7756 3.1420 1847.0 -0.0047594 240.95 0.21937 615.00 0.0016260 762.11 1355.5 2.2768 2.7756 3.1420 1847.0 -0.0047594 240.95 0.21937
279.38 53059. undefined 764.89 1359.7 2.2819 615.00 0.0016260 764.89 1359.7 2.2819 2.7792 3.1452 1848.0 -0.0047549 240.94 0.21962 615.00 0.0016260 764.89 1359.7 2.2819 2.7792 3.1452 1848.0 -0.0047549 240.94 0.21962
280.38 53186. undefined 767.67 1363.9 2.2869 615.00 0.0016260 767.67 1363.9 2.2869 2.7827 3.1484 1848.9 -0.0047505 240.93 0.21988 615.00 0.0016260 767.67 1363.9 2.2869 2.7827 3.1484 1848.9 -0.0047505 240.93 0.21988
281.38 53311. undefined 770.45 1368.1 2.2919 615.00 0.0016260 770.45 1368.1 2.2919 2.7862 3.1516 1849.8 -0.0047460 240.91 0.22014 615.00 0.0016260 770.45 1368.1 2.2919 2.7862 3.1516 1849.8 -0.0047460 240.91 0.22014
282.38 53437. undefined 773.24 1372.3 2.2969 615.00 0.0016260 773.24 1372.3 2.2969 2.7897 3.1547 1850.8 -0.0047416 240.90 0.22022 615.00 0.0016260 773.24 1372.3 2.2969 2.7897 3.1547 1850.8 -0.0047416 240.90 0.22022
283.38 53563. undefined 776.03 1376.5 2.3020 615.00 0.0016260 776.03 1376.5 2.3020 2.7932 3.1579 1851.7 -0.0047372 240.89 0.22048 615.00 0.0016260 776.03 1376.5 2.3020 2.7932 3.1579 1851.7 -0.0047372 240.89 0.22048
284.38 53689. undefined 778.83 1380.7 2.3070 615.00 0.0016260 778.83 1380.7 2.3070 2.7967 3.1610 1852.6 -0.0047328 240.88 0.22073 615.00 0.0016260 778.83 1380.7 2.3070 2.7967 3.1610 1852.6 -0.0047328 240.88 0.22073
285.38 53814. undefined 781.62 1384.9 2.3120 615.00 0.0016260 781.62 1384.9 2.3120 2.8002 3.1642 1853.6 -0.0047284 240.87 0.22099 615.00 0.0016260 781.62 1384.9 2.3120 2.8002 3.1642 1853.6 -0.0047284 240.87 0.22099
286.38 53940. undefined 784.43 1389.1 2.3170 615.00 0.0016260 784.43 1389.1 2.3170 2.8036 3.1673 1854.5 -0.0047240 240.85 0.22125 615.00 0.0016260 784.43 1389.1 2.3170 2.8036 3.1673 1854.5 -0.0047240 240.85 0.22125
287.38 54065. undefined 787.23 1393.4 2.3220 615.00 0.0016260 787.23 1393.4 2.3220 2.8071 3.1705 1855.4 -0.0047197 240.84 0.22151 615.00 0.0016260 787.23 1393.4 2.3220 2.8071 3.1705 1855.4 -0.0047197 240.84 0.22151
288.38 54191. undefined 790.04 1397.6 2.3270 615.00 0.0016260 790.04 1397.6 2.3270 2.8106 3.1736 1856.4 -0.0047153 240.83 0.22176 615.00 0.0016260 790.04 1397.6 2.3270 2.8106 3.1736 1856.4 -0.0047153 240.83 0.22176
289.38 54316. undefined 792.85 1401.8 2.3320 615.00 0.0016260 792.85 1401.8 2.3320 2.8141 3.1767 1857.3 -0.0047110 240.82 0.22202 615.00 0.0016260 792.85 1401.8 2.3320 2.8141 3.1767 1857.3 -0.0047110 240.82 0.22202
290.38 54441. undefined 795.67 1406.0 2.3370 615.00 0.0016260 795.67 1406.0 2.3370 2.8175 3.1799 1858.2 -0.0047066 240.81 0.22228 615.00 0.0016260 795.67 1406.0 2.3370 2.8175 3.1799 1858.2 -0.0047066 240.81 0.22228
291.38 54566. undefined 798.49 1410.2 2.3420 615.00 0.0016260 798.49 1410.2 2.3420 2.8210 3.1830 1859.2 -0.0047023 240.80 0.22254 615.00 0.0016260 798.49 1410.2 2.3420 2.8210 3.1830 1859.2 -0.0047023 240.80 0.22254
292.38 54691. undefined 801.31 1414.5 2.3470 615.00 0.0016260 801.31 1414.5 2.3470 2.8244 3.1861 1860.1 -0.0046980 240.79 0.22280 615.00 0.0016260 801.31 1414.5 2.3470 2.8244 3.1861 1860.1 -0.0046980 240.79 0.22280
293.38 54816. undefined 804.14 1418.7 2.3520 615.00 0.0016260 804.14 1418.7 2.3520 2.8279 3.1892 1861.0 -0.0046937 240.78 0.22306 615.00 0.0016260 804.14 1418.7 2.3520 2.8279 3.1892 1861.0 -0.0046937 240.78 0.22306
294.38 54941. undefined 806.97 1422.9 2.3570 615.00 0.0016260 806.97 1422.9 2.3570 2.8313 3.1924 1861.9 -0.0046895 240.77 0.22332 615.00 0.0016260 806.97 1422.9 2.3570 2.8313 3.1924 1861.9 -0.0046895 240.77 0.22332
295.38 55066. undefined 809.80 1427.1 2.3620 615.00 0.0016260 809.80 1427.1 2.3620 2.8348 3.1955 1862.9 -0.0046852 240.75 0.22358 615.00 0.0016260 809.80 1427.1 2.3620 2.8348 3.1955 1862.9 -0.0046852 240.75 0.22358
296.38 55190. undefined 812.64 1431.4 2.3670 615.00 0.0016260 812.64 1431.4 2.3670 2.8382 3.1986 1863.8 -0.0046810 240.74 0.22384 615.00 0.0016260 812.64 1431.4 2.3670 2.8382 3.1986 1863.8 -0.0046810 240.74 0.22384
297.38 55315. undefined 815.48 1435.6 2.3720 615.00 0.0016260 815.48 1435.6 2.3720 2.8416 3.2017 1864.7 -0.0046767 240.73 0.22410 615.00 0.0016260 815.48 1435.6 2.3720 2.8416 3.2017 1864.7 -0.0046767 240.73 0.22410
298.38 55439. undefined 818.32 1439.8 2.3769 615.00 0.0016260 818.32 1439.8 2.3769 2.8451 3.2048 1865.6 -0.0046725 240.72 0.22436 615.00 0.0016260 818.32 1439.8 2.3769 2.8451 3.2048 1865.6 -0.0046725 240.72 0.22436
299.38 55564. undefined 821.17 1444.1 2.3819 615.00 0.0016260 821.17 1444.1 2.3819 2.8485 3.2079 1866.5 -0.0046683 240.71 0.22462 615.00 0.0016260 821.17 1444.1 2.3819 2.8485 3.2079 1866.5 -0.0046683 240.71 0.22462
300.38 55688. undefined 824.02 1448.3 2.3869 615.00 0.0016260 824.02 1448.3 2.3869 2.8519 3.2110 1867.4 -0.0046641 240.71 0.22488 615.00 0.0016260 824.02 1448.3 2.3869 2.8519 3.2110 1867.4 -0.0046641 240.71 0.22488