Temperature (C) Pressure (psia) Quality (l+v) Internal Energy (l+v, kJ/kg) Enthalpy (l+v, kJ/kg) Entropy (l+v, J/g*K) Density (l, kg/m3) Volume (l, m3/kg) Internal Energy (l, kJ/kg) Enthalpy (l, kJ/kg) Entropy (l, J/g*K) Cv (l, J/g*K) Cp (l, J/g*K) Sound Spd. (l, m/s) Joule-Thomson (l, F/psia) Viscosity (l, uPa*s) Therm. Cond. (l, W/m*K) Density (v, kg/m3) Volume (v, m3/kg) Internal Energy (v, kJ/kg) Enthalpy (v, kJ/kg) Entropy (v, J/g*K) Cv (v, J/g*K) Cp (v, J/g*K) Sound Spd. (v, m/s) Joule-Thomson (v, F/psia) Viscosity (v, uPa*s) Therm. Cond. (v, W/m*K)
-187.62 2.4953e-08 2.6528e-13 -196.64 -196.64 -1.3959 733.13 0.0013640 -196.64 -196.64 -1.3959 1.3553 1.9158 2136.4 -0.0077592 10960. 0.20792 1.0669e-08 9.3732e+07 350.13 366.26 5.1858 0.69067 0.87923 143.28 6.1051 2.3259 0.0017061
-186.62 3.7339e-08 3.6169e-13 -194.73 -194.73 -1.3736 732.08 0.0013660 -194.73 -194.73 -1.3736 1.3539 1.9166 2129.6 -0.0077546 10073. 0.20765 1.5780e-08 6.3371e+07 350.82 367.14 5.1200 0.69462 0.88317 144.03 5.9178 2.3534 0.0017533
-185.62 5.5322e-08 4.8473e-13 -192.81 -192.81 -1.3516 731.04 0.0013679 -192.81 -192.81 -1.3516 1.3525 1.9174 2122.9 -0.0077498 9276.1 0.20737 2.3112e-08 4.3267e+07 351.52 368.02 5.0561 0.69857 0.88713 144.77 5.7383 2.3808 0.0018007
-184.62 8.1182e-08 6.3789e-13 -190.89 -190.89 -1.3298 730.00 0.0013699 -190.89 -190.89 -1.3298 1.3513 1.9182 2116.1 -0.0077448 8557.8 0.20708 3.3533e-08 2.9821e+07 352.22 368.91 4.9939 0.70253 0.89108 145.51 5.5662 2.4083 0.0018485
-183.62 1.1803e-07 8.2291e-13 -188.97 -188.97 -1.3083 728.96 0.0013718 -188.97 -188.97 -1.3083 1.3501 1.9191 2109.3 -0.0077395 7909.8 0.20678 4.8211e-08 2.0742e+07 352.92 369.81 4.9333 0.70648 0.89504 146.24 5.4011 2.4357 0.0018965
-182.62 1.7009e-07 1.0383e-12 -187.05 -187.05 -1.2869 727.92 0.0013738 -187.05 -187.05 -1.2869 1.3490 1.9201 2102.5 -0.0077340 7324.3 0.20647 6.8704e-08 1.4555e+07 353.63 370.70 4.8744 0.71043 0.89899 146.97 5.2426 2.4632 0.0019448
-181.62 2.4299e-07 1.2769e-12 -185.13 -185.13 -1.2658 726.88 0.0013757 -185.13 -185.13 -1.2658 1.3480 1.9210 2095.7 -0.0077283 6794.5 0.20616 9.7079e-08 1.0301e+07 354.35 371.60 4.8170 0.71438 0.90294 147.69 5.0904 2.4906 0.0019934
-180.62 3.4425e-07 1.5225e-12 -183.21 -183.21 -1.2450 725.85 0.0013777 -183.21 -183.21 -1.2450 1.3470 1.9220 2088.9 -0.0077225 6314.4 0.20584 1.3605e-07 7.3504e+06 355.06 372.51 4.7612 0.71833 0.90688 148.41 4.9442 2.5181 0.0020423
-179.62 4.8378e-07 1.7450e-12 -181.29 -181.29 -1.2243 724.81 0.0013797 -181.29 -181.29 -1.2243 1.3461 1.9231 2082.0 -0.0077164 5878.8 0.20551 1.8915e-07 5.2868e+06 355.78 373.42 4.7068 0.72227 0.91082 149.13 4.8038 2.5456 0.0020915
-178.62 6.7459e-07 1.8937e-12 -179.37 -179.37 -1.2038 723.78 0.0013816 -179.37 -179.37 -1.2038 1.3453 1.9241 2075.2 -0.0077102 5482.9 0.20517 2.6096e-07 3.8320e+06 356.51 374.33 4.6538 0.72620 0.91475 149.84 4.6688 2.5731 0.0021410
-177.62 9.3358e-07 1.8886e-12 -177.44 -177.44 -1.1836 722.75 0.0013836 -177.44 -177.44 -1.1836 1.3445 1.9252 2068.4 -0.0077039 5122.6 0.20483 3.5737e-07 2.7982e+06 357.23 375.25 4.6022 0.73012 0.91867 150.54 4.5390 2.6005 0.0021907
-176.62 1.2826e-06 1.6080e-12 -175.52 -175.52 -1.1635 721.72 0.0013856 -175.52 -175.52 -1.1635 1.3437 1.9263 2061.5 -0.0076973 4794.1 0.20447 4.8588e-07 2.0581e+06 357.97 376.17 4.5519 0.73403 0.92258 151.25 4.4142 2.6280 0.0022408
-175.62 1.7496e-06 8.7293e-13 -173.59 -173.59 -1.1437 720.69 0.0013876 -173.59 -173.59 -1.1437 1.3430 1.9274 2054.7 -0.0076907 4494.3 0.20411 6.5601e-07 1.5244e+06 358.70 377.09 4.5029 0.73792 0.92648 151.95 4.2941 2.6555 0.0022912
-174.62 143.22 undefined -171.85 -170.48 -1.1260 720.00 0.0013889 -171.85 -170.48 -1.1260 1.3432 1.9283 2051.1 -0.0076854 4262.1 0.20400 720.00 0.0013889 -171.85 -170.48 -1.1260 1.3432 1.9283 2051.1 -0.0076854 4262.1 0.20400
-173.62 577.86 undefined -170.51 -164.97 -1.1124 720.00 0.0013889 -170.51 -164.97 -1.1124 1.3452 1.9284 2054.0 -0.0076832 4128.6 0.20439 720.00 0.0013889 -170.51 -164.97 -1.1124 1.3452 1.9284 2054.0 -0.0076832 4128.6 0.20439
-172.62 1010.6 undefined -169.16 -159.49 -1.0989 720.00 0.0013889 -169.16 -159.49 -1.0989 1.3472 1.9286 2057.0 -0.0076809 4002.6 0.20478 720.00 0.0013889 -169.16 -159.49 -1.0989 1.3472 1.9286 2057.0 -0.0076809 4002.6 0.20478
-171.62 1441.4 undefined -167.81 -154.01 -1.0856 720.00 0.0013889 -167.81 -154.01 -1.0856 1.3492 1.9288 2059.9 -0.0076785 3883.4 0.20517 720.00 0.0013889 -167.81 -154.01 -1.0856 1.3492 1.9288 2059.9 -0.0076785 3883.4 0.20517
-170.62 1870.3 undefined -166.46 -148.55 -1.0723 720.00 0.0013889 -166.46 -148.55 -1.0723 1.3512 1.9290 2062.9 -0.0076760 3770.6 0.20556 720.00 0.0013889 -166.46 -148.55 -1.0723 1.3512 1.9290 2062.9 -0.0076760 3770.6 0.20556
-169.62 2297.4 undefined -165.11 -143.11 -1.0592 720.00 0.0013889 -165.11 -143.11 -1.0592 1.3532 1.9292 2065.8 -0.0076735 3663.8 0.20595 720.00 0.0013889 -165.11 -143.11 -1.0592 1.3532 1.9292 2065.8 -0.0076735 3663.8 0.20595
-168.62 2722.7 undefined -163.76 -137.69 -1.0462 720.00 0.0013889 -163.76 -137.69 -1.0462 1.3552 1.9295 2068.7 -0.0076709 3562.5 0.20634 720.00 0.0013889 -163.76 -137.69 -1.0462 1.3552 1.9295 2068.7 -0.0076709 3562.5 0.20634
-167.62 3146.1 undefined -162.40 -132.27 -1.0333 720.00 0.0013889 -162.40 -132.27 -1.0333 1.3572 1.9298 2071.7 -0.0076683 3466.4 0.20674 720.00 0.0013889 -162.40 -132.27 -1.0333 1.3572 1.9298 2071.7 -0.0076683 3466.4 0.20674
-166.62 3567.9 undefined -161.04 -126.88 -1.0205 720.00 0.0013889 -161.04 -126.88 -1.0205 1.3592 1.9301 2074.6 -0.0076656 3375.1 0.20713 720.00 0.0013889 -161.04 -126.88 -1.0205 1.3592 1.9301 2074.6 -0.0076656 3375.1 0.20713
-165.62 3987.9 undefined -159.68 -121.49 -1.0078 720.00 0.0013889 -159.68 -121.49 -1.0078 1.3612 1.9304 2077.5 -0.0076629 3288.3 0.20752 720.00 0.0013889 -159.68 -121.49 -1.0078 1.3612 1.9304 2077.5 -0.0076629 3288.3 0.20752
-164.62 4406.2 undefined -158.32 -116.13 -0.99516 720.00 0.0013889 -158.32 -116.13 -0.99516 1.3632 1.9308 2080.4 -0.0076601 3205.8 0.20791 720.00 0.0013889 -158.32 -116.13 -0.99516 1.3632 1.9308 2080.4 -0.0076601 3205.8 0.20791
-163.62 4822.8 undefined -156.96 -110.77 -0.98264 720.00 0.0013889 -156.96 -110.77 -0.98264 1.3652 1.9311 2083.3 -0.0076573 3127.3 0.20831 720.00 0.0013889 -156.96 -110.77 -0.98264 1.3652 1.9311 2083.3 -0.0076573 3127.3 0.20831
-162.62 5237.8 undefined -155.59 -105.43 -0.97023 720.00 0.0013889 -155.59 -105.43 -0.97023 1.3672 1.9315 2086.2 -0.0076545 3052.4 0.20870 720.00 0.0013889 -155.59 -105.43 -0.97023 1.3672 1.9315 2086.2 -0.0076545 3052.4 0.20870
-161.62 5651.1 undefined -154.22 -100.11 -0.95790 720.00 0.0013889 -154.22 -100.11 -0.95790 1.3692 1.9319 2089.0 -0.0076516 2981.0 0.20909 720.00 0.0013889 -154.22 -100.11 -0.95790 1.3692 1.9319 2089.0 -0.0076516 2981.0 0.20909
-160.62 6062.8 undefined -152.85 -94.794 -0.94567 720.00 0.0013889 -152.85 -94.794 -0.94567 1.3713 1.9323 2091.9 -0.0076487 2913.0 0.20949 720.00 0.0013889 -152.85 -94.794 -0.94567 1.3713 1.9323 2091.9 -0.0076487 2913.0 0.20949
-159.62 6472.9 undefined -151.48 -89.495 -0.93353 720.00 0.0013889 -151.48 -89.495 -0.93353 1.3733 1.9327 2094.7 -0.0076458 2847.9 0.20988 720.00 0.0013889 -151.48 -89.495 -0.93353 1.3733 1.9327 2094.7 -0.0076458 2847.9 0.20988
-158.62 6881.4 undefined -150.11 -84.208 -0.92148 720.00 0.0013889 -150.11 -84.208 -0.92148 1.3753 1.9331 2097.5 -0.0076428 2785.8 0.21028 720.00 0.0013889 -150.11 -84.208 -0.92148 1.3753 1.9331 2097.5 -0.0076428 2785.8 0.21028
-157.62 7288.4 undefined -148.73 -78.935 -0.90951 720.00 0.0013889 -148.73 -78.935 -0.90951 1.3773 1.9335 2100.3 -0.0076399 2726.4 0.21067 720.00 0.0013889 -148.73 -78.935 -0.90951 1.3773 1.9335 2100.3 -0.0076399 2726.4 0.21067
-156.62 7693.8 undefined -147.35 -73.675 -0.89763 720.00 0.0013889 -147.35 -73.675 -0.89763 1.3793 1.9340 2103.0 -0.0076369 2669.5 0.21107 720.00 0.0013889 -147.35 -73.675 -0.89763 1.3793 1.9340 2103.0 -0.0076369 2669.5 0.21107
-155.62 8097.7 undefined -145.97 -68.427 -0.88584 720.00 0.0013889 -145.97 -68.427 -0.88584 1.3813 1.9344 2105.8 -0.0076339 2615.0 0.21146 720.00 0.0013889 -145.97 -68.427 -0.88584 1.3813 1.9344 2105.8 -0.0076339 2615.0 0.21146
-154.62 8500.0 undefined -144.59 -63.191 -0.87413 720.00 0.0013889 -144.59 -63.191 -0.87413 1.3833 1.9349 2108.5 -0.0076309 2562.9 0.21186 720.00 0.0013889 -144.59 -63.191 -0.87413 1.3833 1.9349 2108.5 -0.0076309 2562.9 0.21186
-153.62 8900.9 undefined -143.20 -57.968 -0.86250 720.00 0.0013889 -143.20 -57.968 -0.86250 1.3853 1.9353 2111.2 -0.0076279 2512.8 0.21225 720.00 0.0013889 -143.20 -57.968 -0.86250 1.3853 1.9353 2111.2 -0.0076279 2512.8 0.21225
-152.62 9300.3 undefined -141.82 -52.757 -0.85095 720.00 0.0013889 -141.82 -52.757 -0.85095 1.3873 1.9358 2113.9 -0.0076249 2464.8 0.21265 720.00 0.0013889 -141.82 -52.757 -0.85095 1.3873 1.9358 2113.9 -0.0076249 2464.8 0.21265
-151.62 9698.2 undefined -140.43 -47.558 -0.83947 720.00 0.0013889 -140.43 -47.558 -0.83947 1.3893 1.9363 2116.6 -0.0076218 2418.7 0.21305 720.00 0.0013889 -140.43 -47.558 -0.83947 1.3893 1.9363 2116.6 -0.0076218 2418.7 0.21305
-150.62 10095. undefined -139.04 -42.371 -0.82808 720.00 0.0013889 -139.04 -42.371 -0.82808 1.3913 1.9368 2119.2 -0.0076188 2374.5 0.21344 720.00 0.0013889 -139.04 -42.371 -0.82808 1.3913 1.9368 2119.2 -0.0076188 2374.5 0.21344
-149.62 10490. undefined -137.65 -37.196 -0.81676 720.00 0.0013889 -137.65 -37.196 -0.81676 1.3933 1.9373 2121.9 -0.0076157 2331.9 0.21384 720.00 0.0013889 -137.65 -37.196 -0.81676 1.3933 1.9373 2121.9 -0.0076157 2331.9 0.21384
-148.62 10883. undefined -136.25 -32.032 -0.80552 720.00 0.0013889 -136.25 -32.032 -0.80552 1.3953 1.9378 2124.5 -0.0076126 2291.0 0.21424 720.00 0.0013889 -136.25 -32.032 -0.80552 1.3953 1.9378 2124.5 -0.0076126 2291.0 0.21424
-147.62 11276. undefined -134.86 -26.879 -0.79435 720.00 0.0013889 -134.86 -26.879 -0.79435 1.3974 1.9383 2127.1 -0.0076095 2251.6 0.21464 720.00 0.0013889 -134.86 -26.879 -0.79435 1.3974 1.9383 2127.1 -0.0076095 2251.6 0.21464
-146.62 11666. undefined -133.46 -21.738 -0.78326 720.00 0.0013889 -133.46 -21.738 -0.78326 1.3994 1.9389 2129.6 -0.0076064 2213.7 0.21503 720.00 0.0013889 -133.46 -21.738 -0.78326 1.3994 1.9389 2129.6 -0.0076064 2213.7 0.21503
-145.62 12056. undefined -132.06 -16.609 -0.77223 720.00 0.0013889 -132.06 -16.609 -0.77223 1.4014 1.9394 2132.2 -0.0076032 2177.1 0.21543 720.00 0.0013889 -132.06 -16.609 -0.77223 1.4014 1.9394 2132.2 -0.0076032 2177.1 0.21543
-144.62 12444. undefined -130.65 -11.490 -0.76128 720.00 0.0013889 -130.65 -11.490 -0.76128 1.4034 1.9400 2134.7 -0.0076001 2141.9 0.21583 720.00 0.0013889 -130.65 -11.490 -0.76128 1.4034 1.9400 2134.7 -0.0076001 2141.9 0.21583
-143.62 12831. undefined -129.25 -6.3822 -0.75039 720.00 0.0013889 -129.25 -6.3822 -0.75039 1.4054 1.9405 2137.2 -0.0075969 2107.9 0.21623 720.00 0.0013889 -129.25 -6.3822 -0.75039 1.4054 1.9405 2137.2 -0.0075969 2107.9 0.21623
-142.62 13216. undefined -127.84 -1.2853 -0.73958 720.00 0.0013889 -127.84 -1.2853 -0.73958 1.4074 1.9411 2139.7 -0.0075937 2075.1 0.21663 720.00 0.0013889 -127.84 -1.2853 -0.73958 1.4074 1.9411 2139.7 -0.0075937 2075.1 0.21663
-141.62 13600. undefined -126.44 3.8009 -0.72883 720.00 0.0013889 -126.44 3.8009 -0.72883 1.4094 1.9416 2142.2 -0.0075905 2043.5 0.21703 720.00 0.0013889 -126.44 3.8009 -0.72883 1.4094 1.9416 2142.2 -0.0075905 2043.5 0.21703
-140.62 13983. undefined -125.03 8.8764 -0.71814 720.00 0.0013889 -125.03 8.8764 -0.71814 1.4114 1.9422 2144.6 -0.0075873 2012.9 0.21743 720.00 0.0013889 -125.03 8.8764 -0.71814 1.4114 1.9422 2144.6 -0.0075873 2012.9 0.21743
-139.62 14364. undefined -123.61 13.942 -0.70753 720.00 0.0013889 -123.61 13.942 -0.70753 1.4134 1.9428 2147.1 -0.0075841 1983.4 0.21783 720.00 0.0013889 -123.61 13.942 -0.70753 1.4134 1.9428 2147.1 -0.0075841 1983.4 0.21783
-138.62 14745. undefined -122.20 18.996 -0.69697 720.00 0.0013889 -122.20 18.996 -0.69697 1.4154 1.9434 2149.5 -0.0075809 1954.8 0.21823 720.00 0.0013889 -122.20 18.996 -0.69697 1.4154 1.9434 2149.5 -0.0075809 1954.8 0.21823
-137.62 15123. undefined -120.78 24.041 -0.68648 720.00 0.0013889 -120.78 24.041 -0.68648 1.4174 1.9440 2151.9 -0.0075776 1927.2 0.21863 720.00 0.0013889 -120.78 24.041 -0.68648 1.4174 1.9440 2151.9 -0.0075776 1927.2 0.21863
-136.62 15501. undefined -119.36 29.075 -0.67606 720.00 0.0013889 -119.36 29.075 -0.67606 1.4195 1.9446 2154.2 -0.0075743 1900.5 0.21903 720.00 0.0013889 -119.36 29.075 -0.67606 1.4195 1.9446 2154.2 -0.0075743 1900.5 0.21903
-135.62 15877. undefined -117.94 34.099 -0.66569 720.00 0.0013889 -117.94 34.099 -0.66569 1.4215 1.9453 2156.6 -0.0075710 1874.6 0.21943 720.00 0.0013889 -117.94 34.099 -0.66569 1.4215 1.9453 2156.6 -0.0075710 1874.6 0.21943
-134.62 16252. undefined -116.52 39.113 -0.65538 720.00 0.0013889 -116.52 39.113 -0.65538 1.4235 1.9459 2158.9 -0.0075676 1849.5 0.21983 720.00 0.0013889 -116.52 39.113 -0.65538 1.4235 1.9459 2158.9 -0.0075676 1849.5 0.21983
-133.62 16626. undefined -115.10 44.118 -0.64514 720.00 0.0013889 -115.10 44.118 -0.64514 1.4255 1.9465 2161.2 -0.0075643 1825.2 0.22024 720.00 0.0013889 -115.10 44.118 -0.64514 1.4255 1.9465 2161.2 -0.0075643 1825.2 0.22024
-132.62 16999. undefined -113.67 49.112 -0.63495 720.00 0.0013889 -113.67 49.112 -0.63495 1.4275 1.9472 2163.5 -0.0075609 1801.6 0.22064 720.00 0.0013889 -113.67 49.112 -0.63495 1.4275 1.9472 2163.5 -0.0075609 1801.6 0.22064
-131.62 17370. undefined -112.24 54.097 -0.62482 720.00 0.0013889 -112.24 54.097 -0.62482 1.4296 1.9479 2165.8 -0.0075575 1778.8 0.22104 720.00 0.0013889 -112.24 54.097 -0.62482 1.4296 1.9479 2165.8 -0.0075575 1778.8 0.22104
-130.62 17740. undefined -110.81 59.073 -0.61475 720.00 0.0013889 -110.81 59.073 -0.61475 1.4316 1.9485 2168.0 -0.0075540 1756.6 0.22144 720.00 0.0013889 -110.81 59.073 -0.61475 1.4316 1.9485 2168.0 -0.0075540 1756.6 0.22144
-129.62 18109. undefined -109.38 64.039 -0.60473 720.00 0.0013889 -109.38 64.039 -0.60473 1.4336 1.9492 2170.3 -0.0075505 1735.1 0.22185 720.00 0.0013889 -109.38 64.039 -0.60473 1.4336 1.9492 2170.3 -0.0075505 1735.1 0.22185
-128.62 18477. undefined -107.94 68.995 -0.59477 720.00 0.0013889 -107.94 68.995 -0.59477 1.4357 1.9499 2172.5 -0.0075470 1714.2 0.22225 720.00 0.0013889 -107.94 68.995 -0.59477 1.4357 1.9499 2172.5 -0.0075470 1714.2 0.22225
-127.62 18844. undefined -106.51 73.943 -0.58486 720.00 0.0013889 -106.51 73.943 -0.58486 1.4377 1.9506 2174.7 -0.0075435 1694.0 0.22265 720.00 0.0013889 -106.51 73.943 -0.58486 1.4377 1.9506 2174.7 -0.0075435 1694.0 0.22265
-126.62 19209. undefined -105.07 78.881 -0.57501 720.00 0.0013889 -105.07 78.881 -0.57501 1.4398 1.9514 2176.9 -0.0075399 1674.2 0.22306 720.00 0.0013889 -105.07 78.881 -0.57501 1.4398 1.9514 2176.9 -0.0075399 1674.2 0.22306
-125.62 19573. undefined -103.63 83.810 -0.56521 720.00 0.0013889 -103.63 83.810 -0.56521 1.4418 1.9521 2179.0 -0.0075363 1655.1 0.22346 720.00 0.0013889 -103.63 83.810 -0.56521 1.4418 1.9521 2179.0 -0.0075363 1655.1 0.22346
-124.62 19937. undefined -102.18 88.730 -0.55546 720.00 0.0013889 -102.18 88.730 -0.55546 1.4439 1.9528 2181.2 -0.0075327 1636.5 0.22387 720.00 0.0013889 -102.18 88.730 -0.55546 1.4439 1.9528 2181.2 -0.0075327 1636.5 0.22387
-123.62 20299. undefined -100.74 93.641 -0.54577 720.00 0.0013889 -100.74 93.641 -0.54577 1.4460 1.9536 2183.3 -0.0075290 1618.3 0.22427 720.00 0.0013889 -100.74 93.641 -0.54577 1.4460 1.9536 2183.3 -0.0075290 1618.3 0.22427
-122.62 20659. undefined -99.292 98.544 -0.53612 720.00 0.0013889 -99.292 98.544 -0.53612 1.4480 1.9544 2185.4 -0.0075253 1600.7 0.22468 720.00 0.0013889 -99.292 98.544 -0.53612 1.4480 1.9544 2185.4 -0.0075253 1600.7 0.22468
-121.62 21019. undefined -97.843 103.44 -0.52653 720.00 0.0013889 -97.843 103.44 -0.52653 1.4501 1.9552 2187.5 -0.0075215 1583.5 0.22508 720.00 0.0013889 -97.843 103.44 -0.52653 1.4501 1.9552 2187.5 -0.0075215 1583.5 0.22508
-120.62 21378. undefined -96.392 108.32 -0.51698 720.00 0.0013889 -96.392 108.32 -0.51698 1.4522 1.9560 2189.6 -0.0075177 1566.8 0.22549 720.00 0.0013889 -96.392 108.32 -0.51698 1.4522 1.9560 2189.6 -0.0075177 1566.8 0.22549
-119.62 21735. undefined -94.938 113.20 -0.50748 720.00 0.0013889 -94.938 113.20 -0.50748 1.4543 1.9568 2191.6 -0.0075139 1550.6 0.22589 720.00 0.0013889 -94.938 113.20 -0.50748 1.4543 1.9568 2191.6 -0.0075139 1550.6 0.22589
-118.62 22092. undefined -93.483 118.07 -0.49803 720.00 0.0013889 -93.483 118.07 -0.49803 1.4564 1.9576 2193.7 -0.0075100 1534.7 0.22630 720.00 0.0013889 -93.483 118.07 -0.49803 1.4564 1.9576 2193.7 -0.0075100 1534.7 0.22630
-117.62 22447. undefined -92.026 122.93 -0.48863 720.00 0.0013889 -92.026 122.93 -0.48863 1.4585 1.9584 2195.7 -0.0075061 1519.3 0.22671 720.00 0.0013889 -92.026 122.93 -0.48863 1.4585 1.9584 2195.7 -0.0075061 1519.3 0.22671
-116.62 22801. undefined -90.566 127.78 -0.47928 720.00 0.0013889 -90.566 127.78 -0.47928 1.4606 1.9593 2197.7 -0.0075021 1504.2 0.22711 720.00 0.0013889 -90.566 127.78 -0.47928 1.4606 1.9593 2197.7 -0.0075021 1504.2 0.22711
-115.62 23154. undefined -89.104 132.62 -0.46997 720.00 0.0013889 -89.104 132.62 -0.46997 1.4627 1.9602 2199.7 -0.0074981 1489.5 0.22752 720.00 0.0013889 -89.104 132.62 -0.46997 1.4627 1.9602 2199.7 -0.0074981 1489.5 0.22752
-114.62 23506. undefined -87.641 137.46 -0.46071 720.00 0.0013889 -87.641 137.46 -0.46071 1.4648 1.9611 2201.7 -0.0074940 1475.2 0.22793 720.00 0.0013889 -87.641 137.46 -0.46071 1.4648 1.9611 2201.7 -0.0074940 1475.2 0.22793
-113.62 23858. undefined -86.175 142.29 -0.45149 720.00 0.0013889 -86.175 142.29 -0.45149 1.4670 1.9620 2203.7 -0.0074899 1461.2 0.22834 720.00 0.0013889 -86.175 142.29 -0.45149 1.4670 1.9620 2203.7 -0.0074899 1461.2 0.22834
-112.62 24208. undefined -84.707 147.11 -0.44231 720.00 0.0013889 -84.707 147.11 -0.44231 1.4691 1.9629 2205.6 -0.0074858 1447.6 0.22874 720.00 0.0013889 -84.707 147.11 -0.44231 1.4691 1.9629 2205.6 -0.0074858 1447.6 0.22874
-111.62 24556. undefined -83.236 151.92 -0.43318 720.00 0.0013889 -83.236 151.92 -0.43318 1.4713 1.9638 2207.5 -0.0074816 1434.3 0.22915 720.00 0.0013889 -83.236 151.92 -0.43318 1.4713 1.9638 2207.5 -0.0074816 1434.3 0.22915
-110.62 24904. undefined -81.764 156.72 -0.42410 720.00 0.0013889 -81.764 156.72 -0.42410 1.4734 1.9648 2209.5 -0.0074773 1421.3 0.22956 720.00 0.0013889 -81.764 156.72 -0.42410 1.4734 1.9648 2209.5 -0.0074773 1421.3 0.22956
-109.62 25251. undefined -80.290 161.52 -0.41505 720.00 0.0013889 -80.290 161.52 -0.41505 1.4756 1.9657 2211.4 -0.0074730 1408.6 0.22997 720.00 0.0013889 -80.290 161.52 -0.41505 1.4756 1.9657 2211.4 -0.0074730 1408.6 0.22997
-108.62 25597. undefined -78.813 166.31 -0.40605 720.00 0.0013889 -78.813 166.31 -0.40605 1.4778 1.9667 2213.3 -0.0074686 1396.2 0.23038 720.00 0.0013889 -78.813 166.31 -0.40605 1.4778 1.9667 2213.3 -0.0074686 1396.2 0.23038
-107.62 25942. undefined -77.334 171.09 -0.39709 720.00 0.0013889 -77.334 171.09 -0.39709 1.4800 1.9677 2215.1 -0.0074642 1384.1 0.23079 720.00 0.0013889 -77.334 171.09 -0.39709 1.4800 1.9677 2215.1 -0.0074642 1384.1 0.23079
-106.62 26286. undefined -75.853 175.86 -0.38817 720.00 0.0013889 -75.853 175.86 -0.38817 1.4822 1.9688 2217.0 -0.0074597 1372.2 0.23120 720.00 0.0013889 -75.853 175.86 -0.38817 1.4822 1.9688 2217.0 -0.0074597 1372.2 0.23120
-105.62 26629. undefined -74.370 180.63 -0.37929 720.00 0.0013889 -74.370 180.63 -0.37929 1.4844 1.9698 2218.8 -0.0074552 1360.7 0.23161 720.00 0.0013889 -74.370 180.63 -0.37929 1.4844 1.9698 2218.8 -0.0074552 1360.7 0.23161
-104.62 26971. undefined -72.884 185.39 -0.37044 720.00 0.0013889 -72.884 185.39 -0.37044 1.4866 1.9708 2220.7 -0.0074506 1349.4 0.23202 720.00 0.0013889 -72.884 185.39 -0.37044 1.4866 1.9708 2220.7 -0.0074506 1349.4 0.23202
-103.62 27312. undefined -71.396 190.14 -0.36164 720.00 0.0013889 -71.396 190.14 -0.36164 1.4889 1.9719 2222.5 -0.0074459 1338.3 0.23243 720.00 0.0013889 -71.396 190.14 -0.36164 1.4889 1.9719 2222.5 -0.0074459 1338.3 0.23243
-102.62 27652. undefined -69.906 194.89 -0.35288 720.00 0.0013889 -69.906 194.89 -0.35288 1.4911 1.9730 2224.3 -0.0074412 1327.5 0.23284 720.00 0.0013889 -69.906 194.89 -0.35288 1.4911 1.9730 2224.3 -0.0074412 1327.5 0.23284
-101.62 27990. undefined -68.414 199.62 -0.34415 720.00 0.0013889 -68.414 199.62 -0.34415 1.4934 1.9741 2226.1 -0.0074364 1316.9 0.23325 720.00 0.0013889 -68.414 199.62 -0.34415 1.4934 1.9741 2226.1 -0.0074364 1316.9 0.23325
-100.62 28328. undefined -66.919 204.36 -0.33547 720.00 0.0013889 -66.919 204.36 -0.33547 1.4957 1.9753 2227.9 -0.0074316 1306.5 0.23366 720.00 0.0013889 -66.919 204.36 -0.33547 1.4957 1.9753 2227.9 -0.0074316 1306.5 0.23366
-99.625 28666. undefined -65.423 209.08 -0.32682 720.00 0.0013889 -65.423 209.08 -0.32682 1.4979 1.9764 2229.6 -0.0074267 1296.3 0.23408 720.00 0.0013889 -65.423 209.08 -0.32682 1.4979 1.9764 2229.6 -0.0074267 1296.3 0.23408
-98.625 29002. undefined -63.924 213.80 -0.31820 720.00 0.0013889 -63.924 213.80 -0.31820 1.5002 1.9776 2231.4 -0.0074218 1286.4 0.23449 720.00 0.0013889 -63.924 213.80 -0.31820 1.5002 1.9776 2231.4 -0.0074218 1286.4 0.23449
-97.625 29337. undefined -62.422 218.51 -0.30962 720.00 0.0013889 -62.422 218.51 -0.30962 1.5025 1.9788 2233.1 -0.0074168 1276.7 0.23490 720.00 0.0013889 -62.422 218.51 -0.30962 1.5025 1.9788 2233.1 -0.0074168 1276.7 0.23490
-96.625 29671. undefined -60.918 223.21 -0.30108 720.00 0.0013889 -60.918 223.21 -0.30108 1.5049 1.9800 2234.8 -0.0074117 1267.1 0.23531 720.00 0.0013889 -60.918 223.21 -0.30108 1.5049 1.9800 2234.8 -0.0074117 1267.1 0.23531
-95.625 30004. undefined -59.412 227.91 -0.29257 720.00 0.0013889 -59.412 227.91 -0.29257 1.5072 1.9812 2236.5 -0.0074066 1257.8 0.23573 720.00 0.0013889 -59.412 227.91 -0.29257 1.5072 1.9812 2236.5 -0.0074066 1257.8 0.23573
-94.625 30337. undefined -57.904 232.60 -0.28410 720.00 0.0013889 -57.904 232.60 -0.28410 1.5096 1.9824 2238.2 -0.0074014 1248.7 0.23614 720.00 0.0013889 -57.904 232.60 -0.28410 1.5096 1.9824 2238.2 -0.0074014 1248.7 0.23614
-93.625 30668. undefined -56.393 237.29 -0.27566 720.00 0.0013889 -56.393 237.29 -0.27566 1.5119 1.9837 2239.9 -0.0073961 1239.7 0.23655 720.00 0.0013889 -56.393 237.29 -0.27566 1.5119 1.9837 2239.9 -0.0073961 1239.7 0.23655
-92.625 30999. undefined -54.880 241.97 -0.26726 720.00 0.0013889 -54.880 241.97 -0.26726 1.5143 1.9850 2241.6 -0.0073908 1230.9 0.23697 720.00 0.0013889 -54.880 241.97 -0.26726 1.5143 1.9850 2241.6 -0.0073908 1230.9 0.23697
-91.625 31329. undefined -53.365 246.64 -0.25888 720.00 0.0013889 -53.365 246.64 -0.25888 1.5167 1.9863 2243.3 -0.0073854 1222.3 0.23738 720.00 0.0013889 -53.365 246.64 -0.25888 1.5167 1.9863 2243.3 -0.0073854 1222.3 0.23738
-90.625 31657. undefined -51.847 251.31 -0.25055 720.00 0.0013889 -51.847 251.31 -0.25055 1.5191 1.9876 2244.9 -0.0073799 1213.8 0.23779 720.00 0.0013889 -51.847 251.31 -0.25055 1.5191 1.9876 2244.9 -0.0073799 1213.8 0.23779
-89.625 31985. undefined -50.327 255.97 -0.24224 720.00 0.0013889 -50.327 255.97 -0.24224 1.5215 1.9890 2246.5 -0.0073744 1205.6 0.23821 720.00 0.0013889 -50.327 255.97 -0.24224 1.5215 1.9890 2246.5 -0.0073744 1205.6 0.23821
-88.625 32312. undefined -48.804 260.62 -0.23396 720.00 0.0013889 -48.804 260.62 -0.23396 1.5239 1.9903 2248.2 -0.0073688 1197.4 0.23862 720.00 0.0013889 -48.804 260.62 -0.23396 1.5239 1.9903 2248.2 -0.0073688 1197.4 0.23862
-87.625 32638. undefined -47.279 265.27 -0.22572 720.00 0.0013889 -47.279 265.27 -0.22572 1.5264 1.9917 2249.8 -0.0073632 1189.5 0.23904 720.00 0.0013889 -47.279 265.27 -0.22572 1.5264 1.9917 2249.8 -0.0073632 1189.5 0.23904
-86.625 32964. undefined -45.751 269.91 -0.21751 720.00 0.0013889 -45.751 269.91 -0.21751 1.5288 1.9931 2251.4 -0.0073575 1181.6 0.23946 720.00 0.0013889 -45.751 269.91 -0.21751 1.5288 1.9931 2251.4 -0.0073575 1181.6 0.23946
-85.625 33288. undefined -44.221 274.55 -0.20933 720.00 0.0013889 -44.221 274.55 -0.20933 1.5313 1.9946 2253.0 -0.0073517 1174.0 0.23987 720.00 0.0013889 -44.221 274.55 -0.20933 1.5313 1.9946 2253.0 -0.0073517 1174.0 0.23987
-84.625 33612. undefined -42.688 279.18 -0.20118 720.00 0.0013889 -42.688 279.18 -0.20118 1.5338 1.9960 2254.5 -0.0073458 1166.4 0.24029 720.00 0.0013889 -42.688 279.18 -0.20118 1.5338 1.9960 2254.5 -0.0073458 1166.4 0.24029
-83.625 33935. undefined -41.153 283.81 -0.19306 720.00 0.0013889 -41.153 283.81 -0.19306 1.5363 1.9975 2256.1 -0.0073399 1159.1 0.24070 720.00 0.0013889 -41.153 283.81 -0.19306 1.5363 1.9975 2256.1 -0.0073399 1159.1 0.24070
-82.625 34256. undefined -39.616 288.43 -0.18497 720.00 0.0013889 -39.616 288.43 -0.18497 1.5388 1.9990 2257.7 -0.0073339 1151.8 0.24112 720.00 0.0013889 -39.616 288.43 -0.18497 1.5388 1.9990 2257.7 -0.0073339 1151.8 0.24112
-81.625 34577. undefined -38.076 293.04 -0.17690 720.00 0.0013889 -38.076 293.04 -0.17690 1.5414 2.0005 2259.2 -0.0073279 1144.7 0.24154 720.00 0.0013889 -38.076 293.04 -0.17690 1.5414 2.0005 2259.2 -0.0073279 1144.7 0.24154
-80.625 34898. undefined -36.533 297.65 -0.16887 720.00 0.0013889 -36.533 297.65 -0.16887 1.5439 2.0020 2260.8 -0.0073218 1137.7 0.24196 720.00 0.0013889 -36.533 297.65 -0.16887 1.5439 2.0020 2260.8 -0.0073218 1137.7 0.24196
-79.625 35217. undefined -34.988 302.25 -0.16086 720.00 0.0013889 -34.988 302.25 -0.16086 1.5465 2.0036 2262.3 -0.0073156 1130.8 0.24237 720.00 0.0013889 -34.988 302.25 -0.16086 1.5465 2.0036 2262.3 -0.0073156 1130.8 0.24237
-78.625 35536. undefined -33.440 306.85 -0.15289 720.00 0.0013889 -33.440 306.85 -0.15289 1.5491 2.0052 2263.8 -0.0073093 1124.0 0.24279 720.00 0.0013889 -33.440 306.85 -0.15289 1.5491 2.0052 2263.8 -0.0073093 1124.0 0.24279
-77.625 35853. undefined -31.890 311.44 -0.14494 720.00 0.0013889 -31.890 311.44 -0.14494 1.5517 2.0068 2265.3 -0.0073030 1117.4 0.24321 720.00 0.0013889 -31.890 311.44 -0.14494 1.5517 2.0068 2265.3 -0.0073030 1117.4 0.24321
-76.625 36170. undefined -30.337 316.03 -0.13702 720.00 0.0013889 -30.337 316.03 -0.13702 1.5543 2.0084 2266.8 -0.0072966 1110.9 0.24363 720.00 0.0013889 -30.337 316.03 -0.13702 1.5543 2.0084 2266.8 -0.0072966 1110.9 0.24363
-75.625 36486. undefined -28.781 320.62 -0.12912 720.00 0.0013889 -28.781 320.62 -0.12912 1.5569 2.0101 2268.3 -0.0072902 1104.5 0.24405 720.00 0.0013889 -28.781 320.62 -0.12912 1.5569 2.0101 2268.3 -0.0072902 1104.5 0.24405
-74.625 36802. undefined -27.223 325.19 -0.12125 720.00 0.0013889 -27.223 325.19 -0.12125 1.5596 2.0117 2269.7 -0.0072837 1098.2 0.24447 720.00 0.0013889 -27.223 325.19 -0.12125 1.5596 2.0117 2269.7 -0.0072837 1098.2 0.24447
-73.625 37116. undefined -25.662 329.77 -0.11341 720.00 0.0013889 -25.662 329.77 -0.11341 1.5622 2.0134 2271.2 -0.0072771 1092.0 0.24489 720.00 0.0013889 -25.662 329.77 -0.11341 1.5622 2.0134 2271.2 -0.0072771 1092.0 0.24489
-72.625 37430. undefined -24.098 334.33 -0.10559 720.00 0.0013889 -24.098 334.33 -0.10559 1.5649 2.0151 2272.7 -0.0072704 1085.9 0.24531 720.00 0.0013889 -24.098 334.33 -0.10559 1.5649 2.0151 2272.7 -0.0072704 1085.9 0.24531
-71.625 37743. undefined -22.532 338.90 -0.097800 720.00 0.0013889 -22.532 338.90 -0.097800 1.5676 2.0169 2274.1 -0.0072637 1080.0 0.24573 720.00 0.0013889 -22.532 338.90 -0.097800 1.5676 2.0169 2274.1 -0.0072637 1080.0 0.24573
-70.625 38055. undefined -20.963 343.46 -0.090034 720.00 0.0013889 -20.963 343.46 -0.090034 1.5703 2.0186 2275.5 -0.0072569 1074.1 0.24615 720.00 0.0013889 -20.963 343.46 -0.090034 1.5703 2.0186 2275.5 -0.0072569 1074.1 0.24615
-69.625 38367. undefined -19.392 348.01 -0.082292 720.00 0.0013889 -19.392 348.01 -0.082292 1.5730 2.0204 2277.0 -0.0072501 1068.3 0.24657 720.00 0.0013889 -19.392 348.01 -0.082292 1.5730 2.0204 2277.0 -0.0072501 1068.3 0.24657
-68.625 38677. undefined -17.817 352.56 -0.074576 720.00 0.0013889 -17.817 352.56 -0.074576 1.5758 2.0222 2278.4 -0.0072432 1062.6 0.24699 720.00 0.0013889 -17.817 352.56 -0.074576 1.5758 2.0222 2278.4 -0.0072432 1062.6 0.24699
-67.625 38987. undefined -16.240 357.11 -0.066883 720.00 0.0013889 -16.240 357.11 -0.066883 1.5786 2.0240 2279.8 -0.0072362 1057.0 0.24741 720.00 0.0013889 -16.240 357.11 -0.066883 1.5786 2.0240 2279.8 -0.0072362 1057.0 0.24741
-66.625 39297. undefined -14.660 361.65 -0.059214 720.00 0.0013889 -14.660 361.65 -0.059214 1.5813 2.0259 2281.2 -0.0072292 1051.5 0.24783 720.00 0.0013889 -14.660 361.65 -0.059214 1.5813 2.0259 2281.2 -0.0072292 1051.5 0.24783
-65.625 39605. undefined -13.077 366.18 -0.051569 720.00 0.0013889 -13.077 366.18 -0.051569 1.5841 2.0278 2282.6 -0.0072221 1046.1 0.24825 720.00 0.0013889 -13.077 366.18 -0.051569 1.5841 2.0278 2282.6 -0.0072221 1046.1 0.24825
-64.625 39913. undefined -11.492 370.71 -0.043947 720.00 0.0013889 -11.492 370.71 -0.043947 1.5869 2.0296 2284.0 -0.0072149 1040.8 0.24867 720.00 0.0013889 -11.492 370.71 -0.043947 1.5869 2.0296 2284.0 -0.0072149 1040.8 0.24867
-63.625 40220. undefined -9.9034 375.24 -0.036348 720.00 0.0013889 -9.9034 375.24 -0.036348 1.5898 2.0316 2285.3 -0.0072077 1035.5 0.24910 720.00 0.0013889 -9.9034 375.24 -0.036348 1.5898 2.0316 2285.3 -0.0072077 1035.5 0.24910
-62.625 40526. undefined -8.3122 379.76 -0.028772 720.00 0.0013889 -8.3122 379.76 -0.028772 1.5926 2.0335 2286.7 -0.0072004 1030.4 0.24952 720.00 0.0013889 -8.3122 379.76 -0.028772 1.5926 2.0335 2286.7 -0.0072004 1030.4 0.24952
-61.625 40831. undefined -6.7182 384.28 -0.021218 720.00 0.0013889 -6.7182 384.28 -0.021218 1.5955 2.0355 2288.0 -0.0071930 1025.3 0.24994 720.00 0.0013889 -6.7182 384.28 -0.021218 1.5955 2.0355 2288.0 -0.0071930 1025.3 0.24994
-60.625 41136. undefined -5.1212 388.80 -0.013687 720.00 0.0013889 -5.1212 388.80 -0.013687 1.5984 2.0374 2289.4 -0.0071856 1020.3 0.25036 720.00 0.0013889 -5.1212 388.80 -0.013687 1.5984 2.0374 2289.4 -0.0071856 1020.3 0.25036
-59.625 41440. undefined -3.5214 393.31 -0.0061767 720.00 0.0013889 -3.5214 393.31 -0.0061767 1.6013 2.0394 2290.7 -0.0071781 1015.3 0.25079 720.00 0.0013889 -3.5214 393.31 -0.0061767 1.6013 2.0394 2290.7 -0.0071781 1015.3 0.25079
-58.625 41743. undefined -1.9187 397.82 0.0013117 720.00 0.0013889 -1.9187 397.82 0.0013117 1.6042 2.0415 2292.1 -0.0071706 1010.5 0.25121 720.00 0.0013889 -1.9187 397.82 0.0013117 1.6042 2.0415 2292.1 -0.0071706 1010.5 0.25121
-57.625 42046. undefined -0.31311 402.32 0.0087788 720.00 0.0013889 -0.31311 402.32 0.0087788 1.6071 2.0435 2293.4 -0.0071630 1005.7 0.25164 720.00 0.0013889 -0.31311 402.32 0.0087788 1.6071 2.0435 2293.4 -0.0071630 1005.7 0.25164
-56.625 42348. undefined 1.2955 406.82 0.016225 720.00 0.0013889 1.2955 406.82 0.016225 1.6100 2.0456 2294.7 -0.0071553 1001.0 0.25206 720.00 0.0013889 1.2955 406.82 0.016225 1.6100 2.0456 2294.7 -0.0071553 1001.0 0.25206
-55.625 42649. undefined 2.9070 411.31 0.023651 720.00 0.0013889 2.9070 411.31 0.023651 1.6130 2.0477 2296.0 -0.0071476 996.40 0.25249 720.00 0.0013889 2.9070 411.31 0.023651 1.6130 2.0477 2296.0 -0.0071476 996.40 0.25249
-54.625 42949. undefined 4.5215 415.81 0.031056 720.00 0.0013889 4.5215 415.81 0.031056 1.6160 2.0498 2297.3 -0.0071398 991.84 0.25291 720.00 0.0013889 4.5215 415.81 0.031056 1.6160 2.0498 2297.3 -0.0071398 991.84 0.25291
-53.625 43249. undefined 6.1389 420.29 0.038440 720.00 0.0013889 6.1389 420.29 0.038440 1.6190 2.0519 2298.6 -0.0071319 987.35 0.25334 720.00 0.0013889 6.1389 420.29 0.038440 1.6190 2.0519 2298.6 -0.0071319 987.35 0.25334
-52.625 43548. undefined 7.7594 424.78 0.045805 720.00 0.0013889 7.7594 424.78 0.045805 1.6220 2.0541 2299.9 -0.0071241 982.92 0.25376 720.00 0.0013889 7.7594 424.78 0.045805 1.6220 2.0541 2299.9 -0.0071241 982.92 0.25376
-51.625 43847. undefined 9.3829 429.26 0.053151 720.00 0.0013889 9.3829 429.26 0.053151 1.6250 2.0563 2301.2 -0.0071161 978.56 0.25419 720.00 0.0013889 9.3829 429.26 0.053151 1.6250 2.0563 2301.2 -0.0071161 978.56 0.25419
-50.625 44144. undefined 11.009 433.74 0.060477 720.00 0.0013889 11.009 433.74 0.060477 1.6281 2.0585 2302.4 -0.0071081 974.27 0.25461 720.00 0.0013889 11.009 433.74 0.060477 1.6281 2.0585 2302.4 -0.0071081 974.27 0.25461
-49.625 44441. undefined 12.639 438.21 0.067783 720.00 0.0013889 12.639 438.21 0.067783 1.6311 2.0607 2303.7 -0.0071000 970.03 0.25504 720.00 0.0013889 12.639 438.21 0.067783 1.6311 2.0607 2303.7 -0.0071000 970.03 0.25504
-48.625 44738. undefined 14.272 442.68 0.075071 720.00 0.0013889 14.272 442.68 0.075071 1.6342 2.0629 2304.9 -0.0070919 965.86 0.25547 720.00 0.0013889 14.272 442.68 0.075071 1.6342 2.0629 2304.9 -0.0070919 965.86 0.25547
-47.625 45033. undefined 15.907 447.15 0.082340 720.00 0.0013889 15.907 447.15 0.082340 1.6373 2.0652 2306.2 -0.0070837 961.75 0.25589 720.00 0.0013889 15.907 447.15 0.082340 1.6373 2.0652 2306.2 -0.0070837 961.75 0.25589
-46.625 45328. undefined 17.546 451.61 0.089591 720.00 0.0013889 17.546 451.61 0.089591 1.6404 2.0675 2307.4 -0.0070755 957.69 0.25632 720.00 0.0013889 17.546 451.61 0.089591 1.6404 2.0675 2307.4 -0.0070755 957.69 0.25632
-45.625 45623. undefined 19.188 456.07 0.096824 720.00 0.0013889 19.188 456.07 0.096824 1.6435 2.0698 2308.7 -0.0070672 953.70 0.25675 720.00 0.0013889 19.188 456.07 0.096824 1.6435 2.0698 2308.7 -0.0070672 953.70 0.25675
-44.625 45917. undefined 20.833 460.53 0.10404 720.00 0.0013889 20.833 460.53 0.10404 1.6467 2.0721 2309.9 -0.0070589 949.76 0.25718 720.00 0.0013889 20.833 460.53 0.10404 1.6467 2.0721 2309.9 -0.0070589 949.76 0.25718
-43.625 46210. undefined 22.482 464.99 0.11123 720.00 0.0013889 22.482 464.99 0.11123 1.6498 2.0745 2311.1 -0.0070505 945.88 0.25760 720.00 0.0013889 22.482 464.99 0.11123 1.6498 2.0745 2311.1 -0.0070505 945.88 0.25760
-42.625 46502. undefined 24.133 469.44 0.11841 720.00 0.0013889 24.133 469.44 0.11841 1.6530 2.0768 2312.3 -0.0070421 942.05 0.25803 720.00 0.0013889 24.133 469.44 0.11841 1.6530 2.0768 2312.3 -0.0070421 942.05 0.25803
-41.625 46794. undefined 25.788 473.89 0.12558 720.00 0.0013889 25.788 473.89 0.12558 1.6562 2.0792 2313.5 -0.0070336 938.27 0.25846 720.00 0.0013889 25.788 473.89 0.12558 1.6562 2.0792 2313.5 -0.0070336 938.27 0.25846
-40.625 47085. undefined 27.445 478.33 0.13272 720.00 0.0013889 27.445 478.33 0.13272 1.6594 2.0816 2314.8 -0.0070250 934.55 0.25889 720.00 0.0013889 27.445 478.33 0.13272 1.6594 2.0816 2314.8 -0.0070250 934.55 0.25889
-39.625 47375. undefined 29.106 482.78 0.13985 720.00 0.0013889 29.106 482.78 0.13985 1.6626 2.0841 2315.9 -0.0070164 930.88 0.25932 720.00 0.0013889 29.106 482.78 0.13985 1.6626 2.0841 2315.9 -0.0070164 930.88 0.25932
-38.625 47665. undefined 30.770 487.22 0.14696 720.00 0.0013889 30.770 487.22 0.14696 1.6658 2.0865 2317.1 -0.0070078 927.26 0.25975 720.00 0.0013889 30.770 487.22 0.14696 1.6658 2.0865 2317.1 -0.0070078 927.26 0.25975
-37.625 47955. undefined 32.438 491.65 0.15405 720.00 0.0013889 32.438 491.65 0.15405 1.6691 2.0890 2318.3 -0.0069991 923.68 0.26018 720.00 0.0013889 32.438 491.65 0.15405 1.6691 2.0890 2318.3 -0.0069991 923.68 0.26018
-36.625 48243. undefined 34.109 496.09 0.16113 720.00 0.0013889 34.109 496.09 0.16113 1.6724 2.0915 2319.5 -0.0069904 920.16 0.26061 720.00 0.0013889 34.109 496.09 0.16113 1.6724 2.0915 2319.5 -0.0069904 920.16 0.26061
-35.625 48531. undefined 35.783 500.52 0.16820 720.00 0.0013889 35.783 500.52 0.16820 1.6756 2.0940 2320.7 -0.0069817 916.68 0.26104 720.00 0.0013889 35.783 500.52 0.16820 1.6756 2.0940 2320.7 -0.0069817 916.68 0.26104
-34.625 48819. undefined 37.460 504.95 0.17524 720.00 0.0013889 37.460 504.95 0.17524 1.6789 2.0965 2321.9 -0.0069728 913.25 0.26147 720.00 0.0013889 37.460 504.95 0.17524 1.6789 2.0965 2321.9 -0.0069728 913.25 0.26147
-33.625 49105. undefined 39.141 509.38 0.18227 720.00 0.0013889 39.141 509.38 0.18227 1.6822 2.0991 2323.0 -0.0069640 909.87 0.26190 720.00 0.0013889 39.141 509.38 0.18227 1.6822 2.0991 2323.0 -0.0069640 909.87 0.26190
-32.625 49392. undefined 40.824 513.80 0.18929 720.00 0.0013889 40.824 513.80 0.18929 1.6856 2.1016 2324.2 -0.0069551 906.53 0.26233 720.00 0.0013889 40.824 513.80 0.18929 1.6856 2.1016 2324.2 -0.0069551 906.53 0.26233
-31.625 49677. undefined 42.512 518.22 0.19629 720.00 0.0013889 42.512 518.22 0.19629 1.6889 2.1042 2325.3 -0.0069461 903.24 0.26277 720.00 0.0013889 42.512 518.22 0.19629 1.6889 2.1042 2325.3 -0.0069461 903.24 0.26277
-30.625 49962. undefined 44.202 522.64 0.20327 720.00 0.0013889 44.202 522.64 0.20327 1.6923 2.1068 2326.5 -0.0069372 899.98 0.26320 720.00 0.0013889 44.202 522.64 0.20327 1.6923 2.1068 2326.5 -0.0069372 899.98 0.26320
-29.625 50247. undefined 45.896 527.06 0.21024 720.00 0.0013889 45.896 527.06 0.21024 1.6956 2.1095 2327.6 -0.0069282 896.78 0.26363 720.00 0.0013889 45.896 527.06 0.21024 1.6956 2.1095 2327.6 -0.0069282 896.78 0.26363
-28.625 50530. undefined 47.594 531.47 0.21720 720.00 0.0013889 47.594 531.47 0.21720 1.6990 2.1121 2328.8 -0.0069191 893.61 0.26406 720.00 0.0013889 47.594 531.47 0.21720 1.6990 2.1121 2328.8 -0.0069191 893.61 0.26406
-27.625 50814. undefined 49.294 535.89 0.22414 720.00 0.0013889 49.294 535.89 0.22414 1.7024 2.1148 2329.9 -0.0069100 890.48 0.26450 720.00 0.0013889 49.294 535.89 0.22414 1.7024 2.1148 2329.9 -0.0069100 890.48 0.26450
-26.625 51096. undefined 50.998 540.30 0.23107 720.00 0.0013889 50.998 540.30 0.23107 1.7058 2.1175 2331.0 -0.0069009 887.40 0.26493 720.00 0.0013889 50.998 540.30 0.23107 1.7058 2.1175 2331.0 -0.0069009 887.40 0.26493
-25.625 51378. undefined 52.706 544.71 0.23798 720.00 0.0013889 52.706 544.71 0.23798 1.7092 2.1202 2332.1 -0.0068917 884.35 0.26536 720.00 0.0013889 52.706 544.71 0.23798 1.7092 2.1202 2332.1 -0.0068917 884.35 0.26536
-24.625 51660. undefined 54.417 549.11 0.24488 720.00 0.0013889 54.417 549.11 0.24488 1.7127 2.1229 2333.3 -0.0068825 881.34 0.26580 720.00 0.0013889 54.417 549.11 0.24488 1.7127 2.1229 2333.3 -0.0068825 881.34 0.26580
-23.625 51941. undefined 56.131 553.52 0.25176 720.00 0.0013889 56.131 553.52 0.25176 1.7161 2.1256 2334.4 -0.0068732 878.37 0.26623 720.00 0.0013889 56.131 553.52 0.25176 1.7161 2.1256 2334.4 -0.0068732 878.37 0.26623
-22.625 52221. undefined 57.849 557.92 0.25863 720.00 0.0013889 57.849 557.92 0.25863 1.7196 2.1284 2335.5 -0.0068640 875.44 0.26666 720.00 0.0013889 57.849 557.92 0.25863 1.7196 2.1284 2335.5 -0.0068640 875.44 0.26666
-21.625 52501. undefined 59.570 562.32 0.26549 720.00 0.0013889 59.570 562.32 0.26549 1.7231 2.1312 2336.6 -0.0068547 872.55 0.26710 720.00 0.0013889 59.570 562.32 0.26549 1.7231 2.1312 2336.6 -0.0068547 872.55 0.26710
-20.625 52780. undefined 61.295 566.72 0.27234 720.00 0.0013889 61.295 566.72 0.27234 1.7266 2.1340 2337.7 -0.0068453 869.69 0.26753 720.00 0.0013889 61.295 566.72 0.27234 1.7266 2.1340 2337.7 -0.0068453 869.69 0.26753
-19.625 53058. undefined 63.024 571.11 0.27917 720.00 0.0013889 63.024 571.11 0.27917 1.7301 2.1368 2338.8 -0.0068360 866.86 0.26797 720.00 0.0013889 63.024 571.11 0.27917 1.7301 2.1368 2338.8 -0.0068360 866.86 0.26797
-18.625 53336. undefined 64.755 575.51 0.28598 720.00 0.0013889 64.755 575.51 0.28598 1.7336 2.1396 2339.9 -0.0068266 864.08 0.26840 720.00 0.0013889 64.755 575.51 0.28598 1.7336 2.1396 2339.9 -0.0068266 864.08 0.26840
-17.625 53614. undefined 66.491 579.90 0.29279 720.00 0.0013889 66.491 579.90 0.29279 1.7371 2.1424 2341.0 -0.0068171 861.32 0.26884 720.00 0.0013889 66.491 579.90 0.29279 1.7371 2.1424 2341.0 -0.0068171 861.32 0.26884
-16.625 53891. undefined 68.230 584.29 0.29958 720.00 0.0013889 68.230 584.29 0.29958 1.7407 2.1453 2342.0 -0.0068077 858.60 0.26928 720.00 0.0013889 68.230 584.29 0.29958 1.7407 2.1453 2342.0 -0.0068077 858.60 0.26928
-15.625 54167. undefined 69.972 588.68 0.30636 720.00 0.0013889 69.972 588.68 0.30636 1.7442 2.1482 2343.1 -0.0067982 855.92 0.26971 720.00 0.0013889 69.972 588.68 0.30636 1.7442 2.1482 2343.1 -0.0067982 855.92 0.26971
-14.625 54443. undefined 71.718 593.07 0.31313 720.00 0.0013889 71.718 593.07 0.31313 1.7478 2.1511 2344.2 -0.0067887 853.26 0.27015 720.00 0.0013889 71.718 593.07 0.31313 1.7478 2.1511 2344.2 -0.0067887 853.26 0.27015
-13.625 54719. undefined 73.468 597.46 0.31988 720.00 0.0013889 73.468 597.46 0.31988 1.7514 2.1540 2345.3 -0.0067791 850.64 0.27059 720.00 0.0013889 73.468 597.46 0.31988 1.7514 2.1540 2345.3 -0.0067791 850.64 0.27059
-12.625 54993. undefined 75.221 601.84 0.32662 720.00 0.0013889 75.221 601.84 0.32662 1.7550 2.1569 2346.3 -0.0067696 848.05 0.27102 720.00 0.0013889 75.221 601.84 0.32662 1.7550 2.1569 2346.3 -0.0067696 848.05 0.27102
-11.625 55268. undefined 76.978 606.22 0.33335 720.00 0.0013889 76.978 606.22 0.33335 1.7586 2.1599 2347.4 -0.0067600 845.49 0.27146 720.00 0.0013889 76.978 606.22 0.33335 1.7586 2.1599 2347.4 -0.0067600 845.49 0.27146
-10.625 55541. undefined 78.738 610.60 0.34007 720.00 0.0013889 78.738 610.60 0.34007 1.7622 2.1628 2348.4 -0.0067504 842.96 0.27190 720.00 0.0013889 78.738 610.60 0.34007 1.7622 2.1628 2348.4 -0.0067504 842.96 0.27190
-9.6250 55814. undefined 80.502 614.98 0.34678 720.00 0.0013889 80.502 614.98 0.34678 1.7659 2.1658 2349.5 -0.0067407 840.46 0.27234 720.00 0.0013889 80.502 614.98 0.34678 1.7659 2.1658 2349.5 -0.0067407 840.46 0.27234
-8.6250 56087. undefined 82.270 619.36 0.35347 720.00 0.0013889 82.270 619.36 0.35347 1.7695 2.1688 2350.5 -0.0067311 838.00 0.27278 720.00 0.0013889 82.270 619.36 0.35347 1.7695 2.1688 2350.5 -0.0067311 838.00 0.27278
-7.6250 56359. undefined 84.041 623.74 0.36016 720.00 0.0013889 84.041 623.74 0.36016 1.7732 2.1718 2351.6 -0.0067214 835.56 0.27321 720.00 0.0013889 84.041 623.74 0.36016 1.7732 2.1718 2351.6 -0.0067214 835.56 0.27321
-6.6250 56631. undefined 85.816 628.12 0.36683 720.00 0.0013889 85.816 628.12 0.36683 1.7768 2.1748 2352.6 -0.0067117 833.14 0.27365 720.00 0.0013889 85.816 628.12 0.36683 1.7768 2.1748 2352.6 -0.0067117 833.14 0.27365
-5.6250 56902. undefined 87.595 632.49 0.37349 720.00 0.0013889 87.595 632.49 0.37349 1.7805 2.1779 2353.7 -0.0067020 830.76 0.27409 720.00 0.0013889 87.595 632.49 0.37349 1.7805 2.1779 2353.7 -0.0067020 830.76 0.27409
-4.6250 57173. undefined 89.377 636.87 0.38014 720.00 0.0013889 89.377 636.87 0.38014 1.7842 2.1809 2354.7 -0.0066922 828.41 0.27453 720.00 0.0013889 89.377 636.87 0.38014 1.7842 2.1809 2354.7 -0.0066922 828.41 0.27453
-3.6250 57443. undefined 91.163 641.24 0.38678 720.00 0.0013889 91.163 641.24 0.38678 1.7879 2.1840 2355.8 -0.0066825 826.08 0.27497 720.00 0.0013889 91.163 641.24 0.38678 1.7879 2.1840 2355.8 -0.0066825 826.08 0.27497
-2.6250 57712. undefined 92.953 645.61 0.39341 720.00 0.0013889 92.953 645.61 0.39341 1.7916 2.1871 2356.8 -0.0066727 823.78 0.27541 720.00 0.0013889 92.953 645.61 0.39341 1.7916 2.1871 2356.8 -0.0066727 823.78 0.27541
-1.6250 57981. undefined 94.747 649.98 0.40003 720.00 0.0013889 94.747 649.98 0.40003 1.7953 2.1902 2357.8 -0.0066629 821.50 0.27585 720.00 0.0013889 94.747 649.98 0.40003 1.7953 2.1902 2357.8 -0.0066629 821.50 0.27585
-0.62500 58250. undefined 96.544 654.35 0.40663 720.00 0.0013889 96.544 654.35 0.40663 1.7990 2.1933 2358.8 -0.0066531 819.26 0.27629 720.00 0.0013889 96.544 654.35 0.40663 1.7990 2.1933 2358.8 -0.0066531 819.26 0.27629
0.37500 58518. undefined 98.345 658.72 0.41323 720.00 0.0013889 98.345 658.72 0.41323 1.8028 2.1964 2359.9 -0.0066433 817.03 0.27673 720.00 0.0013889 98.345 658.72 0.41323 1.8028 2.1964 2359.9 -0.0066433 817.03 0.27673
1.3750 58786. undefined 100.15 663.08 0.41981 720.00 0.0013889 100.15 663.08 0.41981 1.8065 2.1996 2360.9 -0.0066335 814.84 0.27718 720.00 0.0013889 100.15 663.08 0.41981 1.8065 2.1996 2360.9 -0.0066335 814.84 0.27718
2.3750 59053. undefined 101.96 667.45 0.42639 720.00 0.0013889 101.96 667.45 0.42639 1.8103 2.2027 2361.9 -0.0066236 812.66 0.27762 720.00 0.0013889 101.96 667.45 0.42639 1.8103 2.2027 2361.9 -0.0066236 812.66 0.27762
3.3750 59319. undefined 103.77 671.81 0.43295 720.00 0.0013889 103.77 671.81 0.43295 1.8141 2.2059 2362.9 -0.0066138 810.51 0.27806 720.00 0.0013889 103.77 671.81 0.43295 1.8141 2.2059 2362.9 -0.0066138 810.51 0.27806
4.3750 59585. undefined 105.59 676.18 0.43951 720.00 0.0013889 105.59 676.18 0.43951 1.8179 2.2091 2363.9 -0.0066039 808.39 0.27850 720.00 0.0013889 105.59 676.18 0.43951 1.8179 2.2091 2363.9 -0.0066039 808.39 0.27850
5.3750 59851. undefined 107.41 680.54 0.44606 720.00 0.0013889 107.41 680.54 0.44606 1.8216 2.2123 2364.9 -0.0065940 806.29 0.27894 720.00 0.0013889 107.41 680.54 0.44606 1.8216 2.2123 2364.9 -0.0065940 806.29 0.27894
6.3750 60116. undefined 109.23 684.90 0.45259 720.00 0.0013889 109.23 684.90 0.45259 1.8254 2.2155 2365.9 -0.0065841 804.21 0.27939 720.00 0.0013889 109.23 684.90 0.45259 1.8254 2.2155 2365.9 -0.0065841 804.21 0.27939
7.3750 60381. undefined 111.06 689.27 0.45912 720.00 0.0013889 111.06 689.27 0.45912 1.8293 2.2187 2366.9 -0.0065742 802.16 0.27983 720.00 0.0013889 111.06 689.27 0.45912 1.8293 2.2187 2366.9 -0.0065742 802.16 0.27983
8.3750 60645. undefined 112.89 693.63 0.46563 720.00 0.0013889 112.89 693.63 0.46563 1.8331 2.2219 2367.9 -0.0065643 800.13 0.28027 720.00 0.0013889 112.89 693.63 0.46563 1.8331 2.2219 2367.9 -0.0065643 800.13 0.28027
9.3750 60909. undefined 114.72 697.99 0.47214 720.00 0.0013889 114.72 697.99 0.47214 1.8369 2.2252 2368.9 -0.0065544 798.12 0.28072 720.00 0.0013889 114.72 697.99 0.47214 1.8369 2.2252 2368.9 -0.0065544 798.12 0.28072
10.375 61172. undefined 116.56 702.35 0.47864 720.00 0.0013889 116.56 702.35 0.47864 1.8407 2.2284 2369.9 -0.0065445 796.13 0.28116 720.00 0.0013889 116.56 702.35 0.47864 1.8407 2.2284 2369.9 -0.0065445 796.13 0.28116
11.375 61435. undefined 118.40 706.71 0.48512 720.00 0.0013889 118.40 706.71 0.48512 1.8446 2.2317 2370.9 -0.0065345 794.17 0.28160 720.00 0.0013889 118.40 706.71 0.48512 1.8446 2.2317 2370.9 -0.0065345 794.17 0.28160
12.375 61697. undefined 120.25 711.07 0.49160 720.00 0.0013889 120.25 711.07 0.49160 1.8484 2.2350 2371.9 -0.0065246 792.22 0.28205 720.00 0.0013889 120.25 711.07 0.49160 1.8484 2.2350 2371.9 -0.0065246 792.22 0.28205
13.375 61959. undefined 122.10 715.42 0.49807 720.00 0.0013889 122.10 715.42 0.49807 1.8523 2.2383 2372.9 -0.0065146 790.30 0.28249 720.00 0.0013889 122.10 715.42 0.49807 1.8523 2.2383 2372.9 -0.0065146 790.30 0.28249
14.375 62220. undefined 123.96 719.78 0.50453 720.00 0.0013889 123.96 719.78 0.50453 1.8562 2.2416 2373.8 -0.0065047 788.40 0.28294 720.00 0.0013889 123.96 719.78 0.50453 1.8562 2.2416 2373.8 -0.0065047 788.40 0.28294
15.375 62481. undefined 125.81 724.14 0.51098 720.00 0.0013889 125.81 724.14 0.51098 1.8601 2.2449 2374.8 -0.0064947 786.52 0.28338 720.00 0.0013889 125.81 724.14 0.51098 1.8601 2.2449 2374.8 -0.0064947 786.52 0.28338
16.375 62742. undefined 127.68 728.49 0.51742 720.00 0.0013889 127.68 728.49 0.51742 1.8639 2.2482 2375.8 -0.0064848 784.66 0.28383 720.00 0.0013889 127.68 728.49 0.51742 1.8639 2.2482 2375.8 -0.0064848 784.66 0.28383
17.375 63002. undefined 129.54 732.85 0.52386 720.00 0.0013889 129.54 732.85 0.52386 1.8678 2.2516 2376.8 -0.0064748 782.82 0.28428 720.00 0.0013889 129.54 732.85 0.52386 1.8678 2.2516 2376.8 -0.0064748 782.82 0.28428
18.375 63261. undefined 131.41 737.21 0.53028 720.00 0.0013889 131.41 737.21 0.53028 1.8717 2.2549 2377.7 -0.0064648 780.99 0.28472 720.00 0.0013889 131.41 737.21 0.53028 1.8717 2.2549 2377.7 -0.0064648 780.99 0.28472
19.375 63521. undefined 133.28 741.56 0.53670 720.00 0.0013889 133.28 741.56 0.53670 1.8757 2.2583 2378.7 -0.0064549 779.19 0.28517 720.00 0.0013889 133.28 741.56 0.53670 1.8757 2.2583 2378.7 -0.0064549 779.19 0.28517
20.375 63779. undefined 135.16 745.92 0.54311 720.00 0.0013889 135.16 745.92 0.54311 1.8796 2.2616 2379.7 -0.0064449 777.41 0.28562 720.00 0.0013889 135.16 745.92 0.54311 1.8796 2.2616 2379.7 -0.0064449 777.41 0.28562
21.375 64037. undefined 137.04 750.27 0.54951 720.00 0.0013889 137.04 750.27 0.54951 1.8835 2.2650 2380.6 -0.0064349 775.64 0.28606 720.00 0.0013889 137.04 750.27 0.54951 1.8835 2.2650 2380.6 -0.0064349 775.64 0.28606
22.375 64295. undefined 138.93 754.62 0.55590 720.00 0.0013889 138.93 754.62 0.55590 1.8874 2.2684 2381.6 -0.0064250 773.90 0.28651 720.00 0.0013889 138.93 754.62 0.55590 1.8874 2.2684 2381.6 -0.0064250 773.90 0.28651
23.375 64553. undefined 140.82 758.98 0.56228 720.00 0.0013889 140.82 758.98 0.56228 1.8914 2.2718 2382.6 -0.0064150 772.17 0.28696 720.00 0.0013889 140.82 758.98 0.56228 1.8914 2.2718 2382.6 -0.0064150 772.17 0.28696
24.375 64810. undefined 142.71 763.33 0.56865 720.00 0.0013889 142.71 763.33 0.56865 1.8953 2.2752 2383.5 -0.0064051 770.46 0.28741 720.00 0.0013889 142.71 763.33 0.56865 1.8953 2.2752 2383.5 -0.0064051 770.46 0.28741
25.375 65066. undefined 144.61 767.68 0.57502 720.00 0.0013889 144.61 767.68 0.57502 1.8993 2.2787 2384.5 -0.0063951 768.77 0.28786 720.00 0.0013889 144.61 767.68 0.57502 1.8993 2.2787 2384.5 -0.0063951 768.77 0.28786
26.375 65322. undefined 146.51 772.04 0.58138 720.00 0.0013889 146.51 772.04 0.58138 1.9032 2.2821 2385.4 -0.0063851 767.09 0.28830 720.00 0.0013889 146.51 772.04 0.58138 1.9032 2.2821 2385.4 -0.0063851 767.09 0.28830
27.375 65578. undefined 148.42 776.39 0.58773 720.00 0.0013889 148.42 776.39 0.58773 1.9072 2.2855 2386.4 -0.0063752 765.43 0.28875 720.00 0.0013889 148.42 776.39 0.58773 1.9072 2.2855 2386.4 -0.0063752 765.43 0.28875
28.375 65833. undefined 150.33 780.74 0.59407 720.00 0.0013889 150.33 780.74 0.59407 1.9112 2.2890 2387.3 -0.0063652 763.79 0.28920 720.00 0.0013889 150.33 780.74 0.59407 1.9112 2.2890 2387.3 -0.0063652 763.79 0.28920
29.375 66088. undefined 152.24 785.10 0.60041 720.00 0.0013889 152.24 785.10 0.60041 1.9152 2.2925 2388.3 -0.0063553 762.17 0.28965 720.00 0.0013889 152.24 785.10 0.60041 1.9152 2.2925 2388.3 -0.0063553 762.17 0.28965
30.375 66342. undefined 154.16 789.45 0.60673 720.00 0.0013889 154.16 789.45 0.60673 1.9192 2.2959 2389.2 -0.0063453 760.56 0.29010 720.00 0.0013889 154.16 789.45 0.60673 1.9192 2.2959 2389.2 -0.0063453 760.56 0.29010
31.375 66596. undefined 156.08 793.80 0.61305 720.00 0.0013889 156.08 793.80 0.61305 1.9232 2.2994 2390.2 -0.0063354 758.97 0.29055 720.00 0.0013889 156.08 793.80 0.61305 1.9232 2.2994 2390.2 -0.0063354 758.97 0.29055
32.375 66849. undefined 158.00 798.16 0.61936 720.00 0.0013889 158.00 798.16 0.61936 1.9272 2.3029 2391.1 -0.0063255 757.39 0.29100 720.00 0.0013889 158.00 798.16 0.61936 1.9272 2.3029 2391.1 -0.0063255 757.39 0.29100
33.375 67103. undefined 159.93 802.51 0.62567 720.00 0.0013889 159.93 802.51 0.62567 1.9312 2.3064 2392.0 -0.0063155 755.83 0.29145 720.00 0.0013889 159.93 802.51 0.62567 1.9312 2.3064 2392.0 -0.0063155 755.83 0.29145
34.375 67355. undefined 161.86 806.86 0.63196 720.00 0.0013889 161.86 806.86 0.63196 1.9352 2.3099 2393.0 -0.0063056 754.29 0.29190 720.00 0.0013889 161.86 806.86 0.63196 1.9352 2.3099 2393.0 -0.0063056 754.29 0.29190
35.375 67608. undefined 163.80 811.21 0.63825 720.00 0.0013889 163.80 811.21 0.63825 1.9392 2.3134 2393.9 -0.0062957 752.76 0.29235 720.00 0.0013889 163.80 811.21 0.63825 1.9392 2.3134 2393.9 -0.0062957 752.76 0.29235
36.375 67859. undefined 165.74 815.57 0.64453 720.00 0.0013889 165.74 815.57 0.64453 1.9432 2.3169 2394.8 -0.0062858 751.25 0.29281 720.00 0.0013889 165.74 815.57 0.64453 1.9432 2.3169 2394.8 -0.0062858 751.25 0.29281
37.375 68111. undefined 167.69 819.92 0.65081 720.00 0.0013889 167.69 819.92 0.65081 1.9472 2.3205 2395.8 -0.0062759 749.75 0.29326 720.00 0.0013889 167.69 819.92 0.65081 1.9472 2.3205 2395.8 -0.0062759 749.75 0.29326
38.375 68362. undefined 169.64 824.27 0.65708 720.00 0.0013889 169.64 824.27 0.65708 1.9513 2.3240 2396.7 -0.0062660 748.27 0.29371 720.00 0.0013889 169.64 824.27 0.65708 1.9513 2.3240 2396.7 -0.0062660 748.27 0.29371
39.375 68613. undefined 171.59 828.63 0.66334 720.00 0.0013889 171.59 828.63 0.66334 1.9553 2.3276 2397.6 -0.0062561 746.80 0.29416 720.00 0.0013889 171.59 828.63 0.66334 1.9553 2.3276 2397.6 -0.0062561 746.80 0.29416
40.375 68863. undefined 173.55 832.98 0.66959 720.00 0.0013889 173.55 832.98 0.66959 1.9593 2.3311 2398.6 -0.0062463 745.35 0.29462 720.00 0.0013889 173.55 832.98 0.66959 1.9593 2.3311 2398.6 -0.0062463 745.35 0.29462
41.375 69113. undefined 175.51 837.34 0.67583 720.00 0.0013889 175.51 837.34 0.67583 1.9634 2.3347 2399.5 -0.0062364 743.91 0.29507 720.00 0.0013889 175.51 837.34 0.67583 1.9634 2.3347 2399.5 -0.0062364 743.91 0.29507
42.375 69362. undefined 177.47 841.69 0.68207 720.00 0.0013889 177.47 841.69 0.68207 1.9674 2.3383 2400.4 -0.0062266 742.48 0.29552 720.00 0.0013889 177.47 841.69 0.68207 1.9674 2.3383 2400.4 -0.0062266 742.48 0.29552
43.375 69611. undefined 179.44 846.04 0.68831 720.00 0.0013889 179.44 846.04 0.68831 1.9715 2.3418 2401.3 -0.0062167 741.07 0.29598 720.00 0.0013889 179.44 846.04 0.68831 1.9715 2.3418 2401.3 -0.0062167 741.07 0.29598
44.375 69860. undefined 181.42 850.40 0.69453 720.00 0.0013889 181.42 850.40 0.69453 1.9756 2.3454 2402.2 -0.0062069 739.67 0.29643 720.00 0.0013889 181.42 850.40 0.69453 1.9756 2.3454 2402.2 -0.0062069 739.67 0.29643
45.375 70108. undefined 183.39 854.75 0.70075 720.00 0.0013889 183.39 854.75 0.70075 1.9796 2.3490 2403.2 -0.0061971 738.28 0.29688 720.00 0.0013889 183.39 854.75 0.70075 1.9796 2.3490 2403.2 -0.0061971 738.28 0.29688
46.375 70356. undefined 185.38 859.11 0.70696 720.00 0.0013889 185.38 859.11 0.70696 1.9837 2.3526 2404.1 -0.0061873 736.91 0.29734 720.00 0.0013889 185.38 859.11 0.70696 1.9837 2.3526 2404.1 -0.0061873 736.91 0.29734
47.375 70604. undefined 187.36 863.47 0.71317 720.00 0.0013889 187.36 863.47 0.71317 1.9878 2.3562 2405.0 -0.0061775 735.55 0.29779 720.00 0.0013889 187.36 863.47 0.71317 1.9878 2.3562 2405.0 -0.0061775 735.55 0.29779
48.375 70851. undefined 189.35 867.82 0.71936 720.00 0.0013889 189.35 867.82 0.71936 1.9919 2.3598 2405.9 -0.0061677 734.21 0.29825 720.00 0.0013889 189.35 867.82 0.71936 1.9919 2.3598 2405.9 -0.0061677 734.21 0.29825
49.375 71097. undefined 191.35 872.18 0.72556 720.00 0.0013889 191.35 872.18 0.72556 1.9959 2.3634 2406.8 -0.0061579 732.88 0.29870 720.00 0.0013889 191.35 872.18 0.72556 1.9959 2.3634 2406.8 -0.0061579 732.88 0.29870
50.375 71344. undefined 193.34 876.54 0.73174 720.00 0.0013889 193.34 876.54 0.73174 2.0000 2.3671 2407.7 -0.0061482 731.56 0.29916 720.00 0.0013889 193.34 876.54 0.73174 2.0000 2.3671 2407.7 -0.0061482 731.56 0.29916
51.375 71590. undefined 195.35 880.89 0.73792 720.00 0.0013889 195.35 880.89 0.73792 2.0041 2.3707 2408.6 -0.0061385 730.25 0.29961 720.00 0.0013889 195.35 880.89 0.73792 2.0041 2.3707 2408.6 -0.0061385 730.25 0.29961
52.375 71835. undefined 197.35 885.25 0.74409 720.00 0.0013889 197.35 885.25 0.74409 2.0082 2.3743 2409.5 -0.0061287 728.96 0.30007 720.00 0.0013889 197.35 885.25 0.74409 2.0082 2.3743 2409.5 -0.0061287 728.96 0.30007
53.375 72081. undefined 199.36 889.61 0.75026 720.00 0.0013889 199.36 889.61 0.75026 2.0123 2.3780 2410.5 -0.0061190 727.67 0.30053 720.00 0.0013889 199.36 889.61 0.75026 2.0123 2.3780 2410.5 -0.0061190 727.67 0.30053
54.375 72326. undefined 201.38 893.97 0.75642 720.00 0.0013889 201.38 893.97 0.75642 2.0164 2.3816 2411.4 -0.0061093 726.40 0.30098 720.00 0.0013889 201.38 893.97 0.75642 2.0164 2.3816 2411.4 -0.0061093 726.40 0.30098
55.375 72570. undefined 203.40 898.33 0.76257 720.00 0.0013889 203.40 898.33 0.76257 2.0205 2.3853 2412.3 -0.0060997 725.14 0.30144 720.00 0.0013889 203.40 898.33 0.76257 2.0205 2.3853 2412.3 -0.0060997 725.14 0.30144
56.375 72814. undefined 205.42 902.69 0.76872 720.00 0.0013889 205.42 902.69 0.76872 2.0246 2.3889 2413.2 -0.0060900 723.90 0.30190 720.00 0.0013889 205.42 902.69 0.76872 2.0246 2.3889 2413.2 -0.0060900 723.90 0.30190
57.375 73058. undefined 207.44 907.05 0.77486 720.00 0.0013889 207.44 907.05 0.77486 2.0287 2.3926 2414.1 -0.0060803 722.66 0.30236 720.00 0.0013889 207.44 907.05 0.77486 2.0287 2.3926 2414.1 -0.0060803 722.66 0.30236
58.375 73301. undefined 209.48 911.41 0.78099 720.00 0.0013889 209.48 911.41 0.78099 2.0328 2.3963 2415.0 -0.0060707 721.44 0.30281 720.00 0.0013889 209.48 911.41 0.78099 2.0328 2.3963 2415.0 -0.0060707 721.44 0.30281
59.375 73544. undefined 211.51 915.77 0.78712 720.00 0.0013889 211.51 915.77 0.78712 2.0369 2.3999 2415.9 -0.0060611 720.23 0.30327 720.00 0.0013889 211.51 915.77 0.78712 2.0369 2.3999 2415.9 -0.0060611 720.23 0.30327
60.375 73787. undefined 213.55 920.14 0.79325 720.00 0.0013889 213.55 920.14 0.79325 2.0411 2.4036 2416.7 -0.0060515 719.02 0.30373 720.00 0.0013889 213.55 920.14 0.79325 2.0411 2.4036 2416.7 -0.0060515 719.02 0.30373
61.375 74029. undefined 215.59 924.50 0.79936 720.00 0.0013889 215.59 924.50 0.79936 2.0452 2.4073 2417.6 -0.0060419 717.83 0.30419 720.00 0.0013889 215.59 924.50 0.79936 2.0452 2.4073 2417.6 -0.0060419 717.83 0.30419
62.375 74271. undefined 217.64 928.86 0.80547 720.00 0.0013889 217.64 928.86 0.80547 2.0493 2.4110 2418.5 -0.0060324 716.65 0.30465 720.00 0.0013889 217.64 928.86 0.80547 2.0493 2.4110 2418.5 -0.0060324 716.65 0.30465
63.375 74513. undefined 219.69 933.23 0.81158 720.00 0.0013889 219.69 933.23 0.81158 2.0534 2.4147 2419.4 -0.0060228 715.49 0.30511 720.00 0.0013889 219.69 933.23 0.81158 2.0534 2.4147 2419.4 -0.0060228 715.49 0.30511
64.375 74754. undefined 221.75 937.59 0.81768 720.00 0.0013889 221.75 937.59 0.81768 2.0576 2.4184 2420.3 -0.0060133 714.33 0.30557 720.00 0.0013889 221.75 937.59 0.81768 2.0576 2.4184 2420.3 -0.0060133 714.33 0.30557
65.375 74995. undefined 223.81 941.96 0.82377 720.00 0.0013889 223.81 941.96 0.82377 2.0617 2.4221 2421.2 -0.0060038 713.18 0.30603 720.00 0.0013889 223.81 941.96 0.82377 2.0617 2.4221 2421.2 -0.0060038 713.18 0.30603
66.375 75235. undefined 225.87 946.33 0.82986 720.00 0.0013889 225.87 946.33 0.82986 2.0658 2.4258 2422.1 -0.0059943 712.04 0.30649 720.00 0.0013889 225.87 946.33 0.82986 2.0658 2.4258 2422.1 -0.0059943 712.04 0.30649
67.375 75475. undefined 227.94 950.69 0.83594 720.00 0.0013889 227.94 950.69 0.83594 2.0700 2.4295 2423.0 -0.0059849 710.92 0.30695 720.00 0.0013889 227.94 950.69 0.83594 2.0700 2.4295 2423.0 -0.0059849 710.92 0.30695
68.375 75715. undefined 230.01 955.06 0.84201 720.00 0.0013889 230.01 955.06 0.84201 2.0741 2.4332 2423.9 -0.0059754 709.80 0.30741 720.00 0.0013889 230.01 955.06 0.84201 2.0741 2.4332 2423.9 -0.0059754 709.80 0.30741
69.375 75955. undefined 232.09 959.43 0.84808 720.00 0.0013889 232.09 959.43 0.84808 2.0782 2.4369 2424.7 -0.0059660 708.69 0.30787 720.00 0.0013889 232.09 959.43 0.84808 2.0782 2.4369 2424.7 -0.0059660 708.69 0.30787
70.375 76194. undefined 234.17 963.80 0.85415 720.00 0.0013889 234.17 963.80 0.85415 2.0824 2.4406 2425.6 -0.0059566 707.60 0.30833 720.00 0.0013889 234.17 963.80 0.85415 2.0824 2.4406 2425.6 -0.0059566 707.60 0.30833
71.375 76433. undefined 236.25 968.17 0.86021 720.00 0.0013889 236.25 968.17 0.86021 2.0865 2.4444 2426.5 -0.0059472 706.51 0.30880 720.00 0.0013889 236.25 968.17 0.86021 2.0865 2.4444 2426.5 -0.0059472 706.51 0.30880
72.375 76671. undefined 238.34 972.55 0.86626 720.00 0.0013889 238.34 972.55 0.86626 2.0906 2.4481 2427.4 -0.0059378 705.43 0.30926 720.00 0.0013889 238.34 972.55 0.86626 2.0906 2.4481 2427.4 -0.0059378 705.43 0.30926
73.375 76909. undefined 240.43 976.92 0.87231 720.00 0.0013889 240.43 976.92 0.87231 2.0948 2.4518 2428.3 -0.0059285 704.36 0.30972 720.00 0.0013889 240.43 976.92 0.87231 2.0948 2.4518 2428.3 -0.0059285 704.36 0.30972
74.375 77147. undefined 242.53 981.29 0.87835 720.00 0.0013889 242.53 981.29 0.87835 2.0989 2.4556 2429.1 -0.0059191 703.31 0.31018 720.00 0.0013889 242.53 981.29 0.87835 2.0989 2.4556 2429.1 -0.0059191 703.31 0.31018
75.375 77384. undefined 244.63 985.67 0.88439 720.00 0.0013889 244.63 985.67 0.88439 2.1031 2.4593 2430.0 -0.0059098 702.26 0.31065 720.00 0.0013889 244.63 985.67 0.88439 2.1031 2.4593 2430.0 -0.0059098 702.26 0.31065
76.375 77621. undefined 246.73 990.04 0.89042 720.00 0.0013889 246.73 990.04 0.89042 2.1072 2.4630 2430.9 -0.0059006 701.22 0.31111 720.00 0.0013889 246.73 990.04 0.89042 2.1072 2.4630 2430.9 -0.0059006 701.22 0.31111
77.375 77858. undefined 248.84 994.42 0.89645 720.00 0.0013889 248.84 994.42 0.89645 2.1114 2.4668 2431.8 -0.0058913 700.19 0.31157 720.00 0.0013889 248.84 994.42 0.89645 2.1114 2.4668 2431.8 -0.0058913 700.19 0.31157
78.375 78095. undefined 250.96 998.79 0.90247 720.00 0.0013889 250.96 998.79 0.90247 2.1155 2.4705 2432.6 -0.0058821 699.16 0.31204 720.00 0.0013889 250.96 998.79 0.90247 2.1155 2.4705 2432.6 -0.0058821 699.16 0.31204
79.375 78331. undefined 253.08 1003.2 0.90848 720.00 0.0013889 253.08 1003.2 0.90848 2.1197 2.4743 2433.5 -0.0058728 698.15 0.31250 720.00 0.0013889 253.08 1003.2 0.90848 2.1197 2.4743 2433.5 -0.0058728 698.15 0.31250
80.375 78566. undefined 255.20 1007.6 0.91449 720.00 0.0013889 255.20 1007.6 0.91449 2.1238 2.4780 2434.4 -0.0058636 697.15 0.31296 720.00 0.0013889 255.20 1007.6 0.91449 2.1238 2.4780 2434.4 -0.0058636 697.15 0.31296
81.375 78802. undefined 257.32 1011.9 0.92050 720.00 0.0013889 257.32 1011.9 0.92050 2.1280 2.4818 2435.3 -0.0058545 696.15 0.31343 720.00 0.0013889 257.32 1011.9 0.92050 2.1280 2.4818 2435.3 -0.0058545 696.15 0.31343
82.375 79037. undefined 259.45 1016.3 0.92650 720.00 0.0013889 259.45 1016.3 0.92650 2.1321 2.4855 2436.1 -0.0058453 695.17 0.31389 720.00 0.0013889 259.45 1016.3 0.92650 2.1321 2.4855 2436.1 -0.0058453 695.17 0.31389
83.375 79272. undefined 261.59 1020.7 0.93249 720.00 0.0013889 261.59 1020.7 0.93249 2.1363 2.4893 2437.0 -0.0058362 694.19 0.31436 720.00 0.0013889 261.59 1020.7 0.93249 2.1363 2.4893 2437.0 -0.0058362 694.19 0.31436
84.375 79506. undefined 263.73 1025.1 0.93848 720.00 0.0013889 263.73 1025.1 0.93848 2.1404 2.4931 2437.9 -0.0058271 693.22 0.31482 720.00 0.0013889 263.73 1025.1 0.93848 2.1404 2.4931 2437.9 -0.0058271 693.22 0.31482
85.375 79740. undefined 265.87 1029.5 0.94446 720.00 0.0013889 265.87 1029.5 0.94446 2.1446 2.4968 2438.7 -0.0058180 692.26 0.31529 720.00 0.0013889 265.87 1029.5 0.94446 2.1446 2.4968 2438.7 -0.0058180 692.26 0.31529
86.375 79974. undefined 268.01 1033.8 0.95044 720.00 0.0013889 268.01 1033.8 0.95044 2.1487 2.5006 2439.6 -0.0058089 691.30 0.31576 720.00 0.0013889 268.01 1033.8 0.95044 2.1487 2.5006 2439.6 -0.0058089 691.30 0.31576
87.375 80207. undefined 270.17 1038.2 0.95642 720.00 0.0013889 270.17 1038.2 0.95642 2.1529 2.5044 2440.5 -0.0057999 690.36 0.31622 720.00 0.0013889 270.17 1038.2 0.95642 2.1529 2.5044 2440.5 -0.0057999 690.36 0.31622
88.375 80441. undefined 272.32 1042.6 0.96239 720.00 0.0013889 272.32 1042.6 0.96239 2.1570 2.5081 2441.3 -0.0057909 689.42 0.31669 720.00 0.0013889 272.32 1042.6 0.96239 2.1570 2.5081 2441.3 -0.0057909 689.42 0.31669
89.375 80673. undefined 274.48 1047.0 0.96835 720.00 0.0013889 274.48 1047.0 0.96835 2.1612 2.5119 2442.2 -0.0057819 688.49 0.31716 720.00 0.0013889 274.48 1047.0 0.96835 2.1612 2.5119 2442.2 -0.0057819 688.49 0.31716
90.375 80906. undefined 276.64 1051.4 0.97431 720.00 0.0013889 276.64 1051.4 0.97431 2.1653 2.5157 2443.0 -0.0057729 687.57 0.31762 720.00 0.0013889 276.64 1051.4 0.97431 2.1653 2.5157 2443.0 -0.0057729 687.57 0.31762
91.375 81138. undefined 278.81 1055.8 0.98026 720.00 0.0013889 278.81 1055.8 0.98026 2.1695 2.5195 2443.9 -0.0057639 686.66 0.31809 720.00 0.0013889 278.81 1055.8 0.98026 2.1695 2.5195 2443.9 -0.0057639 686.66 0.31809
92.375 81370. undefined 280.98 1060.2 0.98621 720.00 0.0013889 280.98 1060.2 0.98621 2.1736 2.5232 2444.8 -0.0057550 685.75 0.31856 720.00 0.0013889 280.98 1060.2 0.98621 2.1736 2.5232 2444.8 -0.0057550 685.75 0.31856
93.375 81602. undefined 283.16 1064.6 0.99216 720.00 0.0013889 283.16 1064.6 0.99216 2.1778 2.5270 2445.6 -0.0057461 684.85 0.31903 720.00 0.0013889 283.16 1064.6 0.99216 2.1778 2.5270 2445.6 -0.0057461 684.85 0.31903
94.375 81833. undefined 285.34 1069.0 0.99810 720.00 0.0013889 285.34 1069.0 0.99810 2.1819 2.5308 2446.5 -0.0057373 683.96 0.31950 720.00 0.0013889 285.34 1069.0 0.99810 2.1819 2.5308 2446.5 -0.0057373 683.96 0.31950
95.375 82064. undefined 287.52 1073.4 1.0040 720.00 0.0013889 287.52 1073.4 1.0040 2.1861 2.5346 2447.3 -0.0057284 683.08 0.31997 720.00 0.0013889 287.52 1073.4 1.0040 2.1861 2.5346 2447.3 -0.0057284 683.08 0.31997
96.375 82295. undefined 289.71 1077.8 1.0100 720.00 0.0013889 289.71 1077.8 1.0100 2.1902 2.5383 2448.2 -0.0057196 682.20 0.32043 720.00 0.0013889 289.71 1077.8 1.0100 2.1902 2.5383 2448.2 -0.0057196 682.20 0.32043
97.375 82525. undefined 291.90 1082.2 1.0159 720.00 0.0013889 291.90 1082.2 1.0159 2.1943 2.5421 2449.0 -0.0057108 681.34 0.32090 720.00 0.0013889 291.90 1082.2 1.0159 2.1943 2.5421 2449.0 -0.0057108 681.34 0.32090
98.375 82755. undefined 294.10 1086.6 1.0218 720.00 0.0013889 294.10 1086.6 1.0218 2.1985 2.5459 2449.9 -0.0057020 680.47 0.32137 720.00 0.0013889 294.10 1086.6 1.0218 2.1985 2.5459 2449.9 -0.0057020 680.47 0.32137
99.375 82985. undefined 296.30 1091.0 1.0277 720.00 0.0013889 296.30 1091.0 1.0277 2.2026 2.5497 2450.7 -0.0056932 679.62 0.32184 720.00 0.0013889 296.30 1091.0 1.0277 2.2026 2.5497 2450.7 -0.0056932 679.62 0.32184
100.38 83214. undefined 298.50 1095.4 1.0336 720.00 0.0013889 298.50 1095.4 1.0336 2.2068 2.5535 2451.6 -0.0056845 678.77 0.32231 720.00 0.0013889 298.50 1095.4 1.0336 2.2068 2.5535 2451.6 -0.0056845 678.77 0.32231
101.38 83443. undefined 300.71 1099.8 1.0395 720.00 0.0013889 300.71 1099.8 1.0395 2.2109 2.5573 2452.4 -0.0056758 677.93 0.32278 720.00 0.0013889 300.71 1099.8 1.0395 2.2109 2.5573 2452.4 -0.0056758 677.93 0.32278
102.38 83672. undefined 302.92 1104.2 1.0454 720.00 0.0013889 302.92 1104.2 1.0454 2.2151 2.5610 2453.3 -0.0056671 677.10 0.32326 720.00 0.0013889 302.92 1104.2 1.0454 2.2151 2.5610 2453.3 -0.0056671 677.10 0.32326
103.38 83901. undefined 305.14 1108.6 1.0513 720.00 0.0013889 305.14 1108.6 1.0513 2.2192 2.5648 2454.1 -0.0056585 676.27 0.32373 720.00 0.0013889 305.14 1108.6 1.0513 2.2192 2.5648 2454.1 -0.0056585 676.27 0.32373
104.38 84129. undefined 307.36 1113.0 1.0572 720.00 0.0013889 307.36 1113.0 1.0572 2.2233 2.5686 2455.0 -0.0056498 675.45 0.32420 720.00 0.0013889 307.36 1113.0 1.0572 2.2233 2.5686 2455.0 -0.0056498 675.45 0.32420
105.38 84357. undefined 309.59 1117.4 1.0631 720.00 0.0013889 309.59 1117.4 1.0631 2.2275 2.5724 2455.8 -0.0056412 674.64 0.32467 720.00 0.0013889 309.59 1117.4 1.0631 2.2275 2.5724 2455.8 -0.0056412 674.64 0.32467
106.38 84585. undefined 311.82 1121.8 1.0690 720.00 0.0013889 311.82 1121.8 1.0690 2.2316 2.5762 2456.7 -0.0056327 673.83 0.32514 720.00 0.0013889 311.82 1121.8 1.0690 2.2316 2.5762 2456.7 -0.0056327 673.83 0.32514
107.38 84812. undefined 314.05 1126.2 1.0749 720.00 0.0013889 314.05 1126.2 1.0749 2.2358 2.5800 2457.5 -0.0056241 673.03 0.32561 720.00 0.0013889 314.05 1126.2 1.0749 2.2358 2.5800 2457.5 -0.0056241 673.03 0.32561
108.38 85039. undefined 316.29 1130.6 1.0807 720.00 0.0013889 316.29 1130.6 1.0807 2.2399 2.5838 2458.4 -0.0056156 672.24 0.32609 720.00 0.0013889 316.29 1130.6 1.0807 2.2399 2.5838 2458.4 -0.0056156 672.24 0.32609
109.38 85266. undefined 318.53 1135.0 1.0866 720.00 0.0013889 318.53 1135.0 1.0866 2.2440 2.5875 2459.2 -0.0056071 671.45 0.32656 720.00 0.0013889 318.53 1135.0 1.0866 2.2440 2.5875 2459.2 -0.0056071 671.45 0.32656
110.38 85492. undefined 320.78 1139.5 1.0925 720.00 0.0013889 320.78 1139.5 1.0925 2.2481 2.5913 2460.1 -0.0055986 670.67 0.32703 720.00 0.0013889 320.78 1139.5 1.0925 2.2481 2.5913 2460.1 -0.0055986 670.67 0.32703
111.38 85718. undefined 323.03 1143.9 1.0983 720.00 0.0013889 323.03 1143.9 1.0983 2.2523 2.5951 2460.9 -0.0055901 669.89 0.32751 720.00 0.0013889 323.03 1143.9 1.0983 2.2523 2.5951 2460.9 -0.0055901 669.89 0.32751
112.38 85944. undefined 325.28 1148.3 1.1042 720.00 0.0013889 325.28 1148.3 1.1042 2.2564 2.5989 2461.7 -0.0055817 669.13 0.32798 720.00 0.0013889 325.28 1148.3 1.1042 2.2564 2.5989 2461.7 -0.0055817 669.13 0.32798
113.38 86170. undefined 327.54 1152.7 1.1100 720.00 0.0013889 327.54 1152.7 1.1100 2.2605 2.6027 2462.6 -0.0055733 668.36 0.32845 720.00 0.0013889 327.54 1152.7 1.1100 2.2605 2.6027 2462.6 -0.0055733 668.36 0.32845
114.38 86395. undefined 329.80 1157.1 1.1159 720.00 0.0013889 329.80 1157.1 1.1159 2.2646 2.6065 2463.4 -0.0055649 667.61 0.32893 720.00 0.0013889 329.80 1157.1 1.1159 2.2646 2.6065 2463.4 -0.0055649 667.61 0.32893
115.38 86620. undefined 332.07 1161.6 1.1217 720.00 0.0013889 332.07 1161.6 1.1217 2.2688 2.6103 2464.3 -0.0055566 666.86 0.32940 720.00 0.0013889 332.07 1161.6 1.1217 2.2688 2.6103 2464.3 -0.0055566 666.86 0.32940
116.38 86845. undefined 334.34 1166.0 1.1276 720.00 0.0013889 334.34 1166.0 1.1276 2.2729 2.6140 2465.1 -0.0055483 666.11 0.32988 720.00 0.0013889 334.34 1166.0 1.1276 2.2729 2.6140 2465.1 -0.0055483 666.11 0.32988
117.38 87070. undefined 336.62 1170.4 1.1334 720.00 0.0013889 336.62 1170.4 1.1334 2.2770 2.6178 2465.9 -0.0055400 665.37 0.33035 720.00 0.0013889 336.62 1170.4 1.1334 2.2770 2.6178 2465.9 -0.0055400 665.37 0.33035
118.38 87294. undefined 338.89 1174.8 1.1392 720.00 0.0013889 338.89 1174.8 1.1392 2.2811 2.6216 2466.8 -0.0055317 664.64 0.33083 720.00 0.0013889 338.89 1174.8 1.1392 2.2811 2.6216 2466.8 -0.0055317 664.64 0.33083
119.38 87518. undefined 341.18 1179.3 1.1451 720.00 0.0013889 341.18 1179.3 1.1451 2.2852 2.6254 2467.6 -0.0055234 663.91 0.33130 720.00 0.0013889 341.18 1179.3 1.1451 2.2852 2.6254 2467.6 -0.0055234 663.91 0.33130
120.38 87742. undefined 343.47 1183.7 1.1509 720.00 0.0013889 343.47 1183.7 1.1509 2.2893 2.6292 2468.4 -0.0055152 663.19 0.33178 720.00 0.0013889 343.47 1183.7 1.1509 2.2893 2.6292 2468.4 -0.0055152 663.19 0.33178
121.38 87965. undefined 345.76 1188.1 1.1567 720.00 0.0013889 345.76 1188.1 1.1567 2.2934 2.6329 2469.3 -0.0055070 662.48 0.33226 720.00 0.0013889 345.76 1188.1 1.1567 2.2934 2.6329 2469.3 -0.0055070 662.48 0.33226
122.38 88188. undefined 348.05 1192.5 1.1625 720.00 0.0013889 348.05 1192.5 1.1625 2.2976 2.6367 2470.1 -0.0054988 661.77 0.33273 720.00 0.0013889 348.05 1192.5 1.1625 2.2976 2.6367 2470.1 -0.0054988 661.77 0.33273
123.38 88411. undefined 350.35 1197.0 1.1683 720.00 0.0013889 350.35 1197.0 1.1683 2.3017 2.6405 2470.9 -0.0054907 661.06 0.33321 720.00 0.0013889 350.35 1197.0 1.1683 2.3017 2.6405 2470.9 -0.0054907 661.06 0.33321
124.38 88633. undefined 352.66 1201.4 1.1741 720.00 0.0013889 352.66 1201.4 1.1741 2.3058 2.6443 2471.8 -0.0054826 660.36 0.33369 720.00 0.0013889 352.66 1201.4 1.1741 2.3058 2.6443 2471.8 -0.0054826 660.36 0.33369
125.38 88856. undefined 354.96 1205.8 1.1799 720.00 0.0013889 354.96 1205.8 1.1799 2.3099 2.6480 2472.6 -0.0054745 659.67 0.33416 720.00 0.0013889 354.96 1205.8 1.1799 2.3099 2.6480 2472.6 -0.0054745 659.67 0.33416
126.38 89078. undefined 357.28 1210.3 1.1857 720.00 0.0013889 357.28 1210.3 1.1857 2.3140 2.6518 2473.4 -0.0054664 658.98 0.33464 720.00 0.0013889 357.28 1210.3 1.1857 2.3140 2.6518 2473.4 -0.0054664 658.98 0.33464
127.38 89299. undefined 359.59 1214.7 1.1915 720.00 0.0013889 359.59 1214.7 1.1915 2.3180 2.6556 2474.3 -0.0054584 658.30 0.33512 720.00 0.0013889 359.59 1214.7 1.1915 2.3180 2.6556 2474.3 -0.0054584 658.30 0.33512
128.38 89521. undefined 361.91 1219.2 1.1973 720.00 0.0013889 361.91 1219.2 1.1973 2.3221 2.6594 2475.1 -0.0054503 657.62 0.33560 720.00 0.0013889 361.91 1219.2 1.1973 2.3221 2.6594 2475.1 -0.0054503 657.62 0.33560
129.38 89742. undefined 364.24 1223.6 1.2031 720.00 0.0013889 364.24 1223.6 1.2031 2.3262 2.6631 2475.9 -0.0054424 656.95 0.33608 720.00 0.0013889 364.24 1223.6 1.2031 2.3262 2.6631 2475.9 -0.0054424 656.95 0.33608
130.38 89963. undefined 366.56 1228.1 1.2088 720.00 0.0013889 366.56 1228.1 1.2088 2.3303 2.6669 2476.7 -0.0054344 656.28 0.33656 720.00 0.0013889 366.56 1228.1 1.2088 2.3303 2.6669 2476.7 -0.0054344 656.28 0.33656
131.38 90184. undefined 368.90 1232.5 1.2146 720.00 0.0013889 368.90 1232.5 1.2146 2.3344 2.6707 2477.6 -0.0054265 655.62 0.33704 720.00 0.0013889 368.90 1232.5 1.2146 2.3344 2.6707 2477.6 -0.0054265 655.62 0.33704
132.38 90404. undefined 371.23 1236.9 1.2204 720.00 0.0013889 371.23 1236.9 1.2204 2.3385 2.6744 2478.4 -0.0054185 654.96 0.33752 720.00 0.0013889 371.23 1236.9 1.2204 2.3385 2.6744 2478.4 -0.0054185 654.96 0.33752
133.38 90624. undefined 373.57 1241.4 1.2261 720.00 0.0013889 373.57 1241.4 1.2261 2.3425 2.6782 2479.2 -0.0054106 654.31 0.33800 720.00 0.0013889 373.57 1241.4 1.2261 2.3425 2.6782 2479.2 -0.0054106 654.31 0.33800
134.38 90844. undefined 375.92 1245.8 1.2319 720.00 0.0013889 375.92 1245.8 1.2319 2.3466 2.6820 2480.0 -0.0054028 653.66 0.33848 720.00 0.0013889 375.92 1245.8 1.2319 2.3466 2.6820 2480.0 -0.0054028 653.66 0.33848
135.38 91064. undefined 378.27 1250.3 1.2377 720.00 0.0013889 378.27 1250.3 1.2377 2.3507 2.6857 2480.9 -0.0053949 653.02 0.33896 720.00 0.0013889 378.27 1250.3 1.2377 2.3507 2.6857 2480.9 -0.0053949 653.02 0.33896
136.38 91283. undefined 380.62 1254.8 1.2434 720.00 0.0013889 380.62 1254.8 1.2434 2.3547 2.6895 2481.7 -0.0053871 652.38 0.33944 720.00 0.0013889 380.62 1254.8 1.2434 2.3547 2.6895 2481.7 -0.0053871 652.38 0.33944
137.38 91502. undefined 382.98 1259.2 1.2492 720.00 0.0013889 382.98 1259.2 1.2492 2.3588 2.6932 2482.5 -0.0053794 651.75 0.33992 720.00 0.0013889 382.98 1259.2 1.2492 2.3588 2.6932 2482.5 -0.0053794 651.75 0.33992
138.38 91721. undefined 385.34 1263.7 1.2549 720.00 0.0013889 385.34 1263.7 1.2549 2.3629 2.6970 2483.3 -0.0053716 651.12 0.34040 720.00 0.0013889 385.34 1263.7 1.2549 2.3629 2.6970 2483.3 -0.0053716 651.12 0.34040
139.38 91940. undefined 387.70 1268.1 1.2606 720.00 0.0013889 387.70 1268.1 1.2606 2.3669 2.7007 2484.1 -0.0053639 650.50 0.34088 720.00 0.0013889 387.70 1268.1 1.2606 2.3669 2.7007 2484.1 -0.0053639 650.50 0.34088
140.38 92158. undefined 390.07 1272.6 1.2664 720.00 0.0013889 390.07 1272.6 1.2664 2.3710 2.7045 2485.0 -0.0053562 649.88 0.34136 720.00 0.0013889 390.07 1272.6 1.2664 2.3710 2.7045 2485.0 -0.0053562 649.88 0.34136
141.38 92376. undefined 392.44 1277.0 1.2721 720.00 0.0013889 392.44 1277.0 1.2721 2.3750 2.7082 2485.8 -0.0053485 649.26 0.34185 720.00 0.0013889 392.44 1277.0 1.2721 2.3750 2.7082 2485.8 -0.0053485 649.26 0.34185
142.38 92594. undefined 394.82 1281.5 1.2778 720.00 0.0013889 394.82 1281.5 1.2778 2.3791 2.7120 2486.6 -0.0053408 648.65 0.34233 720.00 0.0013889 394.82 1281.5 1.2778 2.3791 2.7120 2486.6 -0.0053408 648.65 0.34233
143.38 92812. undefined 397.20 1286.0 1.2836 720.00 0.0013889 397.20 1286.0 1.2836 2.3831 2.7157 2487.4 -0.0053332 648.05 0.34281 720.00 0.0013889 397.20 1286.0 1.2836 2.3831 2.7157 2487.4 -0.0053332 648.05 0.34281
144.38 93029. undefined 399.59 1290.4 1.2893 720.00 0.0013889 399.59 1290.4 1.2893 2.3872 2.7195 2488.2 -0.0053256 647.45 0.34329 720.00 0.0013889 399.59 1290.4 1.2893 2.3872 2.7195 2488.2 -0.0053256 647.45 0.34329
145.38 93246. undefined 401.98 1294.9 1.2950 720.00 0.0013889 401.98 1294.9 1.2950 2.3912 2.7232 2489.0 -0.0053180 646.85 0.34378 720.00 0.0013889 401.98 1294.9 1.2950 2.3912 2.7232 2489.0 -0.0053180 646.85 0.34378
146.38 93463. undefined 404.37 1299.4 1.3007 720.00 0.0013889 404.37 1299.4 1.3007 2.3952 2.7270 2489.9 -0.0053104 646.26 0.34426 720.00 0.0013889 404.37 1299.4 1.3007 2.3952 2.7270 2489.9 -0.0053104 646.26 0.34426
147.38 93679. undefined 406.77 1303.8 1.3064 720.00 0.0013889 406.77 1303.8 1.3064 2.3993 2.7307 2490.7 -0.0053029 645.67 0.34474 720.00 0.0013889 406.77 1303.8 1.3064 2.3993 2.7307 2490.7 -0.0053029 645.67 0.34474
148.38 93896. undefined 409.17 1308.3 1.3121 720.00 0.0013889 409.17 1308.3 1.3121 2.4033 2.7344 2491.5 -0.0052954 645.09 0.34523 720.00 0.0013889 409.17 1308.3 1.3121 2.4033 2.7344 2491.5 -0.0052954 645.09 0.34523
149.38 94112. undefined 411.57 1312.8 1.3178 720.00 0.0013889 411.57 1312.8 1.3178 2.4073 2.7381 2492.3 -0.0052879 644.51 0.34571 720.00 0.0013889 411.57 1312.8 1.3178 2.4073 2.7381 2492.3 -0.0052879 644.51 0.34571
150.38 94327. undefined 413.98 1317.3 1.3235 720.00 0.0013889 413.98 1317.3 1.3235 2.4113 2.7419 2493.1 -0.0052805 643.93 0.34620 720.00 0.0013889 413.98 1317.3 1.3235 2.4113 2.7419 2493.1 -0.0052805 643.93 0.34620
151.38 94543. undefined 416.40 1321.7 1.3292 720.00 0.0013889 416.40 1321.7 1.3292 2.4153 2.7456 2493.9 -0.0052730 643.36 0.34668 720.00 0.0013889 416.40 1321.7 1.3292 2.4153 2.7456 2493.9 -0.0052730 643.36 0.34668
152.38 94758. undefined 418.81 1326.2 1.3349 720.00 0.0013889 418.81 1326.2 1.3349 2.4193 2.7493 2494.7 -0.0052656 642.80 0.34717 720.00 0.0013889 418.81 1326.2 1.3349 2.4193 2.7493 2494.7 -0.0052656 642.80 0.34717
153.38 94973. undefined 421.23 1330.7 1.3406 720.00 0.0013889 421.23 1330.7 1.3406 2.4234 2.7530 2495.5 -0.0052583 642.24 0.34765 720.00 0.0013889 421.23 1330.7 1.3406 2.4234 2.7530 2495.5 -0.0052583 642.24 0.34765
154.38 95188. undefined 423.66 1335.2 1.3463 720.00 0.0013889 423.66 1335.2 1.3463 2.4274 2.7568 2496.4 -0.0052509 641.68 0.34814 720.00 0.0013889 423.66 1335.2 1.3463 2.4274 2.7568 2496.4 -0.0052509 641.68 0.34814
155.38 95403. undefined 426.09 1339.7 1.3519 720.00 0.0013889 426.09 1339.7 1.3519 2.4314 2.7605 2497.2 -0.0052436 641.12 0.34863 720.00 0.0013889 426.09 1339.7 1.3519 2.4314 2.7605 2497.2 -0.0052436 641.12 0.34863
156.38 95617. undefined 428.52 1344.2 1.3576 720.00 0.0013889 428.52 1344.2 1.3576 2.4354 2.7642 2498.0 -0.0052363 640.57 0.34911 720.00 0.0013889 428.52 1344.2 1.3576 2.4354 2.7642 2498.0 -0.0052363 640.57 0.34911
157.38 95831. undefined 430.96 1348.6 1.3633 720.00 0.0013889 430.96 1348.6 1.3633 2.4393 2.7679 2498.8 -0.0052290 640.03 0.34960 720.00 0.0013889 430.96 1348.6 1.3633 2.4393 2.7679 2498.8 -0.0052290 640.03 0.34960
158.38 96045. undefined 433.40 1353.1 1.3689 720.00 0.0013889 433.40 1353.1 1.3689 2.4433 2.7716 2499.6 -0.0052218 639.48 0.35009 720.00 0.0013889 433.40 1353.1 1.3689 2.4433 2.7716 2499.6 -0.0052218 639.48 0.35009
159.38 96259. undefined 435.85 1357.6 1.3746 720.00 0.0013889 435.85 1357.6 1.3746 2.4473 2.7753 2500.4 -0.0052145 638.95 0.35058 720.00 0.0013889 435.85 1357.6 1.3746 2.4473 2.7753 2500.4 -0.0052145 638.95 0.35058
160.38 96472. undefined 438.30 1362.1 1.3802 720.00 0.0013889 438.30 1362.1 1.3802 2.4513 2.7790 2501.2 -0.0052073 638.41 0.35106 720.00 0.0013889 438.30 1362.1 1.3802 2.4513 2.7790 2501.2 -0.0052073 638.41 0.35106
161.38 96685. undefined 440.75 1366.6 1.3859 720.00 0.0013889 440.75 1366.6 1.3859 2.4553 2.7827 2502.0 -0.0052001 637.88 0.35155 720.00 0.0013889 440.75 1366.6 1.3859 2.4553 2.7827 2502.0 -0.0052001 637.88 0.35155
162.38 96898. undefined 443.21 1371.1 1.3915 720.00 0.0013889 443.21 1371.1 1.3915 2.4592 2.7864 2502.8 -0.0051930 637.35 0.35204 720.00 0.0013889 443.21 1371.1 1.3915 2.4592 2.7864 2502.8 -0.0051930 637.35 0.35204
163.38 97111. undefined 445.67 1375.6 1.3972 720.00 0.0013889 445.67 1375.6 1.3972 2.4632 2.7901 2503.6 -0.0051859 636.83 0.35253 720.00 0.0013889 445.67 1375.6 1.3972 2.4632 2.7901 2503.6 -0.0051859 636.83 0.35253
164.38 97323. undefined 448.13 1380.1 1.4028 720.00 0.0013889 448.13 1380.1 1.4028 2.4672 2.7938 2504.4 -0.0051788 636.31 0.35302 720.00 0.0013889 448.13 1380.1 1.4028 2.4672 2.7938 2504.4 -0.0051788 636.31 0.35302
165.38 97536. undefined 450.60 1384.6 1.4085 720.00 0.0013889 450.60 1384.6 1.4085 2.4711 2.7975 2505.2 -0.0051717 635.80 0.35351 720.00 0.0013889 450.60 1384.6 1.4085 2.4711 2.7975 2505.2 -0.0051717 635.80 0.35351
166.38 97748. undefined 453.07 1389.1 1.4141 720.00 0.0013889 453.07 1389.1 1.4141 2.4751 2.8011 2506.0 -0.0051646 635.28 0.35400 720.00 0.0013889 453.07 1389.1 1.4141 2.4751 2.8011 2506.0 -0.0051646 635.28 0.35400
167.38 97959. undefined 455.55 1393.6 1.4197 720.00 0.0013889 455.55 1393.6 1.4197 2.4790 2.8048 2506.8 -0.0051576 634.78 0.35449 720.00 0.0013889 455.55 1393.6 1.4197 2.4790 2.8048 2506.8 -0.0051576 634.78 0.35449
168.38 98171. undefined 458.03 1398.1 1.4254 720.00 0.0013889 458.03 1398.1 1.4254 2.4830 2.8085 2507.6 -0.0051506 634.27 0.35498 720.00 0.0013889 458.03 1398.1 1.4254 2.4830 2.8085 2507.6 -0.0051506 634.27 0.35498
169.38 98382. undefined 460.52 1402.6 1.4310 720.00 0.0013889 460.52 1402.6 1.4310 2.4869 2.8122 2508.4 -0.0051436 633.77 0.35547 720.00 0.0013889 460.52 1402.6 1.4310 2.4869 2.8122 2508.4 -0.0051436 633.77 0.35547
170.38 98593. undefined 463.01 1407.1 1.4366 720.00 0.0013889 463.01 1407.1 1.4366 2.4909 2.8158 2509.2 -0.0051367 633.27 0.35596 720.00 0.0013889 463.01 1407.1 1.4366 2.4909 2.8158 2509.2 -0.0051367 633.27 0.35596
171.38 98804. undefined 465.50 1411.7 1.4422 720.00 0.0013889 465.50 1411.7 1.4422 2.4948 2.8195 2510.0 -0.0051297 632.78 0.35645 720.00 0.0013889 465.50 1411.7 1.4422 2.4948 2.8195 2510.0 -0.0051297 632.78 0.35645
172.38 99015. undefined 468.00 1416.2 1.4478 720.00 0.0013889 468.00 1416.2 1.4478 2.4987 2.8232 2510.8 -0.0051228 632.29 0.35694 720.00 0.0013889 468.00 1416.2 1.4478 2.4987 2.8232 2510.8 -0.0051228 632.29 0.35694
173.38 99225. undefined 470.50 1420.7 1.4534 720.00 0.0013889 470.50 1420.7 1.4534 2.5027 2.8268 2511.6 -0.0051159 631.80 0.35743 720.00 0.0013889 470.50 1420.7 1.4534 2.5027 2.8268 2511.6 -0.0051159 631.80 0.35743
174.38 99435. undefined 473.00 1425.2 1.4590 720.00 0.0013889 473.00 1425.2 1.4590 2.5066 2.8305 2512.4 -0.0051091 631.31 0.35792 720.00 0.0013889 473.00 1425.2 1.4590 2.5066 2.8305 2512.4 -0.0051091 631.31 0.35792
175.38 99645. undefined 475.51 1429.7 1.4646 720.00 0.0013889 475.51 1429.7 1.4646 2.5105 2.8341 2513.2 -0.0051022 630.83 0.35841 720.00 0.0013889 475.51 1429.7 1.4646 2.5105 2.8341 2513.2 -0.0051022 630.83 0.35841
176.38 99855. undefined 478.02 1434.2 1.4702 720.00 0.0013889 478.02 1434.2 1.4702 2.5144 2.8378 2514.0 -0.0050954 630.35 0.35891 720.00 0.0013889 478.02 1434.2 1.4702 2.5144 2.8378 2514.0 -0.0050954 630.35 0.35891
177.38 1.0006e+05 undefined 480.54 1438.8 1.4758 720.00 0.0013889 480.54 1438.8 1.4758 2.5183 2.8414 2514.8 -0.0050886 629.88 0.35940 720.00 0.0013889 480.54 1438.8 1.4758 2.5183 2.8414 2514.8 -0.0050886 629.88 0.35940
178.38 1.0027e+05 undefined 483.06 1443.3 1.4814 720.00 0.0013889 483.06 1443.3 1.4814 2.5222 2.8451 2515.6 -0.0050819 629.41 0.35989 720.00 0.0013889 483.06 1443.3 1.4814 2.5222 2.8451 2515.6 -0.0050819 629.41 0.35989
179.38 1.0048e+05 undefined 485.58 1447.8 1.4870 720.00 0.0013889 485.58 1447.8 1.4870 2.5261 2.8487 2516.4 -0.0050751 628.94 0.36039 720.00 0.0013889 485.58 1447.8 1.4870 2.5261 2.8487 2516.4 -0.0050751 628.94 0.36039
180.38 1.0069e+05 undefined 488.11 1452.3 1.4926 720.00 0.0013889 488.11 1452.3 1.4926 2.5300 2.8524 2517.2 -0.0050684 628.48 0.36088 720.00 0.0013889 488.11 1452.3 1.4926 2.5300 2.8524 2517.2 -0.0050684 628.48 0.36088
181.38 1.0090e+05 undefined 490.64 1456.9 1.4981 720.00 0.0013889 490.64 1456.9 1.4981 2.5339 2.8560 2518.0 -0.0050617 628.02 0.36137 720.00 0.0013889 490.64 1456.9 1.4981 2.5339 2.8560 2518.0 -0.0050617 628.02 0.36137
182.38 1.0111e+05 undefined 493.18 1461.4 1.5037 720.00 0.0013889 493.18 1461.4 1.5037 2.5378 2.8596 2518.8 -0.0050551 627.56 0.36187 720.00 0.0013889 493.18 1461.4 1.5037 2.5378 2.8596 2518.8 -0.0050551 627.56 0.36187
183.38 1.0132e+05 undefined 495.72 1465.9 1.5093 720.00 0.0013889 495.72 1465.9 1.5093 2.5417 2.8632 2519.6 -0.0050484 627.10 0.36236 720.00 0.0013889 495.72 1465.9 1.5093 2.5417 2.8632 2519.6 -0.0050484 627.10 0.36236
184.38 1.0152e+05 undefined 498.26 1470.5 1.5149 720.00 0.0013889 498.26 1470.5 1.5149 2.5455 2.8669 2520.3 -0.0050418 626.65 0.36286 720.00 0.0013889 498.26 1470.5 1.5149 2.5455 2.8669 2520.3 -0.0050418 626.65 0.36286
185.38 1.0173e+05 undefined 500.81 1475.0 1.5204 720.00 0.0013889 500.81 1475.0 1.5204 2.5494 2.8705 2521.1 -0.0050352 626.20 0.36335 720.00 0.0013889 500.81 1475.0 1.5204 2.5494 2.8705 2521.1 -0.0050352 626.20 0.36335
186.38 1.0194e+05 undefined 503.36 1479.5 1.5260 720.00 0.0013889 503.36 1479.5 1.5260 2.5533 2.8741 2521.9 -0.0050286 625.76 0.36385 720.00 0.0013889 503.36 1479.5 1.5260 2.5533 2.8741 2521.9 -0.0050286 625.76 0.36385
187.38 1.0215e+05 undefined 505.92 1484.1 1.5315 720.00 0.0013889 505.92 1484.1 1.5315 2.5572 2.8777 2522.7 -0.0050221 625.31 0.36434 720.00 0.0013889 505.92 1484.1 1.5315 2.5572 2.8777 2522.7 -0.0050221 625.31 0.36434
188.38 1.0235e+05 undefined 508.48 1488.6 1.5371 720.00 0.0013889 508.48 1488.6 1.5371 2.5610 2.8813 2523.5 -0.0050155 624.87 0.36484 720.00 0.0013889 508.48 1488.6 1.5371 2.5610 2.8813 2523.5 -0.0050155 624.87 0.36484
189.38 1.0256e+05 undefined 511.04 1493.2 1.5426 720.00 0.0013889 511.04 1493.2 1.5426 2.5649 2.8849 2524.3 -0.0050090 624.44 0.36534 720.00 0.0013889 511.04 1493.2 1.5426 2.5649 2.8849 2524.3 -0.0050090 624.44 0.36534
190.38 1.0277e+05 undefined 513.61 1497.7 1.5482 720.00 0.0013889 513.61 1497.7 1.5482 2.5687 2.8885 2525.1 -0.0050025 624.00 0.36583 720.00 0.0013889 513.61 1497.7 1.5482 2.5687 2.8885 2525.1 -0.0050025 624.00 0.36583
191.38 1.0297e+05 undefined 516.18 1502.3 1.5537 720.00 0.0013889 516.18 1502.3 1.5537 2.5726 2.8921 2525.9 -0.0049961 623.57 0.36633 720.00 0.0013889 516.18 1502.3 1.5537 2.5726 2.8921 2525.9 -0.0049961 623.57 0.36633
192.38 1.0318e+05 undefined 518.75 1506.8 1.5592 720.00 0.0013889 518.75 1506.8 1.5592 2.5764 2.8957 2526.6 -0.0049896 623.14 0.36683 720.00 0.0013889 518.75 1506.8 1.5592 2.5764 2.8957 2526.6 -0.0049896 623.14 0.36683
193.38 1.0339e+05 undefined 521.33 1511.4 1.5648 720.00 0.0013889 521.33 1511.4 1.5648 2.5802 2.8993 2527.4 -0.0049832 622.72 0.36732 720.00 0.0013889 521.33 1511.4 1.5648 2.5802 2.8993 2527.4 -0.0049832 622.72 0.36732
194.38 1.0359e+05 undefined 523.91 1515.9 1.5703 720.00 0.0013889 523.91 1515.9 1.5703 2.5841 2.9029 2528.2 -0.0049768 622.29 0.36782 720.00 0.0013889 523.91 1515.9 1.5703 2.5841 2.9029 2528.2 -0.0049768 622.29 0.36782
195.38 1.0380e+05 undefined 526.50 1520.5 1.5758 720.00 0.0013889 526.50 1520.5 1.5758 2.5879 2.9064 2529.0 -0.0049705 621.87 0.36832 720.00 0.0013889 526.50 1520.5 1.5758 2.5879 2.9064 2529.0 -0.0049705 621.87 0.36832
196.38 1.0400e+05 undefined 529.09 1525.0 1.5814 720.00 0.0013889 529.09 1525.0 1.5814 2.5917 2.9100 2529.8 -0.0049641 621.46 0.36882 720.00 0.0013889 529.09 1525.0 1.5814 2.5917 2.9100 2529.8 -0.0049641 621.46 0.36882
197.38 1.0421e+05 undefined 531.68 1529.6 1.5869 720.00 0.0013889 531.68 1529.6 1.5869 2.5955 2.9136 2530.6 -0.0049578 621.04 0.36932 720.00 0.0013889 531.68 1529.6 1.5869 2.5955 2.9136 2530.6 -0.0049578 621.04 0.36932
198.38 1.0441e+05 undefined 534.28 1534.1 1.5924 720.00 0.0013889 534.28 1534.1 1.5924 2.5993 2.9172 2531.3 -0.0049515 620.63 0.36981 720.00 0.0013889 534.28 1534.1 1.5924 2.5993 2.9172 2531.3 -0.0049515 620.63 0.36981
199.38 1.0462e+05 undefined 536.88 1538.7 1.5979 720.00 0.0013889 536.88 1538.7 1.5979 2.6031 2.9207 2532.1 -0.0049452 620.22 0.37031 720.00 0.0013889 536.88 1538.7 1.5979 2.6031 2.9207 2532.1 -0.0049452 620.22 0.37031
200.38 1.0482e+05 undefined 539.48 1543.3 1.6034 720.00 0.0013889 539.48 1543.3 1.6034 2.6069 2.9243 2532.9 -0.0049389 619.82 0.37081 720.00 0.0013889 539.48 1543.3 1.6034 2.6069 2.9243 2532.9 -0.0049389 619.82 0.37081
201.38 1.0503e+05 undefined 542.09 1547.8 1.6089 720.00 0.0013889 542.09 1547.8 1.6089 2.6107 2.9278 2533.7 -0.0049327 619.41 0.37131 720.00 0.0013889 542.09 1547.8 1.6089 2.6107 2.9278 2533.7 -0.0049327 619.41 0.37131
202.38 1.0523e+05 undefined 544.71 1552.4 1.6144 720.00 0.0013889 544.71 1552.4 1.6144 2.6145 2.9314 2534.5 -0.0049265 619.01 0.37181 720.00 0.0013889 544.71 1552.4 1.6144 2.6145 2.9314 2534.5 -0.0049265 619.01 0.37181
203.38 1.0544e+05 undefined 547.32 1557.0 1.6199 720.00 0.0013889 547.32 1557.0 1.6199 2.6183 2.9349 2535.2 -0.0049203 618.62 0.37231 720.00 0.0013889 547.32 1557.0 1.6199 2.6183 2.9349 2535.2 -0.0049203 618.62 0.37231
204.38 1.0564e+05 undefined 549.94 1561.5 1.6254 720.00 0.0013889 549.94 1561.5 1.6254 2.6221 2.9385 2536.0 -0.0049141 618.22 0.37281 720.00 0.0013889 549.94 1561.5 1.6254 2.6221 2.9385 2536.0 -0.0049141 618.22 0.37281
205.38 1.0584e+05 undefined 552.57 1566.1 1.6309 720.00 0.0013889 552.57 1566.1 1.6309 2.6259 2.9420 2536.8 -0.0049080 617.83 0.37331 720.00 0.0013889 552.57 1566.1 1.6309 2.6259 2.9420 2536.8 -0.0049080 617.83 0.37331
206.38 1.0605e+05 undefined 555.19 1570.7 1.6364 720.00 0.0013889 555.19 1570.7 1.6364 2.6296 2.9456 2537.6 -0.0049018 617.44 0.37382 720.00 0.0013889 555.19 1570.7 1.6364 2.6296 2.9456 2537.6 -0.0049018 617.44 0.37382
207.38 1.0625e+05 undefined 557.83 1575.3 1.6419 720.00 0.0013889 557.83 1575.3 1.6419 2.6334 2.9491 2538.3 -0.0048957 617.05 0.37432 720.00 0.0013889 557.83 1575.3 1.6419 2.6334 2.9491 2538.3 -0.0048957 617.05 0.37432
208.38 1.0645e+05 undefined 560.46 1579.8 1.6473 720.00 0.0013889 560.46 1579.8 1.6473 2.6372 2.9526 2539.1 -0.0048897 616.66 0.37482 720.00 0.0013889 560.46 1579.8 1.6473 2.6372 2.9526 2539.1 -0.0048897 616.66 0.37482
209.38 1.0665e+05 undefined 563.10 1584.4 1.6528 720.00 0.0013889 563.10 1584.4 1.6528 2.6409 2.9562 2539.9 -0.0048836 616.28 0.37532 720.00 0.0013889 563.10 1584.4 1.6528 2.6409 2.9562 2539.9 -0.0048836 616.28 0.37532
210.38 1.0686e+05 undefined 565.74 1589.0 1.6583 720.00 0.0013889 565.74 1589.0 1.6583 2.6447 2.9597 2540.7 -0.0048776 615.90 0.37582 720.00 0.0013889 565.74 1589.0 1.6583 2.6447 2.9597 2540.7 -0.0048776 615.90 0.37582
211.38 1.0706e+05 undefined 568.39 1593.6 1.6637 720.00 0.0013889 568.39 1593.6 1.6637 2.6484 2.9632 2541.4 -0.0048715 615.52 0.37633 720.00 0.0013889 568.39 1593.6 1.6637 2.6484 2.9632 2541.4 -0.0048715 615.52 0.37633
212.38 1.0726e+05 undefined 571.04 1598.2 1.6692 720.00 0.0013889 571.04 1598.2 1.6692 2.6522 2.9667 2542.2 -0.0048655 615.15 0.37683 720.00 0.0013889 571.04 1598.2 1.6692 2.6522 2.9667 2542.2 -0.0048655 615.15 0.37683
213.38 1.0746e+05 undefined 573.69 1602.8 1.6747 720.00 0.0013889 573.69 1602.8 1.6747 2.6559 2.9702 2543.0 -0.0048596 614.77 0.37733 720.00 0.0013889 573.69 1602.8 1.6747 2.6559 2.9702 2543.0 -0.0048596 614.77 0.37733
214.38 1.0767e+05 undefined 576.35 1607.4 1.6801 720.00 0.0013889 576.35 1607.4 1.6801 2.6596 2.9737 2543.8 -0.0048536 614.40 0.37784 720.00 0.0013889 576.35 1607.4 1.6801 2.6596 2.9737 2543.8 -0.0048536 614.40 0.37784
215.38 1.0787e+05 undefined 579.01 1611.9 1.6856 720.00 0.0013889 579.01 1611.9 1.6856 2.6634 2.9772 2544.5 -0.0048477 614.04 0.37834 720.00 0.0013889 579.01 1611.9 1.6856 2.6634 2.9772 2544.5 -0.0048477 614.04 0.37834
216.38 1.0807e+05 undefined 581.68 1616.5 1.6910 720.00 0.0013889 581.68 1616.5 1.6910 2.6671 2.9807 2545.3 -0.0048417 613.67 0.37884 720.00 0.0013889 581.68 1616.5 1.6910 2.6671 2.9807 2545.3 -0.0048417 613.67 0.37884
217.38 1.0827e+05 undefined 584.35 1621.1 1.6965 720.00 0.0013889 584.35 1621.1 1.6965 2.6708 2.9842 2546.1 -0.0048358 613.31 0.37935 720.00 0.0013889 584.35 1621.1 1.6965 2.6708 2.9842 2546.1 -0.0048358 613.31 0.37935
218.38 1.0847e+05 undefined 587.02 1625.7 1.7019 720.00 0.0013889 587.02 1625.7 1.7019 2.6745 2.9877 2546.8 -0.0048300 612.95 0.37985 720.00 0.0013889 587.02 1625.7 1.7019 2.6745 2.9877 2546.8 -0.0048300 612.95 0.37985
219.38 1.0867e+05 undefined 589.70 1630.3 1.7074 720.00 0.0013889 589.70 1630.3 1.7074 2.6782 2.9912 2547.6 -0.0048241 612.59 0.38036 720.00 0.0013889 589.70 1630.3 1.7074 2.6782 2.9912 2547.6 -0.0048241 612.59 0.38036
220.38 1.0887e+05 undefined 592.38 1634.9 1.7128 720.00 0.0013889 592.38 1634.9 1.7128 2.6819 2.9947 2548.4 -0.0048183 612.23 0.38086 720.00 0.0013889 592.38 1634.9 1.7128 2.6819 2.9947 2548.4 -0.0048183 612.23 0.38086
221.38 1.0907e+05 undefined 595.06 1639.5 1.7182 720.00 0.0013889 595.06 1639.5 1.7182 2.6856 2.9981 2549.2 -0.0048125 611.88 0.38137 720.00 0.0013889 595.06 1639.5 1.7182 2.6856 2.9981 2549.2 -0.0048125 611.88 0.38137
222.38 1.0927e+05 undefined 597.75 1644.1 1.7237 720.00 0.0013889 597.75 1644.1 1.7237 2.6893 3.0016 2549.9 -0.0048067 611.52 0.38187 720.00 0.0013889 597.75 1644.1 1.7237 2.6893 3.0016 2549.9 -0.0048067 611.52 0.38187
223.38 1.0947e+05 undefined 600.44 1648.7 1.7291 720.00 0.0013889 600.44 1648.7 1.7291 2.6930 3.0051 2550.7 -0.0048009 611.17 0.38238 720.00 0.0013889 600.44 1648.7 1.7291 2.6930 3.0051 2550.7 -0.0048009 611.17 0.38238
224.38 1.0967e+05 undefined 603.13 1653.4 1.7345 720.00 0.0013889 603.13 1653.4 1.7345 2.6967 3.0085 2551.5 -0.0047952 610.83 0.38289 720.00 0.0013889 603.13 1653.4 1.7345 2.6967 3.0085 2551.5 -0.0047952 610.83 0.38289
225.38 1.0987e+05 undefined 605.83 1658.0 1.7399 720.00 0.0013889 605.83 1658.0 1.7399 2.7004 3.0120 2552.2 -0.0047894 610.48 0.38339 720.00 0.0013889 605.83 1658.0 1.7399 2.7004 3.0120 2552.2 -0.0047894 610.48 0.38339
226.38 1.1007e+05 undefined 608.53 1662.6 1.7453 720.00 0.0013889 608.53 1662.6 1.7453 2.7041 3.0154 2553.0 -0.0047837 610.14 0.38390 720.00 0.0013889 608.53 1662.6 1.7453 2.7041 3.0154 2553.0 -0.0047837 610.14 0.38390
227.38 1.1027e+05 undefined 611.24 1667.2 1.7508 720.00 0.0013889 611.24 1667.2 1.7508 2.7077 3.0189 2553.7 -0.0047780 609.80 0.38441 720.00 0.0013889 611.24 1667.2 1.7508 2.7077 3.0189 2553.7 -0.0047780 609.80 0.38441
228.38 1.1047e+05 undefined 613.95 1671.8 1.7562 720.00 0.0013889 613.95 1671.8 1.7562 2.7114 3.0223 2554.5 -0.0047723 609.46 0.38492 720.00 0.0013889 613.95 1671.8 1.7562 2.7114 3.0223 2554.5 -0.0047723 609.46 0.38492
229.38 1.1067e+05 undefined 616.66 1676.4 1.7616 720.00 0.0013889 616.66 1676.4 1.7616 2.7151 3.0258 2555.3 -0.0047667 609.12 0.38542 720.00 0.0013889 616.66 1676.4 1.7616 2.7151 3.0258 2555.3 -0.0047667 609.12 0.38542
230.38 1.1087e+05 undefined 619.38 1681.0 1.7670 720.00 0.0013889 619.38 1681.0 1.7670 2.7187 3.0292 2556.0 -0.0047611 608.79 0.38593 720.00 0.0013889 619.38 1681.0 1.7670 2.7187 3.0292 2556.0 -0.0047611 608.79 0.38593
231.38 1.1107e+05 undefined 622.10 1685.7 1.7724 720.00 0.0013889 622.10 1685.7 1.7724 2.7224 3.0326 2556.8 -0.0047555 608.45 0.38644 720.00 0.0013889 622.10 1685.7 1.7724 2.7224 3.0326 2556.8 -0.0047555 608.45 0.38644
232.38 1.1126e+05 undefined 624.82 1690.3 1.7778 720.00 0.0013889 624.82 1690.3 1.7778 2.7260 3.0361 2557.6 -0.0047499 608.12 0.38695 720.00 0.0013889 624.82 1690.3 1.7778 2.7260 3.0361 2557.6 -0.0047499 608.12 0.38695
233.38 1.1146e+05 undefined 627.55 1694.9 1.7831 720.00 0.0013889 627.55 1694.9 1.7831 2.7296 3.0395 2558.3 -0.0047443 607.79 0.38746 720.00 0.0013889 627.55 1694.9 1.7831 2.7296 3.0395 2558.3 -0.0047443 607.79 0.38746
234.38 1.1166e+05 undefined 630.28 1699.5 1.7885 720.00 0.0013889 630.28 1699.5 1.7885 2.7333 3.0429 2559.1 -0.0047387 607.47 0.38797 720.00 0.0013889 630.28 1699.5 1.7885 2.7333 3.0429 2559.1 -0.0047387 607.47 0.38797
235.38 1.1186e+05 undefined 633.02 1704.2 1.7939 720.00 0.0013889 633.02 1704.2 1.7939 2.7369 3.0463 2559.8 -0.0047332 607.14 0.38848 720.00 0.0013889 633.02 1704.2 1.7939 2.7369 3.0463 2559.8 -0.0047332 607.14 0.38848
236.38 1.1205e+05 undefined 635.76 1708.8 1.7993 720.00 0.0013889 635.76 1708.8 1.7993 2.7405 3.0497 2560.6 -0.0047277 606.82 0.38899 720.00 0.0013889 635.76 1708.8 1.7993 2.7405 3.0497 2560.6 -0.0047277 606.82 0.38899
237.38 1.1225e+05 undefined 638.50 1713.4 1.8047 720.00 0.0013889 638.50 1713.4 1.8047 2.7441 3.0531 2561.4 -0.0047222 606.50 0.38950 720.00 0.0013889 638.50 1713.4 1.8047 2.7441 3.0531 2561.4 -0.0047222 606.50 0.38950
238.38 1.1245e+05 undefined 641.25 1718.1 1.8101 720.00 0.0013889 641.25 1718.1 1.8101 2.7478 3.0566 2562.1 -0.0047167 606.18 0.39001 720.00 0.0013889 641.25 1718.1 1.8101 2.7478 3.0566 2562.1 -0.0047167 606.18 0.39001
239.38 1.1265e+05 undefined 644.00 1722.7 1.8154 720.00 0.0013889 644.00 1722.7 1.8154 2.7514 3.0599 2562.9 -0.0047112 605.86 0.39052 720.00 0.0013889 644.00 1722.7 1.8154 2.7514 3.0599 2562.9 -0.0047112 605.86 0.39052
240.38 1.1284e+05 undefined 646.75 1727.3 1.8208 720.00 0.0013889 646.75 1727.3 1.8208 2.7550 3.0633 2563.6 -0.0047058 605.55 0.39103 720.00 0.0013889 646.75 1727.3 1.8208 2.7550 3.0633 2563.6 -0.0047058 605.55 0.39103
241.38 1.1304e+05 undefined 649.51 1732.0 1.8262 720.00 0.0013889 649.51 1732.0 1.8262 2.7586 3.0667 2564.4 -0.0047004 605.24 0.39154 720.00 0.0013889 649.51 1732.0 1.8262 2.7586 3.0667 2564.4 -0.0047004 605.24 0.39154
242.38 1.1324e+05 undefined 652.27 1736.6 1.8315 720.00 0.0013889 652.27 1736.6 1.8315 2.7622 3.0701 2565.1 -0.0046950 604.93 0.39205 720.00 0.0013889 652.27 1736.6 1.8315 2.7622 3.0701 2565.1 -0.0046950 604.93 0.39205
243.38 1.1343e+05 undefined 655.03 1741.3 1.8369 720.00 0.0013889 655.03 1741.3 1.8369 2.7658 3.0735 2565.9 -0.0046896 604.62 0.39256 720.00 0.0013889 655.03 1741.3 1.8369 2.7658 3.0735 2565.9 -0.0046896 604.62 0.39256
244.38 1.1363e+05 undefined 657.80 1745.9 1.8422 720.00 0.0013889 657.80 1745.9 1.8422 2.7693 3.0769 2566.7 -0.0046842 604.31 0.39308 720.00 0.0013889 657.80 1745.9 1.8422 2.7693 3.0769 2566.7 -0.0046842 604.31 0.39308
245.38 1.1382e+05 undefined 660.57 1750.6 1.8476 720.00 0.0013889 660.57 1750.6 1.8476 2.7729 3.0802 2567.4 -0.0046789 604.00 0.39359 720.00 0.0013889 660.57 1750.6 1.8476 2.7729 3.0802 2567.4 -0.0046789 604.00 0.39359
246.38 1.1402e+05 undefined 663.34 1755.2 1.8529 720.00 0.0013889 663.34 1755.2 1.8529 2.7765 3.0836 2568.2 -0.0046736 603.70 0.39410 720.00 0.0013889 663.34 1755.2 1.8529 2.7765 3.0836 2568.2 -0.0046736 603.70 0.39410
247.38 1.1422e+05 undefined 666.12 1759.9 1.8583 720.00 0.0013889 666.12 1759.9 1.8583 2.7801 3.0870 2568.9 -0.0046683 603.40 0.39462 720.00 0.0013889 666.12 1759.9 1.8583 2.7801 3.0870 2568.9 -0.0046683 603.40 0.39462
248.38 1.1441e+05 undefined 668.90 1764.5 1.8636 720.00 0.0013889 668.90 1764.5 1.8636 2.7836 3.0903 2569.7 -0.0046630 603.10 0.39513 720.00 0.0013889 668.90 1764.5 1.8636 2.7836 3.0903 2569.7 -0.0046630 603.10 0.39513
249.38 1.1461e+05 undefined 671.69 1769.2 1.8689 720.00 0.0013889 671.69 1769.2 1.8689 2.7872 3.0937 2570.4 -0.0046577 602.80 0.39564 720.00 0.0013889 671.69 1769.2 1.8689 2.7872 3.0937 2570.4 -0.0046577 602.80 0.39564
250.38 1.1480e+05 undefined 674.48 1773.8 1.8743 720.00 0.0013889 674.48 1773.8 1.8743 2.7907 3.0970 2571.2 -0.0046524 602.51 0.39616 720.00 0.0013889 674.48 1773.8 1.8743 2.7907 3.0970 2571.2 -0.0046524 602.51 0.39616
251.38 1.1500e+05 undefined 677.27 1778.5 1.8796 720.00 0.0013889 677.27 1778.5 1.8796 2.7943 3.1004 2571.9 -0.0046472 602.21 0.39667 720.00 0.0013889 677.27 1778.5 1.8796 2.7943 3.1004 2571.9 -0.0046472 602.21 0.39667
252.38 1.1519e+05 undefined 680.07 1783.1 1.8849 720.00 0.0013889 680.07 1783.1 1.8849 2.7978 3.1037 2572.7 -0.0046420 601.92 0.39719 720.00 0.0013889 680.07 1783.1 1.8849 2.7978 3.1037 2572.7 -0.0046420 601.92 0.39719
253.38 1.1539e+05 undefined 682.87 1787.8 1.8902 720.00 0.0013889 682.87 1787.8 1.8902 2.8014 3.1071 2573.4 -0.0046368 601.63 0.39770 720.00 0.0013889 682.87 1787.8 1.8902 2.8014 3.1071 2573.4 -0.0046368 601.63 0.39770
254.38 1.1558e+05 undefined 685.67 1792.5 1.8956 720.00 0.0013889 685.67 1792.5 1.8956 2.8049 3.1104 2574.2 -0.0046316 601.34 0.39822 720.00 0.0013889 685.67 1792.5 1.8956 2.8049 3.1104 2574.2 -0.0046316 601.34 0.39822
255.38 1.1577e+05 undefined 688.48 1797.1 1.9009 720.00 0.0013889 688.48 1797.1 1.9009 2.8084 3.1137 2574.9 -0.0046264 601.05 0.39873 720.00 0.0013889 688.48 1797.1 1.9009 2.8084 3.1137 2574.9 -0.0046264 601.05 0.39873
256.38 1.1597e+05 undefined 691.29 1801.8 1.9062 720.00 0.0013889 691.29 1801.8 1.9062 2.8120 3.1171 2575.7 -0.0046213 600.77 0.39925 720.00 0.0013889 691.29 1801.8 1.9062 2.8120 3.1171 2575.7 -0.0046213 600.77 0.39925
257.38 1.1616e+05 undefined 694.10 1806.5 1.9115 720.00 0.0013889 694.10 1806.5 1.9115 2.8155 3.1204 2576.4 -0.0046161 600.48 0.39976 720.00 0.0013889 694.10 1806.5 1.9115 2.8155 3.1204 2576.4 -0.0046161 600.48 0.39976
258.38 1.1636e+05 undefined 696.92 1811.1 1.9168 720.00 0.0013889 696.92 1811.1 1.9168 2.8190 3.1237 2577.2 -0.0046110 600.20 0.40028 720.00 0.0013889 696.92 1811.1 1.9168 2.8190 3.1237 2577.2 -0.0046110 600.20 0.40028
259.38 1.1655e+05 undefined 699.74 1815.8 1.9221 720.00 0.0013889 699.74 1815.8 1.9221 2.8225 3.1270 2577.9 -0.0046059 599.92 0.40080 720.00 0.0013889 699.74 1815.8 1.9221 2.8225 3.1270 2577.9 -0.0046059 599.92 0.40080
260.38 1.1674e+05 undefined 702.56 1820.5 1.9274 720.00 0.0013889 702.56 1820.5 1.9274 2.8260 3.1303 2578.7 -0.0046009 599.64 0.40131 720.00 0.0013889 702.56 1820.5 1.9274 2.8260 3.1303 2578.7 -0.0046009 599.64 0.40131
261.38 1.1694e+05 undefined 705.39 1825.2 1.9327 720.00 0.0013889 705.39 1825.2 1.9327 2.8295 3.1336 2579.4 -0.0045958 599.36 0.40183 720.00 0.0013889 705.39 1825.2 1.9327 2.8295 3.1336 2579.4 -0.0045958 599.36 0.40183
262.38 1.1713e+05 undefined 708.22 1829.9 1.9380 720.00 0.0013889 708.22 1829.9 1.9380 2.8330 3.1369 2580.1 -0.0045908 599.09 0.40235 720.00 0.0013889 708.22 1829.9 1.9380 2.8330 3.1369 2580.1 -0.0045908 599.09 0.40235
263.38 1.1732e+05 undefined 711.06 1834.5 1.9433 720.00 0.0013889 711.06 1834.5 1.9433 2.8365 3.1402 2580.9 -0.0045857 598.82 0.40287 720.00 0.0013889 711.06 1834.5 1.9433 2.8365 3.1402 2580.9 -0.0045857 598.82 0.40287
264.38 1.1751e+05 undefined 713.89 1839.2 1.9486 720.00 0.0013889 713.89 1839.2 1.9486 2.8400 3.1435 2581.6 -0.0045807 598.54 0.40338 720.00 0.0013889 713.89 1839.2 1.9486 2.8400 3.1435 2581.6 -0.0045807 598.54 0.40338
265.38 1.1771e+05 undefined 716.74 1843.9 1.9538 720.00 0.0013889 716.74 1843.9 1.9538 2.8434 3.1468 2582.4 -0.0045757 598.27 0.40390 720.00 0.0013889 716.74 1843.9 1.9538 2.8434 3.1468 2582.4 -0.0045757 598.27 0.40390
266.38 1.1790e+05 undefined 719.58 1848.6 1.9591 720.00 0.0013889 719.58 1848.6 1.9591 2.8469 3.1501 2583.1 -0.0045708 598.00 0.40442 720.00 0.0013889 719.58 1848.6 1.9591 2.8469 3.1501 2583.1 -0.0045708 598.00 0.40442
267.38 1.1809e+05 undefined 722.43 1853.3 1.9644 720.00 0.0013889 722.43 1853.3 1.9644 2.8504 3.1533 2583.9 -0.0045658 597.74 0.40494 720.00 0.0013889 722.43 1853.3 1.9644 2.8504 3.1533 2583.9 -0.0045658 597.74 0.40494
268.38 1.1828e+05 undefined 725.28 1858.0 1.9697 720.00 0.0013889 725.28 1858.0 1.9697 2.8539 3.1566 2584.6 -0.0045609 597.47 0.40546 720.00 0.0013889 725.28 1858.0 1.9697 2.8539 3.1566 2584.6 -0.0045609 597.47 0.40546
269.38 1.1847e+05 undefined 728.14 1862.7 1.9749 720.00 0.0013889 728.14 1862.7 1.9749 2.8573 3.1599 2585.3 -0.0045559 597.21 0.40598 720.00 0.0013889 728.14 1862.7 1.9749 2.8573 3.1599 2585.3 -0.0045559 597.21 0.40598
270.38 1.1867e+05 undefined 731.00 1867.4 1.9802 720.00 0.0013889 731.00 1867.4 1.9802 2.8608 3.1632 2586.1 -0.0045510 596.94 0.40650 720.00 0.0013889 731.00 1867.4 1.9802 2.8608 3.1632 2586.1 -0.0045510 596.94 0.40650
271.38 1.1886e+05 undefined 733.86 1872.0 1.9855 720.00 0.0013889 733.86 1872.0 1.9855 2.8642 3.1664 2586.8 -0.0045461 596.68 0.40702 720.00 0.0013889 733.86 1872.0 1.9855 2.8642 3.1664 2586.8 -0.0045461 596.68 0.40702
272.38 1.1905e+05 undefined 736.72 1876.7 1.9907 720.00 0.0013889 736.72 1876.7 1.9907 2.8677 3.1697 2587.6 -0.0045412 596.42 0.40754 720.00 0.0013889 736.72 1876.7 1.9907 2.8677 3.1697 2587.6 -0.0045412 596.42 0.40754
273.38 1.1924e+05 undefined 739.59 1881.4 1.9960 720.00 0.0013889 739.59 1881.4 1.9960 2.8711 3.1729 2588.3 -0.0045364 596.16 0.40806 720.00 0.0013889 739.59 1881.4 1.9960 2.8711 3.1729 2588.3 -0.0045364 596.16 0.40806
274.38 1.1943e+05 undefined 742.47 1886.1 2.0012 720.00 0.0013889 742.47 1886.1 2.0012 2.8745 3.1762 2589.0 -0.0045315 595.91 0.40858 720.00 0.0013889 742.47 1886.1 2.0012 2.8745 3.1762 2589.0 -0.0045315 595.91 0.40858
275.38 1.1962e+05 undefined 745.34 1890.9 2.0065 720.00 0.0013889 745.34 1890.9 2.0065 2.8780 3.1794 2589.8 -0.0045267 595.65 0.40910 720.00 0.0013889 745.34 1890.9 2.0065 2.8780 3.1794 2589.8 -0.0045267 595.65 0.40910
276.38 1.1981e+05 undefined 748.22 1895.6 2.0117 720.00 0.0013889 748.22 1895.6 2.0117 2.8814 3.1826 2590.5 -0.0045219 595.40 0.40962 720.00 0.0013889 748.22 1895.6 2.0117 2.8814 3.1826 2590.5 -0.0045219 595.40 0.40962
277.38 1.2000e+05 undefined 751.11 1900.3 2.0170 720.00 0.0013889 751.11 1900.3 2.0170 2.8848 3.1859 2591.2 -0.0045171 595.15 0.41015 720.00 0.0013889 751.11 1900.3 2.0170 2.8848 3.1859 2591.2 -0.0045171 595.15 0.41015
278.38 1.2019e+05 undefined 753.99 1905.0 2.0222 720.00 0.0013889 753.99 1905.0 2.0222 2.8882 3.1891 2592.0 -0.0045123 594.89 0.41067 720.00 0.0013889 753.99 1905.0 2.0222 2.8882 3.1891 2592.0 -0.0045123 594.89 0.41067
279.38 1.2038e+05 undefined 756.88 1909.7 2.0274 720.00 0.0013889 756.88 1909.7 2.0274 2.8916 3.1923 2592.7 -0.0045076 594.64 0.41119 720.00 0.0013889 756.88 1909.7 2.0274 2.8916 3.1923 2592.7 -0.0045076 594.64 0.41119
280.38 1.2057e+05 undefined 759.78 1914.4 2.0327 720.00 0.0013889 759.78 1914.4 2.0327 2.8950 3.1956 2593.4 -0.0045028 594.40 0.41171 720.00 0.0013889 759.78 1914.4 2.0327 2.8950 3.1956 2593.4 -0.0045028 594.40 0.41171
281.38 1.2076e+05 undefined 762.67 1919.1 2.0379 720.00 0.0013889 762.67 1919.1 2.0379 2.8984 3.1988 2594.2 -0.0044981 594.15 0.41224 720.00 0.0013889 762.67 1919.1 2.0379 2.8984 3.1988 2594.2 -0.0044981 594.15 0.41224
282.38 1.2095e+05 undefined 765.57 1923.8 2.0431 720.00 0.0013889 765.57 1923.8 2.0431 2.9018 3.2020 2594.9 -0.0044934 593.91 0.41268 720.00 0.0013889 765.57 1923.8 2.0431 2.9018 3.2020 2594.9 -0.0044934 593.91 0.41268
283.38 1.2114e+05 undefined 768.48 1928.5 2.0483 720.00 0.0013889 768.48 1928.5 2.0483 2.9052 3.2052 2595.6 -0.0044887 593.66 0.41320 720.00 0.0013889 768.48 1928.5 2.0483 2.9052 3.2052 2595.6 -0.0044887 593.66 0.41320
284.38 1.2133e+05 undefined 771.38 1933.3 2.0536 720.00 0.0013889 771.38 1933.3 2.0536 2.9086 3.2084 2596.4 -0.0044840 593.42 0.41372 720.00 0.0013889 771.38 1933.3 2.0536 2.9086 3.2084 2596.4 -0.0044840 593.42 0.41372
285.38 1.2152e+05 undefined 774.29 1938.0 2.0588 720.00 0.0013889 774.29 1938.0 2.0588 2.9120 3.2116 2597.1 -0.0044793 593.18 0.41425 720.00 0.0013889 774.29 1938.0 2.0588 2.9120 3.2116 2597.1 -0.0044793 593.18 0.41425
286.38 1.2171e+05 undefined 777.21 1942.7 2.0640 720.00 0.0013889 777.21 1942.7 2.0640 2.9154 3.2148 2597.8 -0.0044747 592.94 0.41477 720.00 0.0013889 777.21 1942.7 2.0640 2.9154 3.2148 2597.8 -0.0044747 592.94 0.41477
287.38 1.2190e+05 undefined 780.12 1947.4 2.0692 720.00 0.0013889 780.12 1947.4 2.0692 2.9188 3.2180 2598.6 -0.0044700 592.70 0.41530 720.00 0.0013889 780.12 1947.4 2.0692 2.9188 3.2180 2598.6 -0.0044700 592.70 0.41530
288.38 1.2209e+05 undefined 783.04 1952.2 2.0744 720.00 0.0013889 783.04 1952.2 2.0744 2.9221 3.2212 2599.3 -0.0044654 592.46 0.41582 720.00 0.0013889 783.04 1952.2 2.0744 2.9221 3.2212 2599.3 -0.0044654 592.46 0.41582
289.38 1.2228e+05 undefined 785.97 1956.9 2.0796 720.00 0.0013889 785.97 1956.9 2.0796 2.9255 3.2243 2600.0 -0.0044608 592.23 0.41635 720.00 0.0013889 785.97 1956.9 2.0796 2.9255 3.2243 2600.0 -0.0044608 592.23 0.41635
290.38 1.2247e+05 undefined 788.90 1961.6 2.0848 720.00 0.0013889 788.90 1961.6 2.0848 2.9288 3.2275 2600.8 -0.0044562 591.99 0.41687 720.00 0.0013889 788.90 1961.6 2.0848 2.9288 3.2275 2600.8 -0.0044562 591.99 0.41687
291.38 1.2265e+05 undefined 791.83 1966.4 2.0900 720.00 0.0013889 791.83 1966.4 2.0900 2.9322 3.2307 2601.5 -0.0044516 591.76 0.41740 720.00 0.0013889 791.83 1966.4 2.0900 2.9322 3.2307 2601.5 -0.0044516 591.76 0.41740
292.38 1.2284e+05 undefined 794.76 1971.1 2.0952 720.00 0.0013889 794.76 1971.1 2.0952 2.9355 3.2339 2602.2 -0.0044471 591.53 0.41792 720.00 0.0013889 794.76 1971.1 2.0952 2.9355 3.2339 2602.2 -0.0044471 591.53 0.41792
293.38 1.2303e+05 undefined 797.70 1975.8 2.1004 720.00 0.0013889 797.70 1975.8 2.1004 2.9389 3.2370 2602.9 -0.0044425 591.30 0.41845 720.00 0.0013889 797.70 1975.8 2.1004 2.9389 3.2370 2602.9 -0.0044425 591.30 0.41845
294.38 1.2322e+05 undefined 800.64 1980.6 2.1056 720.00 0.0013889 800.64 1980.6 2.1056 2.9422 3.2402 2603.7 -0.0044380 591.07 0.41898 720.00 0.0013889 800.64 1980.6 2.1056 2.9422 3.2402 2603.7 -0.0044380 591.07 0.41898
295.38 1.2341e+05 undefined 803.58 1985.3 2.1108 720.00 0.0013889 803.58 1985.3 2.1108 2.9456 3.2434 2604.4 -0.0044335 590.84 0.41950 720.00 0.0013889 803.58 1985.3 2.1108 2.9456 3.2434 2604.4 -0.0044335 590.84 0.41950
296.38 1.2359e+05 undefined 806.53 1990.1 2.1159 720.00 0.0013889 806.53 1990.1 2.1159 2.9489 3.2465 2605.1 -0.0044290 590.62 0.42003 720.00 0.0013889 806.53 1990.1 2.1159 2.9489 3.2465 2605.1 -0.0044290 590.62 0.42003
297.38 1.2378e+05 undefined 809.48 1994.8 2.1211 720.00 0.0013889 809.48 1994.8 2.1211 2.9522 3.2497 2605.8 -0.0044245 590.39 0.42056 720.00 0.0013889 809.48 1994.8 2.1211 2.9522 3.2497 2605.8 -0.0044245 590.39 0.42056
298.38 1.2397e+05 undefined 812.43 1999.5 2.1263 720.00 0.0013889 812.43 1999.5 2.1263 2.9555 3.2528 2606.6 -0.0044200 590.17 0.42109 720.00 0.0013889 812.43 1999.5 2.1263 2.9555 3.2528 2606.6 -0.0044200 590.17 0.42109
299.38 1.2415e+05 undefined 815.39 2004.3 2.1315 720.00 0.0013889 815.39 2004.3 2.1315 2.9588 3.2559 2607.3 -0.0044155 589.94 0.42161 720.00 0.0013889 815.39 2004.3 2.1315 2.9588 3.2559 2607.3 -0.0044155 589.94 0.42161
300.38 1.2434e+05 undefined 818.35 2009.0 2.1366 720.00 0.0013889 818.35 2009.0 2.1366 2.9621 3.2591 2608.0 -0.0044111 589.72 0.42214 720.00 0.0013889 818.35 2009.0 2.1366 2.9621 3.2591 2608.0 -0.0044111 589.72 0.42214