Temperature (C) Pressure (psia) Quality (l+v) Internal Energy (l+v, kJ/kg) Enthalpy (l+v, kJ/kg) Entropy (l+v, J/g*K) Density (l, kg/m3) Volume (l, m3/kg) Internal Energy (l, kJ/kg) Enthalpy (l, kJ/kg) Entropy (l, J/g*K) Cv (l, J/g*K) Cp (l, J/g*K) Sound Spd. (l, m/s) Joule-Thomson (l, F/psia) Viscosity (l, uPa*s) Therm. Cond. (l, W/m*K) Density (v, kg/m3) Volume (v, m3/kg) Internal Energy (v, kJ/kg) Enthalpy (v, kJ/kg) Entropy (v, J/g*K) Cv (v, J/g*K) Cp (v, J/g*K) Sound Spd. (v, m/s) Joule-Thomson (v, F/psia) Viscosity (v, uPa*s) Therm. Cond. (v, W/m*K)
-187.62 2.4953e-08 6.2300e-14 -196.64 -196.64 -1.3959 733.13 0.0013640 -196.64 -196.64 -1.3959 1.3553 1.9158 2136.4 -0.0077592 10960. 0.20792 1.0669e-08 9.3732e+07 350.13 366.26 5.1858 0.69067 0.87923 143.28 6.1051 2.3259 0.0017061
-186.62 3.7339e-08 6.1458e-14 -194.73 -194.73 -1.3736 732.08 0.0013660 -194.73 -194.73 -1.3736 1.3539 1.9166 2129.6 -0.0077546 10073. 0.20765 1.5780e-08 6.3371e+07 350.82 367.14 5.1200 0.69462 0.88317 144.03 5.9178 2.3534 0.0017533
-185.62 5.5322e-08 4.5001e-14 -192.81 -192.81 -1.3516 731.04 0.0013679 -192.81 -192.81 -1.3516 1.3525 1.9174 2122.9 -0.0077498 9276.1 0.20737 2.3112e-08 4.3267e+07 351.52 368.02 5.0561 0.69857 0.88713 144.77 5.7383 2.3808 0.0018007
-184.62 0.83164 undefined -190.89 -190.89 -1.3298 730.00 0.0013699 -190.89 -190.89 -1.3298 1.3513 1.9182 2116.1 -0.0077448 8558.3 0.20708 730.00 0.0013699 -190.89 -190.89 -1.3298 1.3513 1.9182 2116.1 -0.0077448 8558.3 0.20708
-183.62 475.53 undefined -189.54 -185.05 -1.3146 730.00 0.0013699 -189.54 -185.05 -1.3146 1.3530 1.9183 2119.2 -0.0077421 8181.1 0.20751 730.00 0.0013699 -189.54 -185.05 -1.3146 1.3530 1.9183 2119.2 -0.0077421 8181.1 0.20751
-182.62 947.90 undefined -188.19 -179.23 -1.2996 730.00 0.0013699 -188.19 -179.23 -1.2996 1.3546 1.9184 2122.3 -0.0077393 7829.2 0.20794 730.00 0.0013699 -188.19 -179.23 -1.2996 1.3546 1.9184 2122.3 -0.0077393 7829.2 0.20794
-181.62 1418.0 undefined -186.83 -173.44 -1.2847 730.00 0.0013699 -186.83 -173.44 -1.2847 1.3563 1.9186 2125.4 -0.0077364 7500.6 0.20837 730.00 0.0013699 -186.83 -173.44 -1.2847 1.3563 1.9186 2125.4 -0.0077364 7500.6 0.20837
-180.62 1885.8 undefined -185.47 -167.66 -1.2700 730.00 0.0013699 -185.47 -167.66 -1.2700 1.3580 1.9188 2128.6 -0.0077333 7193.3 0.20880 730.00 0.0013699 -185.47 -167.66 -1.2700 1.3580 1.9188 2128.6 -0.0077333 7193.3 0.20880
-179.62 2351.5 undefined -184.12 -161.91 -1.2554 730.00 0.0013699 -184.12 -161.91 -1.2554 1.3598 1.9190 2131.7 -0.0077301 6905.6 0.20924 730.00 0.0013699 -184.12 -161.91 -1.2554 1.3598 1.9190 2131.7 -0.0077301 6905.6 0.20924
-178.62 2815.0 undefined -182.75 -156.17 -1.2409 730.00 0.0013699 -182.75 -156.17 -1.2409 1.3615 1.9193 2134.8 -0.0077267 6636.1 0.20967 730.00 0.0013699 -182.75 -156.17 -1.2409 1.3615 1.9193 2134.8 -0.0077267 6636.1 0.20967
-177.62 3276.4 undefined -181.39 -150.45 -1.2265 730.00 0.0013699 -181.39 -150.45 -1.2265 1.3633 1.9196 2138.0 -0.0077233 6383.4 0.21010 730.00 0.0013699 -181.39 -150.45 -1.2265 1.3633 1.9196 2138.0 -0.0077233 6383.4 0.21010
-176.62 3735.7 undefined -180.03 -144.74 -1.2123 730.00 0.0013699 -180.03 -144.74 -1.2123 1.3651 1.9199 2141.1 -0.0077198 6146.1 0.21054 730.00 0.0013699 -180.03 -144.74 -1.2123 1.3651 1.9199 2141.1 -0.0077198 6146.1 0.21054
-175.62 4193.0 undefined -178.66 -139.06 -1.1983 730.00 0.0013699 -178.66 -139.06 -1.1983 1.3669 1.9203 2144.2 -0.0077162 5923.1 0.21097 730.00 0.0013699 -178.66 -139.06 -1.1983 1.3669 1.9203 2144.2 -0.0077162 5923.1 0.21097
-174.62 4648.3 undefined -177.29 -133.39 -1.1843 730.00 0.0013699 -177.29 -133.39 -1.1843 1.3687 1.9207 2147.3 -0.0077125 5713.3 0.21140 730.00 0.0013699 -177.29 -133.39 -1.1843 1.3687 1.9207 2147.3 -0.0077125 5713.3 0.21140
-173.62 5101.6 undefined -175.93 -127.74 -1.1705 730.00 0.0013699 -175.93 -127.74 -1.1705 1.3705 1.9211 2150.4 -0.0077088 5515.8 0.21184 730.00 0.0013699 -175.93 -127.74 -1.1705 1.3705 1.9211 2150.4 -0.0077088 5515.8 0.21184
-172.62 5552.9 undefined -174.55 -122.11 -1.1568 730.00 0.0013699 -174.55 -122.11 -1.1568 1.3724 1.9216 2153.5 -0.0077050 5329.7 0.21227 730.00 0.0013699 -174.55 -122.11 -1.1568 1.3724 1.9216 2153.5 -0.0077050 5329.7 0.21227
-171.62 6002.4 undefined -173.18 -116.49 -1.1432 730.00 0.0013699 -173.18 -116.49 -1.1432 1.3742 1.9221 2156.5 -0.0077011 5154.1 0.21271 730.00 0.0013699 -173.18 -116.49 -1.1432 1.3742 1.9221 2156.5 -0.0077011 5154.1 0.21271
-170.62 6449.9 undefined -171.81 -110.89 -1.1297 730.00 0.0013699 -171.81 -110.89 -1.1297 1.3761 1.9225 2159.5 -0.0076973 4988.4 0.21314 730.00 0.0013699 -171.81 -110.89 -1.1297 1.3761 1.9225 2159.5 -0.0076973 4988.4 0.21314
-169.62 6895.6 undefined -170.43 -105.30 -1.1163 730.00 0.0013699 -170.43 -105.30 -1.1163 1.3780 1.9230 2162.6 -0.0076934 4831.7 0.21358 730.00 0.0013699 -170.43 -105.30 -1.1163 1.3780 1.9230 2162.6 -0.0076934 4831.7 0.21358
-168.62 7339.4 undefined -169.05 -99.730 -1.1031 730.00 0.0013699 -169.05 -99.730 -1.1031 1.3799 1.9236 2165.6 -0.0076894 4683.6 0.21401 730.00 0.0013699 -169.05 -99.730 -1.1031 1.3799 1.9236 2165.6 -0.0076894 4683.6 0.21401
-167.62 7781.4 undefined -167.67 -94.174 -1.0899 730.00 0.0013699 -167.67 -94.174 -1.0899 1.3818 1.9241 2168.5 -0.0076855 4543.4 0.21445 730.00 0.0013699 -167.67 -94.174 -1.0899 1.3818 1.9241 2168.5 -0.0076855 4543.4 0.21445
-166.62 8221.6 undefined -166.29 -88.634 -1.0769 730.00 0.0013699 -166.29 -88.634 -1.0769 1.3837 1.9247 2171.5 -0.0076815 4410.5 0.21489 730.00 0.0013699 -166.29 -88.634 -1.0769 1.3837 1.9247 2171.5 -0.0076815 4410.5 0.21489
-165.62 8660.0 undefined -164.90 -83.109 -1.0639 730.00 0.0013699 -164.90 -83.109 -1.0639 1.3856 1.9252 2174.4 -0.0076775 4284.5 0.21532 730.00 0.0013699 -164.90 -83.109 -1.0639 1.3856 1.9252 2174.4 -0.0076775 4284.5 0.21532
-164.62 9096.6 undefined -163.51 -77.598 -1.0511 730.00 0.0013699 -163.51 -77.598 -1.0511 1.3876 1.9258 2177.3 -0.0076735 4165.0 0.21576 730.00 0.0013699 -163.51 -77.598 -1.0511 1.3876 1.9258 2177.3 -0.0076735 4165.0 0.21576
-163.62 9531.5 undefined -162.13 -72.102 -1.0384 730.00 0.0013699 -162.13 -72.102 -1.0384 1.3895 1.9264 2180.2 -0.0076695 4051.4 0.21620 730.00 0.0013699 -162.13 -72.102 -1.0384 1.3895 1.9264 2180.2 -0.0076695 4051.4 0.21620
-162.62 9964.7 undefined -160.74 -66.620 -1.0257 730.00 0.0013699 -160.74 -66.620 -1.0257 1.3914 1.9270 2183.1 -0.0076655 3943.5 0.21663 730.00 0.0013699 -160.74 -66.620 -1.0257 1.3914 1.9270 2183.1 -0.0076655 3943.5 0.21663
-161.62 10396. undefined -159.34 -61.152 -1.0132 730.00 0.0013699 -159.34 -61.152 -1.0132 1.3934 1.9276 2185.9 -0.0076615 3840.9 0.21707 730.00 0.0013699 -159.34 -61.152 -1.0132 1.3934 1.9276 2185.9 -0.0076615 3840.9 0.21707
-160.62 10826. undefined -157.95 -55.698 -1.0007 730.00 0.0013699 -157.95 -55.698 -1.0007 1.3953 1.9282 2188.7 -0.0076574 3743.2 0.21751 730.00 0.0013699 -157.95 -55.698 -1.0007 1.3953 1.9282 2188.7 -0.0076574 3743.2 0.21751
-159.62 11254. undefined -156.55 -50.258 -0.98839 730.00 0.0013699 -156.55 -50.258 -0.98839 1.3973 1.9288 2191.5 -0.0076534 3650.1 0.21795 730.00 0.0013699 -156.55 -50.258 -0.98839 1.3973 1.9288 2191.5 -0.0076534 3650.1 0.21795
-158.62 11681. undefined -155.15 -44.832 -0.97613 730.00 0.0013699 -155.15 -44.832 -0.97613 1.3992 1.9294 2194.2 -0.0076494 3561.4 0.21839 730.00 0.0013699 -155.15 -44.832 -0.97613 1.3992 1.9294 2194.2 -0.0076494 3561.4 0.21839
-157.62 12106. undefined -153.75 -39.419 -0.96396 730.00 0.0013699 -153.75 -39.419 -0.96396 1.4012 1.9300 2197.0 -0.0076454 3476.8 0.21882 730.00 0.0013699 -153.75 -39.419 -0.96396 1.4012 1.9300 2197.0 -0.0076454 3476.8 0.21882
-156.62 12529. undefined -152.35 -34.019 -0.95187 730.00 0.0013699 -152.35 -34.019 -0.95187 1.4032 1.9307 2199.7 -0.0076414 3395.9 0.21926 730.00 0.0013699 -152.35 -34.019 -0.95187 1.4032 1.9307 2199.7 -0.0076414 3395.9 0.21926
-155.62 12950. undefined -150.95 -28.632 -0.93987 730.00 0.0013699 -150.95 -28.632 -0.93987 1.4051 1.9313 2202.4 -0.0076374 3318.8 0.21970 730.00 0.0013699 -150.95 -28.632 -0.93987 1.4051 1.9313 2202.4 -0.0076374 3318.8 0.21970
-154.62 13370. undefined -149.54 -23.259 -0.92796 730.00 0.0013699 -149.54 -23.259 -0.92796 1.4071 1.9320 2205.0 -0.0076334 3245.0 0.22014 730.00 0.0013699 -149.54 -23.259 -0.92796 1.4071 1.9320 2205.0 -0.0076334 3245.0 0.22014
-153.62 13789. undefined -148.13 -17.898 -0.91613 730.00 0.0013699 -148.13 -17.898 -0.91613 1.4091 1.9326 2207.7 -0.0076294 3174.4 0.22058 730.00 0.0013699 -148.13 -17.898 -0.91613 1.4091 1.9326 2207.7 -0.0076294 3174.4 0.22058
-152.62 14206. undefined -146.72 -12.550 -0.90438 730.00 0.0013699 -146.72 -12.550 -0.90438 1.4110 1.9333 2210.3 -0.0076254 3106.8 0.22102 730.00 0.0013699 -146.72 -12.550 -0.90438 1.4110 1.9333 2210.3 -0.0076254 3106.8 0.22102
-151.62 14621. undefined -145.31 -7.2146 -0.89271 730.00 0.0013699 -145.31 -7.2146 -0.89271 1.4130 1.9339 2212.9 -0.0076215 3042.1 0.22146 730.00 0.0013699 -145.31 -7.2146 -0.89271 1.4130 1.9339 2212.9 -0.0076215 3042.1 0.22146
-150.62 15035. undefined -143.90 -1.8916 -0.88113 730.00 0.0013699 -143.90 -1.8916 -0.88113 1.4150 1.9346 2215.5 -0.0076175 2980.0 0.22190 730.00 0.0013699 -143.90 -1.8916 -0.88113 1.4150 1.9346 2215.5 -0.0076175 2980.0 0.22190
-149.62 15448. undefined -142.48 3.4191 -0.86962 730.00 0.0013699 -142.48 3.4191 -0.86962 1.4170 1.9353 2218.0 -0.0076135 2920.5 0.22235 730.00 0.0013699 -142.48 3.4191 -0.86962 1.4170 1.9353 2218.0 -0.0076135 2920.5 0.22235
-148.62 15858. undefined -141.06 8.7177 -0.85818 730.00 0.0013699 -141.06 8.7177 -0.85818 1.4189 1.9359 2220.5 -0.0076096 2863.4 0.22279 730.00 0.0013699 -141.06 8.7177 -0.85818 1.4189 1.9359 2220.5 -0.0076096 2863.4 0.22279
-147.62 16268. undefined -139.64 14.004 -0.84683 730.00 0.0013699 -139.64 14.004 -0.84683 1.4209 1.9366 2223.0 -0.0076056 2808.6 0.22323 730.00 0.0013699 -139.64 14.004 -0.84683 1.4209 1.9366 2223.0 -0.0076056 2808.6 0.22323
-146.62 16676. undefined -138.22 19.279 -0.83554 730.00 0.0013699 -138.22 19.279 -0.83554 1.4229 1.9373 2225.5 -0.0076017 2755.9 0.22367 730.00 0.0013699 -138.22 19.279 -0.83554 1.4229 1.9373 2225.5 -0.0076017 2755.9 0.22367
-145.62 17082. undefined -136.80 24.542 -0.82433 730.00 0.0013699 -136.80 24.542 -0.82433 1.4249 1.9380 2228.0 -0.0075977 2705.3 0.22411 730.00 0.0013699 -136.80 24.542 -0.82433 1.4249 1.9380 2228.0 -0.0075977 2705.3 0.22411
-144.62 17487. undefined -135.37 29.793 -0.81320 730.00 0.0013699 -135.37 29.793 -0.81320 1.4268 1.9387 2230.4 -0.0075938 2656.6 0.22456 730.00 0.0013699 -135.37 29.793 -0.81320 1.4268 1.9387 2230.4 -0.0075938 2656.6 0.22456
-143.62 17891. undefined -133.94 35.032 -0.80213 730.00 0.0013699 -133.94 35.032 -0.80213 1.4288 1.9394 2232.8 -0.0075898 2609.7 0.22500 730.00 0.0013699 -133.94 35.032 -0.80213 1.4288 1.9394 2232.8 -0.0075898 2609.7 0.22500
-142.62 18293. undefined -132.51 40.260 -0.79113 730.00 0.0013699 -132.51 40.260 -0.79113 1.4308 1.9401 2235.2 -0.0075859 2564.6 0.22544 730.00 0.0013699 -132.51 40.260 -0.79113 1.4308 1.9401 2235.2 -0.0075859 2564.6 0.22544
-141.62 18694. undefined -131.08 45.477 -0.78021 730.00 0.0013699 -131.08 45.477 -0.78021 1.4328 1.9408 2237.6 -0.0075819 2521.1 0.22589 730.00 0.0013699 -131.08 45.477 -0.78021 1.4328 1.9408 2237.6 -0.0075819 2521.1 0.22589
-140.62 19093. undefined -129.65 50.683 -0.76935 730.00 0.0013699 -129.65 50.683 -0.76935 1.4348 1.9415 2239.9 -0.0075779 2479.2 0.22633 730.00 0.0013699 -129.65 50.683 -0.76935 1.4348 1.9415 2239.9 -0.0075779 2479.2 0.22633
-139.62 19491. undefined -128.21 55.877 -0.75855 730.00 0.0013699 -128.21 55.877 -0.75855 1.4368 1.9422 2242.2 -0.0075740 2438.8 0.22677 730.00 0.0013699 -128.21 55.877 -0.75855 1.4368 1.9422 2242.2 -0.0075740 2438.8 0.22677
-138.62 19888. undefined -126.77 61.061 -0.74783 730.00 0.0013699 -126.77 61.061 -0.74783 1.4387 1.9430 2244.5 -0.0075700 2399.8 0.22722 730.00 0.0013699 -126.77 61.061 -0.74783 1.4387 1.9430 2244.5 -0.0075700 2399.8 0.22722
-137.62 20283. undefined -125.34 66.234 -0.73716 730.00 0.0013699 -125.34 66.234 -0.73716 1.4407 1.9437 2246.8 -0.0075660 2362.2 0.22766 730.00 0.0013699 -125.34 66.234 -0.73716 1.4407 1.9437 2246.8 -0.0075660 2362.2 0.22766
-136.62 20677. undefined -123.89 71.396 -0.72656 730.00 0.0013699 -123.89 71.396 -0.72656 1.4427 1.9444 2249.1 -0.0075621 2325.8 0.22811 730.00 0.0013699 -123.89 71.396 -0.72656 1.4427 1.9444 2249.1 -0.0075621 2325.8 0.22811
-135.62 21069. undefined -122.45 76.547 -0.71603 730.00 0.0013699 -122.45 76.547 -0.71603 1.4447 1.9452 2251.3 -0.0075581 2290.7 0.22855 730.00 0.0013699 -122.45 76.547 -0.71603 1.4447 1.9452 2251.3 -0.0075581 2290.7 0.22855
-134.62 21460. undefined -121.00 81.688 -0.70555 730.00 0.0013699 -121.00 81.688 -0.70555 1.4467 1.9460 2253.6 -0.0075541 2256.7 0.22900 730.00 0.0013699 -121.00 81.688 -0.70555 1.4467 1.9460 2253.6 -0.0075541 2256.7 0.22900
-133.62 21850. undefined -119.56 86.818 -0.69514 730.00 0.0013699 -119.56 86.818 -0.69514 1.4487 1.9467 2255.8 -0.0075501 2223.9 0.22944 730.00 0.0013699 -119.56 86.818 -0.69514 1.4487 1.9467 2255.8 -0.0075501 2223.9 0.22944
-132.62 22239. undefined -118.11 91.938 -0.68479 730.00 0.0013699 -118.11 91.938 -0.68479 1.4507 1.9475 2258.0 -0.0075460 2192.1 0.22989 730.00 0.0013699 -118.11 91.938 -0.68479 1.4507 1.9475 2258.0 -0.0075460 2192.1 0.22989
-131.62 22626. undefined -116.65 97.048 -0.67449 730.00 0.0013699 -116.65 97.048 -0.67449 1.4527 1.9483 2260.1 -0.0075420 2161.3 0.23034 730.00 0.0013699 -116.65 97.048 -0.67449 1.4527 1.9483 2260.1 -0.0075420 2161.3 0.23034
-130.62 23012. undefined -115.20 102.15 -0.66426 730.00 0.0013699 -115.20 102.15 -0.66426 1.4547 1.9491 2262.3 -0.0075379 2131.5 0.23078 730.00 0.0013699 -115.20 102.15 -0.66426 1.4547 1.9491 2262.3 -0.0075379 2131.5 0.23078
-129.62 23397. undefined -113.75 107.24 -0.65408 730.00 0.0013699 -113.75 107.24 -0.65408 1.4567 1.9499 2264.4 -0.0075338 2102.7 0.23123 730.00 0.0013699 -113.75 107.24 -0.65408 1.4567 1.9499 2264.4 -0.0075338 2102.7 0.23123
-128.62 23781. undefined -112.29 112.32 -0.64396 730.00 0.0013699 -112.29 112.32 -0.64396 1.4587 1.9507 2266.5 -0.0075297 2074.7 0.23168 730.00 0.0013699 -112.29 112.32 -0.64396 1.4587 1.9507 2266.5 -0.0075297 2074.7 0.23168
-127.62 24163. undefined -110.83 117.39 -0.63389 730.00 0.0013699 -110.83 117.39 -0.63389 1.4607 1.9515 2268.6 -0.0075256 2047.6 0.23213 730.00 0.0013699 -110.83 117.39 -0.63389 1.4607 1.9515 2268.6 -0.0075256 2047.6 0.23213
-126.62 24544. undefined -109.37 122.45 -0.62388 730.00 0.0013699 -109.37 122.45 -0.62388 1.4628 1.9523 2270.7 -0.0075215 2021.3 0.23257 730.00 0.0013699 -109.37 122.45 -0.62388 1.4628 1.9523 2270.7 -0.0075215 2021.3 0.23257
-125.62 24924. undefined -107.90 127.50 -0.61393 730.00 0.0013699 -107.90 127.50 -0.61393 1.4648 1.9531 2272.8 -0.0075173 1995.7 0.23302 730.00 0.0013699 -107.90 127.50 -0.61393 1.4648 1.9531 2272.8 -0.0075173 1995.7 0.23302
-124.62 25302. undefined -106.44 132.54 -0.60402 730.00 0.0013699 -106.44 132.54 -0.60402 1.4668 1.9540 2274.8 -0.0075131 1971.0 0.23347 730.00 0.0013699 -106.44 132.54 -0.60402 1.4668 1.9540 2274.8 -0.0075131 1971.0 0.23347
-123.62 25679. undefined -104.97 137.57 -0.59417 730.00 0.0013699 -104.97 137.57 -0.59417 1.4689 1.9548 2276.8 -0.0075089 1946.9 0.23392 730.00 0.0013699 -104.97 137.57 -0.59417 1.4689 1.9548 2276.8 -0.0075089 1946.9 0.23392
-122.62 26056. undefined -103.50 142.59 -0.58438 730.00 0.0013699 -103.50 142.59 -0.58438 1.4709 1.9557 2278.8 -0.0075046 1923.5 0.23437 730.00 0.0013699 -103.50 142.59 -0.58438 1.4709 1.9557 2278.8 -0.0075046 1923.5 0.23437
-121.62 26430. undefined -102.03 147.61 -0.57463 730.00 0.0013699 -102.03 147.61 -0.57463 1.4730 1.9566 2280.8 -0.0075004 1900.8 0.23482 730.00 0.0013699 -102.03 147.61 -0.57463 1.4730 1.9566 2280.8 -0.0075004 1900.8 0.23482
-120.62 26804. undefined -100.55 152.61 -0.56493 730.00 0.0013699 -100.55 152.61 -0.56493 1.4750 1.9575 2282.8 -0.0074960 1878.7 0.23527 730.00 0.0013699 -100.55 152.61 -0.56493 1.4750 1.9575 2282.8 -0.0074960 1878.7 0.23527
-119.62 27177. undefined -99.077 157.60 -0.55529 730.00 0.0013699 -99.077 157.60 -0.55529 1.4771 1.9584 2284.8 -0.0074917 1857.3 0.23572 730.00 0.0013699 -99.077 157.60 -0.55529 1.4771 1.9584 2284.8 -0.0074917 1857.3 0.23572
-118.62 27548. undefined -97.599 162.59 -0.54569 730.00 0.0013699 -97.599 162.59 -0.54569 1.4791 1.9593 2286.7 -0.0074873 1836.4 0.23617 730.00 0.0013699 -97.599 162.59 -0.54569 1.4791 1.9593 2286.7 -0.0074873 1836.4 0.23617
-117.62 27918. undefined -96.119 167.57 -0.53614 730.00 0.0013699 -96.119 167.57 -0.53614 1.4812 1.9602 2288.7 -0.0074829 1816.0 0.23662 730.00 0.0013699 -96.119 167.57 -0.53614 1.4812 1.9602 2288.7 -0.0074829 1816.0 0.23662
-116.62 28288. undefined -94.636 172.54 -0.52664 730.00 0.0013699 -94.636 172.54 -0.52664 1.4833 1.9612 2290.6 -0.0074785 1796.3 0.23707 730.00 0.0013699 -94.636 172.54 -0.52664 1.4833 1.9612 2290.6 -0.0074785 1796.3 0.23707
-115.62 28656. undefined -93.152 177.50 -0.51719 730.00 0.0013699 -93.152 177.50 -0.51719 1.4854 1.9621 2292.5 -0.0074740 1777.0 0.23752 730.00 0.0013699 -93.152 177.50 -0.51719 1.4854 1.9621 2292.5 -0.0074740 1777.0 0.23752
-114.62 29022. undefined -91.666 182.45 -0.50778 730.00 0.0013699 -91.666 182.45 -0.50778 1.4875 1.9631 2294.3 -0.0074694 1758.2 0.23797 730.00 0.0013699 -91.666 182.45 -0.50778 1.4875 1.9631 2294.3 -0.0074694 1758.2 0.23797
-113.62 29388. undefined -90.177 187.39 -0.49842 730.00 0.0013699 -90.177 187.39 -0.49842 1.4896 1.9641 2296.2 -0.0074649 1739.9 0.23842 730.00 0.0013699 -90.177 187.39 -0.49842 1.4896 1.9641 2296.2 -0.0074649 1739.9 0.23842
-112.62 29753. undefined -88.687 192.32 -0.48911 730.00 0.0013699 -88.687 192.32 -0.48911 1.4917 1.9651 2298.1 -0.0074602 1722.1 0.23887 730.00 0.0013699 -88.687 192.32 -0.48911 1.4917 1.9651 2298.1 -0.0074602 1722.1 0.23887
-111.62 30116. undefined -87.194 197.25 -0.47984 730.00 0.0013699 -87.194 197.25 -0.47984 1.4938 1.9661 2299.9 -0.0074556 1704.8 0.23933 730.00 0.0013699 -87.194 197.25 -0.47984 1.4938 1.9661 2299.9 -0.0074556 1704.8 0.23933
-110.62 30479. undefined -85.699 202.17 -0.47061 730.00 0.0013699 -85.699 202.17 -0.47061 1.4960 1.9671 2301.7 -0.0074509 1687.8 0.23978 730.00 0.0013699 -85.699 202.17 -0.47061 1.4960 1.9671 2301.7 -0.0074509 1687.8 0.23978
-109.62 30840. undefined -84.202 207.08 -0.46143 730.00 0.0013699 -84.202 207.08 -0.46143 1.4981 1.9682 2303.5 -0.0074461 1671.3 0.24023 730.00 0.0013699 -84.202 207.08 -0.46143 1.4981 1.9682 2303.5 -0.0074461 1671.3 0.24023
-108.62 31200. undefined -82.703 211.98 -0.45229 730.00 0.0013699 -82.703 211.98 -0.45229 1.5002 1.9692 2305.3 -0.0074414 1655.2 0.24069 730.00 0.0013699 -82.703 211.98 -0.45229 1.5002 1.9692 2305.3 -0.0074414 1655.2 0.24069
-107.62 31559. undefined -81.201 216.87 -0.44319 730.00 0.0013699 -81.201 216.87 -0.44319 1.5024 1.9703 2307.1 -0.0074365 1639.5 0.24114 730.00 0.0013699 -81.201 216.87 -0.44319 1.5024 1.9703 2307.1 -0.0074365 1639.5 0.24114
-106.62 31917. undefined -79.698 221.76 -0.43414 730.00 0.0013699 -79.698 221.76 -0.43414 1.5046 1.9714 2308.9 -0.0074316 1624.1 0.24159 730.00 0.0013699 -79.698 221.76 -0.43414 1.5046 1.9714 2308.9 -0.0074316 1624.1 0.24159
-105.62 32274. undefined -78.192 226.64 -0.42512 730.00 0.0013699 -78.192 226.64 -0.42512 1.5068 1.9725 2310.6 -0.0074267 1609.1 0.24205 730.00 0.0013699 -78.192 226.64 -0.42512 1.5068 1.9725 2310.6 -0.0074267 1609.1 0.24205
-104.62 32630. undefined -76.684 231.51 -0.41615 730.00 0.0013699 -76.684 231.51 -0.41615 1.5089 1.9736 2312.4 -0.0074217 1594.5 0.24250 730.00 0.0013699 -76.684 231.51 -0.41615 1.5089 1.9736 2312.4 -0.0074217 1594.5 0.24250
-103.62 32985. undefined -75.174 236.37 -0.40721 730.00 0.0013699 -75.174 236.37 -0.40721 1.5112 1.9748 2314.1 -0.0074167 1580.2 0.24296 730.00 0.0013699 -75.174 236.37 -0.40721 1.5112 1.9748 2314.1 -0.0074167 1580.2 0.24296
-102.62 33339. undefined -73.662 241.22 -0.39832 730.00 0.0013699 -73.662 241.22 -0.39832 1.5134 1.9759 2315.8 -0.0074116 1566.2 0.24341 730.00 0.0013699 -73.662 241.22 -0.39832 1.5134 1.9759 2315.8 -0.0074116 1566.2 0.24341
-101.62 33692. undefined -72.148 246.07 -0.38946 730.00 0.0013699 -72.148 246.07 -0.38946 1.5156 1.9771 2317.5 -0.0074064 1552.6 0.24387 730.00 0.0013699 -72.148 246.07 -0.38946 1.5156 1.9771 2317.5 -0.0074064 1552.6 0.24387
-100.62 34044. undefined -70.631 250.91 -0.38065 730.00 0.0013699 -70.631 250.91 -0.38065 1.5178 1.9783 2319.2 -0.0074013 1539.2 0.24432 730.00 0.0013699 -70.631 250.91 -0.38065 1.5178 1.9783 2319.2 -0.0074013 1539.2 0.24432
-99.625 34395. undefined -69.112 255.74 -0.37187 730.00 0.0013699 -69.112 255.74 -0.37187 1.5201 1.9795 2320.9 -0.0073960 1526.1 0.24478 730.00 0.0013699 -69.112 255.74 -0.37187 1.5201 1.9795 2320.9 -0.0073960 1526.1 0.24478
-98.625 34745. undefined -67.591 260.57 -0.36313 730.00 0.0013699 -67.591 260.57 -0.36313 1.5223 1.9807 2322.5 -0.0073907 1513.4 0.24523 730.00 0.0013699 -67.591 260.57 -0.36313 1.5223 1.9807 2322.5 -0.0073907 1513.4 0.24523
-97.625 35094. undefined -66.067 265.39 -0.35442 730.00 0.0013699 -66.067 265.39 -0.35442 1.5246 1.9820 2324.2 -0.0073853 1500.9 0.24569 730.00 0.0013699 -66.067 265.39 -0.35442 1.5246 1.9820 2324.2 -0.0073853 1500.9 0.24569
-96.625 35442. undefined -64.541 270.20 -0.34575 730.00 0.0013699 -64.541 270.20 -0.34575 1.5269 1.9833 2325.8 -0.0073799 1488.7 0.24615 730.00 0.0013699 -64.541 270.20 -0.34575 1.5269 1.9833 2325.8 -0.0073799 1488.7 0.24615
-95.625 35789. undefined -63.013 275.01 -0.33712 730.00 0.0013699 -63.013 275.01 -0.33712 1.5292 1.9845 2327.4 -0.0073745 1476.7 0.24660 730.00 0.0013699 -63.013 275.01 -0.33712 1.5292 1.9845 2327.4 -0.0073745 1476.7 0.24660
-94.625 36135. undefined -61.483 279.80 -0.32853 730.00 0.0013699 -61.483 279.80 -0.32853 1.5315 1.9858 2329.1 -0.0073689 1465.0 0.24706 730.00 0.0013699 -61.483 279.80 -0.32853 1.5315 1.9858 2329.1 -0.0073689 1465.0 0.24706
-93.625 36480. undefined -59.950 284.59 -0.31997 730.00 0.0013699 -59.950 284.59 -0.31997 1.5338 1.9872 2330.7 -0.0073634 1453.5 0.24752 730.00 0.0013699 -59.950 284.59 -0.31997 1.5338 1.9872 2330.7 -0.0073634 1453.5 0.24752
-92.625 36824. undefined -58.415 289.38 -0.31144 730.00 0.0013699 -58.415 289.38 -0.31144 1.5362 1.9885 2332.2 -0.0073577 1442.3 0.24798 730.00 0.0013699 -58.415 289.38 -0.31144 1.5362 1.9885 2332.2 -0.0073577 1442.3 0.24798
-91.625 37167. undefined -56.878 294.16 -0.30295 730.00 0.0013699 -56.878 294.16 -0.30295 1.5385 1.9899 2333.8 -0.0073520 1431.3 0.24843 730.00 0.0013699 -56.878 294.16 -0.30295 1.5385 1.9899 2333.8 -0.0073520 1431.3 0.24843
-90.625 37509. undefined -55.338 298.93 -0.29449 730.00 0.0013699 -55.338 298.93 -0.29449 1.5409 1.9912 2335.4 -0.0073462 1420.5 0.24889 730.00 0.0013699 -55.338 298.93 -0.29449 1.5409 1.9912 2335.4 -0.0073462 1420.5 0.24889
-89.625 37850. undefined -53.796 303.69 -0.28606 730.00 0.0013699 -53.796 303.69 -0.28606 1.5433 1.9926 2336.9 -0.0073404 1410.0 0.24935 730.00 0.0013699 -53.796 303.69 -0.28606 1.5433 1.9926 2336.9 -0.0073404 1410.0 0.24935
-88.625 38190. undefined -52.252 308.45 -0.27767 730.00 0.0013699 -52.252 308.45 -0.27767 1.5457 1.9941 2338.5 -0.0073345 1399.6 0.24981 730.00 0.0013699 -52.252 308.45 -0.27767 1.5457 1.9941 2338.5 -0.0073345 1399.6 0.24981
-87.625 38530. undefined -50.705 313.20 -0.26931 730.00 0.0013699 -50.705 313.20 -0.26931 1.5481 1.9955 2340.0 -0.0073286 1389.5 0.25027 730.00 0.0013699 -50.705 313.20 -0.26931 1.5481 1.9955 2340.0 -0.0073286 1389.5 0.25027
-86.625 38868. undefined -49.156 317.95 -0.26098 730.00 0.0013699 -49.156 317.95 -0.26098 1.5505 1.9970 2341.5 -0.0073226 1379.6 0.25073 730.00 0.0013699 -49.156 317.95 -0.26098 1.5505 1.9970 2341.5 -0.0073226 1379.6 0.25073
-85.625 39206. undefined -47.604 322.69 -0.25268 730.00 0.0013699 -47.604 322.69 -0.25268 1.5529 1.9984 2343.1 -0.0073165 1369.8 0.25119 730.00 0.0013699 -47.604 322.69 -0.25268 1.5529 1.9984 2343.1 -0.0073165 1369.8 0.25119
-84.625 39542. undefined -46.050 327.42 -0.24442 730.00 0.0013699 -46.050 327.42 -0.24442 1.5554 1.9999 2344.6 -0.0073104 1360.3 0.25165 730.00 0.0013699 -46.050 327.42 -0.24442 1.5554 1.9999 2344.6 -0.0073104 1360.3 0.25165
-83.625 39878. undefined -44.493 332.15 -0.23618 730.00 0.0013699 -44.493 332.15 -0.23618 1.5579 2.0015 2346.0 -0.0073042 1350.9 0.25211 730.00 0.0013699 -44.493 332.15 -0.23618 1.5579 2.0015 2346.0 -0.0073042 1350.9 0.25211
-82.625 40213. undefined -42.934 336.87 -0.22798 730.00 0.0013699 -42.934 336.87 -0.22798 1.5603 2.0030 2347.5 -0.0072980 1341.7 0.25257 730.00 0.0013699 -42.934 336.87 -0.22798 1.5603 2.0030 2347.5 -0.0072980 1341.7 0.25257
-81.625 40547. undefined -41.372 341.59 -0.21980 730.00 0.0013699 -41.372 341.59 -0.21980 1.5628 2.0046 2349.0 -0.0072917 1332.7 0.25303 730.00 0.0013699 -41.372 341.59 -0.21980 1.5628 2.0046 2349.0 -0.0072917 1332.7 0.25303
-80.625 40880. undefined -39.808 346.30 -0.21166 730.00 0.0013699 -39.808 346.30 -0.21166 1.5654 2.0062 2350.4 -0.0072853 1323.8 0.25349 730.00 0.0013699 -39.808 346.30 -0.21166 1.5654 2.0062 2350.4 -0.0072853 1323.8 0.25349
-79.625 41212. undefined -38.242 351.00 -0.20354 730.00 0.0013699 -38.242 351.00 -0.20354 1.5679 2.0078 2351.9 -0.0072789 1315.1 0.25395 730.00 0.0013699 -38.242 351.00 -0.20354 1.5679 2.0078 2351.9 -0.0072789 1315.1 0.25395
-78.625 41543. undefined -36.673 355.70 -0.19545 730.00 0.0013699 -36.673 355.70 -0.19545 1.5704 2.0094 2353.3 -0.0072724 1306.6 0.25442 730.00 0.0013699 -36.673 355.70 -0.19545 1.5704 2.0094 2353.3 -0.0072724 1306.6 0.25442
-77.625 41874. undefined -35.101 360.39 -0.18739 730.00 0.0013699 -35.101 360.39 -0.18739 1.5730 2.0110 2354.8 -0.0072658 1298.2 0.25488 730.00 0.0013699 -35.101 360.39 -0.18739 1.5730 2.0110 2354.8 -0.0072658 1298.2 0.25488
-76.625 42203. undefined -33.527 365.08 -0.17936 730.00 0.0013699 -33.527 365.08 -0.17936 1.5756 2.0127 2356.2 -0.0072592 1290.0 0.25534 730.00 0.0013699 -33.527 365.08 -0.17936 1.5756 2.0127 2356.2 -0.0072592 1290.0 0.25534
-75.625 42532. undefined -31.950 369.76 -0.17136 730.00 0.0013699 -31.950 369.76 -0.17136 1.5782 2.0144 2357.6 -0.0072525 1281.9 0.25580 730.00 0.0013699 -31.950 369.76 -0.17136 1.5782 2.0144 2357.6 -0.0072525 1281.9 0.25580
-74.625 42860. undefined -30.370 374.44 -0.16338 730.00 0.0013699 -30.370 374.44 -0.16338 1.5808 2.0161 2359.0 -0.0072458 1274.0 0.25627 730.00 0.0013699 -30.370 374.44 -0.16338 1.5808 2.0161 2359.0 -0.0072458 1274.0 0.25627
-73.625 43187. undefined -28.788 379.11 -0.15544 730.00 0.0013699 -28.788 379.11 -0.15544 1.5834 2.0178 2360.4 -0.0072390 1266.2 0.25673 730.00 0.0013699 -28.788 379.11 -0.15544 1.5834 2.0178 2360.4 -0.0072390 1266.2 0.25673
-72.625 43513. undefined -27.203 383.77 -0.14751 730.00 0.0013699 -27.203 383.77 -0.14751 1.5860 2.0196 2361.8 -0.0072321 1258.6 0.25719 730.00 0.0013699 -27.203 383.77 -0.14751 1.5860 2.0196 2361.8 -0.0072321 1258.6 0.25719
-71.625 43839. undefined -25.616 388.43 -0.13962 730.00 0.0013699 -25.616 388.43 -0.13962 1.5887 2.0214 2363.1 -0.0072252 1251.1 0.25766 730.00 0.0013699 -25.616 388.43 -0.13962 1.5887 2.0214 2363.1 -0.0072252 1251.1 0.25766
-70.625 44163. undefined -24.026 393.09 -0.13175 730.00 0.0013699 -24.026 393.09 -0.13175 1.5914 2.0231 2364.5 -0.0072182 1243.7 0.25812 730.00 0.0013699 -24.026 393.09 -0.13175 1.5914 2.0231 2364.5 -0.0072182 1243.7 0.25812
-69.625 44487. undefined -22.433 397.74 -0.12390 730.00 0.0013699 -22.433 397.74 -0.12390 1.5941 2.0250 2365.9 -0.0072111 1236.4 0.25859 730.00 0.0013699 -22.433 397.74 -0.12390 1.5941 2.0250 2365.9 -0.0072111 1236.4 0.25859
-68.625 44810. undefined -20.838 402.39 -0.11608 730.00 0.0013699 -20.838 402.39 -0.11608 1.5968 2.0268 2367.2 -0.0072040 1229.3 0.25905 730.00 0.0013699 -20.838 402.39 -0.11608 1.5968 2.0268 2367.2 -0.0072040 1229.3 0.25905
-67.625 45132. undefined -19.240 407.03 -0.10829 730.00 0.0013699 -19.240 407.03 -0.10829 1.5995 2.0287 2368.5 -0.0071969 1222.2 0.25952 730.00 0.0013699 -19.240 407.03 -0.10829 1.5995 2.0287 2368.5 -0.0071969 1222.2 0.25952
-66.625 45454. undefined -17.639 411.66 -0.10052 730.00 0.0013699 -17.639 411.66 -0.10052 1.6022 2.0305 2369.9 -0.0071896 1215.3 0.25998 730.00 0.0013699 -17.639 411.66 -0.10052 1.6022 2.0305 2369.9 -0.0071896 1215.3 0.25998
-65.625 45774. undefined -16.035 416.30 -0.092770 730.00 0.0013699 -16.035 416.30 -0.092770 1.6050 2.0324 2371.2 -0.0071823 1208.6 0.26045 730.00 0.0013699 -16.035 416.30 -0.092770 1.6050 2.0324 2371.2 -0.0071823 1208.6 0.26045
-64.625 46094. undefined -14.429 420.92 -0.085048 730.00 0.0013699 -14.429 420.92 -0.085048 1.6078 2.0344 2372.5 -0.0071750 1201.9 0.26091 730.00 0.0013699 -14.429 420.92 -0.085048 1.6078 2.0344 2372.5 -0.0071750 1201.9 0.26091
-63.625 46413. undefined -12.820 425.55 -0.077350 730.00 0.0013699 -12.820 425.55 -0.077350 1.6106 2.0363 2373.8 -0.0071676 1195.3 0.26138 730.00 0.0013699 -12.820 425.55 -0.077350 1.6106 2.0363 2373.8 -0.0071676 1195.3 0.26138
-62.625 46731. undefined -11.208 430.16 -0.069674 730.00 0.0013699 -11.208 430.16 -0.069674 1.6134 2.0383 2375.1 -0.0071601 1188.9 0.26185 730.00 0.0013699 -11.208 430.16 -0.069674 1.6134 2.0383 2375.1 -0.0071601 1188.9 0.26185
-61.625 47049. undefined -9.5930 434.78 -0.062022 730.00 0.0013699 -9.5930 434.78 -0.062022 1.6162 2.0403 2376.4 -0.0071526 1182.5 0.26231 730.00 0.0013699 -9.5930 434.78 -0.062022 1.6162 2.0403 2376.4 -0.0071526 1182.5 0.26231
-60.625 47365. undefined -7.9754 439.38 -0.054393 730.00 0.0013699 -7.9754 439.38 -0.054393 1.6190 2.0423 2377.7 -0.0071450 1176.3 0.26278 730.00 0.0013699 -7.9754 439.38 -0.054393 1.6190 2.0423 2377.7 -0.0071450 1176.3 0.26278
-59.625 47681. undefined -6.3549 443.99 -0.046786 730.00 0.0013699 -6.3549 443.99 -0.046786 1.6219 2.0443 2379.0 -0.0071373 1170.1 0.26325 730.00 0.0013699 -6.3549 443.99 -0.046786 1.6219 2.0443 2379.0 -0.0071373 1170.1 0.26325
-58.625 47997. undefined -4.7316 448.59 -0.039202 730.00 0.0013699 -4.7316 448.59 -0.039202 1.6247 2.0464 2380.2 -0.0071296 1164.0 0.26372 730.00 0.0013699 -4.7316 448.59 -0.039202 1.6247 2.0464 2380.2 -0.0071296 1164.0 0.26372
-57.625 48311. undefined -3.1054 453.19 -0.031639 730.00 0.0013699 -3.1054 453.19 -0.031639 1.6276 2.0485 2381.5 -0.0071219 1158.1 0.26418 730.00 0.0013699 -3.1054 453.19 -0.031639 1.6276 2.0485 2381.5 -0.0071219 1158.1 0.26418
-56.625 48625. undefined -1.4763 457.78 -0.024098 730.00 0.0013699 -1.4763 457.78 -0.024098 1.6305 2.0506 2382.7 -0.0071141 1152.2 0.26465 730.00 0.0013699 -1.4763 457.78 -0.024098 1.6305 2.0506 2382.7 -0.0071141 1152.2 0.26465
-55.625 48938. undefined 0.15565 462.37 -0.016578 730.00 0.0013699 0.15565 462.37 -0.016578 1.6335 2.0527 2384.0 -0.0071062 1146.4 0.26512 730.00 0.0013699 0.15565 462.37 -0.016578 1.6335 2.0527 2384.0 -0.0071062 1146.4 0.26512
-54.625 49250. undefined 1.7906 466.95 -0.0090789 730.00 0.0013699 1.7906 466.95 -0.0090789 1.6364 2.0548 2385.2 -0.0070983 1140.8 0.26559 730.00 0.0013699 1.7906 466.95 -0.0090789 1.6364 2.0548 2385.2 -0.0070983 1140.8 0.26559
-53.625 49561. undefined 3.4285 471.53 -0.0016009 730.00 0.0013699 3.4285 471.53 -0.0016009 1.6394 2.0570 2386.4 -0.0070903 1135.2 0.26606 730.00 0.0013699 3.4285 471.53 -0.0016009 1.6394 2.0570 2386.4 -0.0070903 1135.2 0.26606
-52.625 49872. undefined 5.0693 476.10 0.0058566 730.00 0.0013699 5.0693 476.10 0.0058566 1.6423 2.0592 2387.7 -0.0070823 1129.7 0.26653 730.00 0.0013699 5.0693 476.10 0.0058566 1.6423 2.0592 2387.7 -0.0070823 1129.7 0.26653
-51.625 50182. undefined 6.7131 480.68 0.013294 730.00 0.0013699 6.7131 480.68 0.013294 1.6453 2.0614 2388.9 -0.0070742 1124.2 0.26700 730.00 0.0013699 6.7131 480.68 0.013294 1.6453 2.0614 2388.9 -0.0070742 1124.2 0.26700
-50.625 50491. undefined 8.3599 485.24 0.020711 730.00 0.0013699 8.3599 485.24 0.020711 1.6483 2.0636 2390.1 -0.0070660 1118.9 0.26747 730.00 0.0013699 8.3599 485.24 0.020711 1.6483 2.0636 2390.1 -0.0070660 1118.9 0.26747
-49.625 50800. undefined 10.010 489.81 0.028109 730.00 0.0013699 10.010 489.81 0.028109 1.6513 2.0658 2391.3 -0.0070578 1113.6 0.26794 730.00 0.0013699 10.010 489.81 0.028109 1.6513 2.0658 2391.3 -0.0070578 1113.6 0.26794
-48.625 51108. undefined 11.663 494.37 0.035487 730.00 0.0013699 11.663 494.37 0.035487 1.6544 2.0681 2392.5 -0.0070496 1108.4 0.26841 730.00 0.0013699 11.663 494.37 0.035487 1.6544 2.0681 2392.5 -0.0070496 1108.4 0.26841
-47.625 51415. undefined 13.319 498.93 0.042845 730.00 0.0013699 13.319 498.93 0.042845 1.6574 2.0704 2393.7 -0.0070413 1103.3 0.26888 730.00 0.0013699 13.319 498.93 0.042845 1.6574 2.0704 2393.7 -0.0070413 1103.3 0.26888
-46.625 51722. undefined 14.977 503.48 0.050185 730.00 0.0013699 14.977 503.48 0.050185 1.6605 2.0727 2394.9 -0.0070330 1098.3 0.26935 730.00 0.0013699 14.977 503.48 0.050185 1.6605 2.0727 2394.9 -0.0070330 1098.3 0.26935
-45.625 52027. undefined 16.639 508.03 0.057506 730.00 0.0013699 16.639 508.03 0.057506 1.6636 2.0750 2396.0 -0.0070246 1093.3 0.26982 730.00 0.0013699 16.639 508.03 0.057506 1.6636 2.0750 2396.0 -0.0070246 1093.3 0.26982
-44.625 52333. undefined 18.305 512.58 0.064808 730.00 0.0013699 18.305 512.58 0.064808 1.6667 2.0774 2397.2 -0.0070161 1088.4 0.27029 730.00 0.0013699 18.305 512.58 0.064808 1.6667 2.0774 2397.2 -0.0070161 1088.4 0.27029
-43.625 52637. undefined 19.973 517.12 0.072092 730.00 0.0013699 19.973 517.12 0.072092 1.6698 2.0797 2398.4 -0.0070076 1083.6 0.27077 730.00 0.0013699 19.973 517.12 0.072092 1.6698 2.0797 2398.4 -0.0070076 1083.6 0.27077
-42.625 52941. undefined 21.644 521.66 0.079358 730.00 0.0013699 21.644 521.66 0.079358 1.6729 2.0821 2399.5 -0.0069991 1078.9 0.27124 730.00 0.0013699 21.644 521.66 0.079358 1.6729 2.0821 2399.5 -0.0069991 1078.9 0.27124
-41.625 53244. undefined 23.319 526.20 0.086607 730.00 0.0013699 23.319 526.20 0.086607 1.6761 2.0845 2400.7 -0.0069905 1074.2 0.27171 730.00 0.0013699 23.319 526.20 0.086607 1.6761 2.0845 2400.7 -0.0069905 1074.2 0.27171
-40.625 53546. undefined 24.996 530.73 0.093837 730.00 0.0013699 24.996 530.73 0.093837 1.6792 2.0870 2401.8 -0.0069819 1069.6 0.27219 730.00 0.0013699 24.996 530.73 0.093837 1.6792 2.0870 2401.8 -0.0069819 1069.6 0.27219
-39.625 53848. undefined 26.677 535.26 0.10105 730.00 0.0013699 26.677 535.26 0.10105 1.6824 2.0894 2403.0 -0.0069732 1065.0 0.27266 730.00 0.0013699 26.677 535.26 0.10105 1.6824 2.0894 2403.0 -0.0069732 1065.0 0.27266
-38.625 54149. undefined 28.361 539.79 0.10825 730.00 0.0013699 28.361 539.79 0.10825 1.6856 2.0919 2404.1 -0.0069645 1060.5 0.27313 730.00 0.0013699 28.361 539.79 0.10825 1.6856 2.0919 2404.1 -0.0069645 1060.5 0.27313
-37.625 54449. undefined 30.048 544.32 0.11542 730.00 0.0013699 30.048 544.32 0.11542 1.6888 2.0944 2405.2 -0.0069557 1056.1 0.27361 730.00 0.0013699 30.048 544.32 0.11542 1.6888 2.0944 2405.2 -0.0069557 1056.1 0.27361
-36.625 54749. undefined 31.739 548.84 0.12259 730.00 0.0013699 31.739 548.84 0.12259 1.6920 2.0969 2406.4 -0.0069469 1051.7 0.27408 730.00 0.0013699 31.739 548.84 0.12259 1.6920 2.0969 2406.4 -0.0069469 1051.7 0.27408
-35.625 55048. undefined 33.433 553.36 0.12973 730.00 0.0013699 33.433 553.36 0.12973 1.6953 2.0994 2407.5 -0.0069381 1047.4 0.27455 730.00 0.0013699 33.433 553.36 0.12973 1.6953 2.0994 2407.5 -0.0069381 1047.4 0.27455
-34.625 55347. undefined 35.129 557.87 0.13686 730.00 0.0013699 35.129 557.87 0.13686 1.6985 2.1020 2408.6 -0.0069292 1043.2 0.27503 730.00 0.0013699 35.129 557.87 0.13686 1.6985 2.1020 2408.6 -0.0069292 1043.2 0.27503
-33.625 55645. undefined 36.830 562.38 0.14397 730.00 0.0013699 36.830 562.38 0.14397 1.7018 2.1045 2409.7 -0.0069203 1039.0 0.27550 730.00 0.0013699 36.830 562.38 0.14397 1.7018 2.1045 2409.7 -0.0069203 1039.0 0.27550
-32.625 55942. undefined 38.533 566.90 0.15107 730.00 0.0013699 38.533 566.90 0.15107 1.7051 2.1071 2410.8 -0.0069113 1034.9 0.27598 730.00 0.0013699 38.533 566.90 0.15107 1.7051 2.1071 2410.8 -0.0069113 1034.9 0.27598
-31.625 56238. undefined 40.240 571.40 0.15815 730.00 0.0013699 40.240 571.40 0.15815 1.7084 2.1097 2411.9 -0.0069023 1030.8 0.27646 730.00 0.0013699 40.240 571.40 0.15815 1.7084 2.1097 2411.9 -0.0069023 1030.8 0.27646
-30.625 56534. undefined 41.950 575.91 0.16522 730.00 0.0013699 41.950 575.91 0.16522 1.7117 2.1124 2413.0 -0.0068932 1026.8 0.27693 730.00 0.0013699 41.950 575.91 0.16522 1.7117 2.1124 2413.0 -0.0068932 1026.8 0.27693
-29.625 56829. undefined 43.663 580.41 0.17227 730.00 0.0013699 43.663 580.41 0.17227 1.7150 2.1150 2414.1 -0.0068842 1022.8 0.27741 730.00 0.0013699 43.663 580.41 0.17227 1.7150 2.1150 2414.1 -0.0068842 1022.8 0.27741
-28.625 57124. undefined 45.380 584.91 0.17930 730.00 0.0013699 45.380 584.91 0.17930 1.7184 2.1177 2415.2 -0.0068750 1018.9 0.27788 730.00 0.0013699 45.380 584.91 0.17930 1.7184 2.1177 2415.2 -0.0068750 1018.9 0.27788
-27.625 57418. undefined 47.100 589.41 0.18632 730.00 0.0013699 47.100 589.41 0.18632 1.7217 2.1203 2416.3 -0.0068659 1015.0 0.27836 730.00 0.0013699 47.100 589.41 0.18632 1.7217 2.1203 2416.3 -0.0068659 1015.0 0.27836
-26.625 57712. undefined 48.823 593.90 0.19333 730.00 0.0013699 48.823 593.90 0.19333 1.7251 2.1230 2417.3 -0.0068567 1011.2 0.27884 730.00 0.0013699 48.823 593.90 0.19333 1.7251 2.1230 2417.3 -0.0068567 1011.2 0.27884
-25.625 58004. undefined 50.550 598.39 0.20032 730.00 0.0013699 50.550 598.39 0.20032 1.7285 2.1258 2418.4 -0.0068475 1007.4 0.27932 730.00 0.0013699 50.550 598.39 0.20032 1.7285 2.1258 2418.4 -0.0068475 1007.4 0.27932
-24.625 58297. undefined 52.280 602.88 0.20729 730.00 0.0013699 52.280 602.88 0.20729 1.7319 2.1285 2419.5 -0.0068382 1003.7 0.27979 730.00 0.0013699 52.280 602.88 0.20729 1.7319 2.1285 2419.5 -0.0068382 1003.7 0.27979
-23.625 58588. undefined 54.014 607.37 0.21426 730.00 0.0013699 54.014 607.37 0.21426 1.7353 2.1313 2420.5 -0.0068289 1000.1 0.28027 730.00 0.0013699 54.014 607.37 0.21426 1.7353 2.1313 2420.5 -0.0068289 1000.1 0.28027
-22.625 58879. undefined 55.751 611.86 0.22120 730.00 0.0013699 55.751 611.86 0.22120 1.7387 2.1340 2421.6 -0.0068196 996.45 0.28075 730.00 0.0013699 55.751 611.86 0.22120 1.7387 2.1340 2421.6 -0.0068196 996.45 0.28075
-21.625 59170. undefined 57.491 616.34 0.22814 730.00 0.0013699 57.491 616.34 0.22814 1.7422 2.1368 2422.6 -0.0068102 992.88 0.28123 730.00 0.0013699 57.491 616.34 0.22814 1.7422 2.1368 2422.6 -0.0068102 992.88 0.28123
-20.625 59459. undefined 59.235 620.82 0.23506 730.00 0.0013699 59.235 620.82 0.23506 1.7456 2.1396 2423.7 -0.0068009 989.35 0.28171 730.00 0.0013699 59.235 620.82 0.23506 1.7456 2.1396 2423.7 -0.0068009 989.35 0.28171
-19.625 59749. undefined 60.983 625.30 0.24196 730.00 0.0013699 60.983 625.30 0.24196 1.7491 2.1424 2424.7 -0.0067915 985.87 0.28219 730.00 0.0013699 60.983 625.30 0.24196 1.7491 2.1424 2424.7 -0.0067915 985.87 0.28219
-18.625 60037. undefined 62.734 629.78 0.24885 730.00 0.0013699 62.734 629.78 0.24885 1.7526 2.1453 2425.8 -0.0067820 982.43 0.28267 730.00 0.0013699 62.734 629.78 0.24885 1.7526 2.1453 2425.8 -0.0067820 982.43 0.28267
-17.625 60325. undefined 64.488 634.25 0.25573 730.00 0.0013699 64.488 634.25 0.25573 1.7561 2.1481 2426.8 -0.0067726 979.04 0.28315 730.00 0.0013699 64.488 634.25 0.25573 1.7561 2.1481 2426.8 -0.0067726 979.04 0.28315
-16.625 60613. undefined 66.246 638.73 0.26260 730.00 0.0013699 66.246 638.73 0.26260 1.7596 2.1510 2427.8 -0.0067631 975.69 0.28363 730.00 0.0013699 66.246 638.73 0.26260 1.7596 2.1510 2427.8 -0.0067631 975.69 0.28363
-15.625 60900. undefined 68.007 643.20 0.26945 730.00 0.0013699 68.007 643.20 0.26945 1.7631 2.1539 2428.9 -0.0067535 972.38 0.28411 730.00 0.0013699 68.007 643.20 0.26945 1.7631 2.1539 2428.9 -0.0067535 972.38 0.28411
-14.625 61186. undefined 69.772 647.67 0.27629 730.00 0.0013699 69.772 647.67 0.27629 1.7666 2.1568 2429.9 -0.0067440 969.11 0.28459 730.00 0.0013699 69.772 647.67 0.27629 1.7666 2.1568 2429.9 -0.0067440 969.11 0.28459
-13.625 61472. undefined 71.540 652.13 0.28312 730.00 0.0013699 71.540 652.13 0.28312 1.7702 2.1597 2430.9 -0.0067344 965.88 0.28507 730.00 0.0013699 71.540 652.13 0.28312 1.7702 2.1597 2430.9 -0.0067344 965.88 0.28507
-12.625 61757. undefined 73.312 656.60 0.28993 730.00 0.0013699 73.312 656.60 0.28993 1.7737 2.1627 2431.9 -0.0067248 962.69 0.28555 730.00 0.0013699 73.312 656.60 0.28993 1.7737 2.1627 2431.9 -0.0067248 962.69 0.28555
-11.625 62042. undefined 75.088 661.06 0.29674 730.00 0.0013699 75.088 661.06 0.29674 1.7773 2.1656 2432.9 -0.0067152 959.54 0.28603 730.00 0.0013699 75.088 661.06 0.29674 1.7773 2.1656 2432.9 -0.0067152 959.54 0.28603
-10.625 62326. undefined 76.867 665.53 0.30353 730.00 0.0013699 76.867 665.53 0.30353 1.7809 2.1686 2434.0 -0.0067056 956.43 0.28651 730.00 0.0013699 76.867 665.53 0.30353 1.7809 2.1686 2434.0 -0.0067056 956.43 0.28651
-9.6250 62609. undefined 78.649 669.99 0.31030 730.00 0.0013699 78.649 669.99 0.31030 1.7845 2.1716 2435.0 -0.0066959 953.36 0.28699 730.00 0.0013699 78.649 669.99 0.31030 1.7845 2.1716 2435.0 -0.0066959 953.36 0.28699
-8.6250 62892. undefined 80.436 674.44 0.31707 730.00 0.0013699 80.436 674.44 0.31707 1.7881 2.1746 2436.0 -0.0066863 950.32 0.28748 730.00 0.0013699 80.436 674.44 0.31707 1.7881 2.1746 2436.0 -0.0066863 950.32 0.28748
-7.6250 63175. undefined 82.225 678.90 0.32382 730.00 0.0013699 82.225 678.90 0.32382 1.7917 2.1776 2437.0 -0.0066766 947.32 0.28796 730.00 0.0013699 82.225 678.90 0.32382 1.7917 2.1776 2437.0 -0.0066766 947.32 0.28796
-6.6250 63457. undefined 84.019 683.36 0.33056 730.00 0.0013699 84.019 683.36 0.33056 1.7953 2.1806 2438.0 -0.0066669 944.35 0.28844 730.00 0.0013699 84.019 683.36 0.33056 1.7953 2.1806 2438.0 -0.0066669 944.35 0.28844
-5.6250 63738. undefined 85.816 687.81 0.33729 730.00 0.0013699 85.816 687.81 0.33729 1.7989 2.1837 2439.0 -0.0066571 941.42 0.28892 730.00 0.0013699 85.816 687.81 0.33729 1.7989 2.1837 2439.0 -0.0066571 941.42 0.28892
-4.6250 64019. undefined 87.617 692.27 0.34401 730.00 0.0013699 87.617 692.27 0.34401 1.8026 2.1867 2440.0 -0.0066474 938.53 0.28941 730.00 0.0013699 87.617 692.27 0.34401 1.8026 2.1867 2440.0 -0.0066474 938.53 0.28941
-3.6250 64299. undefined 89.421 696.72 0.35072 730.00 0.0013699 89.421 696.72 0.35072 1.8062 2.1898 2440.9 -0.0066376 935.66 0.28989 730.00 0.0013699 89.421 696.72 0.35072 1.8062 2.1898 2440.9 -0.0066376 935.66 0.28989
-2.6250 64579. undefined 91.229 701.17 0.35742 730.00 0.0013699 91.229 701.17 0.35742 1.8099 2.1929 2441.9 -0.0066278 932.84 0.29038 730.00 0.0013699 91.229 701.17 0.35742 1.8099 2.1929 2441.9 -0.0066278 932.84 0.29038
-1.6250 64858. undefined 93.041 705.62 0.36410 730.00 0.0013699 93.041 705.62 0.36410 1.8136 2.1960 2442.9 -0.0066180 930.04 0.29086 730.00 0.0013699 93.041 705.62 0.36410 1.8136 2.1960 2442.9 -0.0066180 930.04 0.29086
-0.62500 65137. undefined 94.857 710.06 0.37077 730.00 0.0013699 94.857 710.06 0.37077 1.8173 2.1991 2443.9 -0.0066082 927.28 0.29135 730.00 0.0013699 94.857 710.06 0.37077 1.8173 2.1991 2443.9 -0.0066082 927.28 0.29135
0.37500 65415. undefined 96.676 714.51 0.37744 730.00 0.0013699 96.676 714.51 0.37744 1.8210 2.2022 2444.9 -0.0065984 924.55 0.29183 730.00 0.0013699 96.676 714.51 0.37744 1.8210 2.2022 2444.9 -0.0065984 924.55 0.29183
1.3750 65692. undefined 98.499 718.96 0.38409 730.00 0.0013699 98.499 718.96 0.38409 1.8247 2.2054 2445.8 -0.0065886 921.85 0.29232 730.00 0.0013699 98.499 718.96 0.38409 1.8247 2.2054 2445.8 -0.0065886 921.85 0.29232
2.3750 65970. undefined 100.33 723.40 0.39073 730.00 0.0013699 100.33 723.40 0.39073 1.8284 2.2086 2446.8 -0.0065787 919.18 0.29280 730.00 0.0013699 100.33 723.40 0.39073 1.8284 2.2086 2446.8 -0.0065787 919.18 0.29280
3.3750 66246. undefined 102.16 727.84 0.39736 730.00 0.0013699 102.16 727.84 0.39736 1.8322 2.2117 2447.8 -0.0065689 916.54 0.29329 730.00 0.0013699 102.16 727.84 0.39736 1.8322 2.2117 2447.8 -0.0065689 916.54 0.29329
4.3750 66522. undefined 103.99 732.28 0.40398 730.00 0.0013699 103.99 732.28 0.40398 1.8359 2.2149 2448.7 -0.0065590 913.94 0.29377 730.00 0.0013699 103.99 732.28 0.40398 1.8359 2.2149 2448.7 -0.0065590 913.94 0.29377
5.3750 66798. undefined 105.83 736.72 0.41059 730.00 0.0013699 105.83 736.72 0.41059 1.8397 2.2181 2449.7 -0.0065491 911.36 0.29426 730.00 0.0013699 105.83 736.72 0.41059 1.8397 2.2181 2449.7 -0.0065491 911.36 0.29426
6.3750 67073. undefined 107.67 741.16 0.41719 730.00 0.0013699 107.67 741.16 0.41719 1.8434 2.2213 2450.7 -0.0065392 908.81 0.29475 730.00 0.0013699 107.67 741.16 0.41719 1.8434 2.2213 2450.7 -0.0065392 908.81 0.29475
7.3750 67348. undefined 109.51 745.60 0.42378 730.00 0.0013699 109.51 745.60 0.42378 1.8472 2.2246 2451.6 -0.0065293 906.29 0.29523 730.00 0.0013699 109.51 745.60 0.42378 1.8472 2.2246 2451.6 -0.0065293 906.29 0.29523
8.3750 67622. undefined 111.36 750.04 0.43036 730.00 0.0013699 111.36 750.04 0.43036 1.8510 2.2278 2452.6 -0.0065194 903.79 0.29572 730.00 0.0013699 111.36 750.04 0.43036 1.8510 2.2278 2452.6 -0.0065194 903.79 0.29572
9.3750 67895. undefined 113.22 754.48 0.43693 730.00 0.0013699 113.22 754.48 0.43693 1.8548 2.2310 2453.5 -0.0065095 901.33 0.29621 730.00 0.0013699 113.22 754.48 0.43693 1.8548 2.2310 2453.5 -0.0065095 901.33 0.29621
10.375 68168. undefined 115.07 758.91 0.44349 730.00 0.0013699 115.07 758.91 0.44349 1.8586 2.2343 2454.5 -0.0064996 898.89 0.29670 730.00 0.0013699 115.07 758.91 0.44349 1.8586 2.2343 2454.5 -0.0064996 898.89 0.29670
11.375 68441. undefined 116.93 763.35 0.45004 730.00 0.0013699 116.93 763.35 0.45004 1.8624 2.2376 2455.4 -0.0064897 896.48 0.29718 730.00 0.0013699 116.93 763.35 0.45004 1.8624 2.2376 2455.4 -0.0064897 896.48 0.29718
12.375 68713. undefined 118.80 767.78 0.45658 730.00 0.0013699 118.80 767.78 0.45658 1.8662 2.2409 2456.3 -0.0064797 894.10 0.29767 730.00 0.0013699 118.80 767.78 0.45658 1.8662 2.2409 2456.3 -0.0064797 894.10 0.29767
13.375 68985. undefined 120.67 772.22 0.46311 730.00 0.0013699 120.67 772.22 0.46311 1.8700 2.2442 2457.3 -0.0064698 891.74 0.29816 730.00 0.0013699 120.67 772.22 0.46311 1.8700 2.2442 2457.3 -0.0064698 891.74 0.29816
14.375 69256. undefined 122.54 776.65 0.46964 730.00 0.0013699 122.54 776.65 0.46964 1.8739 2.2475 2458.2 -0.0064599 889.41 0.29865 730.00 0.0013699 122.54 776.65 0.46964 1.8739 2.2475 2458.2 -0.0064599 889.41 0.29865
15.375 69526. undefined 124.41 781.08 0.47615 730.00 0.0013699 124.41 781.08 0.47615 1.8777 2.2508 2459.2 -0.0064499 887.10 0.29914 730.00 0.0013699 124.41 781.08 0.47615 1.8777 2.2508 2459.2 -0.0064499 887.10 0.29914
16.375 69797. undefined 126.29 785.51 0.48265 730.00 0.0013699 126.29 785.51 0.48265 1.8816 2.2541 2460.1 -0.0064400 884.82 0.29963 730.00 0.0013699 126.29 785.51 0.48265 1.8816 2.2541 2460.1 -0.0064400 884.82 0.29963
17.375 70066. undefined 128.18 789.94 0.48915 730.00 0.0013699 128.18 789.94 0.48915 1.8854 2.2575 2461.0 -0.0064300 882.56 0.30012 730.00 0.0013699 128.18 789.94 0.48915 1.8854 2.2575 2461.0 -0.0064300 882.56 0.30012
18.375 70336. undefined 130.06 794.37 0.49563 730.00 0.0013699 130.06 794.37 0.49563 1.8893 2.2608 2462.0 -0.0064201 880.33 0.30061 730.00 0.0013699 130.06 794.37 0.49563 1.8893 2.2608 2462.0 -0.0064201 880.33 0.30061
19.375 70604. undefined 131.96 798.80 0.50211 730.00 0.0013699 131.96 798.80 0.50211 1.8932 2.2642 2462.9 -0.0064102 878.12 0.30110 730.00 0.0013699 131.96 798.80 0.50211 1.8932 2.2642 2462.9 -0.0064102 878.12 0.30110
20.375 70873. undefined 133.85 803.23 0.50858 730.00 0.0013699 133.85 803.23 0.50858 1.8970 2.2676 2463.8 -0.0064002 875.93 0.30159 730.00 0.0013699 133.85 803.23 0.50858 1.8970 2.2676 2463.8 -0.0064002 875.93 0.30159
21.375 71140. undefined 135.75 807.66 0.51503 730.00 0.0013699 135.75 807.66 0.51503 1.9009 2.2710 2464.7 -0.0063903 873.77 0.30208 730.00 0.0013699 135.75 807.66 0.51503 1.9009 2.2710 2464.7 -0.0063903 873.77 0.30208
22.375 71408. undefined 137.65 812.09 0.52148 730.00 0.0013699 137.65 812.09 0.52148 1.9048 2.2743 2465.6 -0.0063803 871.63 0.30257 730.00 0.0013699 137.65 812.09 0.52148 1.9048 2.2743 2465.6 -0.0063803 871.63 0.30257
23.375 71675. undefined 139.56 816.52 0.52793 730.00 0.0013699 139.56 816.52 0.52793 1.9087 2.2778 2466.6 -0.0063704 869.51 0.30307 730.00 0.0013699 139.56 816.52 0.52793 1.9087 2.2778 2466.6 -0.0063704 869.51 0.30307
24.375 71941. undefined 141.47 820.95 0.53436 730.00 0.0013699 141.47 820.95 0.53436 1.9127 2.2812 2467.5 -0.0063604 867.42 0.30356 730.00 0.0013699 141.47 820.95 0.53436 1.9127 2.2812 2467.5 -0.0063604 867.42 0.30356
25.375 72207. undefined 143.38 825.37 0.54078 730.00 0.0013699 143.38 825.37 0.54078 1.9166 2.2846 2468.4 -0.0063505 865.34 0.30405 730.00 0.0013699 143.38 825.37 0.54078 1.9166 2.2846 2468.4 -0.0063505 865.34 0.30405
26.375 72473. undefined 145.30 829.80 0.54720 730.00 0.0013699 145.30 829.80 0.54720 1.9205 2.2880 2469.3 -0.0063406 863.29 0.30454 730.00 0.0013699 145.30 829.80 0.54720 1.9205 2.2880 2469.3 -0.0063406 863.29 0.30454
27.375 72738. undefined 147.23 834.23 0.55361 730.00 0.0013699 147.23 834.23 0.55361 1.9244 2.2915 2470.2 -0.0063306 861.26 0.30504 730.00 0.0013699 147.23 834.23 0.55361 1.9244 2.2915 2470.2 -0.0063306 861.26 0.30504
28.375 73003. undefined 149.15 838.65 0.56001 730.00 0.0013699 149.15 838.65 0.56001 1.9284 2.2949 2471.1 -0.0063207 859.25 0.30553 730.00 0.0013699 149.15 838.65 0.56001 1.9284 2.2949 2471.1 -0.0063207 859.25 0.30553
29.375 73267. undefined 151.08 843.08 0.56640 730.00 0.0013699 151.08 843.08 0.56640 1.9323 2.2984 2472.0 -0.0063108 857.27 0.30602 730.00 0.0013699 151.08 843.08 0.56640 1.9323 2.2984 2472.0 -0.0063108 857.27 0.30602
30.375 73531. undefined 153.02 847.50 0.57278 730.00 0.0013699 153.02 847.50 0.57278 1.9363 2.3019 2472.9 -0.0063009 855.30 0.30652 730.00 0.0013699 153.02 847.50 0.57278 1.9363 2.3019 2472.9 -0.0063009 855.30 0.30652
31.375 73794. undefined 154.95 851.93 0.57916 730.00 0.0013699 154.95 851.93 0.57916 1.9402 2.3054 2473.8 -0.0062910 853.35 0.30701 730.00 0.0013699 154.95 851.93 0.57916 1.9402 2.3054 2473.8 -0.0062910 853.35 0.30701
32.375 74057. undefined 156.90 856.35 0.58552 730.00 0.0013699 156.90 856.35 0.58552 1.9442 2.3088 2474.7 -0.0062811 851.42 0.30750 730.00 0.0013699 156.90 856.35 0.58552 1.9442 2.3088 2474.7 -0.0062811 851.42 0.30750
33.375 74319. undefined 158.84 860.78 0.59188 730.00 0.0013699 158.84 860.78 0.59188 1.9482 2.3123 2475.6 -0.0062712 849.51 0.30800 730.00 0.0013699 158.84 860.78 0.59188 1.9482 2.3123 2475.6 -0.0062712 849.51 0.30800
34.375 74581. undefined 160.79 865.20 0.59823 730.00 0.0013699 160.79 865.20 0.59823 1.9522 2.3159 2476.5 -0.0062613 847.62 0.30849 730.00 0.0013699 160.79 865.20 0.59823 1.9522 2.3159 2476.5 -0.0062613 847.62 0.30849
35.375 74843. undefined 162.75 869.63 0.60458 730.00 0.0013699 162.75 869.63 0.60458 1.9561 2.3194 2477.4 -0.0062514 845.75 0.30899 730.00 0.0013699 162.75 869.63 0.60458 1.9561 2.3194 2477.4 -0.0062514 845.75 0.30899
36.375 75104. undefined 164.71 874.05 0.61091 730.00 0.0013699 164.71 874.05 0.61091 1.9601 2.3229 2478.3 -0.0062415 843.90 0.30948 730.00 0.0013699 164.71 874.05 0.61091 1.9601 2.3229 2478.3 -0.0062415 843.90 0.30948
37.375 75365. undefined 166.67 878.48 0.61724 730.00 0.0013699 166.67 878.48 0.61724 1.9641 2.3264 2479.2 -0.0062316 842.07 0.30998 730.00 0.0013699 166.67 878.48 0.61724 1.9641 2.3264 2479.2 -0.0062316 842.07 0.30998
38.375 75625. undefined 168.63 882.90 0.62357 730.00 0.0013699 168.63 882.90 0.62357 1.9681 2.3300 2480.1 -0.0062218 840.25 0.31048 730.00 0.0013699 168.63 882.90 0.62357 1.9681 2.3300 2480.1 -0.0062218 840.25 0.31048
39.375 75885. undefined 170.60 887.33 0.62988 730.00 0.0013699 170.60 887.33 0.62988 1.9721 2.3335 2481.0 -0.0062119 838.46 0.31097 730.00 0.0013699 170.60 887.33 0.62988 1.9721 2.3335 2481.0 -0.0062119 838.46 0.31097
40.375 76144. undefined 172.58 891.75 0.63619 730.00 0.0013699 172.58 891.75 0.63619 1.9761 2.3371 2481.9 -0.0062021 836.68 0.31147 730.00 0.0013699 172.58 891.75 0.63619 1.9761 2.3371 2481.9 -0.0062021 836.68 0.31147
41.375 76403. undefined 174.56 896.18 0.64249 730.00 0.0013699 174.56 896.18 0.64249 1.9802 2.3406 2482.8 -0.0061923 834.92 0.31197 730.00 0.0013699 174.56 896.18 0.64249 1.9802 2.3406 2482.8 -0.0061923 834.92 0.31197
42.375 76662. undefined 176.54 900.60 0.64878 730.00 0.0013699 176.54 900.60 0.64878 1.9842 2.3442 2483.7 -0.0061825 833.17 0.31246 730.00 0.0013699 176.54 900.60 0.64878 1.9842 2.3442 2483.7 -0.0061825 833.17 0.31246
43.375 76920. undefined 178.52 905.03 0.65506 730.00 0.0013699 178.52 905.03 0.65506 1.9882 2.3478 2484.5 -0.0061727 831.44 0.31296 730.00 0.0013699 178.52 905.03 0.65506 1.9882 2.3478 2484.5 -0.0061727 831.44 0.31296
44.375 77178. undefined 180.51 909.45 0.66134 730.00 0.0013699 180.51 909.45 0.66134 1.9922 2.3514 2485.4 -0.0061629 829.73 0.31346 730.00 0.0013699 180.51 909.45 0.66134 1.9922 2.3514 2485.4 -0.0061629 829.73 0.31346
45.375 77436. undefined 182.51 913.88 0.66761 730.00 0.0013699 182.51 913.88 0.66761 1.9963 2.3550 2486.3 -0.0061531 828.04 0.31396 730.00 0.0013699 182.51 913.88 0.66761 1.9963 2.3550 2486.3 -0.0061531 828.04 0.31396
46.375 77693. undefined 184.51 918.30 0.67387 730.00 0.0013699 184.51 918.30 0.67387 2.0003 2.3586 2487.2 -0.0061433 826.36 0.31446 730.00 0.0013699 184.51 918.30 0.67387 2.0003 2.3586 2487.2 -0.0061433 826.36 0.31446
47.375 77949. undefined 186.51 922.73 0.68013 730.00 0.0013699 186.51 922.73 0.68013 2.0043 2.3622 2488.0 -0.0061336 824.70 0.31495 730.00 0.0013699 186.51 922.73 0.68013 2.0043 2.3622 2488.0 -0.0061336 824.70 0.31495
48.375 78205. undefined 188.52 927.16 0.68638 730.00 0.0013699 188.52 927.16 0.68638 2.0084 2.3658 2488.9 -0.0061238 823.06 0.31545 730.00 0.0013699 188.52 927.16 0.68638 2.0084 2.3658 2488.9 -0.0061238 823.06 0.31545
49.375 78461. undefined 190.53 931.58 0.69262 730.00 0.0013699 190.53 931.58 0.69262 2.0124 2.3694 2489.8 -0.0061141 821.43 0.31595 730.00 0.0013699 190.53 931.58 0.69262 2.0124 2.3694 2489.8 -0.0061141 821.43 0.31595
50.375 78717. undefined 192.54 936.01 0.69886 730.00 0.0013699 192.54 936.01 0.69886 2.0165 2.3730 2490.7 -0.0061044 819.82 0.31645 730.00 0.0013699 192.54 936.01 0.69886 2.0165 2.3730 2490.7 -0.0061044 819.82 0.31645
51.375 78972. undefined 194.56 940.44 0.70509 730.00 0.0013699 194.56 940.44 0.70509 2.0206 2.3767 2491.5 -0.0060947 818.22 0.31695 730.00 0.0013699 194.56 940.44 0.70509 2.0206 2.3767 2491.5 -0.0060947 818.22 0.31695
52.375 79226. undefined 196.58 944.86 0.71131 730.00 0.0013699 196.58 944.86 0.71131 2.0246 2.3803 2492.4 -0.0060850 816.63 0.31745 730.00 0.0013699 196.58 944.86 0.71131 2.0246 2.3803 2492.4 -0.0060850 816.63 0.31745
53.375 79480. undefined 198.61 949.29 0.71753 730.00 0.0013699 198.61 949.29 0.71753 2.0287 2.3839 2493.3 -0.0060754 815.07 0.31795 730.00 0.0013699 198.61 949.29 0.71753 2.0287 2.3839 2493.3 -0.0060754 815.07 0.31795
54.375 79734. undefined 200.64 953.72 0.72374 730.00 0.0013699 200.64 953.72 0.72374 2.0327 2.3876 2494.1 -0.0060657 813.51 0.31845 730.00 0.0013699 200.64 953.72 0.72374 2.0327 2.3876 2494.1 -0.0060657 813.51 0.31845
55.375 79988. undefined 202.67 958.15 0.72994 730.00 0.0013699 202.67 958.15 0.72994 2.0368 2.3912 2495.0 -0.0060561 811.98 0.31895 730.00 0.0013699 202.67 958.15 0.72994 2.0368 2.3912 2495.0 -0.0060561 811.98 0.31895
56.375 80241. undefined 204.71 962.58 0.73614 730.00 0.0013699 204.71 962.58 0.73614 2.0409 2.3949 2495.9 -0.0060464 810.45 0.31946 730.00 0.0013699 204.71 962.58 0.73614 2.0409 2.3949 2495.9 -0.0060464 810.45 0.31946
57.375 80493. undefined 206.76 967.00 0.74233 730.00 0.0013699 206.76 967.00 0.74233 2.0450 2.3986 2496.7 -0.0060368 808.94 0.31996 730.00 0.0013699 206.76 967.00 0.74233 2.0450 2.3986 2496.7 -0.0060368 808.94 0.31996
58.375 80746. undefined 208.80 971.43 0.74851 730.00 0.0013699 208.80 971.43 0.74851 2.0491 2.4022 2497.6 -0.0060273 807.45 0.32046 730.00 0.0013699 208.80 971.43 0.74851 2.0491 2.4022 2497.6 -0.0060273 807.45 0.32046
59.375 80997. undefined 210.85 975.86 0.75469 730.00 0.0013699 210.85 975.86 0.75469 2.0531 2.4059 2498.5 -0.0060177 805.96 0.32096 730.00 0.0013699 210.85 975.86 0.75469 2.0531 2.4059 2498.5 -0.0060177 805.96 0.32096
60.375 81249. undefined 212.91 980.29 0.76086 730.00 0.0013699 212.91 980.29 0.76086 2.0572 2.4096 2499.3 -0.0060081 804.50 0.32146 730.00 0.0013699 212.91 980.29 0.76086 2.0572 2.4096 2499.3 -0.0060081 804.50 0.32146
61.375 81500. undefined 214.97 984.73 0.76703 730.00 0.0013699 214.97 984.73 0.76703 2.0613 2.4133 2500.2 -0.0059986 803.04 0.32197 730.00 0.0013699 214.97 984.73 0.76703 2.0613 2.4133 2500.2 -0.0059986 803.04 0.32197
62.375 81751. undefined 217.03 989.16 0.77319 730.00 0.0013699 217.03 989.16 0.77319 2.0654 2.4170 2501.0 -0.0059891 801.60 0.32247 730.00 0.0013699 217.03 989.16 0.77319 2.0654 2.4170 2501.0 -0.0059891 801.60 0.32247
63.375 82001. undefined 219.10 993.59 0.77934 730.00 0.0013699 219.10 993.59 0.77934 2.0695 2.4206 2501.9 -0.0059796 800.17 0.32297 730.00 0.0013699 219.10 993.59 0.77934 2.0695 2.4206 2501.9 -0.0059796 800.17 0.32297
64.375 82251. undefined 221.17 998.02 0.78548 730.00 0.0013699 221.17 998.02 0.78548 2.0736 2.4243 2502.7 -0.0059701 798.76 0.32348 730.00 0.0013699 221.17 998.02 0.78548 2.0736 2.4243 2502.7 -0.0059701 798.76 0.32348
65.375 82501. undefined 223.25 1002.5 0.79162 730.00 0.0013699 223.25 1002.5 0.79162 2.0777 2.4280 2503.6 -0.0059606 797.36 0.32398 730.00 0.0013699 223.25 1002.5 0.79162 2.0777 2.4280 2503.6 -0.0059606 797.36 0.32398
66.375 82750. undefined 225.33 1006.9 0.79776 730.00 0.0013699 225.33 1006.9 0.79776 2.0818 2.4318 2504.4 -0.0059512 795.97 0.32449 730.00 0.0013699 225.33 1006.9 0.79776 2.0818 2.4318 2504.4 -0.0059512 795.97 0.32449
67.375 82999. undefined 227.41 1011.3 0.80389 730.00 0.0013699 227.41 1011.3 0.80389 2.0859 2.4355 2505.3 -0.0059418 794.59 0.32499 730.00 0.0013699 227.41 1011.3 0.80389 2.0859 2.4355 2505.3 -0.0059418 794.59 0.32499
68.375 83248. undefined 229.50 1015.8 0.81001 730.00 0.0013699 229.50 1015.8 0.81001 2.0900 2.4392 2506.1 -0.0059324 793.23 0.32549 730.00 0.0013699 229.50 1015.8 0.81001 2.0900 2.4392 2506.1 -0.0059324 793.23 0.32549
69.375 83496. undefined 231.59 1020.2 0.81613 730.00 0.0013699 231.59 1020.2 0.81613 2.0941 2.4429 2507.0 -0.0059230 791.87 0.32600 730.00 0.0013699 231.59 1020.2 0.81613 2.0941 2.4429 2507.0 -0.0059230 791.87 0.32600
70.375 83743. undefined 233.69 1024.6 0.82224 730.00 0.0013699 233.69 1024.6 0.82224 2.0982 2.4466 2507.8 -0.0059136 790.53 0.32650 730.00 0.0013699 233.69 1024.6 0.82224 2.0982 2.4466 2507.8 -0.0059136 790.53 0.32650
71.375 83991. undefined 235.79 1029.1 0.82834 730.00 0.0013699 235.79 1029.1 0.82834 2.1023 2.4503 2508.7 -0.0059043 789.21 0.32701 730.00 0.0013699 235.79 1029.1 0.82834 2.1023 2.4503 2508.7 -0.0059043 789.21 0.32701
72.375 84238. undefined 237.89 1033.5 0.83444 730.00 0.0013699 237.89 1033.5 0.83444 2.1065 2.4541 2509.5 -0.0058950 787.89 0.32752 730.00 0.0013699 237.89 1033.5 0.83444 2.1065 2.4541 2509.5 -0.0058950 787.89 0.32752
73.375 84485. undefined 240.00 1037.9 0.84054 730.00 0.0013699 240.00 1037.9 0.84054 2.1106 2.4578 2510.4 -0.0058856 786.59 0.32802 730.00 0.0013699 240.00 1037.9 0.84054 2.1106 2.4578 2510.4 -0.0058856 786.59 0.32802
74.375 84731. undefined 242.11 1042.4 0.84662 730.00 0.0013699 242.11 1042.4 0.84662 2.1147 2.4615 2511.2 -0.0058764 785.29 0.32853 730.00 0.0013699 242.11 1042.4 0.84662 2.1147 2.4615 2511.2 -0.0058764 785.29 0.32853
75.375 84977. undefined 244.23 1046.8 0.85271 730.00 0.0013699 244.23 1046.8 0.85271 2.1188 2.4653 2512.1 -0.0058671 784.01 0.32904 730.00 0.0013699 244.23 1046.8 0.85271 2.1188 2.4653 2512.1 -0.0058671 784.01 0.32904
76.375 85223. undefined 246.35 1051.3 0.85878 730.00 0.0013699 246.35 1051.3 0.85878 2.1229 2.4690 2512.9 -0.0058579 782.74 0.32954 730.00 0.0013699 246.35 1051.3 0.85878 2.1229 2.4690 2512.9 -0.0058579 782.74 0.32954
77.375 85468. undefined 248.47 1055.7 0.86485 730.00 0.0013699 248.47 1055.7 0.86485 2.1270 2.4728 2513.7 -0.0058486 781.48 0.33005 730.00 0.0013699 248.47 1055.7 0.86485 2.1270 2.4728 2513.7 -0.0058486 781.48 0.33005
78.375 85713. undefined 250.60 1060.2 0.87092 730.00 0.0013699 250.60 1060.2 0.87092 2.1312 2.4765 2514.6 -0.0058395 780.24 0.33056 730.00 0.0013699 250.60 1060.2 0.87092 2.1312 2.4765 2514.6 -0.0058395 780.24 0.33056
79.375 85958. undefined 252.74 1064.6 0.87698 730.00 0.0013699 252.74 1064.6 0.87698 2.1353 2.4803 2515.4 -0.0058303 779.00 0.33107 730.00 0.0013699 252.74 1064.6 0.87698 2.1353 2.4803 2515.4 -0.0058303 779.00 0.33107
80.375 86202. undefined 254.87 1069.0 0.88303 730.00 0.0013699 254.87 1069.0 0.88303 2.1394 2.4840 2516.3 -0.0058211 777.77 0.33158 730.00 0.0013699 254.87 1069.0 0.88303 2.1394 2.4840 2516.3 -0.0058211 777.77 0.33158
81.375 86446. undefined 257.02 1073.5 0.88908 730.00 0.0013699 257.02 1073.5 0.88908 2.1435 2.4878 2517.1 -0.0058120 776.56 0.33208 730.00 0.0013699 257.02 1073.5 0.88908 2.1435 2.4878 2517.1 -0.0058120 776.56 0.33208
82.375 86690. undefined 259.16 1077.9 0.89513 730.00 0.0013699 259.16 1077.9 0.89513 2.1476 2.4915 2517.9 -0.0058029 775.35 0.33259 730.00 0.0013699 259.16 1077.9 0.89513 2.1476 2.4915 2517.9 -0.0058029 775.35 0.33259
83.375 86933. undefined 261.31 1082.4 0.90116 730.00 0.0013699 261.31 1082.4 0.90116 2.1518 2.4953 2518.8 -0.0057938 774.16 0.33310 730.00 0.0013699 261.31 1082.4 0.90116 2.1518 2.4953 2518.8 -0.0057938 774.16 0.33310
84.375 87176. undefined 263.46 1086.8 0.90720 730.00 0.0013699 263.46 1086.8 0.90720 2.1559 2.4990 2519.6 -0.0057847 772.97 0.33361 730.00 0.0013699 263.46 1086.8 0.90720 2.1559 2.4990 2519.6 -0.0057847 772.97 0.33361
85.375 87418. undefined 265.62 1091.3 0.91322 730.00 0.0013699 265.62 1091.3 0.91322 2.1600 2.5028 2520.4 -0.0057757 771.80 0.33412 730.00 0.0013699 265.62 1091.3 0.91322 2.1600 2.5028 2520.4 -0.0057757 771.80 0.33412
86.375 87661. undefined 267.78 1095.7 0.91925 730.00 0.0013699 267.78 1095.7 0.91925 2.1641 2.5066 2521.3 -0.0057667 770.64 0.33463 730.00 0.0013699 267.78 1095.7 0.91925 2.1641 2.5066 2521.3 -0.0057667 770.64 0.33463
87.375 87902. undefined 269.95 1100.2 0.92526 730.00 0.0013699 269.95 1100.2 0.92526 2.1683 2.5103 2522.1 -0.0057577 769.48 0.33514 730.00 0.0013699 269.95 1100.2 0.92526 2.1683 2.5103 2522.1 -0.0057577 769.48 0.33514
88.375 88144. undefined 272.12 1104.6 0.93127 730.00 0.0013699 272.12 1104.6 0.93127 2.1724 2.5141 2522.9 -0.0057487 768.34 0.33565 730.00 0.0013699 272.12 1104.6 0.93127 2.1724 2.5141 2522.9 -0.0057487 768.34 0.33565
89.375 88385. undefined 274.30 1109.1 0.93728 730.00 0.0013699 274.30 1109.1 0.93728 2.1765 2.5179 2523.7 -0.0057398 767.20 0.33616 730.00 0.0013699 274.30 1109.1 0.93728 2.1765 2.5179 2523.7 -0.0057398 767.20 0.33616
90.375 88626. undefined 276.47 1113.5 0.94328 730.00 0.0013699 276.47 1113.5 0.94328 2.1806 2.5216 2524.6 -0.0057308 766.08 0.33667 730.00 0.0013699 276.47 1113.5 0.94328 2.1806 2.5216 2524.6 -0.0057308 766.08 0.33667
91.375 88867. undefined 278.66 1118.0 0.94928 730.00 0.0013699 278.66 1118.0 0.94928 2.1848 2.5254 2525.4 -0.0057219 764.96 0.33719 730.00 0.0013699 278.66 1118.0 0.94928 2.1848 2.5254 2525.4 -0.0057219 764.96 0.33719
92.375 89107. undefined 280.84 1122.4 0.95527 730.00 0.0013699 280.84 1122.4 0.95527 2.1889 2.5292 2526.2 -0.0057131 763.86 0.33770 730.00 0.0013699 280.84 1122.4 0.95527 2.1889 2.5292 2526.2 -0.0057131 763.86 0.33770
93.375 89347. undefined 283.03 1126.9 0.96125 730.00 0.0013699 283.03 1126.9 0.96125 2.1930 2.5330 2527.0 -0.0057042 762.76 0.33821 730.00 0.0013699 283.03 1126.9 0.96125 2.1930 2.5330 2527.0 -0.0057042 762.76 0.33821
94.375 89587. undefined 285.23 1131.4 0.96723 730.00 0.0013699 285.23 1131.4 0.96723 2.1971 2.5367 2527.9 -0.0056954 761.67 0.33872 730.00 0.0013699 285.23 1131.4 0.96723 2.1971 2.5367 2527.9 -0.0056954 761.67 0.33872
95.375 89826. undefined 287.43 1135.8 0.97321 730.00 0.0013699 287.43 1135.8 0.97321 2.2013 2.5405 2528.7 -0.0056866 760.60 0.33924 730.00 0.0013699 287.43 1135.8 0.97321 2.2013 2.5405 2528.7 -0.0056866 760.60 0.33924
96.375 90065. undefined 289.63 1140.3 0.97918 730.00 0.0013699 289.63 1140.3 0.97918 2.2054 2.5443 2529.5 -0.0056778 759.53 0.33975 730.00 0.0013699 289.63 1140.3 0.97918 2.2054 2.5443 2529.5 -0.0056778 759.53 0.33975
97.375 90303. undefined 291.84 1144.7 0.98515 730.00 0.0013699 291.84 1144.7 0.98515 2.2095 2.5481 2530.3 -0.0056690 758.47 0.34026 730.00 0.0013699 291.84 1144.7 0.98515 2.2095 2.5481 2530.3 -0.0056690 758.47 0.34026
98.375 90542. undefined 294.05 1149.2 0.99111 730.00 0.0013699 294.05 1149.2 0.99111 2.2136 2.5519 2531.2 -0.0056603 757.41 0.34078 730.00 0.0013699 294.05 1149.2 0.99111 2.2136 2.5519 2531.2 -0.0056603 757.41 0.34078
99.375 90780. undefined 296.27 1153.7 0.99706 730.00 0.0013699 296.27 1153.7 0.99706 2.2177 2.5556 2532.0 -0.0056516 756.37 0.34129 730.00 0.0013699 296.27 1153.7 0.99706 2.2177 2.5556 2532.0 -0.0056516 756.37 0.34129
100.38 91017. undefined 298.49 1158.1 1.0030 730.00 0.0013699 298.49 1158.1 1.0030 2.2219 2.5594 2532.8 -0.0056429 755.34 0.34180 730.00 0.0013699 298.49 1158.1 1.0030 2.2219 2.5594 2532.8 -0.0056429 755.34 0.34180
101.38 91255. undefined 300.71 1162.6 1.0090 730.00 0.0013699 300.71 1162.6 1.0090 2.2260 2.5632 2533.6 -0.0056343 754.31 0.34232 730.00 0.0013699 300.71 1162.6 1.0090 2.2260 2.5632 2533.6 -0.0056343 754.31 0.34232
102.38 91492. undefined 302.94 1167.1 1.0149 730.00 0.0013699 302.94 1167.1 1.0149 2.2301 2.5670 2534.4 -0.0056256 753.29 0.34283 730.00 0.0013699 302.94 1167.1 1.0149 2.2301 2.5670 2534.4 -0.0056256 753.29 0.34283
103.38 91729. undefined 305.17 1171.5 1.0208 730.00 0.0013699 305.17 1171.5 1.0208 2.2342 2.5708 2535.3 -0.0056170 752.29 0.34335 730.00 0.0013699 305.17 1171.5 1.0208 2.2342 2.5708 2535.3 -0.0056170 752.29 0.34335
104.38 91965. undefined 307.41 1176.0 1.0268 730.00 0.0013699 307.41 1176.0 1.0268 2.2383 2.5746 2536.1 -0.0056084 751.28 0.34386 730.00 0.0013699 307.41 1176.0 1.0268 2.2383 2.5746 2536.1 -0.0056084 751.28 0.34386
105.38 92201. undefined 309.65 1180.5 1.0327 730.00 0.0013699 309.65 1180.5 1.0327 2.2424 2.5783 2536.9 -0.0055999 750.29 0.34438 730.00 0.0013699 309.65 1180.5 1.0327 2.2424 2.5783 2536.9 -0.0055999 750.29 0.34438
106.38 92437. undefined 311.89 1184.9 1.0386 730.00 0.0013699 311.89 1184.9 1.0386 2.2466 2.5821 2537.7 -0.0055913 749.31 0.34489 730.00 0.0013699 311.89 1184.9 1.0386 2.2466 2.5821 2537.7 -0.0055913 749.31 0.34489
107.38 92672. undefined 314.14 1189.4 1.0445 730.00 0.0013699 314.14 1189.4 1.0445 2.2507 2.5859 2538.5 -0.0055828 748.33 0.34541 730.00 0.0013699 314.14 1189.4 1.0445 2.2507 2.5859 2538.5 -0.0055828 748.33 0.34541
108.38 92908. undefined 316.39 1193.9 1.0504 730.00 0.0013699 316.39 1193.9 1.0504 2.2548 2.5897 2539.3 -0.0055744 747.36 0.34593 730.00 0.0013699 316.39 1193.9 1.0504 2.2548 2.5897 2539.3 -0.0055744 747.36 0.34593
109.38 93143. undefined 318.65 1198.4 1.0564 730.00 0.0013699 318.65 1198.4 1.0564 2.2589 2.5935 2540.1 -0.0055659 746.40 0.34644 730.00 0.0013699 318.65 1198.4 1.0564 2.2589 2.5935 2540.1 -0.0055659 746.40 0.34644
110.38 93377. undefined 320.91 1202.8 1.0623 730.00 0.0013699 320.91 1202.8 1.0623 2.2630 2.5973 2540.9 -0.0055575 745.45 0.34696 730.00 0.0013699 320.91 1202.8 1.0623 2.2630 2.5973 2540.9 -0.0055575 745.45 0.34696
111.38 93611. undefined 323.18 1207.3 1.0682 730.00 0.0013699 323.18 1207.3 1.0682 2.2671 2.6011 2541.8 -0.0055491 744.50 0.34748 730.00 0.0013699 323.18 1207.3 1.0682 2.2671 2.6011 2541.8 -0.0055491 744.50 0.34748
112.38 93845. undefined 325.45 1211.8 1.0740 730.00 0.0013699 325.45 1211.8 1.0740 2.2712 2.6048 2542.6 -0.0055407 743.56 0.34800 730.00 0.0013699 325.45 1211.8 1.0740 2.2712 2.6048 2542.6 -0.0055407 743.56 0.34800
113.38 94079. undefined 327.72 1216.3 1.0799 730.00 0.0013699 327.72 1216.3 1.0799 2.2753 2.6086 2543.4 -0.0055323 742.63 0.34851 730.00 0.0013699 327.72 1216.3 1.0799 2.2753 2.6086 2543.4 -0.0055323 742.63 0.34851
114.38 94313. undefined 330.00 1220.8 1.0858 730.00 0.0013699 330.00 1220.8 1.0858 2.2794 2.6124 2544.2 -0.0055240 741.71 0.34903 730.00 0.0013699 330.00 1220.8 1.0858 2.2794 2.6124 2544.2 -0.0055240 741.71 0.34903
115.38 94546. undefined 332.28 1225.2 1.0917 730.00 0.0013699 332.28 1225.2 1.0917 2.2835 2.6162 2545.0 -0.0055157 740.79 0.34955 730.00 0.0013699 332.28 1225.2 1.0917 2.2835 2.6162 2545.0 -0.0055157 740.79 0.34955
116.38 94778. undefined 334.56 1229.7 1.0976 730.00 0.0013699 334.56 1229.7 1.0976 2.2876 2.6200 2545.8 -0.0055074 739.88 0.35007 730.00 0.0013699 334.56 1229.7 1.0976 2.2876 2.6200 2545.8 -0.0055074 739.88 0.35007
117.38 95011. undefined 336.85 1234.2 1.1034 730.00 0.0013699 336.85 1234.2 1.1034 2.2917 2.6238 2546.6 -0.0054992 738.98 0.35059 730.00 0.0013699 336.85 1234.2 1.1034 2.2917 2.6238 2546.6 -0.0054992 738.98 0.35059
118.38 95243. undefined 339.15 1238.7 1.1093 730.00 0.0013699 339.15 1238.7 1.1093 2.2958 2.6275 2547.4 -0.0054909 738.09 0.35111 730.00 0.0013699 339.15 1238.7 1.1093 2.2958 2.6275 2547.4 -0.0054909 738.09 0.35111
119.38 95475. undefined 341.44 1243.2 1.1152 730.00 0.0013699 341.44 1243.2 1.1152 2.2999 2.6313 2548.2 -0.0054827 737.20 0.35163 730.00 0.0013699 341.44 1243.2 1.1152 2.2999 2.6313 2548.2 -0.0054827 737.20 0.35163
120.38 95707. undefined 343.75 1247.7 1.1210 730.00 0.0013699 343.75 1247.7 1.1210 2.3039 2.6351 2549.0 -0.0054745 736.32 0.35215 730.00 0.0013699 343.75 1247.7 1.1210 2.3039 2.6351 2549.0 -0.0054745 736.32 0.35215
121.38 95938. undefined 346.05 1252.2 1.1269 730.00 0.0013699 346.05 1252.2 1.1269 2.3080 2.6389 2549.8 -0.0054664 735.45 0.35267 730.00 0.0013699 346.05 1252.2 1.1269 2.3080 2.6389 2549.8 -0.0054664 735.45 0.35267
122.38 96169. undefined 348.36 1256.7 1.1327 730.00 0.0013699 348.36 1256.7 1.1327 2.3121 2.6426 2550.6 -0.0054583 734.58 0.35319 730.00 0.0013699 348.36 1256.7 1.1327 2.3121 2.6426 2550.6 -0.0054583 734.58 0.35319
123.38 96400. undefined 350.68 1261.2 1.1386 730.00 0.0013699 350.68 1261.2 1.1386 2.3162 2.6464 2551.4 -0.0054502 733.72 0.35371 730.00 0.0013699 350.68 1261.2 1.1386 2.3162 2.6464 2551.4 -0.0054502 733.72 0.35371
124.38 96630. undefined 352.99 1265.7 1.1444 730.00 0.0013699 352.99 1265.7 1.1444 2.3203 2.6502 2552.2 -0.0054421 732.87 0.35423 730.00 0.0013699 352.99 1265.7 1.1444 2.3203 2.6502 2552.2 -0.0054421 732.87 0.35423
125.38 96861. undefined 355.32 1270.2 1.1502 730.00 0.0013699 355.32 1270.2 1.1502 2.3244 2.6540 2553.0 -0.0054340 732.02 0.35475 730.00 0.0013699 355.32 1270.2 1.1502 2.3244 2.6540 2553.0 -0.0054340 732.02 0.35475
126.38 97091. undefined 357.64 1274.7 1.1561 730.00 0.0013699 357.64 1274.7 1.1561 2.3284 2.6577 2553.8 -0.0054260 731.18 0.35527 730.00 0.0013699 357.64 1274.7 1.1561 2.3284 2.6577 2553.8 -0.0054260 731.18 0.35527
127.38 97320. undefined 359.97 1279.2 1.1619 730.00 0.0013699 359.97 1279.2 1.1619 2.3325 2.6615 2554.6 -0.0054180 730.35 0.35580 730.00 0.0013699 359.97 1279.2 1.1619 2.3325 2.6615 2554.6 -0.0054180 730.35 0.35580
128.38 97550. undefined 362.31 1283.7 1.1677 730.00 0.0013699 362.31 1283.7 1.1677 2.3366 2.6653 2555.4 -0.0054100 729.52 0.35632 730.00 0.0013699 362.31 1283.7 1.1677 2.3366 2.6653 2555.4 -0.0054100 729.52 0.35632
129.38 97779. undefined 364.65 1288.2 1.1735 730.00 0.0013699 364.65 1288.2 1.1735 2.3406 2.6691 2556.2 -0.0054021 728.70 0.35684 730.00 0.0013699 364.65 1288.2 1.1735 2.3406 2.6691 2556.2 -0.0054021 728.70 0.35684
130.38 98007. undefined 366.99 1292.7 1.1794 730.00 0.0013699 366.99 1292.7 1.1794 2.3447 2.6728 2557.0 -0.0053942 727.88 0.35737 730.00 0.0013699 366.99 1292.7 1.1794 2.3447 2.6728 2557.0 -0.0053942 727.88 0.35737
131.38 98236. undefined 369.34 1297.2 1.1852 730.00 0.0013699 369.34 1297.2 1.1852 2.3487 2.6766 2557.8 -0.0053863 727.07 0.35789 730.00 0.0013699 369.34 1297.2 1.1852 2.3487 2.6766 2557.8 -0.0053863 727.07 0.35789
132.38 98464. undefined 371.69 1301.7 1.1910 730.00 0.0013699 371.69 1301.7 1.1910 2.3528 2.6804 2558.6 -0.0053784 726.27 0.35841 730.00 0.0013699 371.69 1301.7 1.1910 2.3528 2.6804 2558.6 -0.0053784 726.27 0.35841
133.38 98692. undefined 374.04 1306.2 1.1968 730.00 0.0013699 374.04 1306.2 1.1968 2.3569 2.6841 2559.4 -0.0053706 725.48 0.35894 730.00 0.0013699 374.04 1306.2 1.1968 2.3569 2.6841 2559.4 -0.0053706 725.48 0.35894
134.38 98920. undefined 376.40 1310.7 1.2026 730.00 0.0013699 376.40 1310.7 1.2026 2.3609 2.6879 2560.2 -0.0053628 724.68 0.35946 730.00 0.0013699 376.40 1310.7 1.2026 2.3609 2.6879 2560.2 -0.0053628 724.68 0.35946
135.38 99147. undefined 378.76 1315.2 1.2084 730.00 0.0013699 378.76 1315.2 1.2084 2.3650 2.6916 2561.0 -0.0053550 723.90 0.35998 730.00 0.0013699 378.76 1315.2 1.2084 2.3650 2.6916 2561.0 -0.0053550 723.90 0.35998
136.38 99374. undefined 381.13 1319.7 1.2141 730.00 0.0013699 381.13 1319.7 1.2141 2.3690 2.6954 2561.8 -0.0053472 723.12 0.36051 730.00 0.0013699 381.13 1319.7 1.2141 2.3690 2.6954 2561.8 -0.0053472 723.12 0.36051
137.38 99601. undefined 383.50 1324.2 1.2199 730.00 0.0013699 383.50 1324.2 1.2199 2.3730 2.6991 2562.6 -0.0053395 722.35 0.36103 730.00 0.0013699 383.50 1324.2 1.2199 2.3730 2.6991 2562.6 -0.0053395 722.35 0.36103
138.38 99828. undefined 385.88 1328.7 1.2257 730.00 0.0013699 385.88 1328.7 1.2257 2.3771 2.7029 2563.4 -0.0053317 721.58 0.36156 730.00 0.0013699 385.88 1328.7 1.2257 2.3771 2.7029 2563.4 -0.0053317 721.58 0.36156
139.38 1.0005e+05 undefined 388.26 1333.3 1.2315 730.00 0.0013699 388.26 1333.3 1.2315 2.3811 2.7067 2564.2 -0.0053241 720.82 0.36208 730.00 0.0013699 388.26 1333.3 1.2315 2.3811 2.7067 2564.2 -0.0053241 720.82 0.36208
140.38 1.0028e+05 undefined 390.64 1337.8 1.2372 730.00 0.0013699 390.64 1337.8 1.2372 2.3852 2.7104 2565.0 -0.0053164 720.07 0.36261 730.00 0.0013699 390.64 1337.8 1.2372 2.3852 2.7104 2565.0 -0.0053164 720.07 0.36261
141.38 1.0051e+05 undefined 393.03 1342.3 1.2430 730.00 0.0013699 393.03 1342.3 1.2430 2.3892 2.7141 2565.8 -0.0053087 719.32 0.36314 730.00 0.0013699 393.03 1342.3 1.2430 2.3892 2.7141 2565.8 -0.0053087 719.32 0.36314
142.38 1.0073e+05 undefined 395.42 1346.8 1.2488 730.00 0.0013699 395.42 1346.8 1.2488 2.3932 2.7179 2566.5 -0.0053011 718.57 0.36366 730.00 0.0013699 395.42 1346.8 1.2488 2.3932 2.7179 2566.5 -0.0053011 718.57 0.36366
143.38 1.0096e+05 undefined 397.81 1351.3 1.2545 730.00 0.0013699 397.81 1351.3 1.2545 2.3972 2.7216 2567.3 -0.0052935 717.83 0.36419 730.00 0.0013699 397.81 1351.3 1.2545 2.3972 2.7216 2567.3 -0.0052935 717.83 0.36419
144.38 1.0118e+05 undefined 400.21 1355.9 1.2603 730.00 0.0013699 400.21 1355.9 1.2603 2.4013 2.7254 2568.1 -0.0052860 717.10 0.36472 730.00 0.0013699 400.21 1355.9 1.2603 2.4013 2.7254 2568.1 -0.0052860 717.10 0.36472
145.38 1.0141e+05 undefined 402.61 1360.4 1.2660 730.00 0.0013699 402.61 1360.4 1.2660 2.4053 2.7291 2568.9 -0.0052784 716.37 0.36524 730.00 0.0013699 402.61 1360.4 1.2660 2.4053 2.7291 2568.9 -0.0052784 716.37 0.36524
146.38 1.0163e+05 undefined 405.02 1364.9 1.2718 730.00 0.0013699 405.02 1364.9 1.2718 2.4093 2.7329 2569.7 -0.0052709 715.65 0.36577 730.00 0.0013699 405.02 1364.9 1.2718 2.4093 2.7329 2569.7 -0.0052709 715.65 0.36577
147.38 1.0186e+05 undefined 407.43 1369.4 1.2775 730.00 0.0013699 407.43 1369.4 1.2775 2.4133 2.7366 2570.5 -0.0052635 714.93 0.36630 730.00 0.0013699 407.43 1369.4 1.2775 2.4133 2.7366 2570.5 -0.0052635 714.93 0.36630
148.38 1.0208e+05 undefined 409.85 1374.0 1.2833 730.00 0.0013699 409.85 1374.0 1.2833 2.4173 2.7403 2571.3 -0.0052560 714.22 0.36683 730.00 0.0013699 409.85 1374.0 1.2833 2.4173 2.7403 2571.3 -0.0052560 714.22 0.36683
149.38 1.0230e+05 undefined 412.27 1378.5 1.2890 730.00 0.0013699 412.27 1378.5 1.2890 2.4213 2.7440 2572.1 -0.0052486 713.51 0.36736 730.00 0.0013699 412.27 1378.5 1.2890 2.4213 2.7440 2572.1 -0.0052486 713.51 0.36736
150.38 1.0253e+05 undefined 414.69 1383.0 1.2947 730.00 0.0013699 414.69 1383.0 1.2947 2.4253 2.7478 2572.8 -0.0052411 712.81 0.36789 730.00 0.0013699 414.69 1383.0 1.2947 2.4253 2.7478 2572.8 -0.0052411 712.81 0.36789
151.38 1.0275e+05 undefined 417.12 1387.6 1.3004 730.00 0.0013699 417.12 1387.6 1.3004 2.4293 2.7515 2573.6 -0.0052338 712.11 0.36841 730.00 0.0013699 417.12 1387.6 1.3004 2.4293 2.7515 2573.6 -0.0052338 712.11 0.36841
152.38 1.0297e+05 undefined 419.55 1392.1 1.3062 730.00 0.0013699 419.55 1392.1 1.3062 2.4333 2.7552 2574.4 -0.0052264 711.42 0.36894 730.00 0.0013699 419.55 1392.1 1.3062 2.4333 2.7552 2574.4 -0.0052264 711.42 0.36894
153.38 1.0320e+05 undefined 421.99 1396.7 1.3119 730.00 0.0013699 421.99 1396.7 1.3119 2.4373 2.7589 2575.2 -0.0052191 710.74 0.36947 730.00 0.0013699 421.99 1396.7 1.3119 2.4373 2.7589 2575.2 -0.0052191 710.74 0.36947
154.38 1.0342e+05 undefined 424.42 1401.2 1.3176 730.00 0.0013699 424.42 1401.2 1.3176 2.4413 2.7627 2576.0 -0.0052118 710.06 0.37000 730.00 0.0013699 424.42 1401.2 1.3176 2.4413 2.7627 2576.0 -0.0052118 710.06 0.37000
155.38 1.0364e+05 undefined 426.87 1405.7 1.3233 730.00 0.0013699 426.87 1405.7 1.3233 2.4452 2.7664 2576.8 -0.0052045 709.38 0.37053 730.00 0.0013699 426.87 1405.7 1.3233 2.4452 2.7664 2576.8 -0.0052045 709.38 0.37053
156.38 1.0386e+05 undefined 429.31 1410.3 1.3290 730.00 0.0013699 429.31 1410.3 1.3290 2.4492 2.7701 2577.5 -0.0051972 708.71 0.37106 730.00 0.0013699 429.31 1410.3 1.3290 2.4492 2.7701 2577.5 -0.0051972 708.71 0.37106
157.38 1.0408e+05 undefined 431.77 1414.8 1.3347 730.00 0.0013699 431.77 1414.8 1.3347 2.4532 2.7738 2578.3 -0.0051900 708.04 0.37159 730.00 0.0013699 431.77 1414.8 1.3347 2.4532 2.7738 2578.3 -0.0051900 708.04 0.37159
158.38 1.0430e+05 undefined 434.22 1419.4 1.3404 730.00 0.0013699 434.22 1419.4 1.3404 2.4571 2.7775 2579.1 -0.0051828 707.38 0.37213 730.00 0.0013699 434.22 1419.4 1.3404 2.4571 2.7775 2579.1 -0.0051828 707.38 0.37213
159.38 1.0453e+05 undefined 436.68 1423.9 1.3461 730.00 0.0013699 436.68 1423.9 1.3461 2.4611 2.7812 2579.9 -0.0051756 706.72 0.37266 730.00 0.0013699 436.68 1423.9 1.3461 2.4611 2.7812 2579.9 -0.0051756 706.72 0.37266
160.38 1.0475e+05 undefined 439.14 1428.5 1.3518 730.00 0.0013699 439.14 1428.5 1.3518 2.4651 2.7849 2580.7 -0.0051684 706.07 0.37319 730.00 0.0013699 439.14 1428.5 1.3518 2.4651 2.7849 2580.7 -0.0051684 706.07 0.37319
161.38 1.0497e+05 undefined 441.61 1433.0 1.3575 730.00 0.0013699 441.61 1433.0 1.3575 2.4690 2.7886 2581.4 -0.0051613 705.42 0.37372 730.00 0.0013699 441.61 1433.0 1.3575 2.4690 2.7886 2581.4 -0.0051613 705.42 0.37372
162.38 1.0519e+05 undefined 444.08 1437.6 1.3631 730.00 0.0013699 444.08 1437.6 1.3631 2.4730 2.7923 2582.2 -0.0051542 704.78 0.37425 730.00 0.0013699 444.08 1437.6 1.3631 2.4730 2.7923 2582.2 -0.0051542 704.78 0.37425
163.38 1.0541e+05 undefined 446.56 1442.1 1.3688 730.00 0.0013699 446.56 1442.1 1.3688 2.4769 2.7960 2583.0 -0.0051471 704.14 0.37479 730.00 0.0013699 446.56 1442.1 1.3688 2.4769 2.7960 2583.0 -0.0051471 704.14 0.37479
164.38 1.0563e+05 undefined 449.04 1446.7 1.3745 730.00 0.0013699 449.04 1446.7 1.3745 2.4809 2.7997 2583.8 -0.0051400 703.50 0.37532 730.00 0.0013699 449.04 1446.7 1.3745 2.4809 2.7997 2583.8 -0.0051400 703.50 0.37532
165.38 1.0585e+05 undefined 451.52 1451.2 1.3802 730.00 0.0013699 451.52 1451.2 1.3802 2.4848 2.8033 2584.5 -0.0051330 702.87 0.37585 730.00 0.0013699 451.52 1451.2 1.3802 2.4848 2.8033 2584.5 -0.0051330 702.87 0.37585
166.38 1.0607e+05 undefined 454.01 1455.8 1.3858 730.00 0.0013699 454.01 1455.8 1.3858 2.4888 2.8070 2585.3 -0.0051260 702.25 0.37639 730.00 0.0013699 454.01 1455.8 1.3858 2.4888 2.8070 2585.3 -0.0051260 702.25 0.37639
167.38 1.0629e+05 undefined 456.50 1460.4 1.3915 730.00 0.0013699 456.50 1460.4 1.3915 2.4927 2.8107 2586.1 -0.0051190 701.63 0.37692 730.00 0.0013699 456.50 1460.4 1.3915 2.4927 2.8107 2586.1 -0.0051190 701.63 0.37692
168.38 1.0651e+05 undefined 458.99 1464.9 1.3971 730.00 0.0013699 458.99 1464.9 1.3971 2.4966 2.8144 2586.9 -0.0051120 701.01 0.37745 730.00 0.0013699 458.99 1464.9 1.3971 2.4966 2.8144 2586.9 -0.0051120 701.01 0.37745
169.38 1.0672e+05 undefined 461.49 1469.5 1.4028 730.00 0.0013699 461.49 1469.5 1.4028 2.5005 2.8180 2587.6 -0.0051051 700.40 0.37799 730.00 0.0013699 461.49 1469.5 1.4028 2.5005 2.8180 2587.6 -0.0051051 700.40 0.37799
170.38 1.0694e+05 undefined 463.99 1474.1 1.4084 730.00 0.0013699 463.99 1474.1 1.4084 2.5045 2.8217 2588.4 -0.0050982 699.79 0.37852 730.00 0.0013699 463.99 1474.1 1.4084 2.5045 2.8217 2588.4 -0.0050982 699.79 0.37852
171.38 1.0716e+05 undefined 466.50 1478.6 1.4141 730.00 0.0013699 466.50 1478.6 1.4141 2.5084 2.8254 2589.2 -0.0050913 699.18 0.37906 730.00 0.0013699 466.50 1478.6 1.4141 2.5084 2.8254 2589.2 -0.0050913 699.18 0.37906
172.38 1.0738e+05 undefined 469.01 1483.2 1.4197 730.00 0.0013699 469.01 1483.2 1.4197 2.5123 2.8290 2590.0 -0.0050844 698.58 0.37959 730.00 0.0013699 469.01 1483.2 1.4197 2.5123 2.8290 2590.0 -0.0050844 698.58 0.37959
173.38 1.0760e+05 undefined 471.52 1487.8 1.4254 730.00 0.0013699 471.52 1487.8 1.4254 2.5162 2.8327 2590.7 -0.0050776 697.99 0.38013 730.00 0.0013699 471.52 1487.8 1.4254 2.5162 2.8327 2590.7 -0.0050776 697.99 0.38013
174.38 1.0781e+05 undefined 474.04 1492.3 1.4310 730.00 0.0013699 474.04 1492.3 1.4310 2.5201 2.8364 2591.5 -0.0050708 697.40 0.38066 730.00 0.0013699 474.04 1492.3 1.4310 2.5201 2.8364 2591.5 -0.0050708 697.40 0.38066
175.38 1.0803e+05 undefined 476.56 1496.9 1.4366 730.00 0.0013699 476.56 1496.9 1.4366 2.5240 2.8400 2592.3 -0.0050640 696.81 0.38120 730.00 0.0013699 476.56 1496.9 1.4366 2.5240 2.8400 2592.3 -0.0050640 696.81 0.38120
176.38 1.0825e+05 undefined 479.09 1501.5 1.4423 730.00 0.0013699 479.09 1501.5 1.4423 2.5279 2.8437 2593.0 -0.0050572 696.23 0.38174 730.00 0.0013699 479.09 1501.5 1.4423 2.5279 2.8437 2593.0 -0.0050572 696.23 0.38174
177.38 1.0847e+05 undefined 481.62 1506.1 1.4479 730.00 0.0013699 481.62 1506.1 1.4479 2.5318 2.8473 2593.8 -0.0050505 695.65 0.38227 730.00 0.0013699 481.62 1506.1 1.4479 2.5318 2.8473 2593.8 -0.0050505 695.65 0.38227
178.38 1.0868e+05 undefined 484.15 1510.6 1.4535 730.00 0.0013699 484.15 1510.6 1.4535 2.5357 2.8509 2594.6 -0.0050437 695.07 0.38281 730.00 0.0013699 484.15 1510.6 1.4535 2.5357 2.8509 2594.6 -0.0050437 695.07 0.38281
179.38 1.0890e+05 undefined 486.69 1515.2 1.4591 730.00 0.0013699 486.69 1515.2 1.4591 2.5395 2.8546 2595.3 -0.0050370 694.50 0.38335 730.00 0.0013699 486.69 1515.2 1.4591 2.5395 2.8546 2595.3 -0.0050370 694.50 0.38335
180.38 1.0911e+05 undefined 489.23 1519.8 1.4647 730.00 0.0013699 489.23 1519.8 1.4647 2.5434 2.8582 2596.1 -0.0050304 693.93 0.38388 730.00 0.0013699 489.23 1519.8 1.4647 2.5434 2.8582 2596.1 -0.0050304 693.93 0.38388
181.38 1.0933e+05 undefined 491.78 1524.4 1.4703 730.00 0.0013699 491.78 1524.4 1.4703 2.5473 2.8618 2596.9 -0.0050237 693.37 0.38442 730.00 0.0013699 491.78 1524.4 1.4703 2.5473 2.8618 2596.9 -0.0050237 693.37 0.38442
182.38 1.0955e+05 undefined 494.33 1529.0 1.4759 730.00 0.0013699 494.33 1529.0 1.4759 2.5512 2.8655 2597.6 -0.0050171 692.81 0.38496 730.00 0.0013699 494.33 1529.0 1.4759 2.5512 2.8655 2597.6 -0.0050171 692.81 0.38496
183.38 1.0976e+05 undefined 496.88 1533.6 1.4815 730.00 0.0013699 496.88 1533.6 1.4815 2.5550 2.8691 2598.4 -0.0050105 692.25 0.38550 730.00 0.0013699 496.88 1533.6 1.4815 2.5550 2.8691 2598.4 -0.0050105 692.25 0.38550
184.38 1.0998e+05 undefined 499.44 1538.2 1.4871 730.00 0.0013699 499.44 1538.2 1.4871 2.5589 2.8727 2599.2 -0.0050039 691.70 0.38604 730.00 0.0013699 499.44 1538.2 1.4871 2.5589 2.8727 2599.2 -0.0050039 691.70 0.38604
185.38 1.1019e+05 undefined 502.00 1542.7 1.4927 730.00 0.0013699 502.00 1542.7 1.4927 2.5627 2.8763 2599.9 -0.0049973 691.15 0.38658 730.00 0.0013699 502.00 1542.7 1.4927 2.5627 2.8763 2599.9 -0.0049973 691.15 0.38658
186.38 1.1041e+05 undefined 504.56 1547.3 1.4983 730.00 0.0013699 504.56 1547.3 1.4983 2.5666 2.8799 2600.7 -0.0049908 690.61 0.38712 730.00 0.0013699 504.56 1547.3 1.4983 2.5666 2.8799 2600.7 -0.0049908 690.61 0.38712
187.38 1.1062e+05 undefined 507.13 1551.9 1.5039 730.00 0.0013699 507.13 1551.9 1.5039 2.5704 2.8835 2601.5 -0.0049843 690.07 0.38766 730.00 0.0013699 507.13 1551.9 1.5039 2.5704 2.8835 2601.5 -0.0049843 690.07 0.38766
188.38 1.1084e+05 undefined 509.70 1556.5 1.5095 730.00 0.0013699 509.70 1556.5 1.5095 2.5743 2.8872 2602.2 -0.0049778 689.53 0.38820 730.00 0.0013699 509.70 1556.5 1.5095 2.5743 2.8872 2602.2 -0.0049778 689.53 0.38820
189.38 1.1105e+05 undefined 512.28 1561.1 1.5150 730.00 0.0013699 512.28 1561.1 1.5150 2.5781 2.8908 2603.0 -0.0049713 688.99 0.38874 730.00 0.0013699 512.28 1561.1 1.5150 2.5781 2.8908 2603.0 -0.0049713 688.99 0.38874
190.38 1.1126e+05 undefined 514.86 1565.7 1.5206 730.00 0.0013699 514.86 1565.7 1.5206 2.5819 2.8943 2603.8 -0.0049649 688.46 0.38928 730.00 0.0013699 514.86 1565.7 1.5206 2.5819 2.8943 2603.8 -0.0049649 688.46 0.38928
191.38 1.1148e+05 undefined 517.44 1570.3 1.5262 730.00 0.0013699 517.44 1570.3 1.5262 2.5858 2.8979 2604.5 -0.0049584 687.94 0.38982 730.00 0.0013699 517.44 1570.3 1.5262 2.5858 2.8979 2604.5 -0.0049584 687.94 0.38982
192.38 1.1169e+05 undefined 520.03 1574.9 1.5317 730.00 0.0013699 520.03 1574.9 1.5317 2.5896 2.9015 2605.3 -0.0049520 687.41 0.39036 730.00 0.0013699 520.03 1574.9 1.5317 2.5896 2.9015 2605.3 -0.0049520 687.41 0.39036
193.38 1.1190e+05 undefined 522.62 1579.5 1.5373 730.00 0.0013699 522.62 1579.5 1.5373 2.5934 2.9051 2606.0 -0.0049457 686.89 0.39090 730.00 0.0013699 522.62 1579.5 1.5373 2.5934 2.9051 2606.0 -0.0049457 686.89 0.39090
194.38 1.1212e+05 undefined 525.22 1584.1 1.5429 730.00 0.0013699 525.22 1584.1 1.5429 2.5972 2.9087 2606.8 -0.0049393 686.38 0.39144 730.00 0.0013699 525.22 1584.1 1.5429 2.5972 2.9087 2606.8 -0.0049393 686.38 0.39144
195.38 1.1233e+05 undefined 527.82 1588.8 1.5484 730.00 0.0013699 527.82 1588.8 1.5484 2.6010 2.9123 2607.6 -0.0049330 685.86 0.39198 730.00 0.0013699 527.82 1588.8 1.5484 2.6010 2.9123 2607.6 -0.0049330 685.86 0.39198
196.38 1.1254e+05 undefined 530.42 1593.4 1.5540 730.00 0.0013699 530.42 1593.4 1.5540 2.6048 2.9159 2608.3 -0.0049267 685.35 0.39252 730.00 0.0013699 530.42 1593.4 1.5540 2.6048 2.9159 2608.3 -0.0049267 685.35 0.39252
197.38 1.1275e+05 undefined 533.03 1598.0 1.5595 730.00 0.0013699 533.03 1598.0 1.5595 2.6086 2.9194 2609.1 -0.0049204 684.85 0.39307 730.00 0.0013699 533.03 1598.0 1.5595 2.6086 2.9194 2609.1 -0.0049204 684.85 0.39307
198.38 1.1297e+05 undefined 535.64 1602.6 1.5650 730.00 0.0013699 535.64 1602.6 1.5650 2.6124 2.9230 2609.8 -0.0049141 684.34 0.39361 730.00 0.0013699 535.64 1602.6 1.5650 2.6124 2.9230 2609.8 -0.0049141 684.34 0.39361
199.38 1.1318e+05 undefined 538.25 1607.2 1.5706 730.00 0.0013699 538.25 1607.2 1.5706 2.6162 2.9266 2610.6 -0.0049079 683.85 0.39415 730.00 0.0013699 538.25 1607.2 1.5706 2.6162 2.9266 2610.6 -0.0049079 683.85 0.39415
200.38 1.1339e+05 undefined 540.87 1611.8 1.5761 730.00 0.0013699 540.87 1611.8 1.5761 2.6200 2.9301 2611.3 -0.0049017 683.35 0.39470 730.00 0.0013699 540.87 1611.8 1.5761 2.6200 2.9301 2611.3 -0.0049017 683.35 0.39470
201.38 1.1360e+05 undefined 543.49 1616.4 1.5817 730.00 0.0013699 543.49 1616.4 1.5817 2.6238 2.9337 2612.1 -0.0048955 682.86 0.39524 730.00 0.0013699 543.49 1616.4 1.5817 2.6238 2.9337 2612.1 -0.0048955 682.86 0.39524
202.38 1.1381e+05 undefined 546.12 1621.1 1.5872 730.00 0.0013699 546.12 1621.1 1.5872 2.6275 2.9372 2612.9 -0.0048893 682.37 0.39578 730.00 0.0013699 546.12 1621.1 1.5872 2.6275 2.9372 2612.9 -0.0048893 682.37 0.39578
203.38 1.1402e+05 undefined 548.75 1625.7 1.5927 730.00 0.0013699 548.75 1625.7 1.5927 2.6313 2.9408 2613.6 -0.0048831 681.88 0.39633 730.00 0.0013699 548.75 1625.7 1.5927 2.6313 2.9408 2613.6 -0.0048831 681.88 0.39633
204.38 1.1423e+05 undefined 551.38 1630.3 1.5982 730.00 0.0013699 551.38 1630.3 1.5982 2.6351 2.9443 2614.4 -0.0048770 681.40 0.39687 730.00 0.0013699 551.38 1630.3 1.5982 2.6351 2.9443 2614.4 -0.0048770 681.40 0.39687
205.38 1.1445e+05 undefined 554.02 1634.9 1.6037 730.00 0.0013699 554.02 1634.9 1.6037 2.6388 2.9479 2615.1 -0.0048709 680.92 0.39742 730.00 0.0013699 554.02 1634.9 1.6037 2.6388 2.9479 2615.1 -0.0048709 680.92 0.39742
206.38 1.1466e+05 undefined 556.66 1639.6 1.6093 730.00 0.0013699 556.66 1639.6 1.6093 2.6426 2.9514 2615.9 -0.0048648 680.44 0.39796 730.00 0.0013699 556.66 1639.6 1.6093 2.6426 2.9514 2615.9 -0.0048648 680.44 0.39796
207.38 1.1487e+05 undefined 559.30 1644.2 1.6148 730.00 0.0013699 559.30 1644.2 1.6148 2.6464 2.9549 2616.6 -0.0048587 679.96 0.39851 730.00 0.0013699 559.30 1644.2 1.6148 2.6464 2.9549 2616.6 -0.0048587 679.96 0.39851
208.38 1.1508e+05 undefined 561.95 1648.8 1.6203 730.00 0.0013699 561.95 1648.8 1.6203 2.6501 2.9584 2617.4 -0.0048527 679.49 0.39905 730.00 0.0013699 561.95 1648.8 1.6203 2.6501 2.9584 2617.4 -0.0048527 679.49 0.39905
209.38 1.1529e+05 undefined 564.60 1653.5 1.6258 730.00 0.0013699 564.60 1653.5 1.6258 2.6538 2.9620 2618.1 -0.0048466 679.02 0.39960 730.00 0.0013699 564.60 1653.5 1.6258 2.6538 2.9620 2618.1 -0.0048466 679.02 0.39960
210.38 1.1550e+05 undefined 567.26 1658.1 1.6313 730.00 0.0013699 567.26 1658.1 1.6313 2.6576 2.9655 2618.9 -0.0048406 678.56 0.40015 730.00 0.0013699 567.26 1658.1 1.6313 2.6576 2.9655 2618.9 -0.0048406 678.56 0.40015
211.38 1.1570e+05 undefined 569.92 1662.7 1.6368 730.00 0.0013699 569.92 1662.7 1.6368 2.6613 2.9690 2619.6 -0.0048346 678.10 0.40069 730.00 0.0013699 569.92 1662.7 1.6368 2.6613 2.9690 2619.6 -0.0048346 678.10 0.40069
212.38 1.1591e+05 undefined 572.58 1667.4 1.6423 730.00 0.0013699 572.58 1667.4 1.6423 2.6650 2.9725 2620.4 -0.0048287 677.64 0.40124 730.00 0.0013699 572.58 1667.4 1.6423 2.6650 2.9725 2620.4 -0.0048287 677.64 0.40124
213.38 1.1612e+05 undefined 575.25 1672.0 1.6477 730.00 0.0013699 575.25 1672.0 1.6477 2.6688 2.9760 2621.1 -0.0048227 677.18 0.40179 730.00 0.0013699 575.25 1672.0 1.6477 2.6688 2.9760 2621.1 -0.0048227 677.18 0.40179
214.38 1.1633e+05 undefined 577.92 1676.7 1.6532 730.00 0.0013699 577.92 1676.7 1.6532 2.6725 2.9795 2621.9 -0.0048168 676.73 0.40233 730.00 0.0013699 577.92 1676.7 1.6532 2.6725 2.9795 2621.9 -0.0048168 676.73 0.40233
215.38 1.1654e+05 undefined 580.59 1681.3 1.6587 730.00 0.0013699 580.59 1681.3 1.6587 2.6762 2.9830 2622.6 -0.0048109 676.28 0.40288 730.00 0.0013699 580.59 1681.3 1.6587 2.6762 2.9830 2622.6 -0.0048109 676.28 0.40288
216.38 1.1675e+05 undefined 583.27 1685.9 1.6642 730.00 0.0013699 583.27 1685.9 1.6642 2.6799 2.9865 2623.4 -0.0048050 675.83 0.40343 730.00 0.0013699 583.27 1685.9 1.6642 2.6799 2.9865 2623.4 -0.0048050 675.83 0.40343
217.38 1.1696e+05 undefined 585.95 1690.6 1.6697 730.00 0.0013699 585.95 1690.6 1.6697 2.6836 2.9900 2624.1 -0.0047992 675.39 0.40398 730.00 0.0013699 585.95 1690.6 1.6697 2.6836 2.9900 2624.1 -0.0047992 675.39 0.40398
218.38 1.1716e+05 undefined 588.64 1695.2 1.6751 730.00 0.0013699 588.64 1695.2 1.6751 2.6873 2.9935 2624.9 -0.0047933 674.94 0.40453 730.00 0.0013699 588.64 1695.2 1.6751 2.6873 2.9935 2624.9 -0.0047933 674.94 0.40453
219.38 1.1737e+05 undefined 591.33 1699.9 1.6806 730.00 0.0013699 591.33 1699.9 1.6806 2.6910 2.9970 2625.6 -0.0047875 674.51 0.40508 730.00 0.0013699 591.33 1699.9 1.6806 2.6910 2.9970 2625.6 -0.0047875 674.51 0.40508
220.38 1.1758e+05 undefined 594.02 1704.5 1.6860 730.00 0.0013699 594.02 1704.5 1.6860 2.6947 3.0004 2626.4 -0.0047817 674.07 0.40563 730.00 0.0013699 594.02 1704.5 1.6860 2.6947 3.0004 2626.4 -0.0047817 674.07 0.40563
221.38 1.1779e+05 undefined 596.71 1709.2 1.6915 730.00 0.0013699 596.71 1709.2 1.6915 2.6984 3.0039 2627.1 -0.0047760 673.64 0.40617 730.00 0.0013699 596.71 1709.2 1.6915 2.6984 3.0039 2627.1 -0.0047760 673.64 0.40617
222.38 1.1799e+05 undefined 599.41 1713.9 1.6970 730.00 0.0013699 599.41 1713.9 1.6970 2.7020 3.0074 2627.9 -0.0047702 673.20 0.40672 730.00 0.0013699 599.41 1713.9 1.6970 2.7020 3.0074 2627.9 -0.0047702 673.20 0.40672
223.38 1.1820e+05 undefined 602.12 1718.5 1.7024 730.00 0.0013699 602.12 1718.5 1.7024 2.7057 3.0109 2628.6 -0.0047645 672.78 0.40727 730.00 0.0013699 602.12 1718.5 1.7024 2.7057 3.0109 2628.6 -0.0047645 672.78 0.40727
224.38 1.1841e+05 undefined 604.83 1723.2 1.7079 730.00 0.0013699 604.83 1723.2 1.7079 2.7094 3.0143 2629.3 -0.0047587 672.35 0.40782 730.00 0.0013699 604.83 1723.2 1.7079 2.7094 3.0143 2629.3 -0.0047587 672.35 0.40782
225.38 1.1861e+05 undefined 607.54 1727.8 1.7133 730.00 0.0013699 607.54 1727.8 1.7133 2.7130 3.0178 2630.1 -0.0047530 671.93 0.40838 730.00 0.0013699 607.54 1727.8 1.7133 2.7130 3.0178 2630.1 -0.0047530 671.93 0.40838
226.38 1.1882e+05 undefined 610.25 1732.5 1.7187 730.00 0.0013699 610.25 1732.5 1.7187 2.7167 3.0212 2630.8 -0.0047474 671.51 0.40893 730.00 0.0013699 610.25 1732.5 1.7187 2.7167 3.0212 2630.8 -0.0047474 671.51 0.40893
227.38 1.1903e+05 undefined 612.97 1737.2 1.7242 730.00 0.0013699 612.97 1737.2 1.7242 2.7204 3.0247 2631.6 -0.0047417 671.09 0.40948 730.00 0.0013699 612.97 1737.2 1.7242 2.7204 3.0247 2631.6 -0.0047417 671.09 0.40948
228.38 1.1923e+05 undefined 615.69 1741.8 1.7296 730.00 0.0013699 615.69 1741.8 1.7296 2.7240 3.0281 2632.3 -0.0047361 670.68 0.41003 730.00 0.0013699 615.69 1741.8 1.7296 2.7240 3.0281 2632.3 -0.0047361 670.68 0.41003
229.38 1.1944e+05 undefined 618.42 1746.5 1.7350 730.00 0.0013699 618.42 1746.5 1.7350 2.7276 3.0316 2633.1 -0.0047305 670.26 0.41058 730.00 0.0013699 618.42 1746.5 1.7350 2.7276 3.0316 2633.1 -0.0047305 670.26 0.41058
230.38 1.1964e+05 undefined 621.15 1751.2 1.7405 730.00 0.0013699 621.15 1751.2 1.7405 2.7313 3.0350 2633.8 -0.0047249 669.85 0.41113 730.00 0.0013699 621.15 1751.2 1.7405 2.7313 3.0350 2633.8 -0.0047249 669.85 0.41113
231.38 1.1985e+05 undefined 623.88 1755.8 1.7459 730.00 0.0013699 623.88 1755.8 1.7459 2.7349 3.0384 2634.5 -0.0047193 669.45 0.41169 730.00 0.0013699 623.88 1755.8 1.7459 2.7349 3.0384 2634.5 -0.0047193 669.45 0.41169
232.38 1.2005e+05 undefined 626.62 1760.5 1.7513 730.00 0.0013699 626.62 1760.5 1.7513 2.7385 3.0418 2635.3 -0.0047137 669.04 0.41224 730.00 0.0013699 626.62 1760.5 1.7513 2.7385 3.0418 2635.3 -0.0047137 669.04 0.41224
233.38 1.2026e+05 undefined 629.36 1765.2 1.7567 730.00 0.0013699 629.36 1765.2 1.7567 2.7422 3.0453 2636.0 -0.0047082 668.64 0.41279 730.00 0.0013699 629.36 1765.2 1.7567 2.7422 3.0453 2636.0 -0.0047082 668.64 0.41279
234.38 1.2046e+05 undefined 632.10 1769.9 1.7621 730.00 0.0013699 632.10 1769.9 1.7621 2.7458 3.0487 2636.8 -0.0047027 668.24 0.41334 730.00 0.0013699 632.10 1769.9 1.7621 2.7458 3.0487 2636.8 -0.0047027 668.24 0.41334
235.38 1.2067e+05 undefined 634.85 1774.6 1.7675 730.00 0.0013699 634.85 1774.6 1.7675 2.7494 3.0521 2637.5 -0.0046972 667.84 0.41390 730.00 0.0013699 634.85 1774.6 1.7675 2.7494 3.0521 2637.5 -0.0046972 667.84 0.41390
236.38 1.2087e+05 undefined 637.60 1779.2 1.7730 730.00 0.0013699 637.60 1779.2 1.7730 2.7530 3.0555 2638.2 -0.0046917 667.45 0.41445 730.00 0.0013699 637.60 1779.2 1.7730 2.7530 3.0555 2638.2 -0.0046917 667.45 0.41445
237.38 1.2108e+05 undefined 640.36 1783.9 1.7784 730.00 0.0013699 640.36 1783.9 1.7784 2.7566 3.0589 2639.0 -0.0046862 667.05 0.41501 730.00 0.0013699 640.36 1783.9 1.7784 2.7566 3.0589 2639.0 -0.0046862 667.05 0.41501
238.38 1.2128e+05 undefined 643.11 1788.6 1.7838 730.00 0.0013699 643.11 1788.6 1.7838 2.7602 3.0623 2639.7 -0.0046808 666.66 0.41556 730.00 0.0013699 643.11 1788.6 1.7838 2.7602 3.0623 2639.7 -0.0046808 666.66 0.41556
239.38 1.2149e+05 undefined 645.88 1793.3 1.7891 730.00 0.0013699 645.88 1793.3 1.7891 2.7638 3.0657 2640.4 -0.0046753 666.28 0.41612 730.00 0.0013699 645.88 1793.3 1.7891 2.7638 3.0657 2640.4 -0.0046753 666.28 0.41612
240.38 1.2169e+05 undefined 648.64 1798.0 1.7945 730.00 0.0013699 648.64 1798.0 1.7945 2.7674 3.0691 2641.2 -0.0046699 665.89 0.41667 730.00 0.0013699 648.64 1798.0 1.7945 2.7674 3.0691 2641.2 -0.0046699 665.89 0.41667
241.38 1.2189e+05 undefined 651.41 1802.7 1.7999 730.00 0.0013699 651.41 1802.7 1.7999 2.7710 3.0725 2641.9 -0.0046646 665.51 0.41723 730.00 0.0013699 651.41 1802.7 1.7999 2.7710 3.0725 2641.9 -0.0046646 665.51 0.41723
242.38 1.2210e+05 undefined 654.18 1807.4 1.8053 730.00 0.0013699 654.18 1807.4 1.8053 2.7746 3.0759 2642.6 -0.0046592 665.13 0.41778 730.00 0.0013699 654.18 1807.4 1.8053 2.7746 3.0759 2642.6 -0.0046592 665.13 0.41778
243.38 1.2230e+05 undefined 656.96 1812.1 1.8107 730.00 0.0013699 656.96 1812.1 1.8107 2.7781 3.0793 2643.4 -0.0046538 664.75 0.41834 730.00 0.0013699 656.96 1812.1 1.8107 2.7781 3.0793 2643.4 -0.0046538 664.75 0.41834
244.38 1.2250e+05 undefined 659.74 1816.8 1.8161 730.00 0.0013699 659.74 1816.8 1.8161 2.7817 3.0826 2644.1 -0.0046485 664.37 0.41889 730.00 0.0013699 659.74 1816.8 1.8161 2.7817 3.0826 2644.1 -0.0046485 664.37 0.41889
245.38 1.2270e+05 undefined 662.52 1821.4 1.8214 730.00 0.0013699 662.52 1821.4 1.8214 2.7853 3.0860 2644.8 -0.0046432 664.00 0.41945 730.00 0.0013699 662.52 1821.4 1.8214 2.7853 3.0860 2644.8 -0.0046432 664.00 0.41945
246.38 1.2291e+05 undefined 665.31 1826.1 1.8268 730.00 0.0013699 665.31 1826.1 1.8268 2.7888 3.0894 2645.6 -0.0046379 663.63 0.42001 730.00 0.0013699 665.31 1826.1 1.8268 2.7888 3.0894 2645.6 -0.0046379 663.63 0.42001
247.38 1.2311e+05 undefined 668.10 1830.9 1.8322 730.00 0.0013699 668.10 1830.9 1.8322 2.7924 3.0927 2646.3 -0.0046326 663.26 0.42056 730.00 0.0013699 668.10 1830.9 1.8322 2.7924 3.0927 2646.3 -0.0046326 663.26 0.42056
248.38 1.2331e+05 undefined 670.90 1835.6 1.8375 730.00 0.0013699 670.90 1835.6 1.8375 2.7959 3.0961 2647.0 -0.0046274 662.89 0.42112 730.00 0.0013699 670.90 1835.6 1.8375 2.7959 3.0961 2647.0 -0.0046274 662.89 0.42112
249.38 1.2351e+05 undefined 673.69 1840.3 1.8429 730.00 0.0013699 673.69 1840.3 1.8429 2.7995 3.0994 2647.8 -0.0046221 662.53 0.42168 730.00 0.0013699 673.69 1840.3 1.8429 2.7995 3.0994 2647.8 -0.0046221 662.53 0.42168
250.38 1.2371e+05 undefined 676.49 1845.0 1.8483 730.00 0.0013699 676.49 1845.0 1.8483 2.8030 3.1028 2648.5 -0.0046169 662.16 0.42224 730.00 0.0013699 676.49 1845.0 1.8483 2.8030 3.1028 2648.5 -0.0046169 662.16 0.42224
251.38 1.2392e+05 undefined 679.30 1849.7 1.8536 730.00 0.0013699 679.30 1849.7 1.8536 2.8065 3.1061 2649.2 -0.0046117 661.80 0.42280 730.00 0.0013699 679.30 1849.7 1.8536 2.8065 3.1061 2649.2 -0.0046117 661.80 0.42280
252.38 1.2412e+05 undefined 682.11 1854.4 1.8590 730.00 0.0013699 682.11 1854.4 1.8590 2.8101 3.1095 2650.0 -0.0046065 661.45 0.42335 730.00 0.0013699 682.11 1854.4 1.8590 2.8101 3.1095 2650.0 -0.0046065 661.45 0.42335
253.38 1.2432e+05 undefined 684.92 1859.1 1.8643 730.00 0.0013699 684.92 1859.1 1.8643 2.8136 3.1128 2650.7 -0.0046013 661.09 0.42391 730.00 0.0013699 684.92 1859.1 1.8643 2.8136 3.1128 2650.7 -0.0046013 661.09 0.42391
254.38 1.2452e+05 undefined 687.73 1863.8 1.8696 730.00 0.0013699 687.73 1863.8 1.8696 2.8171 3.1161 2651.4 -0.0045962 660.74 0.42447 730.00 0.0013699 687.73 1863.8 1.8696 2.8171 3.1161 2651.4 -0.0045962 660.74 0.42447
255.38 1.2472e+05 undefined 690.55 1868.5 1.8750 730.00 0.0013699 690.55 1868.5 1.8750 2.8206 3.1195 2652.1 -0.0045910 660.38 0.42503 730.00 0.0013699 690.55 1868.5 1.8750 2.8206 3.1195 2652.1 -0.0045910 660.38 0.42503
256.38 1.2492e+05 undefined 693.38 1873.2 1.8803 730.00 0.0013699 693.38 1873.2 1.8803 2.8241 3.1228 2652.9 -0.0045859 660.03 0.42559 730.00 0.0013699 693.38 1873.2 1.8803 2.8241 3.1228 2652.9 -0.0045859 660.03 0.42559
257.38 1.2512e+05 undefined 696.20 1878.0 1.8856 730.00 0.0013699 696.20 1878.0 1.8856 2.8277 3.1261 2653.6 -0.0045808 659.69 0.42615 730.00 0.0013699 696.20 1878.0 1.8856 2.8277 3.1261 2653.6 -0.0045808 659.69 0.42615
258.38 1.2532e+05 undefined 699.03 1882.7 1.8910 730.00 0.0013699 699.03 1882.7 1.8910 2.8312 3.1294 2654.3 -0.0045757 659.34 0.42671 730.00 0.0013699 699.03 1882.7 1.8910 2.8312 3.1294 2654.3 -0.0045757 659.34 0.42671
259.38 1.2552e+05 undefined 701.86 1887.4 1.8963 730.00 0.0013699 701.86 1887.4 1.8963 2.8346 3.1327 2655.1 -0.0045707 659.00 0.42727 730.00 0.0013699 701.86 1887.4 1.8963 2.8346 3.1327 2655.1 -0.0045707 659.00 0.42727
260.38 1.2572e+05 undefined 704.70 1892.1 1.9016 730.00 0.0013699 704.70 1892.1 1.9016 2.8381 3.1360 2655.8 -0.0045656 658.65 0.42783 730.00 0.0013699 704.70 1892.1 1.9016 2.8381 3.1360 2655.8 -0.0045656 658.65 0.42783
261.38 1.2592e+05 undefined 707.54 1896.9 1.9069 730.00 0.0013699 707.54 1896.9 1.9069 2.8416 3.1394 2656.5 -0.0045606 658.31 0.42839 730.00 0.0013699 707.54 1896.9 1.9069 2.8416 3.1394 2656.5 -0.0045606 658.31 0.42839
262.38 1.2612e+05 undefined 710.38 1901.6 1.9123 730.00 0.0013699 710.38 1901.6 1.9123 2.8451 3.1426 2657.2 -0.0045556 657.98 0.42896 730.00 0.0013699 710.38 1901.6 1.9123 2.8451 3.1426 2657.2 -0.0045556 657.98 0.42896
263.38 1.2632e+05 undefined 713.23 1906.3 1.9176 730.00 0.0013699 713.23 1906.3 1.9176 2.8486 3.1459 2657.9 -0.0045506 657.64 0.42952 730.00 0.0013699 713.23 1906.3 1.9176 2.8486 3.1459 2657.9 -0.0045506 657.64 0.42952
264.38 1.2652e+05 undefined 716.08 1911.1 1.9229 730.00 0.0013699 716.08 1911.1 1.9229 2.8520 3.1492 2658.7 -0.0045456 657.31 0.43008 730.00 0.0013699 716.08 1911.1 1.9229 2.8520 3.1492 2658.7 -0.0045456 657.31 0.43008
265.38 1.2672e+05 undefined 718.94 1915.8 1.9282 730.00 0.0013699 718.94 1915.8 1.9282 2.8555 3.1525 2659.4 -0.0045407 656.98 0.43064 730.00 0.0013699 718.94 1915.8 1.9282 2.8555 3.1525 2659.4 -0.0045407 656.98 0.43064
266.38 1.2692e+05 undefined 721.79 1920.5 1.9335 730.00 0.0013699 721.79 1920.5 1.9335 2.8590 3.1558 2660.1 -0.0045357 656.65 0.43120 730.00 0.0013699 721.79 1920.5 1.9335 2.8590 3.1558 2660.1 -0.0045357 656.65 0.43120
267.38 1.2712e+05 undefined 724.65 1925.3 1.9388 730.00 0.0013699 724.65 1925.3 1.9388 2.8624 3.1591 2660.8 -0.0045308 656.32 0.43177 730.00 0.0013699 724.65 1925.3 1.9388 2.8624 3.1591 2660.8 -0.0045308 656.32 0.43177
268.38 1.2732e+05 undefined 727.52 1930.0 1.9441 730.00 0.0013699 727.52 1930.0 1.9441 2.8659 3.1623 2661.6 -0.0045259 655.99 0.43233 730.00 0.0013699 727.52 1930.0 1.9441 2.8659 3.1623 2661.6 -0.0045259 655.99 0.43233
269.38 1.2751e+05 undefined 730.38 1934.7 1.9494 730.00 0.0013699 730.38 1934.7 1.9494 2.8693 3.1656 2662.3 -0.0045210 655.67 0.43289 730.00 0.0013699 730.38 1934.7 1.9494 2.8693 3.1656 2662.3 -0.0045210 655.67 0.43289
270.38 1.2771e+05 undefined 733.26 1939.5 1.9546 730.00 0.0013699 733.26 1939.5 1.9546 2.8728 3.1689 2663.0 -0.0045161 655.34 0.43346 730.00 0.0013699 733.26 1939.5 1.9546 2.8728 3.1689 2663.0 -0.0045161 655.34 0.43346
271.38 1.2791e+05 undefined 736.13 1944.2 1.9599 730.00 0.0013699 736.13 1944.2 1.9599 2.8762 3.1721 2663.7 -0.0045112 655.02 0.43402 730.00 0.0013699 736.13 1944.2 1.9599 2.8762 3.1721 2663.7 -0.0045112 655.02 0.43402
272.38 1.2811e+05 undefined 739.01 1949.0 1.9652 730.00 0.0013699 739.01 1949.0 1.9652 2.8796 3.1754 2664.4 -0.0045064 654.71 0.43459 730.00 0.0013699 739.01 1949.0 1.9652 2.8796 3.1754 2664.4 -0.0045064 654.71 0.43459
273.38 1.2831e+05 undefined 741.89 1953.7 1.9705 730.00 0.0013699 741.89 1953.7 1.9705 2.8831 3.1786 2665.2 -0.0045016 654.39 0.43515 730.00 0.0013699 741.89 1953.7 1.9705 2.8831 3.1786 2665.2 -0.0045016 654.39 0.43515
274.38 1.2850e+05 undefined 744.77 1958.5 1.9758 730.00 0.0013699 744.77 1958.5 1.9758 2.8865 3.1819 2665.9 -0.0044967 654.07 0.43572 730.00 0.0013699 744.77 1958.5 1.9758 2.8865 3.1819 2665.9 -0.0044967 654.07 0.43572
275.38 1.2870e+05 undefined 747.66 1963.2 1.9810 730.00 0.0013699 747.66 1963.2 1.9810 2.8899 3.1851 2666.6 -0.0044919 653.76 0.43628 730.00 0.0013699 747.66 1963.2 1.9810 2.8899 3.1851 2666.6 -0.0044919 653.76 0.43628
276.38 1.2890e+05 undefined 750.55 1968.0 1.9863 730.00 0.0013699 750.55 1968.0 1.9863 2.8933 3.1884 2667.3 -0.0044872 653.45 0.43685 730.00 0.0013699 750.55 1968.0 1.9863 2.8933 3.1884 2667.3 -0.0044872 653.45 0.43685
277.38 1.2910e+05 undefined 753.45 1972.7 1.9916 730.00 0.0013699 753.45 1972.7 1.9916 2.8967 3.1916 2668.0 -0.0044824 653.14 0.43741 730.00 0.0013699 753.45 1972.7 1.9916 2.8967 3.1916 2668.0 -0.0044824 653.14 0.43741
278.38 1.2929e+05 undefined 756.35 1977.5 1.9968 730.00 0.0013699 756.35 1977.5 1.9968 2.9001 3.1948 2668.7 -0.0044777 652.83 0.43798 730.00 0.0013699 756.35 1977.5 1.9968 2.9001 3.1948 2668.7 -0.0044777 652.83 0.43798
279.38 1.2949e+05 undefined 759.25 1982.3 2.0021 730.00 0.0013699 759.25 1982.3 2.0021 2.9035 3.1980 2669.5 -0.0044729 652.53 0.43854 730.00 0.0013699 759.25 1982.3 2.0021 2.9035 3.1980 2669.5 -0.0044729 652.53 0.43854
280.38 1.2969e+05 undefined 762.15 1987.0 2.0073 730.00 0.0013699 762.15 1987.0 2.0073 2.9069 3.2013 2670.2 -0.0044682 652.22 0.43911 730.00 0.0013699 762.15 1987.0 2.0073 2.9069 3.2013 2670.2 -0.0044682 652.22 0.43911
281.38 1.2988e+05 undefined 765.06 1991.8 2.0126 730.00 0.0013699 765.06 1991.8 2.0126 2.9103 3.2045 2670.9 -0.0044635 651.92 0.43968 730.00 0.0013699 765.06 1991.8 2.0126 2.9103 3.2045 2670.9 -0.0044635 651.92 0.43968
282.38 1.3008e+05 undefined 767.98 1996.5 2.0178 730.00 0.0013699 767.98 1996.5 2.0178 2.9137 3.2077 2671.6 -0.0044588 651.62 0.44017 730.00 0.0013699 767.98 1996.5 2.0178 2.9137 3.2077 2671.6 -0.0044588 651.62 0.44017
283.38 1.3027e+05 undefined 770.89 2001.3 2.0231 730.00 0.0013699 770.89 2001.3 2.0231 2.9171 3.2109 2672.3 -0.0044541 651.32 0.44074 730.00 0.0013699 770.89 2001.3 2.0231 2.9171 3.2109 2672.3 -0.0044541 651.32 0.44074
284.38 1.3047e+05 undefined 773.81 2006.1 2.0283 730.00 0.0013699 773.81 2006.1 2.0283 2.9204 3.2141 2673.0 -0.0044495 651.02 0.44130 730.00 0.0013699 773.81 2006.1 2.0283 2.9204 3.2141 2673.0 -0.0044495 651.02 0.44130
285.38 1.3067e+05 undefined 776.73 2010.9 2.0335 730.00 0.0013699 776.73 2010.9 2.0335 2.9238 3.2173 2673.7 -0.0044448 650.73 0.44187 730.00 0.0013699 776.73 2010.9 2.0335 2.9238 3.2173 2673.7 -0.0044448 650.73 0.44187
286.38 1.3086e+05 undefined 779.66 2015.6 2.0388 730.00 0.0013699 779.66 2015.6 2.0388 2.9272 3.2205 2674.5 -0.0044402 650.43 0.44244 730.00 0.0013699 779.66 2015.6 2.0388 2.9272 3.2205 2674.5 -0.0044402 650.43 0.44244
287.38 1.3106e+05 undefined 782.59 2020.4 2.0440 730.00 0.0013699 782.59 2020.4 2.0440 2.9305 3.2237 2675.2 -0.0044356 650.14 0.44301 730.00 0.0013699 782.59 2020.4 2.0440 2.9305 3.2237 2675.2 -0.0044356 650.14 0.44301
288.38 1.3125e+05 undefined 785.52 2025.2 2.0492 730.00 0.0013699 785.52 2025.2 2.0492 2.9339 3.2269 2675.9 -0.0044310 649.85 0.44358 730.00 0.0013699 785.52 2025.2 2.0492 2.9339 3.2269 2675.9 -0.0044310 649.85 0.44358
289.38 1.3145e+05 undefined 788.45 2030.0 2.0545 730.00 0.0013699 788.45 2030.0 2.0545 2.9372 3.2300 2676.6 -0.0044264 649.56 0.44415 730.00 0.0013699 788.45 2030.0 2.0545 2.9372 3.2300 2676.6 -0.0044264 649.56 0.44415
290.38 1.3164e+05 undefined 791.39 2034.7 2.0597 730.00 0.0013699 791.39 2034.7 2.0597 2.9406 3.2332 2677.3 -0.0044219 649.27 0.44472 730.00 0.0013699 791.39 2034.7 2.0597 2.9406 3.2332 2677.3 -0.0044219 649.27 0.44472
291.38 1.3184e+05 undefined 794.33 2039.5 2.0649 730.00 0.0013699 794.33 2039.5 2.0649 2.9439 3.2364 2678.0 -0.0044173 648.99 0.44529 730.00 0.0013699 794.33 2039.5 2.0649 2.9439 3.2364 2678.0 -0.0044173 648.99 0.44529
292.38 1.3203e+05 undefined 797.28 2044.3 2.0701 730.00 0.0013699 797.28 2044.3 2.0701 2.9472 3.2396 2678.7 -0.0044128 648.70 0.44586 730.00 0.0013699 797.28 2044.3 2.0701 2.9472 3.2396 2678.7 -0.0044128 648.70 0.44586
293.38 1.3223e+05 undefined 800.23 2049.1 2.0753 730.00 0.0013699 800.23 2049.1 2.0753 2.9506 3.2427 2679.4 -0.0044083 648.42 0.44643 730.00 0.0013699 800.23 2049.1 2.0753 2.9506 3.2427 2679.4 -0.0044083 648.42 0.44643
294.38 1.3242e+05 undefined 803.18 2053.9 2.0805 730.00 0.0013699 803.18 2053.9 2.0805 2.9539 3.2459 2680.1 -0.0044038 648.14 0.44700 730.00 0.0013699 803.18 2053.9 2.0805 2.9539 3.2459 2680.1 -0.0044038 648.14 0.44700
295.38 1.3261e+05 undefined 806.14 2058.7 2.0857 730.00 0.0013699 806.14 2058.7 2.0857 2.9572 3.2490 2680.8 -0.0043993 647.86 0.44757 730.00 0.0013699 806.14 2058.7 2.0857 2.9572 3.2490 2680.8 -0.0043993 647.86 0.44757
296.38 1.3281e+05 undefined 809.10 2063.5 2.0909 730.00 0.0013699 809.10 2063.5 2.0909 2.9605 3.2522 2681.5 -0.0043948 647.58 0.44814 730.00 0.0013699 809.10 2063.5 2.0909 2.9605 3.2522 2681.5 -0.0043948 647.58 0.44814
297.38 1.3300e+05 undefined 812.06 2068.2 2.0961 730.00 0.0013699 812.06 2068.2 2.0961 2.9639 3.2553 2682.3 -0.0043903 647.30 0.44871 730.00 0.0013699 812.06 2068.2 2.0961 2.9639 3.2553 2682.3 -0.0043903 647.30 0.44871
298.38 1.3320e+05 undefined 815.02 2073.0 2.1013 730.00 0.0013699 815.02 2073.0 2.1013 2.9672 3.2585 2683.0 -0.0043859 647.03 0.44928 730.00 0.0013699 815.02 2073.0 2.1013 2.9672 3.2585 2683.0 -0.0043859 647.03 0.44928
299.38 1.3339e+05 undefined 817.99 2077.8 2.1065 730.00 0.0013699 817.99 2077.8 2.1065 2.9705 3.2616 2683.7 -0.0043815 646.76 0.44985 730.00 0.0013699 817.99 2077.8 2.1065 2.9705 3.2616 2683.7 -0.0043815 646.76 0.44985
300.38 1.3358e+05 undefined 820.96 2082.6 2.1117 730.00 0.0013699 820.96 2082.6 2.1117 2.9738 3.2647 2684.4 -0.0043770 646.48 0.45043 730.00 0.0013699 820.96 2082.6 2.1117 2.9738 3.2647 2684.4 -0.0043770 646.48 0.45043