Temperature (C) Pressure (psia) Quality (l+v) Internal Energy (l+v, kJ/kg) Enthalpy (l+v, kJ/kg) Entropy (l+v, J/g*K) Density (l, kg/m3) Volume (l, m3/kg) Internal Energy (l, kJ/kg) Enthalpy (l, kJ/kg) Entropy (l, J/g*K) Cv (l, J/g*K) Cp (l, J/g*K) Sound Spd. (l, m/s) Joule-Thomson (l, F/psia) Viscosity (l, uPa*s) Therm. Cond. (l, W/m*K) Density (v, kg/m3) Volume (v, m3/kg) Internal Energy (v, kJ/kg) Enthalpy (v, kJ/kg) Entropy (v, J/g*K) Cv (v, J/g*K) Cp (v, J/g*K) Sound Spd. (v, m/s) Joule-Thomson (v, F/psia) Viscosity (v, uPa*s) Therm. Cond. (v, W/m*K)
-187.62 2.4953e-08 1.2770e-10 -196.64 -196.64 -1.3959 733.13 0.0013640 -196.64 -196.64 -1.3959 1.3553 1.9158 2136.4 -0.0077592 10960. 0.20792 1.0669e-08 9.3732e+07 350.13 366.26 5.1858 0.69067 0.87923 143.28 6.1051 2.3259 0.0017061
-186.62 3.7339e-08 1.8885e-10 -194.73 -194.73 -1.3736 732.08 0.0013660 -194.73 -194.73 -1.3736 1.3539 1.9166 2129.6 -0.0077546 10073. 0.20765 1.5780e-08 6.3371e+07 350.82 367.14 5.1200 0.69462 0.88317 144.03 5.9178 2.3534 0.0017533
-185.62 5.5322e-08 2.7655e-10 -192.81 -192.81 -1.3516 731.04 0.0013679 -192.81 -192.81 -1.3516 1.3525 1.9174 2122.9 -0.0077498 9276.1 0.20737 2.3112e-08 4.3267e+07 351.52 368.02 5.0561 0.69857 0.88713 144.77 5.7383 2.3808 0.0018007
-184.62 8.1182e-08 4.0117e-10 -190.89 -190.89 -1.3298 730.00 0.0013699 -190.89 -190.89 -1.3298 1.3513 1.9182 2116.1 -0.0077448 8557.8 0.20708 3.3533e-08 2.9821e+07 352.22 368.91 4.9939 0.70253 0.89108 145.51 5.5662 2.4083 0.0018485
-183.62 1.1803e-07 5.7667e-10 -188.97 -188.97 -1.3083 728.96 0.0013718 -188.97 -188.97 -1.3083 1.3501 1.9191 2109.3 -0.0077395 7909.8 0.20678 4.8211e-08 2.0742e+07 352.92 369.81 4.9333 0.70648 0.89504 146.24 5.4011 2.4357 0.0018965
-182.62 1.7009e-07 8.2167e-10 -187.05 -187.05 -1.2869 727.92 0.0013738 -187.05 -187.05 -1.2869 1.3490 1.9201 2102.5 -0.0077340 7324.3 0.20647 6.8704e-08 1.4555e+07 353.63 370.70 4.8744 0.71043 0.89899 146.97 5.2426 2.4632 0.0019448
-181.62 2.4299e-07 1.1608e-09 -185.13 -185.13 -1.2658 726.88 0.0013757 -185.13 -185.13 -1.2658 1.3480 1.9210 2095.7 -0.0077283 6794.5 0.20616 9.7079e-08 1.0301e+07 354.35 371.60 4.8170 0.71438 0.90294 147.69 5.0904 2.4906 0.0019934
-180.62 3.4425e-07 1.6265e-09 -183.21 -183.21 -1.2450 725.85 0.0013777 -183.21 -183.21 -1.2450 1.3470 1.9220 2088.9 -0.0077225 6314.4 0.20584 1.3605e-07 7.3504e+06 355.06 372.51 4.7612 0.71833 0.90688 148.41 4.9442 2.5181 0.0020423
-179.62 4.8378e-07 2.2610e-09 -181.29 -181.29 -1.2243 724.81 0.0013797 -181.29 -181.29 -1.2243 1.3461 1.9231 2082.0 -0.0077164 5878.8 0.20551 1.8915e-07 5.2868e+06 355.78 373.42 4.7068 0.72227 0.91082 149.13 4.8038 2.5456 0.0020915
-178.62 6.7459e-07 3.1189e-09 -179.37 -179.37 -1.2038 723.78 0.0013816 -179.37 -179.37 -1.2038 1.3453 1.9241 2075.2 -0.0077102 5482.9 0.20517 2.6096e-07 3.8320e+06 356.51 374.33 4.6538 0.72620 0.91475 149.84 4.6688 2.5731 0.0021410
-177.62 9.3358e-07 4.2705e-09 -177.44 -177.44 -1.1836 722.75 0.0013836 -177.44 -177.44 -1.1836 1.3445 1.9252 2068.4 -0.0077039 5122.6 0.20483 3.5737e-07 2.7982e+06 357.23 375.25 4.6022 0.73012 0.91867 150.54 4.5390 2.6005 0.0021907
-176.62 1.2826e-06 5.8052e-09 -175.52 -175.52 -1.1635 721.72 0.0013856 -175.52 -175.52 -1.1635 1.3437 1.9263 2061.5 -0.0076973 4794.1 0.20447 4.8588e-07 2.0581e+06 357.97 376.17 4.5519 0.73403 0.92258 151.25 4.4142 2.6280 0.0022408
-175.62 1.7496e-06 7.8366e-09 -173.59 -173.59 -1.1437 720.69 0.0013876 -173.59 -173.59 -1.1437 1.3430 1.9274 2054.7 -0.0076907 4494.3 0.20411 6.5601e-07 1.5244e+06 358.70 377.09 4.5029 0.73792 0.92648 151.95 4.2941 2.6555 0.0022912
-174.62 2.3705e-06 1.0508e-08 -171.66 -171.66 -1.1240 719.66 0.0013895 -171.66 -171.66 -1.1240 1.3423 1.9286 2047.9 -0.0076838 4220.2 0.20375 8.7976e-07 1.1367e+06 359.44 378.02 4.4551 0.74181 0.93036 152.64 4.1784 2.6830 0.0023418
-173.62 3.1903e-06 1.3997e-08 -169.73 -169.73 -1.1045 718.64 0.0013915 -169.73 -169.73 -1.1045 1.3417 1.9298 2041.0 -0.0076769 3969.3 0.20338 1.1721e-06 8.5314e+05 360.19 378.95 4.4085 0.74568 0.93423 153.33 4.0671 2.7105 0.0023928
-172.62 4.2661e-06 1.8528e-08 -167.80 -167.80 -1.0852 717.61 0.0013935 -167.80 -167.80 -1.0852 1.3411 1.9310 2034.2 -0.0076698 3739.3 0.20300 1.5518e-06 6.4441e+05 360.93 379.89 4.3631 0.74953 0.93809 154.02 3.9599 2.7379 0.0024440
-171.62 5.6692e-06 2.4376e-08 -165.87 -165.87 -1.0661 716.58 0.0013955 -165.87 -165.87 -1.0661 1.3405 1.9322 2027.3 -0.0076625 3528.0 0.20261 2.0419e-06 4.8974e+05 361.69 380.83 4.3188 0.75337 0.94193 154.71 3.8566 2.7654 0.0024955
-170.62 7.4884e-06 3.1878e-08 -163.94 -163.94 -1.0472 715.56 0.0013975 -163.94 -163.94 -1.0472 1.3400 1.9334 2020.5 -0.0076552 3333.8 0.20222 2.6708e-06 3.7442e+05 362.44 381.77 4.2755 0.75720 0.94575 155.39 3.7570 2.7929 0.0025473
-169.62 9.8334e-06 4.1450e-08 -162.00 -162.00 -1.0284 714.54 0.0013995 -162.00 -162.00 -1.0284 1.3395 1.9347 2013.6 -0.0076477 3154.9 0.20182 3.4733e-06 2.8791e+05 363.20 382.72 4.2334 0.76100 0.94956 156.07 3.6609 2.8204 0.0025994
-168.62 1.2839e-05 5.3594e-08 -160.07 -160.07 -1.0098 713.52 0.0014015 -160.07 -160.07 -1.0098 1.3390 1.9359 2006.8 -0.0076401 2989.9 0.20141 4.4917e-06 2.2263e+05 363.96 383.67 4.1922 0.76479 0.95335 156.74 3.5683 2.8479 0.0026518
-167.62 1.6672e-05 6.8920e-08 -158.13 -158.13 -0.99134 712.49 0.0014035 -158.13 -158.13 -0.99134 1.3386 1.9372 2000.0 -0.0076323 2837.5 0.20100 5.7771e-06 1.7310e+05 364.73 384.63 4.1521 0.76856 0.95712 157.41 3.4790 2.8754 0.0027045
-166.62 2.1533e-05 8.8163e-08 -156.19 -156.19 -0.97306 711.47 0.0014055 -156.19 -156.19 -0.97306 1.3382 1.9385 1993.1 -0.0076245 2696.5 0.20058 7.3914e-06 1.3529e+05 365.50 385.59 4.1129 0.77232 0.96087 158.08 3.3927 2.9029 0.0027575
-165.62 2.7666e-05 1.1220e-07 -154.25 -154.25 -0.95494 710.45 0.0014075 -154.25 -154.25 -0.95494 1.3378 1.9398 1986.3 -0.0076165 2566.0 0.20016 9.4084e-06 1.0629e+05 366.27 386.55 4.0746 0.77605 0.96460 158.75 3.3095 2.9304 0.0028108
-164.62 3.5367e-05 1.4209e-07 -152.31 -152.31 -0.93698 709.44 0.0014096 -152.31 -152.31 -0.93698 1.3375 1.9411 1979.4 -0.0076084 2444.9 0.19973 1.1916e-05 83918. 367.05 387.52 4.0372 0.77976 0.96832 159.41 3.2291 2.9579 0.0028643
-163.62 4.4989e-05 1.7907e-07 -150.37 -150.37 -0.91917 708.42 0.0014116 -150.37 -150.37 -0.91917 1.3371 1.9424 1972.6 -0.0076002 2332.3 0.19930 1.5020e-05 66577. 367.83 388.49 4.0008 0.78346 0.97201 160.07 3.1514 2.9854 0.0029182
-162.62 5.6956e-05 2.2461e-07 -148.43 -148.43 -0.90151 707.40 0.0014136 -148.43 -148.43 -0.90151 1.3368 1.9437 1965.8 -0.0075919 2227.7 0.19886 1.8844e-05 53068. 368.62 389.46 3.9651 0.78713 0.97569 160.72 3.0764 3.0129 0.0029723
-161.62 7.1773e-05 2.8045e-07 -146.48 -146.48 -0.88400 706.38 0.0014157 -146.48 -146.48 -0.88400 1.3365 1.9451 1959.0 -0.0075834 2130.2 0.19841 2.3533e-05 42494. 369.41 390.44 3.9304 0.79079 0.97935 161.38 3.0038 3.0404 0.0030268
-160.62 9.0036e-05 3.4863e-07 -144.54 -144.54 -0.86663 705.37 0.0014177 -144.54 -144.54 -0.86663 1.3363 1.9465 1952.1 -0.0075748 2039.2 0.19796 2.9258e-05 34178. 370.20 391.42 3.8964 0.79443 0.98298 162.03 2.9337 3.0679 0.0030815
-159.62 0.00011245 4.3152e-07 -142.59 -142.59 -0.84940 704.35 0.0014197 -142.59 -142.59 -0.84940 1.3360 1.9478 1945.3 -0.0075661 1954.2 0.19751 3.6221e-05 27609. 371.00 392.40 3.8632 0.79805 0.98660 162.68 2.8658 3.0955 0.0031365
-158.62 0.00013985 5.3187e-07 -140.64 -140.64 -0.83231 703.34 0.0014218 -140.64 -140.64 -0.83231 1.3358 1.9492 1938.5 -0.0075573 1874.8 0.19705 4.4652e-05 22395. 371.80 393.39 3.8307 0.80164 0.99020 163.32 2.8002 3.1230 0.0031918
-157.62 0.00017320 6.5290e-07 -138.69 -138.69 -0.81536 702.32 0.0014238 -138.69 -138.69 -0.81536 1.3356 1.9506 1931.7 -0.0075484 1800.3 0.19658 5.4822e-05 18241. 372.60 394.38 3.7990 0.80522 0.99378 163.96 2.7367 3.1505 0.0032474
-156.62 0.00021364 7.9828e-07 -136.74 -136.74 -0.79854 701.31 0.0014259 -136.74 -136.74 -0.79854 1.3354 1.9520 1924.9 -0.0075393 1730.5 0.19611 6.7040e-05 14916. 373.41 395.38 3.7680 0.80878 0.99734 164.60 2.6752 3.1780 0.0033033
-155.62 0.00026248 9.7227e-07 -134.79 -134.79 -0.78185 700.30 0.0014280 -134.79 -134.79 -0.78185 1.3352 1.9534 1918.1 -0.0075302 1664.9 0.19564 8.1666e-05 12245. 374.22 396.38 3.7377 0.81232 1.0009 165.24 2.6157 3.2055 0.0033595
-154.62 0.00032125 1.1797e-06 -132.83 -132.83 -0.76529 699.29 0.0014300 -132.83 -132.83 -0.76530 1.3350 1.9548 1911.3 -0.0075209 1603.3 0.19516 9.9109e-05 10090. 375.03 397.38 3.7081 0.81585 1.0044 165.87 2.5580 3.2330 0.0034160
-153.62 0.00039171 1.4262e-06 -130.88 -130.88 -0.74886 698.27 0.0014321 -130.88 -130.88 -0.74887 1.3349 1.9563 1904.5 -0.0075114 1545.3 0.19468 0.00011984 8344.6 375.85 398.39 3.6792 0.81935 1.0079 166.50 2.5022 3.2606 0.0034727
-152.62 0.00047590 1.7181e-06 -128.92 -128.92 -0.73256 697.26 0.0014342 -128.92 -128.92 -0.73256 1.3348 1.9577 1897.8 -0.0075019 1490.6 0.19419 0.00014439 6925.9 376.67 399.40 3.6509 0.82284 1.0114 167.13 2.4481 3.2881 0.0035298
-151.62 0.00057613 2.0624e-06 -126.96 -126.96 -0.71637 696.25 0.0014363 -126.96 -126.96 -0.71638 1.3346 1.9592 1891.0 -0.0074922 1438.9 0.19370 0.00017336 5768.4 377.49 400.41 3.6232 0.82631 1.0149 167.76 2.3957 3.3156 0.0035872
-150.62 0.00069507 2.4675e-06 -125.00 -125.00 -0.70031 695.24 0.0014384 -125.00 -125.00 -0.70032 1.3345 1.9606 1884.2 -0.0074824 1390.2 0.19320 0.00020744 4820.7 378.32 401.42 3.5962 0.82976 1.0183 168.38 2.3448 3.3431 0.0036448
-149.62 0.00083574 2.9423e-06 -123.04 -123.04 -0.68436 694.23 0.0014404 -123.04 -123.04 -0.68438 1.3345 1.9621 1877.4 -0.0074724 1344.0 0.19270 0.00024740 4042.0 379.15 402.44 3.5697 0.83319 1.0218 169.00 2.2956 3.3706 0.0037027
-148.62 0.0010016 3.4973e-06 -121.08 -121.08 -0.66853 693.22 0.0014425 -121.08 -121.08 -0.66855 1.3344 1.9636 1870.7 -0.0074623 1300.3 0.19220 0.00029412 3400.0 379.99 403.47 3.5438 0.83661 1.0252 169.62 2.2478 3.3982 0.0037610
-147.62 0.0011965 4.1439e-06 -119.11 -119.11 -0.65282 692.21 0.0014447 -119.11 -119.11 -0.65284 1.3343 1.9651 1863.9 -0.0074521 1258.9 0.19169 0.00034856 2869.0 380.83 404.49 3.5185 0.84001 1.0286 170.24 2.2014 3.4257 0.0038195
-146.62 0.0014249 4.8950e-06 -117.15 -117.15 -0.63722 691.20 0.0014468 -117.15 -117.15 -0.63724 1.3343 1.9666 1857.2 -0.0074417 1219.6 0.19117 0.00041181 2428.3 381.67 405.52 3.4938 0.84340 1.0320 170.85 2.1565 3.4532 0.0038783
-145.62 0.0016917 5.7651e-06 -115.18 -115.18 -0.62173 690.19 0.0014489 -115.18 -115.18 -0.62175 1.3343 1.9682 1850.4 -0.0074312 1182.3 0.19066 0.00048510 2061.4 382.51 406.56 3.4695 0.84677 1.0353 171.46 2.1128 3.4807 0.0039374
-144.62 0.0020026 6.7701e-06 -113.21 -113.21 -0.60634 689.18 0.0014510 -113.21 -113.21 -0.60637 1.3343 1.9697 1843.7 -0.0074206 1146.8 0.19014 0.00056976 1755.1 383.36 407.59 3.4458 0.85012 1.0387 172.07 2.0705 3.5082 0.0039967
-143.62 0.0023637 7.9278e-06 -111.24 -111.24 -0.59107 688.17 0.0014531 -111.24 -111.24 -0.59110 1.3343 1.9713 1836.9 -0.0074098 1113.0 0.18962 0.00066731 1498.6 384.21 408.63 3.4226 0.85346 1.0420 172.68 2.0294 3.5358 0.0040564
-142.62 0.0027820 9.2577e-06 -109.27 -109.27 -0.57589 687.16 0.0014553 -109.27 -109.27 -0.57593 1.3343 1.9728 1830.2 -0.0073988 1080.8 0.18909 0.00077939 1283.1 385.07 409.68 3.3999 0.85679 1.0454 173.28 1.9896 3.5633 0.0041164
-141.62 0.0032653 1.0781e-05 -107.29 -107.29 -0.56083 686.15 0.0014574 -107.30 -107.30 -0.56087 1.3343 1.9744 1823.5 -0.0073878 1050.1 0.18856 0.00090784 1101.5 385.93 410.72 3.3777 0.86011 1.0487 173.88 1.9508 3.5908 0.0041766
-140.62 0.0038222 1.2523e-05 -105.32 -105.31 -0.54586 685.14 0.0014596 -105.32 -105.32 -0.54591 1.3344 1.9760 1816.7 -0.0073765 1020.7 0.18803 0.0010547 948.16 386.79 411.77 3.3560 0.86341 1.0520 174.48 1.9133 3.6183 0.0042372
-139.62 0.0044623 1.4508e-05 -103.34 -103.34 -0.53099 684.13 0.0014617 -103.34 -103.34 -0.53105 1.3344 1.9776 1810.0 -0.0073651 992.74 0.18749 0.0012221 818.26 387.65 412.83 3.3347 0.86670 1.0553 175.08 1.8768 3.6459 0.0042980
-138.62 0.0051963 1.6766e-05 -101.36 -101.36 -0.51622 683.12 0.0014639 -101.37 -101.37 -0.51629 1.3345 1.9792 1803.3 -0.0073536 965.97 0.18695 0.0014125 707.94 388.52 413.88 3.3139 0.86998 1.0586 175.67 1.8413 3.6734 0.0043592
-137.62 0.0060358 1.9328e-05 -99.377 -99.376 -0.50155 682.11 0.0014660 -99.386 -99.386 -0.50162 1.3346 1.9808 1796.6 -0.0073419 940.35 0.18641 0.0016287 614.00 389.39 414.94 3.2935 0.87325 1.0619 176.26 1.8069 3.7009 0.0044206
-136.62 0.0069938 2.2228e-05 -97.394 -97.393 -0.48697 681.10 0.0014682 -97.404 -97.404 -0.48705 1.3347 1.9825 1789.9 -0.0073301 915.81 0.18586 0.0018733 533.80 390.26 416.00 3.2735 0.87650 1.0651 176.85 1.7734 3.7284 0.0044823
-135.62 0.0080843 2.5502e-05 -95.409 -95.408 -0.47248 680.09 0.0014704 -95.421 -95.421 -0.47258 1.3348 1.9841 1783.2 -0.0073180 892.30 0.18531 0.0021497 465.17 391.14 417.07 3.2540 0.87975 1.0684 177.44 1.7409 3.7559 0.0045443
-134.62 0.0093230 2.9193e-05 -93.422 -93.421 -0.45809 679.08 0.0014726 -93.436 -93.436 -0.45820 1.3350 1.9858 1776.5 -0.0073059 869.75 0.18476 0.0024613 406.30 392.02 418.14 3.2348 0.88299 1.0716 178.02 1.7093 3.7834 0.0046066
-133.62 0.010727 3.3342e-05 -91.433 -91.432 -0.44379 678.07 0.0014748 -91.450 -91.449 -0.44391 1.3351 1.9875 1769.8 -0.0072935 848.11 0.18421 0.0028116 355.67 392.91 419.21 3.2161 0.88622 1.0749 178.61 1.6786 3.8109 0.0046691
-132.62 0.012315 3.7998e-05 -89.443 -89.442 -0.42957 677.06 0.0014770 -89.461 -89.461 -0.42971 1.3353 1.9892 1763.1 -0.0072810 827.32 0.18365 0.0032049 312.03 393.79 420.29 3.1977 0.88944 1.0781 179.19 1.6488 3.8385 0.0047320
-131.62 0.014106 4.3212e-05 -87.450 -87.449 -0.41544 676.04 0.0014792 -87.471 -87.471 -0.41560 1.3354 1.9909 1756.4 -0.0072684 807.34 0.18309 0.0036453 274.33 394.68 421.36 3.1798 0.89266 1.0813 179.76 1.6197 3.8660 0.0047951
-130.62 0.016124 4.9038e-05 -85.456 -85.454 -0.40140 675.03 0.0014814 -85.479 -85.479 -0.40157 1.3356 1.9926 1749.7 -0.0072555 788.12 0.18253 0.0041375 241.69 395.58 422.44 3.1622 0.89586 1.0846 180.34 1.5915 3.8935 0.0048586
-129.62 0.018392 5.5536e-05 -83.459 -83.458 -0.38744 674.02 0.0014836 -83.486 -83.486 -0.38763 1.3358 1.9944 1743.0 -0.0072425 769.63 0.18196 0.0046867 213.37 396.47 423.53 3.1450 0.89906 1.0878 180.91 1.5641 3.9210 0.0049223
-128.62 0.020935 6.2770e-05 -81.461 -81.459 -0.37356 673.01 0.0014859 -81.491 -81.490 -0.37378 1.3360 1.9961 1736.3 -0.0072294 751.83 0.18140 0.0052981 188.75 397.37 424.62 3.1281 0.90226 1.0910 181.48 1.5374 3.9485 0.0049863
-127.62 0.023783 7.0807e-05 -79.460 -79.458 -0.35977 672.00 0.0014881 -79.494 -79.493 -0.36001 1.3363 1.9979 1729.6 -0.0072160 734.67 0.18083 0.0059776 167.29 398.27 425.71 3.1116 0.90545 1.0942 182.05 1.5114 3.9760 0.0050506
-126.62 0.026966 7.9720e-05 -77.457 -77.454 -0.34605 670.98 0.0014904 -77.495 -77.495 -0.34632 1.3365 1.9997 1722.9 -0.0072025 718.14 0.18025 0.0067313 148.56 399.18 426.80 3.0954 0.90863 1.0974 182.62 1.4861 4.0035 0.0051152
-125.62 0.030515 8.9587e-05 -75.452 -75.449 -0.33241 669.97 0.0014926 -75.494 -75.494 -0.33272 1.3368 2.0015 1716.2 -0.0071888 702.18 0.17968 0.0075660 132.17 400.09 427.89 3.0795 0.91181 1.1006 183.18 1.4615 4.0310 0.0051800
-124.62 0.034467 0.00010049 -73.444 -73.441 -0.31885 668.95 0.0014949 -73.492 -73.492 -0.31919 1.3371 2.0033 1709.5 -0.0071749 686.79 0.17910 0.0084885 117.81 401.00 428.99 3.0640 0.91499 1.1038 183.74 1.4375 4.0584 0.0052452
-123.62 0.038859 0.00011252 -71.434 -71.431 -0.30536 667.94 0.0014971 -71.488 -71.487 -0.30574 1.3374 2.0051 1702.8 -0.0071609 671.93 0.17852 0.0095065 105.19 401.91 430.10 3.0488 0.91816 1.1070 184.30 1.4141 4.0859 0.0053106
-122.62 0.043731 0.00012577 -69.422 -69.418 -0.29195 666.92 0.0014994 -69.482 -69.481 -0.29237 1.3377 2.0070 1696.2 -0.0071466 657.57 0.17794 0.010628 94.092 402.83 431.20 3.0339 0.92134 1.1102 184.86 1.3913 4.1134 0.0053764
-121.62 0.049128 0.00014034 -67.408 -67.403 -0.27861 665.91 0.0015017 -67.474 -67.473 -0.27907 1.3380 2.0089 1689.5 -0.0071322 643.70 0.17736 0.011861 84.309 403.75 432.31 3.0193 0.92451 1.1134 185.41 1.3691 4.1409 0.0054424
-120.62 0.055096 0.00015633 -65.390 -65.385 -0.26534 664.89 0.0015040 -65.464 -65.463 -0.26585 1.3384 2.0107 1682.8 -0.0071176 630.28 0.17678 0.013215 75.669 404.67 433.42 3.0050 0.92767 1.1166 185.96 1.3475 4.1683 0.0055087
-119.62 0.061684 0.00017386 -63.371 -63.365 -0.25214 663.87 0.0015063 -63.452 -63.452 -0.25271 1.3387 2.0126 1676.1 -0.0071028 617.30 0.17619 0.014700 68.027 405.60 434.53 2.9909 0.93084 1.1198 186.51 1.3264 4.1958 0.0055752
-118.62 0.068946 0.00019304 -61.348 -61.342 -0.23901 662.86 0.0015086 -61.439 -61.438 -0.23963 1.3391 2.0146 1669.4 -0.0070878 604.74 0.17560 0.016325 61.255 406.53 435.64 2.9772 0.93401 1.1231 187.06 1.3058 4.2233 0.0056421
-117.62 0.076937 0.00021401 -59.323 -59.316 -0.22595 661.84 0.0015109 -59.423 -59.422 -0.22663 1.3395 2.0165 1662.8 -0.0070726 592.58 0.17501 0.018101 55.245 407.46 436.76 2.9638 0.93718 1.1263 187.60 1.2857 4.2507 0.0057092
-116.62 0.085718 0.00023688 -57.295 -57.287 -0.21295 660.82 0.0015133 -57.406 -57.405 -0.21370 1.3400 2.0184 1656.1 -0.0070573 580.80 0.17442 0.020040 49.901 408.39 437.88 2.9506 0.94035 1.1295 188.14 1.2660 4.2782 0.0057767
-115.62 0.095353 0.00026180 -55.265 -55.256 -0.20002 659.80 0.0015156 -55.386 -55.385 -0.20084 1.3404 2.0204 1649.4 -0.0070417 569.38 0.17383 0.022152 45.142 409.33 439.01 2.9377 0.94352 1.1327 188.68 1.2468 4.3056 0.0058444
-114.62 0.10591 0.00028891 -53.231 -53.221 -0.18715 658.78 0.0015180 -53.365 -53.364 -0.18805 1.3409 2.0224 1642.7 -0.0070260 558.32 0.17323 0.024451 40.898 410.27 440.13 2.9250 0.94669 1.1360 189.22 1.2281 4.3330 0.0059123
-113.62 0.11746 0.00031837 -51.194 -51.183 -0.17434 657.76 0.0015203 -51.342 -51.340 -0.17533 1.3413 2.0244 1636.0 -0.0070100 547.59 0.17264 0.026949 37.107 411.21 441.26 2.9126 0.94987 1.1392 189.75 1.2097 4.3604 0.0059806
-112.62 0.13008 0.00035033 -49.154 -49.143 -0.16160 656.73 0.0015227 -49.316 -49.315 -0.16267 1.3418 2.0264 1629.3 -0.0069938 537.18 0.17204 0.029661 33.715 412.16 442.39 2.9005 0.95305 1.1424 190.28 1.1918 4.3879 0.0060491
-111.62 0.14384 0.00038496 -47.112 -47.098 -0.14891 655.71 0.0015251 -47.289 -47.287 -0.15008 1.3424 2.0285 1622.7 -0.0069774 527.08 0.17144 0.032600 30.675 413.10 443.53 2.8885 0.95623 1.1457 190.81 1.1742 4.4153 0.0061180
-110.62 0.15884 0.00042244 -45.065 -45.051 -0.13628 654.69 0.0015274 -45.259 -45.258 -0.13755 1.3429 2.0305 1616.0 -0.0069609 517.28 0.17084 0.035781 27.948 414.06 444.66 2.8769 0.95942 1.1490 191.34 1.1570 4.4427 0.0061871
-109.62 0.17516 0.00046296 -43.016 -42.999 -0.12371 653.66 0.0015298 -43.228 -43.226 -0.12509 1.3435 2.0326 1609.3 -0.0069441 507.76 0.17024 0.039220 25.497 415.01 445.80 2.8654 0.96261 1.1522 191.86 1.1402 4.4701 0.0062564
-108.62 0.19290 0.00050669 -40.962 -40.945 -0.11119 652.64 0.0015322 -41.194 -41.192 -0.11269 1.3441 2.0347 1602.6 -0.0069271 498.51 0.16964 0.042933 23.292 415.96 446.94 2.8542 0.96581 1.1555 192.38 1.1236 4.4974 0.0063261
-107.62 0.21215 0.00055383 -38.906 -38.886 -0.098727 651.61 0.0015347 -39.158 -39.156 -0.10036 1.3447 2.0369 1595.9 -0.0069098 489.52 0.16903 0.046937 21.305 416.92 448.09 2.8433 0.96901 1.1588 192.90 1.1075 4.5248 0.0063960
-106.62 0.23301 0.00060461 -36.845 -36.824 -0.086317 650.58 0.0015371 -37.120 -37.118 -0.088082 1.3453 2.0390 1589.2 -0.0068924 480.79 0.16843 0.051250 19.512 417.88 449.23 2.8325 0.97222 1.1621 193.41 1.0916 4.5522 0.0064662
-105.62 0.25561 0.00065922 -34.781 -34.758 -0.073958 649.55 0.0015395 -35.080 -35.078 -0.075868 1.3460 2.0412 1582.6 -0.0068747 472.30 0.16782 0.055891 17.892 418.85 450.38 2.8220 0.97544 1.1655 193.93 1.0760 4.5795 0.0065367
-104.62 0.28004 0.00071790 -32.713 -32.687 -0.061650 648.52 0.0015420 -33.038 -33.035 -0.063714 1.3467 2.0434 1575.9 -0.0068569 464.04 0.16721 0.060878 16.426 419.81 451.53 2.8116 0.97867 1.1688 194.44 1.0608 4.6069 0.0066074
-103.62 0.30643 0.00078087 -30.641 -30.613 -0.049391 647.49 0.0015444 -30.994 -30.991 -0.051619 1.3474 2.0456 1569.2 -0.0068387 456.00 0.16660 0.066231 15.099 420.78 452.68 2.8015 0.98191 1.1722 194.94 1.0458 4.6342 0.0066785
-102.62 0.33490 0.00084838 -28.565 -28.534 -0.037180 646.46 0.0015469 -28.947 -28.944 -0.039582 1.3481 2.0478 1562.5 -0.0068204 448.18 0.16600 0.071971 13.894 421.75 453.84 2.7916 0.98516 1.1755 195.44 1.0310 4.6615 0.0067498
-101.62 0.36558 0.00092067 -26.484 -26.451 -0.025015 645.43 0.0015494 -26.898 -26.894 -0.027602 1.3489 2.0501 1555.8 -0.0068018 440.57 0.16539 0.078120 12.801 422.73 454.99 2.7818 0.98841 1.1789 195.95 1.0166 4.6888 0.0068213
-100.62 0.39862 0.00099801 -24.400 -24.363 -0.012896 644.39 0.0015519 -24.847 -24.843 -0.015678 1.3497 2.0524 1549.1 -0.0067830 433.16 0.16478 0.084699 11.807 423.70 456.15 2.7723 0.99168 1.1823 196.44 1.0024 4.7161 0.0068932
-99.625 0.43414 0.0010807 -22.310 -22.270 -0.00082034 643.36 0.0015544 -22.794 -22.789 -0.0038103 1.3505 2.0547 1542.4 -0.0067639 425.95 0.16416 0.091731 10.901 424.68 457.31 2.7630 0.99496 1.1858 196.94 0.98838 4.7434 0.0069653
-98.625 0.47230 0.0011689 -20.216 -20.173 0.011212 642.32 0.0015569 -20.738 -20.733 0.0080027 1.3514 2.0570 1535.7 -0.0067447 418.92 0.16355 0.099240 10.077 425.66 458.48 2.7538 0.99825 1.1892 197.43 0.97464 4.7707 0.0070377
-97.625 0.51325 0.0012630 -18.118 -18.070 0.023203 641.28 0.0015594 -18.680 -18.674 0.019762 1.3522 2.0594 1529.0 -0.0067251 412.07 0.16294 0.10725 9.3239 426.65 459.64 2.7448 1.0016 1.1927 197.92 0.96112 4.7979 0.0071103
-96.625 0.55714 0.0013632 -16.014 -15.963 0.035154 640.24 0.0015619 -16.620 -16.614 0.031467 1.3531 2.0618 1522.3 -0.0067053 405.39 0.16233 0.11579 8.6365 427.63 460.81 2.7360 1.0049 1.1962 198.40 0.94783 4.8251 0.0071832
-95.625 0.60416 0.0014700 -13.905 -13.850 0.047066 639.20 0.0015645 -14.557 -14.550 0.043120 1.3540 2.0642 1515.7 -0.0066853 398.88 0.16171 0.12488 8.0078 428.62 461.98 2.7274 1.0082 1.1997 198.88 0.93475 4.8524 0.0072564
-94.625 0.65446 0.0015835 -11.791 -11.731 0.058940 638.16 0.0015670 -12.491 -12.484 0.054721 1.3550 2.0667 1509.0 -0.0066650 392.53 0.16110 0.13455 7.4323 429.61 463.15 2.7189 1.0116 1.2032 199.36 0.92188 4.8796 0.0073299
-93.625 0.70822 0.0017041 -9.6722 -9.6071 0.070777 637.12 0.0015696 -10.424 -10.416 0.066271 1.3560 2.0691 1502.3 -0.0066444 386.34 0.16048 0.14482 6.9050 430.60 464.32 2.7107 1.0149 1.2068 199.83 0.90921 4.9068 0.0074036
-92.625 0.76564 0.0018321 -7.5475 -7.4771 0.082579 636.07 0.0015722 -8.3535 -8.3452 0.077771 1.3570 2.0716 1495.6 -0.0066236 380.31 0.15987 0.15573 6.4212 431.60 465.49 2.7025 1.0183 1.2104 200.30 0.89673 4.9340 0.0074776
-91.625 0.82689 0.0019679 -5.4172 -5.3412 0.094347 635.02 0.0015747 -6.2808 -6.2719 0.089220 1.3580 2.0742 1488.9 -0.0066025 374.41 0.15925 0.16731 5.9769 432.59 466.67 2.6946 1.0217 1.2140 200.77 0.88445 4.9611 0.0075518
-90.625 0.89218 0.0021117 -3.2811 -3.1991 0.10608 633.98 0.0015773 -4.2056 -4.1959 0.10062 1.3591 2.0767 1482.2 -0.0065811 368.66 0.15864 0.17958 5.5685 433.59 467.84 2.6868 1.0251 1.2177 201.24 0.87236 4.9883 0.0076263
-89.625 0.96172 0.0022641 -1.1391 -1.0507 0.11779 632.93 0.0015800 -2.1279 -2.1174 0.11197 1.3602 2.0793 1475.5 -0.0065595 363.05 0.15802 0.19258 5.1928 434.59 469.02 2.6791 1.0285 1.2213 201.70 0.86045 5.0154 0.0077011
-88.625 1.0357 0.0024253 1.0090 1.1043 0.12946 631.88 0.0015826 -0.047516 -0.036215 0.12328 1.3613 2.0819 1468.8 -0.0065375 357.56 0.15740 0.20633 4.8466 435.59 470.20 2.6717 1.0320 1.2250 202.15 0.84873 5.0425 0.0077761
-87.625 1.1144 0.0025957 3.1634 3.2659 0.14110 630.83 0.0015852 2.0355 2.0476 0.13454 1.3625 2.0846 1462.1 -0.0065153 352.21 0.15679 0.22087 4.5276 436.60 471.39 2.6643 1.0354 1.2288 202.61 0.83718 5.0696 0.0078514
-86.625 1.1979 0.0027757 5.3243 5.4344 0.15272 629.77 0.0015879 4.1211 4.1342 0.14575 1.3637 2.0873 1455.4 -0.0064928 346.98 0.15617 0.23623 4.2331 437.61 472.57 2.6571 1.0389 1.2325 203.06 0.82580 5.0967 0.0079270
-85.625 1.2866 0.0029657 7.4917 7.6100 0.16431 628.72 0.0015905 6.2094 6.2235 0.15691 1.3649 2.0900 1448.8 -0.0064701 341.87 0.15555 0.25245 3.9612 438.61 473.75 2.6501 1.0424 1.2363 203.50 0.81460 5.1237 0.0080028
-84.625 1.3806 0.0031660 9.6659 9.7929 0.17587 627.66 0.0015932 8.3004 8.3155 0.16803 1.3661 2.0927 1442.1 -0.0064470 336.87 0.15494 0.26956 3.7097 439.63 474.94 2.6432 1.0460 1.2402 203.95 0.80356 5.1508 0.0080789
-83.625 1.4803 0.0033772 11.847 11.983 0.18741 626.60 0.0015959 10.394 10.410 0.17911 1.3674 2.0955 1435.4 -0.0064236 331.99 0.15432 0.28760 3.4771 440.64 476.13 2.6364 1.0495 1.2440 204.38 0.79269 5.1778 0.0081553
-82.625 1.5858 0.0035996 14.035 14.181 0.19893 625.54 0.0015986 12.491 12.508 0.19014 1.3687 2.0983 1428.7 -0.0063999 327.22 0.15370 0.30659 3.2616 441.65 477.31 2.6298 1.0531 1.2479 204.82 0.78199 5.2048 0.0082319
-81.625 1.6975 0.0038336 16.231 16.387 0.21042 624.48 0.0016013 14.590 14.609 0.20113 1.3700 2.1012 1422.0 -0.0063759 322.55 0.15309 0.32659 3.0619 442.67 478.50 2.6233 1.0567 1.2519 205.25 0.77144 5.2318 0.0083088
-80.625 1.8155 0.0040797 18.434 18.601 0.22189 623.42 0.0016041 16.692 16.712 0.21208 1.3714 2.1041 1415.4 -0.0063516 317.99 0.15247 0.34763 2.8766 443.69 479.70 2.6169 1.0603 1.2558 205.67 0.76106 5.2587 0.0083860
-79.625 1.9402 0.0043383 20.645 20.823 0.23335 622.36 0.0016068 18.797 18.819 0.22299 1.3728 2.1070 1408.7 -0.0063270 313.52 0.15186 0.36974 2.7046 444.71 480.89 2.6106 1.0639 1.2598 206.10 0.75083 5.2857 0.0084634
-78.625 2.0718 0.0046099 22.863 23.054 0.24478 621.29 0.0016096 20.905 20.928 0.23385 1.3742 2.1099 1402.0 -0.0063021 309.15 0.15124 0.39296 2.5448 445.73 482.08 2.6045 1.0676 1.2639 206.51 0.74076 5.3126 0.0085411
-77.625 2.2107 0.0048950 25.090 25.293 0.25620 620.22 0.0016123 23.016 23.040 0.24468 1.3757 2.1129 1395.3 -0.0062768 304.88 0.15062 0.41735 2.3961 446.75 483.27 2.5985 1.0712 1.2680 206.93 0.73084 5.3395 0.0086190
-76.625 2.3571 0.0051940 27.325 27.542 0.26760 619.15 0.0016151 25.130 25.156 0.25546 1.3772 2.1159 1388.7 -0.0062512 300.69 0.15001 0.44292 2.2577 447.78 484.47 2.5926 1.0749 1.2721 207.34 0.72107 5.3664 0.0086972
-75.625 2.5113 0.0055074 29.568 29.799 0.27898 618.08 0.0016179 27.247 27.275 0.26620 1.3787 2.1190 1382.0 -0.0062253 296.59 0.14939 0.46974 2.1288 448.81 485.67 2.5869 1.0787 1.2762 207.74 0.71146 5.3933 0.0087757
-74.625 2.6736 0.0058357 31.820 32.066 0.29036 617.01 0.0016207 29.366 29.396 0.27691 1.3802 2.1221 1375.4 -0.0061990 292.58 0.14878 0.49783 2.0087 449.83 486.86 2.5812 1.0824 1.2804 208.14 0.70200 5.4201 0.0088544
-73.625 2.8444 0.0061793 34.081 34.342 0.30172 615.93 0.0016236 31.489 31.521 0.28758 1.3818 2.1252 1368.7 -0.0061724 288.65 0.14816 0.52725 1.8966 450.86 488.06 2.5757 1.0862 1.2847 208.54 0.69268 5.4469 0.0089334
-72.625 3.0240 0.0065389 36.351 36.628 0.31306 614.85 0.0016264 33.615 33.649 0.29821 1.3834 2.1284 1362.0 -0.0061454 284.81 0.14755 0.55804 1.7920 451.90 489.26 2.5703 1.0900 1.2889 208.93 0.68351 5.4737 0.0090126
-71.625 3.2127 0.0069149 38.629 38.925 0.32440 613.78 0.0016293 35.745 35.781 0.30880 1.3851 2.1316 1355.4 -0.0061181 281.03 0.14694 0.59024 1.6942 452.93 490.46 2.5650 1.0938 1.2932 209.32 0.67448 5.5005 0.0090922
-70.625 3.4108 0.0073078 40.918 41.231 0.33573 612.69 0.0016321 37.877 37.915 0.31935 1.3867 2.1349 1348.7 -0.0060904 277.34 0.14632 0.62390 1.6028 453.96 491.66 2.5598 1.0976 1.2976 209.70 0.66560 5.5273 0.0091720
-69.625 3.6187 0.0077182 43.216 43.548 0.34704 611.61 0.0016350 40.013 40.053 0.32987 1.3884 2.1382 1342.1 -0.0060624 273.72 0.14571 0.65906 1.5173 455.00 492.86 2.5547 1.1015 1.3020 210.08 0.65687 5.5540 0.0092520
-68.625 3.8367 0.0081466 45.523 45.876 0.35835 610.53 0.0016379 42.152 42.195 0.34036 1.3902 2.1415 1335.5 -0.0060339 270.17 0.14510 0.69577 1.4372 456.04 494.06 2.5497 1.1054 1.3064 210.45 0.64827 5.5807 0.0093324
-67.625 4.0652 0.0085936 47.841 48.215 0.36966 609.44 0.0016409 44.294 44.340 0.35080 1.3919 2.1449 1328.8 -0.0060051 266.69 0.14449 0.73408 1.3622 457.08 495.26 2.5448 1.1093 1.3109 210.82 0.63981 5.6074 0.0094130
-66.625 4.3046 0.0090597 50.169 50.565 0.38096 608.35 0.0016438 46.439 46.488 0.36122 1.3937 2.1483 1322.2 -0.0059760 263.28 0.14388 0.77404 1.2919 458.12 496.46 2.5400 1.1133 1.3154 211.18 0.63150 5.6341 0.0094939
-65.625 4.5551 0.0095455 52.507 52.926 0.39225 607.26 0.0016467 48.588 48.640 0.37160 1.3955 2.1518 1315.6 -0.0059464 259.93 0.14327 0.81570 1.2259 459.16 497.67 2.5353 1.1172 1.3200 211.54 0.62332 5.6608 0.0095750
-64.625 4.8173 0.010052 54.856 55.299 0.40354 606.16 0.0016497 50.740 50.795 0.38195 1.3974 2.1553 1308.9 -0.0059164 256.65 0.14266 0.85910 1.1640 460.21 498.87 2.5307 1.1212 1.3246 211.89 0.61527 5.6874 0.0096564
-63.625 5.0915 0.010579 57.216 57.684 0.41483 605.07 0.0016527 52.896 52.954 0.39226 1.3993 2.1588 1302.3 -0.0058861 253.42 0.14205 0.90429 1.1058 461.25 500.07 2.5262 1.1252 1.3293 212.24 0.60736 5.7140 0.0097382
-62.625 5.3781 0.011127 59.587 60.081 0.42612 603.97 0.0016557 55.055 55.117 0.40254 1.4012 2.1624 1295.7 -0.0058553 250.26 0.14144 0.95134 1.0511 462.30 501.28 2.5218 1.1293 1.3340 212.58 0.59958 5.7406 0.0098201
-61.625 5.6774 0.011697 61.969 62.491 0.43741 602.87 0.0016587 57.218 57.283 0.41279 1.4031 2.1660 1289.1 -0.0058241 247.16 0.14084 1.0003 0.99972 463.35 502.48 2.5175 1.1333 1.3387 212.92 0.59194 5.7672 0.0099024
-60.625 5.9899 0.012290 64.362 64.913 0.44870 601.77 0.0016618 59.385 59.453 0.42301 1.4051 2.1697 1282.5 -0.0057925 244.12 0.14023 1.0512 0.95131 464.40 503.68 2.5133 1.1374 1.3435 213.26 0.58442 5.7938 0.0099850
-59.625 6.3160 0.012907 66.767 67.348 0.45999 600.66 0.0016648 61.554 61.627 0.43320 1.4071 2.1734 1275.9 -0.0057605 241.13 0.13962 1.1041 0.90573 465.45 504.89 2.5091 1.1415 1.3483 213.58 0.57704 5.8203 0.010068
-58.625 6.6561 0.013547 69.184 69.796 0.47128 599.55 0.0016679 63.728 63.805 0.44335 1.4091 2.1772 1269.3 -0.0057280 238.19 0.13902 1.1591 0.86277 466.50 506.09 2.5051 1.1457 1.3532 213.90 0.56978 5.8468 0.010151
-57.625 7.0107 0.014212 71.614 72.258 0.48258 598.44 0.0016710 65.905 65.986 0.45348 1.4111 2.1810 1262.7 -0.0056951 235.31 0.13842 1.2161 0.82228 467.55 507.30 2.5011 1.1498 1.3581 214.22 0.56265 5.8733 0.010234
-56.625 7.3801 0.014902 74.055 74.733 0.49388 597.33 0.0016741 68.086 68.172 0.46358 1.4132 2.1848 1256.1 -0.0056617 232.48 0.13781 1.2754 0.78408 468.60 508.50 2.4972 1.1540 1.3631 214.53 0.55564 5.8998 0.010318
-55.625 7.7648 0.015618 76.509 77.223 0.50519 596.22 0.0016772 70.271 70.361 0.47364 1.4153 2.1887 1249.5 -0.0056279 229.69 0.13721 1.3369 0.74802 469.66 509.71 2.4934 1.1582 1.3681 214.84 0.54875 5.9263 0.010402
-54.625 8.1652 0.016360 78.975 79.726 0.51650 595.10 0.0016804 72.460 72.554 0.48368 1.4174 2.1927 1242.9 -0.0055937 226.96 0.13661 1.4006 0.71396 470.72 510.91 2.4897 1.1624 1.3731 215.14 0.54199 5.9527 0.010486
-53.625 8.5819 0.017130 81.455 82.244 0.52782 593.98 0.0016836 74.652 74.752 0.49369 1.4196 2.1967 1236.3 -0.0055589 224.27 0.13601 1.4667 0.68178 471.77 512.11 2.4860 1.1667 1.3782 215.43 0.53535 5.9792 0.010571
-52.625 9.0151 0.017927 83.947 84.776 0.53915 592.86 0.0016867 76.849 76.954 0.50368 1.4218 2.2007 1229.8 -0.0055237 221.63 0.13541 1.5353 0.65136 472.83 513.32 2.4824 1.1710 1.3834 215.72 0.52882 6.0056 0.010656
-51.625 9.4655 0.018753 86.453 87.324 0.55049 591.73 0.0016900 79.049 79.159 0.51363 1.4240 2.2048 1223.2 -0.0054880 219.04 0.13482 1.6062 0.62258 473.89 514.52 2.4789 1.1752 1.3886 216.00 0.52241 6.0320 0.010741
-50.625 9.9335 0.019608 88.973 89.886 0.56184 590.60 0.0016932 81.253 81.369 0.52356 1.4262 2.2089 1216.6 -0.0054519 216.48 0.13422 1.6797 0.59534 474.95 515.73 2.4755 1.1796 1.3938 216.28 0.51612 6.0584 0.010827
-49.625 10.419 0.020493 91.506 92.464 0.57319 589.47 0.0016964 83.462 83.584 0.53347 1.4285 2.2131 1210.1 -0.0054152 213.98 0.13363 1.7558 0.56954 476.01 516.93 2.4722 1.1839 1.3991 216.55 0.50994 6.0848 0.010913
-48.625 10.924 0.021409 94.054 95.058 0.58457 588.34 0.0016997 85.674 85.802 0.54334 1.4308 2.2173 1203.5 -0.0053780 211.51 0.13303 1.8345 0.54510 477.07 518.13 2.4689 1.1883 1.4044 216.82 0.50387 6.1112 0.010999
-47.625 11.448 0.022356 96.615 97.667 0.59595 587.20 0.0017030 87.891 88.025 0.55319 1.4331 2.2216 1196.9 -0.0053403 209.08 0.13244 1.9159 0.52194 478.14 519.33 2.4657 1.1927 1.4098 217.08 0.49792 6.1375 0.011085
-46.625 11.991 0.023335 99.191 100.29 0.60734 586.06 0.0017063 90.111 90.252 0.56302 1.4354 2.2259 1190.4 -0.0053020 206.69 0.13185 2.0001 0.49997 479.20 520.53 2.4625 1.1971 1.4153 217.33 0.49207 6.1639 0.011172
-45.625 12.554 0.024347 101.78 102.94 0.61875 584.92 0.0017096 92.336 92.484 0.57282 1.4378 2.2303 1183.8 -0.0052633 204.34 0.13126 2.0872 0.47912 480.27 521.74 2.4594 1.2015 1.4207 217.58 0.48633 6.1902 0.011259
-44.625 13.137 0.025393 104.39 105.59 0.63018 583.77 0.0017130 94.565 94.720 0.58260 1.4402 2.2347 1177.3 -0.0052240 202.03 0.13067 2.1771 0.45933 481.33 522.94 2.4564 1.2060 1.4263 217.82 0.48069 6.2165 0.011347
-43.625 13.741 0.026473 107.01 108.27 0.64162 582.62 0.0017164 96.799 96.961 0.59235 1.4426 2.2392 1170.7 -0.0051841 199.75 0.13008 2.2700 0.44053 482.40 524.14 2.4535 1.2104 1.4319 218.05 0.47516 6.2429 0.011435
-42.625 14.367 0.027589 109.64 110.96 0.65308 581.47 0.0017198 99.036 99.207 0.60208 1.4450 2.2437 1164.2 -0.0051437 197.51 0.12949 2.3659 0.42267 483.46 525.33 2.4506 1.2149 1.4375 218.28 0.46973 6.2692 0.011523
-41.625 15.015 0.028740 112.29 113.67 0.66455 580.32 0.0017232 101.28 101.46 0.61179 1.4475 2.2483 1157.7 -0.0051027 195.30 0.12891 2.4649 0.40569 484.53 526.53 2.4478 1.2195 1.4432 218.50 0.46440 6.2955 0.011612
-40.625 15.686 0.029928 114.96 116.40 0.67605 579.16 0.0017266 103.52 103.71 0.62147 1.4500 2.2529 1151.1 -0.0050611 193.13 0.12832 2.5671 0.38954 485.60 527.73 2.4450 1.2240 1.4489 218.72 0.45917 6.3218 0.011701
-39.625 16.380 0.031154 117.64 119.15 0.68756 578.00 0.0017301 105.78 105.97 0.63113 1.4525 2.2576 1144.6 -0.0050189 190.99 0.12774 2.6725 0.37418 486.67 528.93 2.4423 1.2286 1.4547 218.93 0.45403 6.3481 0.011790
-38.625 17.097 0.032418 120.34 121.91 0.69909 576.83 0.0017336 108.03 108.24 0.64077 1.4550 2.2623 1138.0 -0.0049761 188.88 0.12716 2.7813 0.35955 487.74 530.12 2.4397 1.2332 1.4606 219.13 0.44900 6.3744 0.011880
-37.625 17.838 0.033722 123.06 124.70 0.71064 575.66 0.0017371 110.29 110.51 0.65039 1.4576 2.2671 1131.5 -0.0049327 186.81 0.12658 2.8934 0.34562 488.81 531.32 2.4371 1.2378 1.4665 219.33 0.44405 6.4007 0.011970
-36.625 18.604 0.035065 125.79 127.50 0.72221 574.49 0.0017407 112.56 112.78 0.65999 1.4602 2.2719 1125.0 -0.0048887 184.76 0.12600 3.0089 0.33235 489.88 532.51 2.4346 1.2424 1.4724 219.52 0.43920 6.4270 0.012060
-35.625 19.395 0.036449 128.53 130.32 0.73381 573.32 0.0017442 114.83 115.06 0.66956 1.4628 2.2768 1118.5 -0.0048440 182.75 0.12542 3.1280 0.31969 490.95 533.70 2.4321 1.2471 1.4784 219.70 0.43444 6.4533 0.012151
-34.625 20.212 0.037876 131.30 133.16 0.74542 572.14 0.0017478 117.10 117.34 0.67912 1.4654 2.2818 1111.9 -0.0047987 180.76 0.12485 3.2506 0.30763 492.02 534.89 2.4297 1.2517 1.4845 219.88 0.42977 6.4797 0.012243
-33.625 21.056 0.039345 134.08 136.02 0.75706 570.96 0.0017514 119.38 119.63 0.68865 1.4681 2.2868 1105.4 -0.0047527 178.80 0.12427 3.3770 0.29612 493.09 536.08 2.4273 1.2564 1.4906 220.05 0.42519 6.5060 0.012334
-32.625 21.926 0.040857 136.88 138.90 0.76872 569.77 0.0017551 121.66 121.93 0.69817 1.4708 2.2918 1098.9 -0.0047061 176.87 0.12370 3.5071 0.28514 494.17 537.27 2.4250 1.2611 1.4968 220.21 0.42070 6.5323 0.012426
-31.625 22.823 0.042414 139.70 141.80 0.78041 568.58 0.0017588 123.95 124.23 0.70767 1.4735 2.2970 1092.3 -0.0046587 174.97 0.12313 3.6410 0.27465 495.24 538.46 2.4227 1.2659 1.5031 220.36 0.41629 6.5587 0.012519
-30.625 23.749 0.044016 142.53 144.72 0.79212 567.39 0.0017625 126.24 126.53 0.71714 1.4762 2.3021 1085.8 -0.0046107 173.09 0.12256 3.7787 0.26464 496.31 539.64 2.4205 1.2706 1.5094 220.51 0.41196 6.5850 0.012612
-29.625 24.703 0.045665 145.38 147.66 0.80386 566.19 0.0017662 128.54 128.84 0.72660 1.4790 2.3074 1079.3 -0.0045619 171.24 0.12200 3.9205 0.25507 497.38 540.83 2.4184 1.2754 1.5157 220.65 0.40772 6.6114 0.012706
-28.625 25.687 0.047361 148.25 150.62 0.81562 564.99 0.0017699 130.84 131.16 0.73604 1.4818 2.3126 1072.8 -0.0045124 169.42 0.12143 4.0663 0.24592 498.46 542.01 2.4162 1.2802 1.5222 220.79 0.40356 6.6378 0.012800
-27.625 26.700 0.049106 151.14 153.60 0.82741 563.78 0.0017737 133.15 133.48 0.74547 1.4846 2.3180 1066.2 -0.0044621 167.62 0.12087 4.2163 0.23717 499.53 543.19 2.4142 1.2850 1.5286 220.91 0.39947 6.6642 0.012894
-26.625 27.743 0.050900 154.05 156.60 0.83923 562.57 0.0017775 135.47 135.81 0.75487 1.4874 2.3234 1059.7 -0.0044111 165.84 0.12031 4.3705 0.22881 500.60 544.37 2.4122 1.2899 1.5352 221.03 0.39547 6.6906 0.012989
-25.625 28.817 0.052744 156.98 159.63 0.85107 561.36 0.0017814 137.78 138.14 0.76426 1.4902 2.3289 1053.2 -0.0043593 164.09 0.11975 4.5290 0.22080 501.68 545.55 2.4102 1.2947 1.5418 221.14 0.39154 6.7171 0.013084
-24.625 29.923 0.054639 159.92 162.67 0.86294 560.14 0.0017853 140.11 140.48 0.77363 1.4931 2.3344 1046.7 -0.0043067 162.36 0.11919 4.6918 0.21314 502.75 546.72 2.4083 1.2996 1.5485 221.25 0.38768 6.7436 0.013180
-23.625 31.061 0.056587 162.89 165.74 0.87485 558.92 0.0017892 142.44 142.82 0.78298 1.4960 2.3400 1040.1 -0.0042533 160.65 0.11863 4.8592 0.20580 503.82 547.90 2.4064 1.3045 1.5552 221.35 0.38391 6.7701 0.013277
-22.625 32.232 0.058588 165.87 168.83 0.88678 557.69 0.0017931 144.77 145.17 0.79232 1.4990 2.3457 1033.6 -0.0041990 158.97 0.11807 5.0311 0.19877 504.90 549.07 2.4045 1.3095 1.5621 221.44 0.38020 6.7967 0.013374
-21.625 33.435 0.060644 168.87 171.95 0.89874 556.46 0.0017971 147.11 147.52 0.80164 1.5019 2.3514 1027.1 -0.0041439 157.30 0.11752 5.2076 0.19203 505.97 550.24 2.4027 1.3144 1.5690 221.52 0.37656 6.8232 0.013471
-20.625 34.673 0.062755 171.89 175.08 0.91073 555.23 0.0018011 149.45 149.88 0.81095 1.5049 2.3572 1020.6 -0.0040879 155.66 0.11697 5.3889 0.18557 507.04 551.40 2.4010 1.3194 1.5759 221.59 0.37300 6.8499 0.013569
-19.625 35.946 0.064923 174.94 178.24 0.92276 553.99 0.0018051 151.80 152.25 0.82024 1.5079 2.3630 1014.0 -0.0040311 154.04 0.11642 5.5750 0.17937 508.11 552.57 2.3992 1.3244 1.5829 221.66 0.36950 6.8765 0.013668
-18.625 37.253 0.067149 178.00 181.42 0.93481 552.74 0.0018092 154.16 154.62 0.82952 1.5109 2.3689 1007.5 -0.0039733 152.44 0.11587 5.7660 0.17343 509.19 553.73 2.3976 1.3294 1.5901 221.72 0.36608 6.9032 0.013767
-17.625 38.596 0.069434 181.08 184.63 0.94690 551.49 0.0018133 156.52 157.00 0.83878 1.5140 2.3749 1001.0 -0.0039145 150.86 0.11532 5.9621 0.16773 510.26 554.89 2.3959 1.3345 1.5972 221.77 0.36272 6.9300 0.013867
-16.625 39.976 0.071779 184.18 187.86 0.95902 550.24 0.0018174 158.89 159.39 0.84803 1.5171 2.3810 994.44 -0.0038549 149.29 0.11478 6.1632 0.16225 511.33 556.05 2.3943 1.3395 1.6045 221.81 0.35942 6.9568 0.013968
-15.625 41.392 0.074186 187.31 191.11 0.97118 548.98 0.0018216 161.26 161.78 0.85726 1.5202 2.3871 987.91 -0.0037942 147.75 0.11423 6.3696 0.15700 512.40 557.20 2.3927 1.3446 1.6119 221.85 0.35619 6.9836 0.014069
-14.625 42.846 0.076655 190.45 194.39 0.98336 547.71 0.0018258 163.64 164.18 0.86649 1.5233 2.3933 981.37 -0.0037325 146.22 0.11369 6.5812 0.15195 513.47 558.36 2.3912 1.3497 1.6193 221.87 0.35302 7.0105 0.014170
-13.625 44.338 0.079188 193.62 197.70 0.99559 546.44 0.0018300 166.02 166.58 0.87569 1.5264 2.3996 974.83 -0.0036698 144.72 0.11315 6.7983 0.14710 514.54 559.51 2.3897 1.3549 1.6268 221.89 0.34992 7.0375 0.014273
-12.625 45.870 0.081786 196.81 201.02 1.0078 545.17 0.0018343 168.41 168.99 0.88489 1.5296 2.4059 968.29 -0.0036061 143.23 0.11261 7.0208 0.14243 515.61 560.65 2.3883 1.3600 1.6344 221.90 0.34688 7.0646 0.014376
-11.625 47.440 0.084451 200.02 204.38 1.0201 543.89 0.0018386 170.81 171.41 0.89407 1.5328 2.4124 961.75 -0.0035413 141.76 0.11208 7.2490 0.13795 516.68 561.80 2.3868 1.3652 1.6421 221.91 0.34389 7.0917 0.014479
-10.625 49.051 0.087184 203.25 207.75 1.0325 542.60 0.0018430 173.21 173.83 0.90324 1.5360 2.4189 955.20 -0.0034753 140.30 0.11154 7.4829 0.13364 517.75 562.94 2.3854 1.3704 1.6498 221.90 0.34097 7.1188 0.014584
-9.6250 50.703 0.089986 206.50 211.16 1.0448 541.31 0.0018474 175.61 176.26 0.91240 1.5393 2.4255 948.65 -0.0034082 138.86 0.11101 7.7226 0.12949 518.81 564.08 2.3841 1.3757 1.6577 221.88 0.33810 7.1461 0.014689
-8.6250 52.396 0.092859 209.77 214.59 1.0572 540.02 0.0018518 178.03 178.70 0.92154 1.5426 2.4321 942.10 -0.0033400 137.44 0.11048 7.9683 0.12550 519.88 565.21 2.3827 1.3809 1.6657 221.86 0.33529 7.1734 0.014795
-7.6250 54.131 0.095803 213.07 218.04 1.0697 538.72 0.0018563 180.45 181.14 0.93068 1.5459 2.4389 935.55 -0.0032705 136.03 0.10995 8.2200 0.12165 520.94 566.35 2.3814 1.3862 1.6737 221.83 0.33254 7.2008 0.014902
-6.6250 55.909 0.098822 216.39 221.53 1.0821 537.41 0.0018608 182.87 183.59 0.93980 1.5492 2.4457 928.99 -0.0031998 134.64 0.10942 8.4779 0.11795 522.01 567.48 2.3801 1.3915 1.6819 221.79 0.32984 7.2284 0.015009
-5.6250 57.730 0.10192 219.73 225.04 1.0947 536.10 0.0018653 185.30 186.05 0.94892 1.5525 2.4526 922.43 -0.0031279 133.27 0.10889 8.7420 0.11439 523.07 568.60 2.3789 1.3969 1.6902 221.74 0.32720 7.2560 0.015117
-4.6250 59.595 0.10509 223.09 228.57 1.1072 534.78 0.0018699 187.74 188.51 0.95802 1.5559 2.4596 915.87 -0.0030546 131.91 0.10837 9.0126 0.11096 524.13 569.72 2.3777 1.4022 1.6985 221.68 0.32461 7.2837 0.015226
-3.6250 61.505 0.10833 226.48 232.13 1.1198 533.45 0.0018746 190.19 190.98 0.96711 1.5593 2.4667 909.30 -0.0029800 130.56 0.10785 9.2896 0.10765 525.19 570.84 2.3765 1.4076 1.7070 221.62 0.32207 7.3115 0.015336
-2.6250 63.461 0.11166 229.89 235.72 1.1324 532.12 0.0018793 192.64 193.46 0.97620 1.5627 2.4739 902.73 -0.0029041 129.23 0.10733 9.5733 0.10446 526.25 571.96 2.3753 1.4131 1.7156 221.54 0.31958 7.3394 0.015447
-1.6250 65.462 0.11507 233.32 239.34 1.1451 530.78 0.0018840 195.10 195.95 0.98527 1.5662 2.4811 896.16 -0.0028267 127.91 0.10681 9.8638 0.10138 527.31 573.07 2.3742 1.4185 1.7243 221.45 0.31715 7.3674 0.015559
-0.62500 67.510 0.11856 236.78 242.99 1.1578 529.44 0.0018888 197.56 198.44 0.99434 1.5696 2.4885 889.58 -0.0027478 126.61 0.10629 10.161 0.098414 528.37 574.18 2.3731 1.4240 1.7331 221.36 0.31476 7.3956 0.015671
0.37500 69.606 0.12214 240.26 246.66 1.1706 528.09 0.0018936 200.03 200.94 1.0034 1.5731 2.4960 883.00 -0.0026675 125.32 0.10578 10.466 0.095552 529.42 575.28 2.3720 1.4295 1.7421 221.26 0.31242 7.4239 0.015785
1.3750 71.749 0.12581 243.77 250.36 1.1833 526.73 0.0018985 202.51 203.45 1.0124 1.5767 2.5035 876.42 -0.0025856 124.04 0.10527 10.777 0.092790 530.48 576.38 2.3709 1.4350 1.7512 221.14 0.31013 7.4523 0.015899
2.3750 73.941 0.12956 247.30 254.09 1.1962 525.37 0.0019034 204.99 205.96 1.0215 1.5802 2.5112 869.83 -0.0025022 122.78 0.10476 11.096 0.090123 531.53 577.47 2.3699 1.4406 1.7604 221.02 0.30789 7.4808 0.016015
3.3750 76.183 0.13341 250.85 257.85 1.2091 523.99 0.0019084 207.48 208.48 1.0305 1.5838 2.5190 863.24 -0.0024171 121.53 0.10425 11.422 0.087549 532.58 578.56 2.3688 1.4462 1.7697 220.89 0.30569 7.5095 0.016131
4.3750 78.475 0.13734 254.43 261.64 1.2220 522.62 0.0019134 209.98 211.01 1.0395 1.5874 2.5268 856.64 -0.0023303 120.29 0.10374 11.756 0.085062 533.63 579.65 2.3678 1.4518 1.7792 220.75 0.30354 7.5384 0.016249
5.3750 80.817 0.14137 258.03 265.46 1.2349 521.23 0.0019185 212.48 213.55 1.0486 1.5910 2.5348 850.04 -0.0022417 119.06 0.10324 12.098 0.082660 534.67 580.73 2.3669 1.4575 1.7888 220.60 0.30144 7.5674 0.016368
6.3750 83.211 0.14550 261.66 269.31 1.2479 519.84 0.0019237 215.00 216.10 1.0576 1.5946 2.5429 843.43 -0.0021514 117.85 0.10273 12.447 0.080340 535.72 581.81 2.3659 1.4632 1.7986 220.44 0.29938 7.5966 0.016487
7.3750 85.657 0.14973 265.31 273.19 1.2610 518.44 0.0019289 217.51 218.65 1.0666 1.5983 2.5511 836.82 -0.0020593 116.65 0.10223 12.805 0.078096 536.76 582.88 2.3650 1.4689 1.8085 220.27 0.29736 7.6259 0.016608
8.3750 88.156 0.15406 268.99 277.10 1.2741 517.03 0.0019341 220.04 221.22 1.0756 1.6020 2.5595 830.20 -0.0019652 115.46 0.10173 13.170 0.075928 537.80 583.95 2.3640 1.4746 1.8186 220.08 0.29538 7.6555 0.016730
9.3750 90.708 0.15849 272.70 281.04 1.2872 515.62 0.0019394 222.57 223.79 1.0846 1.6057 2.5679 823.58 -0.0018691 114.28 0.10124 13.545 0.073830 538.84 585.01 2.3631 1.4804 1.8288 219.89 0.29345 7.6852 0.016853
10.375 93.315 0.16303 276.43 285.01 1.3004 514.19 0.0019448 225.11 226.37 1.0936 1.6095 2.5765 816.96 -0.0017710 113.11 0.10074 13.927 0.071802 539.87 586.07 2.3622 1.4863 1.8392 219.69 0.29156 7.7151 0.016978
11.375 95.977 0.16767 280.18 289.01 1.3136 512.76 0.0019502 227.66 228.95 1.1025 1.6132 2.5852 810.32 -0.0016708 111.95 0.10025 14.319 0.069840 540.90 587.12 2.3614 1.4921 1.8498 219.48 0.28971 7.7452 0.017103
12.375 98.694 0.17243 283.97 293.04 1.3269 511.32 0.0019557 230.22 231.55 1.1115 1.6170 2.5940 803.68 -0.0015685 110.80 0.099756 14.719 0.067941 541.93 588.17 2.3605 1.4980 1.8605 219.26 0.28790 7.7756 0.017230
13.375 101.47 0.17730 287.78 297.10 1.3402 509.87 0.0019613 232.78 234.15 1.1205 1.6208 2.6030 797.04 -0.0014639 109.67 0.099267 15.128 0.066103 542.96 589.21 2.3597 1.5040 1.8715 219.03 0.28612 7.8061 0.017359
14.375 104.30 0.18228 291.61 301.20 1.3536 508.42 0.0019669 235.35 236.77 1.1295 1.6247 2.6121 790.39 -0.0013569 108.54 0.098779 15.547 0.064323 543.99 590.24 2.3588 1.5099 1.8826 218.79 0.28439 7.8369 0.017488
15.375 107.19 0.18739 295.47 305.33 1.3670 506.95 0.0019726 237.93 239.39 1.1384 1.6286 2.6214 783.73 -0.0012476 107.43 0.098294 15.974 0.062600 545.01 591.27 2.3580 1.5159 1.8940 218.53 0.28270 7.8680 0.017619
16.375 110.13 0.19261 299.36 309.49 1.3804 505.48 0.0019783 240.52 242.02 1.1474 1.6324 2.6308 777.07 -0.0011357 106.32 0.097810 16.412 0.060931 546.03 592.29 2.3572 1.5220 1.9055 218.27 0.28104 7.8993 0.017752
17.375 113.14 0.19796 303.28 313.68 1.3939 504.00 0.0019841 243.11 244.66 1.1564 1.6364 2.6403 770.40 -0.0010213 105.22 0.097328 16.859 0.059314 547.04 593.31 2.3564 1.5281 1.9172 217.99 0.27942 7.9308 0.017886
18.375 116.21 0.20344 307.22 317.91 1.4075 502.50 0.0019900 245.72 247.31 1.1653 1.6403 2.6501 763.72 -0.00090422 104.14 0.096848 17.317 0.057747 548.05 594.32 2.3557 1.5342 1.9292 217.71 0.27783 7.9626 0.018021
19.375 119.33 0.20905 311.20 322.17 1.4211 501.00 0.0019960 248.33 249.97 1.1743 1.6443 2.6599 757.04 -0.00078435 103.06 0.096371 17.785 0.056228 549.06 595.33 2.3549 1.5404 1.9414 217.41 0.27628 7.9947 0.018159
20.375 122.52 0.21480 315.20 326.46 1.4347 499.49 0.0020020 250.95 252.64 1.1832 1.6483 2.6700 750.35 -0.00066161 101.99 0.095895 18.263 0.054756 550.07 596.32 2.3541 1.5466 1.9538 217.10 0.27477 8.0272 0.018297
21.375 125.77 0.22068 319.22 330.79 1.4484 497.97 0.0020082 253.57 255.32 1.1922 1.6523 2.6802 743.64 -0.00053589 100.93 0.095420 18.752 0.053328 551.07 597.31 2.3534 1.5528 1.9665 216.78 0.27329 8.0599 0.018438
22.375 129.08 0.22670 323.28 335.15 1.4622 496.43 0.0020144 256.21 258.00 1.2012 1.6563 2.6906 736.94 -0.00040708 99.877 0.094948 19.252 0.051943 552.07 598.30 2.3526 1.5591 1.9795 216.45 0.27184 8.0929 0.018580
23.375 132.46 0.23287 327.37 339.54 1.4760 494.89 0.0020206 258.86 260.70 1.2101 1.6604 2.7012 730.22 -0.00027505 98.834 0.094478 19.763 0.050600 553.06 599.27 2.3519 1.5655 1.9927 216.11 0.27043 8.1263 0.018724
24.375 135.90 0.23919 331.48 343.97 1.4898 493.34 0.0020270 261.51 263.41 1.2191 1.6645 2.7120 723.49 -0.00013968 97.800 0.094009 20.285 0.049297 554.05 600.24 2.3512 1.5718 2.0061 215.75 0.26906 8.1600 0.018870
25.375 139.41 0.24566 335.62 348.44 1.5037 491.77 0.0020335 264.17 266.13 1.2280 1.6686 2.7230 716.76 -8.3775e-07 96.773 0.093543 20.820 0.048032 555.03 601.20 2.3504 1.5783 2.0199 215.39 0.26771 8.1941 0.019017
26.375 142.98 0.25229 339.80 352.94 1.5177 490.20 0.0020400 266.84 268.85 1.2370 1.6728 2.7342 710.01 0.00014161 95.755 0.093078 21.366 0.046804 556.01 602.15 2.3497 1.5847 2.0340 215.01 0.26640 8.2286 0.019167
27.375 146.62 0.25908 344.00 357.48 1.5317 488.61 0.0020466 269.52 271.59 1.2459 1.6770 2.7456 703.26 0.00028782 94.745 0.092615 21.924 0.045612 556.99 603.10 2.3490 1.5913 2.0484 214.62 0.26512 8.2634 0.019319
28.375 150.33 0.26604 348.23 362.05 1.5458 487.01 0.0020533 272.21 274.34 1.2549 1.6812 2.7573 696.49 0.00043793 93.742 0.092154 22.495 0.044454 557.96 604.03 2.3483 1.5978 2.0631 214.21 0.26387 8.2987 0.019472
29.375 154.10 0.27316 352.50 366.66 1.5599 485.40 0.0020601 274.91 277.10 1.2638 1.6854 2.7691 689.72 0.00059212 92.747 0.091695 23.079 0.043329 558.92 604.96 2.3476 1.6044 2.0781 213.80 0.26265 8.3344 0.019628
30.375 157.94 0.28047 356.79 371.31 1.5741 483.78 0.0020671 277.62 279.87 1.2728 1.6897 2.7813 682.93 0.00075055 91.760 0.091238 23.676 0.042237 559.88 605.88 2.3469 1.6111 2.0935 213.37 0.26147 8.3705 0.019786
31.375 161.86 0.28795 361.11 375.99 1.5883 482.15 0.0020741 280.34 282.66 1.2818 1.6939 2.7936 676.13 0.00091340 90.779 0.090782 24.287 0.041175 560.84 606.79 2.3462 1.6178 2.1092 212.93 0.26031 8.4071 0.019947
32.375 165.84 0.29563 365.47 380.71 1.6026 480.50 0.0020812 283.07 285.45 1.2908 1.6983 2.8063 669.32 0.0010809 89.806 0.090328 24.911 0.040143 561.79 607.69 2.3455 1.6246 2.1254 212.48 0.25919 8.4442 0.020110
33.375 169.90 0.30350 369.85 385.47 1.6169 478.83 0.0020884 285.81 288.26 1.2997 1.7026 2.8192 662.50 0.0012532 88.840 0.089876 25.549 0.039140 562.73 608.58 2.3448 1.6314 2.1419 212.01 0.25809 8.4818 0.020275
34.375 174.02 0.31156 374.27 390.27 1.6313 477.16 0.0020957 288.56 291.07 1.3087 1.7070 2.8324 655.67 0.0014305 87.880 0.089426 26.202 0.038164 563.67 609.46 2.3440 1.6383 2.1589 211.53 0.25702 8.5199 0.020443
35.375 178.22 0.31983 378.72 395.11 1.6457 475.47 0.0021032 291.32 293.90 1.3177 1.7114 2.8459 648.82 0.0016131 86.927 0.088977 26.870 0.037216 564.60 610.33 2.3433 1.6452 2.1763 211.04 0.25599 8.5586 0.020613
36.375 182.50 0.32832 383.20 399.98 1.6602 473.77 0.0021107 294.09 296.74 1.3267 1.7158 2.8597 641.96 0.0018012 85.980 0.088531 27.553 0.036293 565.52 611.19 2.3426 1.6522 2.1942 210.53 0.25498 8.5978 0.020786
37.375 186.84 0.33702 387.72 404.90 1.6748 472.05 0.0021184 296.87 299.60 1.3357 1.7203 2.8739 635.08 0.0019950 85.040 0.088085 28.252 0.035395 566.44 612.04 2.3419 1.6592 2.2125 210.01 0.25400 8.6376 0.020962
38.375 191.27 0.34595 392.27 409.85 1.6894 470.31 0.0021262 299.66 302.46 1.3447 1.7248 2.8884 628.19 0.0021949 84.105 0.087642 28.967 0.034522 567.35 612.88 2.3411 1.6663 2.2314 209.47 0.25305 8.6780 0.021141
39.375 195.77 0.35511 396.85 414.84 1.7041 468.56 0.0021342 302.46 305.34 1.3537 1.7293 2.9033 621.29 0.0024011 83.177 0.087200 29.699 0.033671 568.26 613.70 2.3404 1.6734 2.2508 208.92 0.25213 8.7190 0.021323
40.375 200.34 0.36452 401.46 419.88 1.7188 466.80 0.0021423 305.27 308.23 1.3627 1.7339 2.9185 614.37 0.0026140 82.254 0.086760 30.447 0.032844 569.15 614.52 2.3396 1.6806 2.2708 208.36 0.25123 8.7608 0.021508
41.375 205.00 0.37417 406.11 424.96 1.7336 465.01 0.0021505 308.10 311.14 1.3718 1.7385 2.9342 607.43 0.0028338 81.338 0.086322 31.214 0.032037 570.04 615.32 2.3389 1.6879 2.2913 207.78 0.25037 8.8032 0.021696
42.375 209.73 0.38409 410.79 430.07 1.7485 463.21 0.0021588 310.94 314.06 1.3808 1.7432 2.9502 600.47 0.0030609 80.426 0.085885 31.998 0.031252 570.92 616.11 2.3381 1.6952 2.3125 207.19 0.24953 8.8463 0.021888
43.375 214.54 0.39428 415.51 435.23 1.7634 461.40 0.0021673 313.79 316.99 1.3899 1.7478 2.9667 593.50 0.0032957 79.520 0.085449 32.800 0.030488 571.79 616.88 2.3373 1.7027 2.3344 206.58 0.24871 8.8902 0.022084
44.375 219.43 0.40474 420.26 440.44 1.7784 459.56 0.0021760 316.65 319.94 1.3989 1.7525 2.9837 586.51 0.0035386 78.619 0.085015 33.622 0.029742 572.65 617.65 2.3365 1.7101 2.3569 205.96 0.24793 8.9349 0.022283
45.375 224.41 0.41550 425.05 445.68 1.7935 457.71 0.0021848 319.52 322.90 1.4080 1.7573 3.0012 579.50 0.0037900 77.723 0.084583 34.463 0.029016 573.50 618.40 2.3357 1.7177 2.3802 205.32 0.24717 8.9805 0.022485
46.375 229.46 0.42656 429.87 450.97 1.8086 455.83 0.0021938 322.41 325.88 1.4171 1.7621 3.0192 572.46 0.0040504 76.832 0.084152 35.325 0.028308 574.34 619.13 2.3349 1.7253 2.4042 204.67 0.24644 9.0269 0.022692
47.375 234.60 0.43794 434.73 456.30 1.8238 453.94 0.0022029 325.31 328.87 1.4262 1.7669 3.0377 565.41 0.0043202 75.946 0.083723 36.208 0.027618 575.17 619.85 2.3340 1.7329 2.4291 204.00 0.24573 9.0742 0.022903
48.375 239.83 0.44964 439.63 461.68 1.8390 452.03 0.0022123 328.22 331.88 1.4353 1.7718 3.0569 558.34 0.0046000 75.064 0.083295 37.112 0.026945 576.00 620.55 2.3332 1.7407 2.4548 203.31 0.24505 9.1224 0.023119
49.375 245.13 0.46169 444.57 467.10 1.8544 450.09 0.0022218 331.15 334.90 1.4445 1.7767 3.0766 551.24 0.0048904 74.186 0.082868 38.039 0.026289 576.81 621.24 2.3323 1.7485 2.4815 202.61 0.24440 9.1716 0.023339
50.375 250.53 0.47409 449.54 472.57 1.8698 448.13 0.0022315 334.09 337.94 1.4536 1.7817 3.0970 544.13 0.0051920 73.313 0.082442 38.989 0.025648 577.61 621.91 2.3314 1.7564 2.5092 201.89 0.24377 9.2219 0.023564
51.375 256.01 0.48687 454.55 478.08 1.8852 446.15 0.0022414 337.04 341.00 1.4628 1.7867 3.1181 536.98 0.0055054 72.443 0.082018 39.962 0.025024 578.39 622.56 2.3304 1.7644 2.5379 201.16 0.24317 9.2733 0.023794
52.375 261.57 0.50004 459.60 483.65 1.9008 444.15 0.0022515 340.01 344.07 1.4720 1.7918 3.1400 529.82 0.0058313 71.577 0.081595 40.961 0.024414 579.17 623.20 2.3295 1.7724 2.5677 200.41 0.24260 9.3258 0.024029
53.375 267.23 0.51361 464.69 489.25 1.9164 442.12 0.0022618 343.00 347.17 1.4812 1.7969 3.1627 522.62 0.0061705 70.715 0.081174 41.985 0.023818 579.93 623.81 2.3285 1.7805 2.5987 199.63 0.24205 9.3795 0.024270
54.375 272.97 0.52761 469.82 494.91 1.9320 440.06 0.0022724 346.00 350.28 1.4904 1.8021 3.1862 515.40 0.0065239 69.856 0.080753 43.036 0.023237 580.68 624.41 2.3274 1.7887 2.6310 198.85 0.24154 9.4344 0.024516
55.375 278.81 0.54206 474.99 500.62 1.9478 437.98 0.0022832 349.02 353.40 1.4997 1.8073 3.2106 508.15 0.0068923 69.001 0.080334 44.114 0.022669 581.41 624.99 2.3264 1.7969 2.6646 198.04 0.24105 9.4907 0.024769
56.375 284.74 0.55698 480.20 506.37 1.9636 435.87 0.0022943 352.05 356.55 1.5090 1.8126 3.2360 500.87 0.0072767 68.148 0.079915 45.221 0.022114 582.13 625.54 2.3253 1.8052 2.6998 197.22 0.24059 9.5484 0.025028
57.375 290.76 0.57240 485.45 512.18 1.9796 433.73 0.0023056 355.10 359.72 1.5183 1.8179 3.2624 493.56 0.0076782 67.299 0.079498 46.358 0.021571 582.83 626.07 2.3241 1.8136 2.7365 196.37 0.24016 9.6075 0.025294
58.375 296.87 0.58834 490.75 518.04 1.9956 431.56 0.0023172 358.17 362.91 1.5276 1.8233 3.2900 486.22 0.0080980 66.451 0.079082 47.525 0.021041 583.52 626.58 2.3230 1.8220 2.7749 195.51 0.23976 9.6682 0.025568
59.375 303.08 0.60483 496.09 523.95 2.0116 429.36 0.0023290 361.25 366.12 1.5370 1.8288 3.3188 478.84 0.0085373 65.606 0.078666 48.726 0.020523 584.18 627.07 2.3218 1.8305 2.8152 194.63 0.23939 9.7305 0.025849
60.375 309.38 0.62190 501.47 529.91 2.0278 427.13 0.0023412 364.36 369.35 1.5464 1.8343 3.3489 471.43 0.0089976 64.763 0.078251 49.960 0.020016 584.83 627.53 2.3205 1.8391 2.8576 193.73 0.23905 9.7945 0.026138
61.375 315.78 0.63959 506.90 535.93 2.0441 424.87 0.0023537 367.48 372.60 1.5558 1.8400 3.3805 463.99 0.0094803 63.922 0.077838 51.229 0.019520 585.46 627.96 2.3192 1.8479 2.9022 192.82 0.23873 9.8603 0.026436
62.375 322.28 0.65794 512.37 542.00 2.0604 422.56 0.0023665 370.62 375.88 1.5653 1.8457 3.4136 456.50 0.0099871 63.083 0.077425 52.535 0.019035 586.07 628.37 2.3178 1.8567 2.9492 191.88 0.23845 9.9281 0.026744
63.375 328.88 0.67698 517.90 548.13 2.0768 420.22 0.0023797 373.79 379.18 1.5748 1.8514 3.4483 448.97 0.010520 62.244 0.077012 53.879 0.018560 586.66 628.74 2.3164 1.8656 2.9989 190.92 0.23819 9.9979 0.027061
64.375 335.58 0.69675 523.47 554.32 2.0934 417.85 0.0023932 376.97 382.51 1.5844 1.8573 3.4850 441.40 0.011081 61.407 0.076600 55.265 0.018095 587.22 629.09 2.3149 1.8747 3.0517 189.95 0.23796 10.070 0.027389
65.375 342.38 0.71732 529.08 560.56 2.1100 415.42 0.0024072 380.18 385.86 1.5939 1.8633 3.5236 433.79 0.011672 60.570 0.076189 56.692 0.017639 587.76 629.40 2.3133 1.8839 3.1077 188.95 0.23775 10.144 0.027729
66.375 349.28 0.73873 534.75 566.86 2.1267 412.96 0.0024215 383.41 389.25 1.6036 1.8693 3.5645 426.12 0.012296 59.733 0.075779 58.165 0.017193 588.28 629.68 2.3117 1.8933 3.1674 187.93 0.23757 10.221 0.028080
67.375 356.28 0.76104 540.47 573.23 2.1435 410.45 0.0024363 386.67 392.65 1.6133 1.8755 3.6078 418.41 0.012956 58.897 0.075368 59.684 0.016755 588.76 629.92 2.3100 1.9030 3.2311 186.89 0.23740 10.300 0.028446
68.375 363.40 0.78432 546.24 579.65 2.1605 407.89 0.0024516 389.95 396.09 1.6230 1.8818 3.6537 410.64 0.013655 58.059 0.074959 61.253 0.016326 589.22 630.13 2.3082 1.9129 3.2994 185.83 0.23724 10.382 0.028825
69.375 370.61 0.80864 552.07 586.14 2.1775 405.28 0.0024674 393.26 399.57 1.6328 1.8882 3.7027 402.81 0.014396 57.221 0.074549 62.875 0.015905 589.65 630.29 2.3064 1.9231 3.3727 184.74 0.23710 10.467 0.029221
70.375 377.94 0.83409 557.95 592.69 2.1946 402.62 0.0024838 396.60 403.07 1.6426 1.8947 3.7550 394.92 0.015183 56.381 0.074141 64.552 0.015491 590.04 630.41 2.3044 1.9336 3.4518 183.63 0.23697 10.555 0.029633
71.375 385.37 0.86076 563.89 599.31 2.2119 399.89 0.0025007 399.96 406.61 1.6525 1.9014 3.8109 386.97 0.016021 55.540 0.073732 66.288 0.015086 590.40 630.49 2.3024 1.9444 3.5371 182.50 0.23684 10.647 0.030064
72.375 392.92 0.88875 569.88 606.00 2.2293 397.11 0.0025182 403.36 410.18 1.6625 1.9083 3.8711 378.95 0.016915 54.696 0.073324 68.087 0.014687 590.73 630.51 2.3002 1.9556 3.6297 181.34 0.23671 10.743 0.030515
73.375 400.57 0.91819 575.94 612.76 2.2468 394.26 0.0025364 406.79 413.80 1.6726 1.9153 3.9359 370.85 0.017871 53.848 0.072917 69.953 0.014295 591.01 630.49 2.2979 1.9673 3.7303 180.16 0.23658 10.842 0.030989
74.375 408.34 0.94920 582.05 619.59 2.2644 391.34 0.0025553 410.26 417.45 1.6827 1.9226 4.0060 362.67 0.018894 52.997 0.072510 71.890 0.013910 591.25 630.41 2.2955 1.9793 3.8401 178.95 0.23643 10.946 0.031488
75.375 416.23 0.98196 588.24 626.50 2.2821 388.34 0.0025751 413.76 421.15 1.6930 1.9301 4.0822 354.41 0.019993 52.142 0.072104 73.904 0.013531 591.44 630.27 2.2930 1.9919 3.9604 177.71 0.23627 11.054 0.032014
76.375 421.98 undefined 592.47 631.26 2.2943 75.000 0.013333 592.47 631.26 2.2943 1.9982 3.9953 177.49 0.23426 11.129 0.032316 75.000 0.013333 592.47 631.26 2.2943 1.9982 3.9953 177.49 0.23426 11.129 0.032316
77.375 425.23 undefined 594.47 633.56 2.3000 75.000 0.013333 594.47 633.56 2.3000 1.9971 3.9283 178.43 0.23029 11.161 0.032348 75.000 0.013333 594.47 633.56 2.3000 1.9971 3.9283 178.43 0.23029 11.161 0.032348
78.375 428.47 undefined 596.46 635.85 2.3057 75.000 0.013333 596.46 635.85 2.3057 1.9960 3.8659 179.37 0.22645 11.194 0.032386 75.000 0.013333 596.46 635.85 2.3057 1.9960 3.8659 179.37 0.22645 11.194 0.032386
79.375 431.70 undefined 598.46 638.14 2.3113 75.000 0.013333 598.46 638.14 2.3113 1.9949 3.8076 180.30 0.22274 11.226 0.032431 75.000 0.013333 598.46 638.14 2.3113 1.9949 3.8076 180.30 0.22274 11.226 0.032431
80.375 434.91 undefined 600.45 640.43 2.3170 75.000 0.013333 600.45 640.43 2.3170 1.9939 3.7531 181.22 0.21915 11.259 0.032481 75.000 0.013333 600.45 640.43 2.3170 1.9939 3.7531 181.22 0.21915 11.259 0.032481
81.375 438.11 undefined 602.44 642.72 2.3226 75.000 0.013333 602.44 642.72 2.3226 1.9930 3.7020 182.13 0.21566 11.291 0.032536 75.000 0.013333 602.44 642.72 2.3226 1.9930 3.7020 182.13 0.21566 11.291 0.032536
82.375 441.30 undefined 604.44 645.01 2.3282 75.000 0.013333 604.44 645.01 2.3282 1.9921 3.6543 183.04 0.21229 11.324 0.032597 75.000 0.013333 604.44 645.01 2.3282 1.9921 3.6543 183.04 0.21229 11.324 0.032597
83.375 444.47 undefined 606.43 647.29 2.3338 75.000 0.013333 606.43 647.29 2.3338 1.9914 3.6095 183.95 0.20901 11.356 0.032662 75.000 0.013333 606.43 647.29 2.3338 1.9914 3.6095 183.95 0.20901 11.356 0.032662
84.375 447.63 undefined 608.42 649.57 2.3394 75.000 0.013333 608.42 649.57 2.3394 1.9907 3.5675 184.84 0.20583 11.389 0.032731 75.000 0.013333 608.42 649.57 2.3394 1.9907 3.5675 184.84 0.20583 11.389 0.032731
85.375 450.78 undefined 610.41 651.85 2.3450 75.000 0.013333 610.41 651.85 2.3450 1.9902 3.5281 185.74 0.20274 11.421 0.032804 75.000 0.013333 610.41 651.85 2.3450 1.9902 3.5281 185.74 0.20274 11.421 0.032804
86.375 453.92 undefined 612.40 654.13 2.3505 75.000 0.013333 612.40 654.13 2.3505 1.9899 3.4911 186.63 0.19974 11.453 0.032881 75.000 0.013333 612.40 654.13 2.3505 1.9899 3.4911 186.63 0.19974 11.453 0.032881
87.375 457.04 undefined 614.39 656.41 2.3560 75.000 0.013333 614.39 656.41 2.3560 1.9897 3.4563 187.51 0.19682 11.485 0.032961 75.000 0.013333 614.39 656.41 2.3560 1.9897 3.4563 187.51 0.19682 11.485 0.032961
88.375 460.16 undefined 616.38 658.68 2.3615 75.000 0.013333 616.38 658.68 2.3615 1.9897 3.4236 188.39 0.19397 11.518 0.033044 75.000 0.013333 616.38 658.68 2.3615 1.9897 3.4236 188.39 0.19397 11.518 0.033044
89.375 463.26 undefined 618.37 660.96 2.3670 75.000 0.013333 618.37 660.96 2.3670 1.9899 3.3927 189.26 0.19120 11.550 0.033131 75.000 0.013333 618.37 660.96 2.3670 1.9899 3.3927 189.26 0.19120 11.550 0.033131
90.375 466.36 undefined 620.36 663.23 2.3725 75.000 0.013333 620.36 663.23 2.3725 1.9902 3.3637 190.13 0.18849 11.582 0.033220 75.000 0.013333 620.36 663.23 2.3725 1.9902 3.3637 190.13 0.18849 11.582 0.033220
91.375 469.45 undefined 622.35 665.51 2.3780 75.000 0.013333 622.35 665.51 2.3780 1.9907 3.3362 190.99 0.18585 11.614 0.033312 75.000 0.013333 622.35 665.51 2.3780 1.9907 3.3362 190.99 0.18585 11.614 0.033312
92.375 472.53 undefined 624.34 667.78 2.3834 75.000 0.013333 624.34 667.78 2.3834 1.9913 3.3103 191.85 0.18327 11.646 0.033406 75.000 0.013333 624.34 667.78 2.3834 1.9913 3.3103 191.85 0.18327 11.646 0.033406
93.375 475.60 undefined 626.33 670.06 2.3889 75.000 0.013333 626.33 670.06 2.3889 1.9922 3.2859 192.70 0.18076 11.678 0.033503 75.000 0.013333 626.33 670.06 2.3889 1.9922 3.2859 192.70 0.18076 11.678 0.033503
94.375 478.66 undefined 628.33 672.33 2.3943 75.000 0.013333 628.33 672.33 2.3943 1.9931 3.2627 193.55 0.17830 11.710 0.033602 75.000 0.013333 628.33 672.33 2.3943 1.9931 3.2627 193.55 0.17830 11.710 0.033602
95.375 481.72 undefined 630.32 674.60 2.3997 75.000 0.013333 630.32 674.60 2.3997 1.9942 3.2408 194.39 0.17590 11.742 0.033703 75.000 0.013333 630.32 674.60 2.3997 1.9942 3.2408 194.39 0.17590 11.742 0.033703
96.375 484.76 undefined 632.31 676.88 2.4051 75.000 0.013333 632.31 676.88 2.4051 1.9954 3.2200 195.23 0.17355 11.774 0.033806 75.000 0.013333 632.31 676.88 2.4051 1.9954 3.2200 195.23 0.17355 11.774 0.033806
97.375 487.80 undefined 634.31 679.15 2.4105 75.000 0.013333 634.31 679.15 2.4105 1.9967 3.2002 196.06 0.17125 11.806 0.033910 75.000 0.013333 634.31 679.15 2.4105 1.9967 3.2002 196.06 0.17125 11.806 0.033910
98.375 490.83 undefined 636.31 681.43 2.4159 75.000 0.013333 636.31 681.43 2.4159 1.9982 3.1815 196.89 0.16900 11.837 0.034017 75.000 0.013333 636.31 681.43 2.4159 1.9982 3.1815 196.89 0.16900 11.837 0.034017
99.375 493.86 undefined 638.31 683.71 2.4213 75.000 0.013333 638.31 683.71 2.4213 1.9997 3.1636 197.71 0.16680 11.869 0.034125 75.000 0.013333 638.31 683.71 2.4213 1.9997 3.1636 197.71 0.16680 11.869 0.034125
100.38 496.88 undefined 640.31 685.99 2.4267 75.000 0.013333 640.31 685.99 2.4267 2.0014 3.1467 198.53 0.16465 11.901 0.034235 75.000 0.013333 640.31 685.99 2.4267 2.0014 3.1467 198.53 0.16465 11.901 0.034235
101.38 499.89 undefined 642.31 688.26 2.4320 75.000 0.013333 642.31 688.26 2.4320 2.0031 3.1305 199.34 0.16254 11.932 0.034346 75.000 0.013333 642.31 688.26 2.4320 2.0031 3.1305 199.34 0.16254 11.932 0.034346
102.38 502.90 undefined 644.31 690.55 2.4373 75.000 0.013333 644.31 690.55 2.4373 2.0050 3.1151 200.15 0.16047 11.964 0.034459 75.000 0.013333 644.31 690.55 2.4373 2.0050 3.1151 200.15 0.16047 11.964 0.034459
103.38 505.90 undefined 646.32 692.83 2.4427 75.000 0.013333 646.32 692.83 2.4427 2.0069 3.1004 200.96 0.15845 11.996 0.034573 75.000 0.013333 646.32 692.83 2.4427 2.0069 3.1004 200.96 0.15845 11.996 0.034573
104.38 508.89 undefined 648.33 695.11 2.4480 75.000 0.013333 648.33 695.11 2.4480 2.0089 3.0864 201.76 0.15647 12.027 0.034689 75.000 0.013333 648.33 695.11 2.4480 2.0089 3.0864 201.76 0.15647 12.027 0.034689
105.38 511.88 undefined 650.34 697.39 2.4533 75.000 0.013333 650.34 697.39 2.4533 2.0109 3.0731 202.56 0.15453 12.059 0.034805 75.000 0.013333 650.34 697.39 2.4533 2.0109 3.0731 202.56 0.15453 12.059 0.034805
106.38 514.86 undefined 652.35 699.68 2.4586 75.000 0.013333 652.35 699.68 2.4586 2.0130 3.0603 203.35 0.15262 12.090 0.034923 75.000 0.013333 652.35 699.68 2.4586 2.0130 3.0603 203.35 0.15262 12.090 0.034923
107.38 517.84 undefined 654.36 701.97 2.4639 75.000 0.013333 654.36 701.97 2.4639 2.0152 3.0481 204.14 0.15076 12.122 0.035042 75.000 0.013333 654.36 701.97 2.4639 2.0152 3.0481 204.14 0.15076 12.122 0.035042
108.38 520.81 undefined 656.38 704.26 2.4692 75.000 0.013333 656.38 704.26 2.4692 2.0174 3.0364 204.92 0.14893 12.153 0.035163 75.000 0.013333 656.38 704.26 2.4692 2.0174 3.0364 204.92 0.14893 12.153 0.035163
109.38 523.78 undefined 658.40 706.55 2.4745 75.000 0.013333 658.40 706.55 2.4745 2.0197 3.0253 205.71 0.14713 12.184 0.035284 75.000 0.013333 658.40 706.55 2.4745 2.0197 3.0253 205.71 0.14713 12.184 0.035284
110.38 526.74 undefined 660.42 708.84 2.4798 75.000 0.013333 660.42 708.84 2.4798 2.0221 3.0146 206.48 0.14537 12.216 0.035407 75.000 0.013333 660.42 708.84 2.4798 2.0221 3.0146 206.48 0.14537 12.216 0.035407
111.38 529.70 undefined 662.44 711.14 2.4851 75.000 0.013333 662.44 711.14 2.4851 2.0245 3.0044 207.26 0.14365 12.247 0.035530 75.000 0.013333 662.44 711.14 2.4851 2.0245 3.0044 207.26 0.14365 12.247 0.035530
112.38 532.65 undefined 664.47 713.43 2.4903 75.000 0.013333 664.47 713.43 2.4903 2.0269 2.9946 208.03 0.14195 12.278 0.035654 75.000 0.013333 664.47 713.43 2.4903 2.0269 2.9946 208.03 0.14195 12.278 0.035654
113.38 535.60 undefined 666.50 715.73 2.4956 75.000 0.013333 666.50 715.73 2.4956 2.0294 2.9853 208.79 0.14029 12.309 0.035780 75.000 0.013333 666.50 715.73 2.4956 2.0294 2.9853 208.79 0.14029 12.309 0.035780
114.38 538.54 undefined 668.53 718.04 2.5008 75.000 0.013333 668.53 718.04 2.5008 2.0319 2.9764 209.56 0.13866 12.341 0.035906 75.000 0.013333 668.53 718.04 2.5008 2.0319 2.9764 209.56 0.13866 12.341 0.035906
115.38 541.48 undefined 670.56 720.34 2.5061 75.000 0.013333 670.56 720.34 2.5061 2.0345 2.9678 210.32 0.13705 12.372 0.036033 75.000 0.013333 670.56 720.34 2.5061 2.0345 2.9678 210.32 0.13705 12.372 0.036033
116.38 544.41 undefined 672.60 722.64 2.5113 75.000 0.013333 672.60 722.64 2.5113 2.0371 2.9596 211.07 0.13548 12.403 0.036162 75.000 0.013333 672.60 722.64 2.5113 2.0371 2.9596 211.07 0.13548 12.403 0.036162
117.38 547.34 undefined 674.63 724.95 2.5165 75.000 0.013333 674.63 724.95 2.5165 2.0398 2.9517 211.83 0.13393 12.434 0.036290 75.000 0.013333 674.63 724.95 2.5165 2.0398 2.9517 211.83 0.13393 12.434 0.036290
118.38 550.27 undefined 676.68 727.26 2.5217 75.000 0.013333 676.68 727.26 2.5217 2.0424 2.9442 212.57 0.13242 12.465 0.036420 75.000 0.013333 676.68 727.26 2.5217 2.0424 2.9442 212.57 0.13242 12.465 0.036420
119.38 553.19 undefined 678.72 729.57 2.5269 75.000 0.013333 678.72 729.57 2.5269 2.0451 2.9370 213.32 0.13092 12.496 0.036551 75.000 0.013333 678.72 729.57 2.5269 2.0451 2.9370 213.32 0.13092 12.496 0.036551
120.38 556.10 undefined 680.77 731.89 2.5322 75.000 0.013333 680.77 731.89 2.5322 2.0479 2.9301 214.06 0.12946 12.527 0.036682 75.000 0.013333 680.77 731.89 2.5322 2.0479 2.9301 214.06 0.12946 12.527 0.036682
121.38 559.02 undefined 682.81 734.21 2.5374 75.000 0.013333 682.81 734.21 2.5374 2.0507 2.9234 214.80 0.12802 12.558 0.036814 75.000 0.013333 682.81 734.21 2.5374 2.0507 2.9234 214.80 0.12802 12.558 0.036814
122.38 561.93 undefined 684.87 736.52 2.5426 75.000 0.013333 684.87 736.52 2.5426 2.0535 2.9171 215.54 0.12660 12.589 0.036947 75.000 0.013333 684.87 736.52 2.5426 2.0535 2.9171 215.54 0.12660 12.589 0.036947
123.38 564.83 undefined 686.92 738.85 2.5477 75.000 0.013333 686.92 738.85 2.5477 2.0563 2.9110 216.27 0.12521 12.620 0.037081 75.000 0.013333 686.92 738.85 2.5477 2.0563 2.9110 216.27 0.12521 12.620 0.037081
124.38 567.73 undefined 688.98 741.17 2.5529 75.000 0.013333 688.98 741.17 2.5529 2.0592 2.9052 217.01 0.12384 12.650 0.037215 75.000 0.013333 688.98 741.17 2.5529 2.0592 2.9052 217.01 0.12384 12.650 0.037215
125.38 570.63 undefined 691.04 743.50 2.5581 75.000 0.013333 691.04 743.50 2.5581 2.0621 2.8996 217.73 0.12250 12.681 0.037350 75.000 0.013333 691.04 743.50 2.5581 2.0621 2.8996 217.73 0.12250 12.681 0.037350
126.38 573.52 undefined 693.10 745.83 2.5633 75.000 0.013333 693.10 745.83 2.5633 2.0650 2.8943 218.46 0.12118 12.712 0.037486 75.000 0.013333 693.10 745.83 2.5633 2.0650 2.8943 218.46 0.12118 12.712 0.037486
127.38 576.41 undefined 695.17 748.16 2.5684 75.000 0.013333 695.17 748.16 2.5684 2.0679 2.8892 219.18 0.11988 12.743 0.037623 75.000 0.013333 695.17 748.16 2.5684 2.0679 2.8892 219.18 0.11988 12.743 0.037623
128.38 579.30 undefined 697.24 750.49 2.5736 75.000 0.013333 697.24 750.49 2.5736 2.0709 2.8843 219.90 0.11860 12.773 0.037760 75.000 0.013333 697.24 750.49 2.5736 2.0709 2.8843 219.90 0.11860 12.773 0.037760
129.38 582.18 undefined 699.31 752.83 2.5788 75.000 0.013333 699.31 752.83 2.5788 2.0738 2.8796 220.61 0.11734 12.804 0.037897 75.000 0.013333 699.31 752.83 2.5788 2.0738 2.8796 220.61 0.11734 12.804 0.037897
130.38 585.06 undefined 701.39 755.17 2.5839 75.000 0.013333 701.39 755.17 2.5839 2.0768 2.8752 221.33 0.11610 12.834 0.038036 75.000 0.013333 701.39 755.17 2.5839 2.0768 2.8752 221.33 0.11610 12.834 0.038036
131.38 587.94 undefined 703.47 757.51 2.5890 75.000 0.013333 703.47 757.51 2.5890 2.0799 2.8709 222.04 0.11488 12.865 0.038175 75.000 0.013333 703.47 757.51 2.5890 2.0799 2.8709 222.04 0.11488 12.865 0.038175
132.38 590.81 undefined 705.55 759.86 2.5942 75.000 0.013333 705.55 759.86 2.5942 2.0829 2.8668 222.75 0.11369 12.896 0.038314 75.000 0.013333 705.55 759.86 2.5942 2.0829 2.8668 222.75 0.11369 12.896 0.038314
133.38 593.68 undefined 707.63 762.21 2.5993 75.000 0.013333 707.63 762.21 2.5993 2.0859 2.8629 223.45 0.11251 12.926 0.038454 75.000 0.013333 707.63 762.21 2.5993 2.0859 2.8629 223.45 0.11251 12.926 0.038454
134.38 596.55 undefined 709.72 764.56 2.6044 75.000 0.013333 709.72 764.56 2.6044 2.0890 2.8592 224.15 0.11135 12.956 0.038595 75.000 0.013333 709.72 764.56 2.6044 2.0890 2.8592 224.15 0.11135 12.956 0.038595
135.38 599.41 undefined 711.81 766.91 2.6096 75.000 0.013333 711.81 766.91 2.6096 2.0921 2.8556 224.85 0.11020 12.987 0.038736 75.000 0.013333 711.81 766.91 2.6096 2.0921 2.8556 224.85 0.11020 12.987 0.038736
136.38 602.27 undefined 713.90 769.27 2.6147 75.000 0.013333 713.90 769.27 2.6147 2.0952 2.8522 225.55 0.10908 13.017 0.038878 75.000 0.013333 713.90 769.27 2.6147 2.0952 2.8522 225.55 0.10908 13.017 0.038878
137.38 605.13 undefined 716.00 771.63 2.6198 75.000 0.013333 716.00 771.63 2.6198 2.0984 2.8490 226.24 0.10797 13.048 0.039021 75.000 0.013333 716.00 771.63 2.6198 2.0984 2.8490 226.24 0.10797 13.048 0.039021
138.38 607.98 undefined 718.10 773.99 2.6249 75.000 0.013333 718.10 773.99 2.6249 2.1015 2.8459 226.94 0.10688 13.078 0.039164 75.000 0.013333 718.10 773.99 2.6249 2.1015 2.8459 226.94 0.10688 13.078 0.039164
139.38 610.84 undefined 720.20 776.36 2.6300 75.000 0.013333 720.20 776.36 2.6300 2.1046 2.8429 227.62 0.10581 13.108 0.039307 75.000 0.013333 720.20 776.36 2.6300 2.1046 2.8429 227.62 0.10581 13.108 0.039307
140.38 613.68 undefined 722.31 778.73 2.6351 75.000 0.013333 722.31 778.73 2.6351 2.1078 2.8401 228.31 0.10475 13.138 0.039451 75.000 0.013333 722.31 778.73 2.6351 2.1078 2.8401 228.31 0.10475 13.138 0.039451
141.38 616.53 undefined 724.42 781.10 2.6402 75.000 0.013333 724.42 781.10 2.6402 2.1110 2.8375 229.00 0.10371 13.169 0.039596 75.000 0.013333 724.42 781.10 2.6402 2.1110 2.8375 229.00 0.10371 13.169 0.039596
142.38 619.37 undefined 726.53 783.47 2.6453 75.000 0.013333 726.53 783.47 2.6453 2.1142 2.8350 229.68 0.10268 13.199 0.039741 75.000 0.013333 726.53 783.47 2.6453 2.1142 2.8350 229.68 0.10268 13.199 0.039741
143.38 622.21 undefined 728.65 785.85 2.6504 75.000 0.013333 728.65 785.85 2.6504 2.1174 2.8326 230.36 0.10167 13.229 0.039886 75.000 0.013333 728.65 785.85 2.6504 2.1174 2.8326 230.36 0.10167 13.229 0.039886
144.38 625.05 undefined 730.77 788.23 2.6555 75.000 0.013333 730.77 788.23 2.6555 2.1206 2.8303 231.03 0.10067 13.259 0.040033 75.000 0.013333 730.77 788.23 2.6555 2.1206 2.8303 231.03 0.10067 13.259 0.040033
145.38 627.89 undefined 732.89 790.61 2.6605 75.000 0.013333 732.89 790.61 2.6605 2.1239 2.8282 231.71 0.099694 13.289 0.040179 75.000 0.013333 732.89 790.61 2.6605 2.1239 2.8282 231.71 0.099694 13.289 0.040179
146.38 630.72 undefined 735.01 793.00 2.6656 75.000 0.013333 735.01 793.00 2.6656 2.1271 2.8261 232.38 0.098727 13.319 0.040326 75.000 0.013333 735.01 793.00 2.6656 2.1271 2.8261 232.38 0.098727 13.319 0.040326
147.38 633.55 undefined 737.14 795.38 2.6707 75.000 0.013333 737.14 795.38 2.6707 2.1304 2.8242 233.05 0.097774 13.349 0.040474 75.000 0.013333 737.14 795.38 2.6707 2.1304 2.8242 233.05 0.097774 13.349 0.040474
148.38 636.37 undefined 739.27 797.78 2.6757 75.000 0.013333 739.27 797.78 2.6757 2.1336 2.8224 233.72 0.096835 13.379 0.040622 75.000 0.013333 739.27 797.78 2.6757 2.1336 2.8224 233.72 0.096835 13.379 0.040622
149.38 639.20 undefined 741.41 800.17 2.6808 75.000 0.013333 741.41 800.17 2.6808 2.1369 2.8208 234.39 0.095910 13.409 0.040770 75.000 0.013333 741.41 800.17 2.6808 2.1369 2.8208 234.39 0.095910 13.409 0.040770
150.38 642.02 undefined 743.55 802.57 2.6859 75.000 0.013333 743.55 802.57 2.6859 2.1402 2.8192 235.05 0.094997 13.439 0.040919 75.000 0.013333 743.55 802.57 2.6859 2.1402 2.8192 235.05 0.094997 13.439 0.040919
151.38 644.84 undefined 745.69 804.97 2.6909 75.000 0.013333 745.69 804.97 2.6909 2.1435 2.8177 235.71 0.094098 13.469 0.041069 75.000 0.013333 745.69 804.97 2.6909 2.1435 2.8177 235.71 0.094098 13.469 0.041069
152.38 647.66 undefined 747.84 807.37 2.6960 75.000 0.013333 747.84 807.37 2.6960 2.1468 2.8163 236.37 0.093212 13.499 0.041219 75.000 0.013333 747.84 807.37 2.6960 2.1468 2.8163 236.37 0.093212 13.499 0.041219
153.38 650.47 undefined 749.98 809.78 2.7010 75.000 0.013333 749.98 809.78 2.7010 2.1501 2.8150 237.03 0.092338 13.528 0.041369 75.000 0.013333 749.98 809.78 2.7010 2.1501 2.8150 237.03 0.092338 13.528 0.041369
154.38 653.28 undefined 752.14 812.19 2.7060 75.000 0.013333 752.14 812.19 2.7060 2.1534 2.8138 237.68 0.091476 13.558 0.041520 75.000 0.013333 752.14 812.19 2.7060 2.1534 2.8138 237.68 0.091476 13.558 0.041520
155.38 656.09 undefined 754.29 814.61 2.7111 75.000 0.013333 754.29 814.61 2.7111 2.1568 2.8127 238.33 0.090626 13.588 0.041671 75.000 0.013333 754.29 814.61 2.7111 2.1568 2.8127 238.33 0.090626 13.588 0.041671
156.38 658.90 undefined 756.45 817.02 2.7161 75.000 0.013333 756.45 817.02 2.7161 2.1601 2.8117 238.98 0.089788 13.618 0.041823 75.000 0.013333 756.45 817.02 2.7161 2.1601 2.8117 238.98 0.089788 13.618 0.041823
157.38 661.71 undefined 758.61 819.44 2.7211 75.000 0.013333 758.61 819.44 2.7211 2.1634 2.8108 239.63 0.088961 13.647 0.041975 75.000 0.013333 758.61 819.44 2.7211 2.1634 2.8108 239.63 0.088961 13.647 0.041975
158.38 664.51 undefined 760.78 821.86 2.7262 75.000 0.013333 760.78 821.86 2.7262 2.1668 2.8100 240.28 0.088146 13.677 0.042128 75.000 0.013333 760.78 821.86 2.7262 2.1668 2.8100 240.28 0.088146 13.677 0.042128
159.38 667.31 undefined 762.94 824.29 2.7312 75.000 0.013333 762.94 824.29 2.7312 2.1702 2.8092 240.92 0.087342 13.706 0.042281 75.000 0.013333 762.94 824.29 2.7312 2.1702 2.8092 240.92 0.087342 13.706 0.042281
160.38 670.11 undefined 765.12 826.72 2.7362 75.000 0.013333 765.12 826.72 2.7362 2.1735 2.8085 241.56 0.086549 13.736 0.042434 75.000 0.013333 765.12 826.72 2.7362 2.1735 2.8085 241.56 0.086549 13.736 0.042434
161.38 672.91 undefined 767.29 829.15 2.7412 75.000 0.013333 767.29 829.15 2.7412 2.1769 2.8079 242.20 0.085767 13.766 0.042588 75.000 0.013333 767.29 829.15 2.7412 2.1769 2.8079 242.20 0.085767 13.766 0.042588
162.38 675.70 undefined 769.47 831.59 2.7462 75.000 0.013333 769.47 831.59 2.7462 2.1803 2.8074 242.84 0.084995 13.795 0.042742 75.000 0.013333 769.47 831.59 2.7462 2.1803 2.8074 242.84 0.084995 13.795 0.042742
163.38 678.49 undefined 771.65 834.03 2.7512 75.000 0.013333 771.65 834.03 2.7512 2.1837 2.8070 243.48 0.084233 13.824 0.042897 75.000 0.013333 771.65 834.03 2.7512 2.1837 2.8070 243.48 0.084233 13.824 0.042897
164.38 681.28 undefined 773.84 836.47 2.7562 75.000 0.013333 773.84 836.47 2.7562 2.1871 2.8066 244.11 0.083482 13.854 0.043052 75.000 0.013333 773.84 836.47 2.7562 2.1871 2.8066 244.11 0.083482 13.854 0.043052
165.38 684.07 undefined 776.03 838.91 2.7612 75.000 0.013333 776.03 838.91 2.7612 2.1905 2.8063 244.75 0.082740 13.883 0.043208 75.000 0.013333 776.03 838.91 2.7612 2.1905 2.8063 244.75 0.082740 13.883 0.043208
166.38 686.86 undefined 778.22 841.36 2.7662 75.000 0.013333 778.22 841.36 2.7662 2.1939 2.8060 245.38 0.082008 13.913 0.043363 75.000 0.013333 778.22 841.36 2.7662 2.1939 2.8060 245.38 0.082008 13.913 0.043363
167.38 689.64 undefined 780.41 843.81 2.7712 75.000 0.013333 780.41 843.81 2.7712 2.1973 2.8058 246.01 0.081286 13.942 0.043520 75.000 0.013333 780.41 843.81 2.7712 2.1973 2.8058 246.01 0.081286 13.942 0.043520
168.38 692.43 undefined 782.61 846.27 2.7762 75.000 0.013333 782.61 846.27 2.7762 2.2007 2.8057 246.63 0.080574 13.971 0.043676 75.000 0.013333 782.61 846.27 2.7762 2.2007 2.8057 246.63 0.080574 13.971 0.043676
169.38 695.21 undefined 784.82 848.73 2.7812 75.000 0.013333 784.82 848.73 2.7812 2.2042 2.8057 247.26 0.079870 14.001 0.043833 75.000 0.013333 784.82 848.73 2.7812 2.2042 2.8057 247.26 0.079870 14.001 0.043833
170.38 697.98 undefined 787.02 851.19 2.7861 75.000 0.013333 787.02 851.19 2.7861 2.2076 2.8057 247.88 0.079176 14.030 0.043991 75.000 0.013333 787.02 851.19 2.7861 2.2076 2.8057 247.88 0.079176 14.030 0.043991
171.38 700.76 undefined 789.23 853.65 2.7911 75.000 0.013333 789.23 853.65 2.7911 2.2110 2.8058 248.50 0.078490 14.059 0.044149 75.000 0.013333 789.23 853.65 2.7911 2.2110 2.8058 248.50 0.078490 14.059 0.044149
172.38 703.54 undefined 791.44 856.12 2.7961 75.000 0.013333 791.44 856.12 2.7961 2.2145 2.8059 249.12 0.077814 14.088 0.044307 75.000 0.013333 791.44 856.12 2.7961 2.2145 2.8059 249.12 0.077814 14.088 0.044307
173.38 706.31 undefined 793.66 858.59 2.8011 75.000 0.013333 793.66 858.59 2.8011 2.2179 2.8061 249.74 0.077146 14.117 0.044466 75.000 0.013333 793.66 858.59 2.8011 2.2179 2.8061 249.74 0.077146 14.117 0.044466
174.38 709.08 undefined 795.88 861.06 2.8060 75.000 0.013333 795.88 861.06 2.8060 2.2214 2.8064 250.35 0.076486 14.146 0.044625 75.000 0.013333 795.88 861.06 2.8060 2.2214 2.8064 250.35 0.076486 14.146 0.044625
175.38 711.85 undefined 798.10 863.54 2.8110 75.000 0.013333 798.10 863.54 2.8110 2.2248 2.8067 250.97 0.075835 14.175 0.044784 75.000 0.013333 798.10 863.54 2.8110 2.2248 2.8067 250.97 0.075835 14.175 0.044784
176.38 714.62 undefined 800.33 866.02 2.8160 75.000 0.013333 800.33 866.02 2.8160 2.2283 2.8070 251.58 0.075192 14.204 0.044944 75.000 0.013333 800.33 866.02 2.8160 2.2283 2.8070 251.58 0.075192 14.204 0.044944
177.38 717.38 undefined 802.56 868.51 2.8209 75.000 0.013333 802.56 868.51 2.8209 2.2317 2.8074 252.19 0.074557 14.233 0.045104 75.000 0.013333 802.56 868.51 2.8209 2.2317 2.8074 252.19 0.074557 14.233 0.045104
178.38 720.15 undefined 804.79 871.00 2.8259 75.000 0.013333 804.79 871.00 2.8259 2.2352 2.8079 252.80 0.073930 14.262 0.045265 75.000 0.013333 804.79 871.00 2.8259 2.2352 2.8079 252.80 0.073930 14.262 0.045265
179.38 722.91 undefined 807.03 873.49 2.8308 75.000 0.013333 807.03 873.49 2.8308 2.2387 2.8084 253.41 0.073311 14.291 0.045425 75.000 0.013333 807.03 873.49 2.8308 2.2387 2.8084 253.41 0.073311 14.291 0.045425
180.38 725.67 undefined 809.27 875.98 2.8358 75.000 0.013333 809.27 875.98 2.8358 2.2422 2.8090 254.01 0.072699 14.320 0.045587 75.000 0.013333 809.27 875.98 2.8358 2.2422 2.8090 254.01 0.072699 14.320 0.045587
181.38 728.43 undefined 811.51 878.48 2.8407 75.000 0.013333 811.51 878.48 2.8407 2.2456 2.8096 254.62 0.072095 14.349 0.045748 75.000 0.013333 811.51 878.48 2.8407 2.2456 2.8096 254.62 0.072095 14.349 0.045748
182.38 731.19 undefined 813.76 880.98 2.8456 75.000 0.013333 813.76 880.98 2.8456 2.2491 2.8102 255.22 0.071498 14.378 0.045910 75.000 0.013333 813.76 880.98 2.8456 2.2491 2.8102 255.22 0.071498 14.378 0.045910
183.38 733.94 undefined 816.01 883.48 2.8506 75.000 0.013333 816.01 883.48 2.8506 2.2526 2.8109 255.82 0.070909 14.407 0.046073 75.000 0.013333 816.01 883.48 2.8506 2.2526 2.8109 255.82 0.070909 14.407 0.046073
184.38 736.69 undefined 818.27 885.99 2.8555 75.000 0.013333 818.27 885.99 2.8555 2.2561 2.8116 256.42 0.070327 14.435 0.046235 75.000 0.013333 818.27 885.99 2.8555 2.2561 2.8116 256.42 0.070327 14.435 0.046235
185.38 739.45 undefined 820.52 888.50 2.8604 75.000 0.013333 820.52 888.50 2.8604 2.2596 2.8124 257.02 0.069752 14.464 0.046398 75.000 0.013333 820.52 888.50 2.8604 2.2596 2.8124 257.02 0.069752 14.464 0.046398
186.38 742.20 undefined 822.79 891.02 2.8654 75.000 0.013333 822.79 891.02 2.8654 2.2631 2.8133 257.61 0.069183 14.493 0.046562 75.000 0.013333 822.79 891.02 2.8654 2.2631 2.8133 257.61 0.069183 14.493 0.046562
187.38 744.95 undefined 825.05 893.53 2.8703 75.000 0.013333 825.05 893.53 2.8703 2.2666 2.8141 258.21 0.068622 14.522 0.046726 75.000 0.013333 825.05 893.53 2.8703 2.2666 2.8141 258.21 0.068622 14.522 0.046726
188.38 747.70 undefined 827.32 896.05 2.8752 75.000 0.013333 827.32 896.05 2.8752 2.2701 2.8150 258.80 0.068067 14.550 0.046890 75.000 0.013333 827.32 896.05 2.8752 2.2701 2.8150 258.80 0.068067 14.550 0.046890
189.38 750.44 undefined 829.59 898.58 2.8801 75.000 0.013333 829.59 898.58 2.8801 2.2736 2.8160 259.39 0.067519 14.579 0.047054 75.000 0.013333 829.59 898.58 2.8801 2.2736 2.8160 259.39 0.067519 14.579 0.047054
190.38 753.19 undefined 831.87 901.11 2.8850 75.000 0.013333 831.87 901.11 2.8850 2.2771 2.8170 259.98 0.066977 14.607 0.047219 75.000 0.013333 831.87 901.11 2.8850 2.2771 2.8170 259.98 0.066977 14.607 0.047219
191.38 755.93 undefined 834.14 903.64 2.8899 75.000 0.013333 834.14 903.64 2.8899 2.2806 2.8180 260.57 0.066442 14.636 0.047384 75.000 0.013333 834.14 903.64 2.8899 2.2806 2.8180 260.57 0.066442 14.636 0.047384
192.38 758.67 undefined 836.43 906.17 2.8949 75.000 0.013333 836.43 906.17 2.8949 2.2841 2.8191 261.16 0.065913 14.664 0.047550 75.000 0.013333 836.43 906.17 2.8949 2.2841 2.8191 261.16 0.065913 14.664 0.047550
193.38 761.41 undefined 838.71 908.71 2.8998 75.000 0.013333 838.71 908.71 2.8998 2.2876 2.8202 261.74 0.065390 14.693 0.047716 75.000 0.013333 838.71 908.71 2.8998 2.2876 2.8202 261.74 0.065390 14.693 0.047716
194.38 764.15 undefined 841.00 911.25 2.9047 75.000 0.013333 841.00 911.25 2.9047 2.2911 2.8213 262.33 0.064874 14.721 0.047882 75.000 0.013333 841.00 911.25 2.9047 2.2911 2.8213 262.33 0.064874 14.721 0.047882
195.38 766.89 undefined 843.29 913.79 2.9096 75.000 0.013333 843.29 913.79 2.9096 2.2946 2.8225 262.91 0.064363 14.750 0.048048 75.000 0.013333 843.29 913.79 2.9096 2.2946 2.8225 262.91 0.064363 14.750 0.048048
196.38 769.63 undefined 845.59 916.34 2.9145 75.000 0.013333 845.59 916.34 2.9145 2.2981 2.8237 263.49 0.063858 14.778 0.048215 75.000 0.013333 845.59 916.34 2.9145 2.2981 2.8237 263.49 0.063858 14.778 0.048215
197.38 772.36 undefined 847.89 918.89 2.9193 75.000 0.013333 847.89 918.89 2.9193 2.3017 2.8249 264.07 0.063359 14.807 0.048382 75.000 0.013333 847.89 918.89 2.9193 2.3017 2.8249 264.07 0.063359 14.807 0.048382
198.38 775.09 undefined 850.19 921.45 2.9242 75.000 0.013333 850.19 921.45 2.9242 2.3052 2.8262 264.65 0.062866 14.835 0.048550 75.000 0.013333 850.19 921.45 2.9242 2.3052 2.8262 264.65 0.062866 14.835 0.048550
199.38 777.83 undefined 852.50 924.01 2.9291 75.000 0.013333 852.50 924.01 2.9291 2.3087 2.8275 265.22 0.062378 14.863 0.048718 75.000 0.013333 852.50 924.01 2.9291 2.3087 2.8275 265.22 0.062378 14.863 0.048718
200.38 780.56 undefined 854.81 926.57 2.9340 75.000 0.013333 854.81 926.57 2.9340 2.3122 2.8288 265.80 0.061896 14.891 0.048886 75.000 0.013333 854.81 926.57 2.9340 2.3122 2.8288 265.80 0.061896 14.891 0.048886
201.38 783.29 undefined 857.13 929.13 2.9389 75.000 0.013333 857.13 929.13 2.9389 2.3158 2.8302 266.37 0.061419 14.920 0.049055 75.000 0.013333 857.13 929.13 2.9389 2.3158 2.8302 266.37 0.061419 14.920 0.049055
202.38 786.02 undefined 859.44 931.70 2.9438 75.000 0.013333 859.44 931.70 2.9438 2.3193 2.8316 266.94 0.060948 14.948 0.049224 75.000 0.013333 859.44 931.70 2.9438 2.3193 2.8316 266.94 0.060948 14.948 0.049224
203.38 788.74 undefined 861.76 934.27 2.9486 75.000 0.013333 861.76 934.27 2.9486 2.3228 2.8330 267.51 0.060482 14.976 0.049393 75.000 0.013333 861.76 934.27 2.9486 2.3228 2.8330 267.51 0.060482 14.976 0.049393
204.38 791.47 undefined 864.09 936.85 2.9535 75.000 0.013333 864.09 936.85 2.9535 2.3263 2.8344 268.08 0.060021 15.004 0.049562 75.000 0.013333 864.09 936.85 2.9535 2.3263 2.8344 268.08 0.060021 15.004 0.049562
205.38 794.19 undefined 866.42 939.43 2.9584 75.000 0.013333 866.42 939.43 2.9584 2.3299 2.8359 268.65 0.059566 15.032 0.049732 75.000 0.013333 866.42 939.43 2.9584 2.3299 2.8359 268.65 0.059566 15.032 0.049732
206.38 796.92 undefined 868.75 942.01 2.9633 75.000 0.013333 868.75 942.01 2.9633 2.3334 2.8374 269.22 0.059115 15.060 0.049902 75.000 0.013333 868.75 942.01 2.9633 2.3334 2.8374 269.22 0.059115 15.060 0.049902
207.38 799.64 undefined 871.08 944.59 2.9681 75.000 0.013333 871.08 944.59 2.9681 2.3369 2.8389 269.78 0.058670 15.088 0.050073 75.000 0.013333 871.08 944.59 2.9681 2.3369 2.8389 269.78 0.058670 15.088 0.050073
208.38 802.36 undefined 873.42 947.18 2.9730 75.000 0.013333 873.42 947.18 2.9730 2.3405 2.8405 270.35 0.058229 15.116 0.050244 75.000 0.013333 873.42 947.18 2.9730 2.3405 2.8405 270.35 0.058229 15.116 0.050244
209.38 805.08 undefined 875.76 949.78 2.9778 75.000 0.013333 875.76 949.78 2.9778 2.3440 2.8421 270.91 0.057793 15.144 0.050415 75.000 0.013333 875.76 949.78 2.9778 2.3440 2.8421 270.91 0.057793 15.144 0.050415
210.38 807.80 undefined 878.11 952.37 2.9827 75.000 0.013333 878.11 952.37 2.9827 2.3475 2.8437 271.47 0.057362 15.172 0.050587 75.000 0.013333 878.11 952.37 2.9827 2.3475 2.8437 271.47 0.057362 15.172 0.050587
211.38 810.51 undefined 880.46 954.97 2.9876 75.000 0.013333 880.46 954.97 2.9876 2.3511 2.8453 272.03 0.056936 15.200 0.050758 75.000 0.013333 880.46 954.97 2.9876 2.3511 2.8453 272.03 0.056936 15.200 0.050758
212.38 813.23 undefined 882.81 957.57 2.9924 75.000 0.013333 882.81 957.57 2.9924 2.3546 2.8470 272.59 0.056514 15.228 0.050931 75.000 0.013333 882.81 957.57 2.9924 2.3546 2.8470 272.59 0.056514 15.228 0.050931
213.38 815.94 undefined 885.17 960.18 2.9973 75.000 0.013333 885.17 960.18 2.9973 2.3581 2.8487 273.15 0.056097 15.256 0.051103 75.000 0.013333 885.17 960.18 2.9973 2.3581 2.8487 273.15 0.056097 15.256 0.051103
214.38 818.66 undefined 887.53 962.79 3.0021 75.000 0.013333 887.53 962.79 3.0021 2.3617 2.8504 273.70 0.055684 15.284 0.051276 75.000 0.013333 887.53 962.79 3.0021 2.3617 2.8504 273.70 0.055684 15.284 0.051276
215.38 821.37 undefined 889.89 965.40 3.0069 75.000 0.013333 889.89 965.40 3.0069 2.3652 2.8521 274.26 0.055276 15.312 0.051449 75.000 0.013333 889.89 965.40 3.0069 2.3652 2.8521 274.26 0.055276 15.312 0.051449
216.38 824.08 undefined 892.26 968.02 3.0118 75.000 0.013333 892.26 968.02 3.0118 2.3687 2.8538 274.81 0.054872 15.340 0.051622 75.000 0.013333 892.26 968.02 3.0118 2.3687 2.8538 274.81 0.054872 15.340 0.051622
217.38 826.79 undefined 894.63 970.64 3.0166 75.000 0.013333 894.63 970.64 3.0166 2.3723 2.8556 275.36 0.054472 15.367 0.051796 75.000 0.013333 894.63 970.64 3.0166 2.3723 2.8556 275.36 0.054472 15.367 0.051796
218.38 829.50 undefined 897.00 973.26 3.0215 75.000 0.013333 897.00 973.26 3.0215 2.3758 2.8574 275.91 0.054077 15.395 0.051970 75.000 0.013333 897.00 973.26 3.0215 2.3758 2.8574 275.91 0.054077 15.395 0.051970
219.38 832.21 undefined 899.38 975.89 3.0263 75.000 0.013333 899.38 975.89 3.0263 2.3794 2.8592 276.46 0.053686 15.423 0.052145 75.000 0.013333 899.38 975.89 3.0263 2.3794 2.8592 276.46 0.053686 15.423 0.052145
220.38 834.92 undefined 901.76 978.52 3.0311 75.000 0.013333 901.76 978.52 3.0311 2.3829 2.8610 277.01 0.053299 15.450 0.052319 75.000 0.013333 901.76 978.52 3.0311 2.3829 2.8610 277.01 0.053299 15.450 0.052319
221.38 837.63 undefined 904.15 981.15 3.0359 75.000 0.013333 904.15 981.15 3.0359 2.3864 2.8629 277.56 0.052915 15.478 0.052494 75.000 0.013333 904.15 981.15 3.0359 2.3864 2.8629 277.56 0.052915 15.478 0.052494
222.38 840.33 undefined 906.54 983.79 3.0408 75.000 0.013333 906.54 983.79 3.0408 2.3900 2.8648 278.11 0.052536 15.506 0.052670 75.000 0.013333 906.54 983.79 3.0408 2.3900 2.8648 278.11 0.052536 15.506 0.052670
223.38 843.03 undefined 908.93 986.43 3.0456 75.000 0.013333 908.93 986.43 3.0456 2.3935 2.8667 278.65 0.052161 15.533 0.052845 75.000 0.013333 908.93 986.43 3.0456 2.3935 2.8667 278.65 0.052161 15.533 0.052845
224.38 845.74 undefined 911.32 989.07 3.0504 75.000 0.013333 911.32 989.07 3.0504 2.3970 2.8686 279.20 0.051790 15.561 0.053021 75.000 0.013333 911.32 989.07 3.0504 2.3970 2.8686 279.20 0.051790 15.561 0.053021
225.38 848.44 undefined 913.72 991.72 3.0552 75.000 0.013333 913.72 991.72 3.0552 2.4006 2.8705 279.74 0.051423 15.588 0.053197 75.000 0.013333 913.72 991.72 3.0552 2.4006 2.8705 279.74 0.051423 15.588 0.053197
226.38 851.14 undefined 916.12 994.37 3.0600 75.000 0.013333 916.12 994.37 3.0600 2.4041 2.8724 280.28 0.051059 15.616 0.053374 75.000 0.013333 916.12 994.37 3.0600 2.4041 2.8724 280.28 0.051059 15.616 0.053374
227.38 853.84 undefined 918.53 997.02 3.0648 75.000 0.013333 918.53 997.02 3.0648 2.4076 2.8744 280.82 0.050699 15.643 0.053551 75.000 0.013333 918.53 997.02 3.0648 2.4076 2.8744 280.82 0.050699 15.643 0.053551
228.38 856.54 undefined 920.94 999.68 3.0697 75.000 0.013333 920.94 999.68 3.0697 2.4112 2.8764 281.36 0.050343 15.670 0.053728 75.000 0.013333 920.94 999.68 3.0697 2.4112 2.8764 281.36 0.050343 15.670 0.053728
229.38 859.24 undefined 923.35 1002.3 3.0745 75.000 0.013333 923.35 1002.3 3.0745 2.4147 2.8784 281.90 0.049991 15.698 0.053905 75.000 0.013333 923.35 1002.3 3.0745 2.4147 2.8784 281.90 0.049991 15.698 0.053905
230.38 861.94 undefined 925.77 1005.0 3.0793 75.000 0.013333 925.77 1005.0 3.0793 2.4182 2.8804 282.43 0.049642 15.725 0.054083 75.000 0.013333 925.77 1005.0 3.0793 2.4182 2.8804 282.43 0.049642 15.725 0.054083
231.38 864.63 undefined 928.19 1007.7 3.0841 75.000 0.013333 928.19 1007.7 3.0841 2.4218 2.8824 282.97 0.049296 15.753 0.054261 75.000 0.013333 928.19 1007.7 3.0841 2.4218 2.8824 282.97 0.049296 15.753 0.054261
232.38 867.33 undefined 930.61 1010.3 3.0889 75.000 0.013333 930.61 1010.3 3.0889 2.4253 2.8845 283.50 0.048954 15.780 0.054440 75.000 0.013333 930.61 1010.3 3.0889 2.4253 2.8845 283.50 0.048954 15.780 0.054440
233.38 870.02 undefined 933.04 1013.0 3.0937 75.000 0.013333 933.04 1013.0 3.0937 2.4288 2.8865 284.04 0.048616 15.807 0.054618 75.000 0.013333 933.04 1013.0 3.0937 2.4288 2.8865 284.04 0.048616 15.807 0.054618
234.38 872.72 undefined 935.47 1015.7 3.0985 75.000 0.013333 935.47 1015.7 3.0985 2.4323 2.8886 284.57 0.048281 15.834 0.054797 75.000 0.013333 935.47 1015.7 3.0985 2.4323 2.8886 284.57 0.048281 15.834 0.054797
235.38 875.41 undefined 937.90 1018.4 3.1032 75.000 0.013333 937.90 1018.4 3.1032 2.4359 2.8907 285.10 0.047949 15.862 0.054976 75.000 0.013333 937.90 1018.4 3.1032 2.4359 2.8907 285.10 0.047949 15.862 0.054976
236.38 878.10 undefined 940.34 1021.1 3.1080 75.000 0.013333 940.34 1021.1 3.1080 2.4394 2.8928 285.63 0.047620 15.889 0.055156 75.000 0.013333 940.34 1021.1 3.1080 2.4394 2.8928 285.63 0.047620 15.889 0.055156
237.38 880.79 undefined 942.78 1023.8 3.1128 75.000 0.013333 942.78 1023.8 3.1128 2.4429 2.8949 286.16 0.047295 15.916 0.055336 75.000 0.013333 942.78 1023.8 3.1128 2.4429 2.8949 286.16 0.047295 15.916 0.055336
238.38 883.48 undefined 945.23 1026.4 3.1176 75.000 0.013333 945.23 1026.4 3.1176 2.4464 2.8971 286.69 0.046973 15.943 0.055516 75.000 0.013333 945.23 1026.4 3.1176 2.4464 2.8971 286.69 0.046973 15.943 0.055516
239.38 886.17 undefined 947.68 1029.1 3.1224 75.000 0.013333 947.68 1029.1 3.1224 2.4500 2.8992 287.22 0.046654 15.970 0.055696 75.000 0.013333 947.68 1029.1 3.1224 2.4500 2.8992 287.22 0.046654 15.970 0.055696
240.38 888.86 undefined 950.13 1031.8 3.1272 75.000 0.013333 950.13 1031.8 3.1272 2.4535 2.9014 287.74 0.046339 15.997 0.055877 75.000 0.013333 950.13 1031.8 3.1272 2.4535 2.9014 287.74 0.046339 15.997 0.055877
241.38 891.55 undefined 952.58 1034.5 3.1319 75.000 0.013333 952.58 1034.5 3.1319 2.4570 2.9035 288.27 0.046026 16.024 0.056058 75.000 0.013333 952.58 1034.5 3.1319 2.4570 2.9035 288.27 0.046026 16.024 0.056058
242.38 894.24 undefined 955.04 1037.2 3.1367 75.000 0.013333 955.04 1037.2 3.1367 2.4605 2.9057 288.79 0.045716 16.051 0.056239 75.000 0.013333 955.04 1037.2 3.1367 2.4605 2.9057 288.79 0.045716 16.051 0.056239
243.38 896.92 undefined 957.50 1040.0 3.1415 75.000 0.013333 957.50 1040.0 3.1415 2.4640 2.9079 289.31 0.045410 16.078 0.056421 75.000 0.013333 957.50 1040.0 3.1415 2.4640 2.9079 289.31 0.045410 16.078 0.056421
244.38 899.61 undefined 959.97 1042.7 3.1463 75.000 0.013333 959.97 1042.7 3.1463 2.4675 2.9101 289.83 0.045106 16.105 0.056603 75.000 0.013333 959.97 1042.7 3.1463 2.4675 2.9101 289.83 0.045106 16.105 0.056603
245.38 902.29 undefined 962.44 1045.4 3.1510 75.000 0.013333 962.44 1045.4 3.1510 2.4711 2.9124 290.35 0.044805 16.132 0.056785 75.000 0.013333 962.44 1045.4 3.1510 2.4711 2.9124 290.35 0.044805 16.132 0.056785
246.38 904.97 undefined 964.91 1048.1 3.1558 75.000 0.013333 964.91 1048.1 3.1558 2.4746 2.9146 290.87 0.044507 16.159 0.056967 75.000 0.013333 964.91 1048.1 3.1558 2.4746 2.9146 290.87 0.044507 16.159 0.056967
247.38 907.66 undefined 967.39 1050.8 3.1606 75.000 0.013333 967.39 1050.8 3.1606 2.4781 2.9168 291.39 0.044212 16.186 0.057150 75.000 0.013333 967.39 1050.8 3.1606 2.4781 2.9168 291.39 0.044212 16.186 0.057150
248.38 910.34 undefined 969.87 1053.6 3.1653 75.000 0.013333 969.87 1053.6 3.1653 2.4816 2.9191 291.91 0.043920 16.212 0.057333 75.000 0.013333 969.87 1053.6 3.1653 2.4816 2.9191 291.91 0.043920 16.212 0.057333
249.38 913.02 undefined 972.35 1056.3 3.1701 75.000 0.013333 972.35 1056.3 3.1701 2.4851 2.9214 292.43 0.043631 16.239 0.057516 75.000 0.013333 972.35 1056.3 3.1701 2.4851 2.9214 292.43 0.043631 16.239 0.057516
250.38 915.70 undefined 974.84 1059.0 3.1748 75.000 0.013333 974.84 1059.0 3.1748 2.4886 2.9236 292.94 0.043344 16.266 0.057699 75.000 0.013333 974.84 1059.0 3.1748 2.4886 2.9236 292.94 0.043344 16.266 0.057699
251.38 918.38 undefined 977.33 1061.8 3.1796 75.000 0.013333 977.33 1061.8 3.1796 2.4921 2.9259 293.46 0.043060 16.293 0.057883 75.000 0.013333 977.33 1061.8 3.1796 2.4921 2.9259 293.46 0.043060 16.293 0.057883
252.38 921.06 undefined 979.82 1064.5 3.1843 75.000 0.013333 979.82 1064.5 3.1843 2.4956 2.9282 293.97 0.042779 16.319 0.058067 75.000 0.013333 979.82 1064.5 3.1843 2.4956 2.9282 293.97 0.042779 16.319 0.058067
253.38 923.74 undefined 982.32 1067.2 3.1891 75.000 0.013333 982.32 1067.2 3.1891 2.4991 2.9305 294.48 0.042500 16.346 0.058251 75.000 0.013333 982.32 1067.2 3.1891 2.4991 2.9305 294.48 0.042500 16.346 0.058251
254.38 926.42 undefined 984.82 1070.0 3.1938 75.000 0.013333 984.82 1070.0 3.1938 2.5026 2.9329 294.99 0.042224 16.373 0.058436 75.000 0.013333 984.82 1070.0 3.1938 2.5026 2.9329 294.99 0.042224 16.373 0.058436
255.38 929.09 undefined 987.32 1072.7 3.1986 75.000 0.013333 987.32 1072.7 3.1986 2.5061 2.9352 295.51 0.041950 16.399 0.058621 75.000 0.013333 987.32 1072.7 3.1986 2.5061 2.9352 295.51 0.041950 16.399 0.058621
256.38 931.77 undefined 989.83 1075.5 3.2033 75.000 0.013333 989.83 1075.5 3.2033 2.5096 2.9375 296.01 0.041679 16.426 0.058806 75.000 0.013333 989.83 1075.5 3.2033 2.5096 2.9375 296.01 0.041679 16.426 0.058806
257.38 934.44 undefined 992.34 1078.2 3.2080 75.000 0.013333 992.34 1078.2 3.2080 2.5131 2.9399 296.52 0.041411 16.453 0.058991 75.000 0.013333 992.34 1078.2 3.2080 2.5131 2.9399 296.52 0.041411 16.453 0.058991
258.38 937.12 undefined 994.86 1081.0 3.2128 75.000 0.013333 994.86 1081.0 3.2128 2.5166 2.9422 297.03 0.041145 16.479 0.059177 75.000 0.013333 994.86 1081.0 3.2128 2.5166 2.9422 297.03 0.041145 16.479 0.059177
259.38 939.79 undefined 997.38 1083.8 3.2175 75.000 0.013333 997.38 1083.8 3.2175 2.5200 2.9446 297.54 0.040881 16.506 0.059362 75.000 0.013333 997.38 1083.8 3.2175 2.5200 2.9446 297.54 0.040881 16.506 0.059362
260.38 942.46 undefined 999.90 1086.5 3.2222 75.000 0.013333 999.90 1086.5 3.2222 2.5235 2.9470 298.04 0.040620 16.532 0.059548 75.000 0.013333 999.90 1086.5 3.2222 2.5235 2.9470 298.04 0.040620 16.532 0.059548
261.38 945.14 undefined 1002.4 1089.3 3.2270 75.000 0.013333 1002.4 1089.3 3.2270 2.5270 2.9494 298.55 0.040361 16.558 0.059735 75.000 0.013333 1002.4 1089.3 3.2270 2.5270 2.9494 298.55 0.040361 16.558 0.059735
262.38 947.81 undefined 1005.0 1092.1 3.2317 75.000 0.013333 1005.0 1092.1 3.2317 2.5305 2.9518 299.05 0.040105 16.585 0.059921 75.000 0.013333 1005.0 1092.1 3.2317 2.5305 2.9518 299.05 0.040105 16.585 0.059921
263.38 950.48 undefined 1007.5 1094.9 3.2364 75.000 0.013333 1007.5 1094.9 3.2364 2.5340 2.9542 299.56 0.039851 16.611 0.060108 75.000 0.013333 1007.5 1094.9 3.2364 2.5340 2.9542 299.56 0.039851 16.611 0.060108
264.38 953.15 undefined 1010.0 1097.6 3.2411 75.000 0.013333 1010.0 1097.6 3.2411 2.5374 2.9566 300.06 0.039599 16.638 0.060295 75.000 0.013333 1010.0 1097.6 3.2411 2.5374 2.9566 300.06 0.039599 16.638 0.060295
265.38 955.82 undefined 1012.6 1100.4 3.2459 75.000 0.013333 1012.6 1100.4 3.2459 2.5409 2.9590 300.56 0.039349 16.664 0.060482 75.000 0.013333 1012.6 1100.4 3.2459 2.5409 2.9590 300.56 0.039349 16.664 0.060482
266.38 958.49 undefined 1015.1 1103.2 3.2506 75.000 0.013333 1015.1 1103.2 3.2506 2.5444 2.9614 301.06 0.039102 16.690 0.060669 75.000 0.013333 1015.1 1103.2 3.2506 2.5444 2.9614 301.06 0.039102 16.690 0.060669
267.38 961.16 undefined 1017.6 1106.0 3.2553 75.000 0.013333 1017.6 1106.0 3.2553 2.5478 2.9638 301.56 0.038857 16.717 0.060856 75.000 0.013333 1017.6 1106.0 3.2553 2.5478 2.9638 301.56 0.038857 16.717 0.060856
268.38 963.83 undefined 1020.2 1108.8 3.2600 75.000 0.013333 1020.2 1108.8 3.2600 2.5513 2.9663 302.06 0.038614 16.743 0.061044 75.000 0.013333 1020.2 1108.8 3.2600 2.5513 2.9663 302.06 0.038614 16.743 0.061044
269.38 966.49 undefined 1022.8 1111.6 3.2647 75.000 0.013333 1022.8 1111.6 3.2647 2.5548 2.9687 302.55 0.038373 16.769 0.061232 75.000 0.013333 1022.8 1111.6 3.2647 2.5548 2.9687 302.55 0.038373 16.769 0.061232
270.38 969.16 undefined 1025.3 1114.4 3.2694 75.000 0.013333 1025.3 1114.4 3.2694 2.5582 2.9712 303.05 0.038134 16.795 0.061419 75.000 0.013333 1025.3 1114.4 3.2694 2.5582 2.9712 303.05 0.038134 16.795 0.061419
271.38 971.82 undefined 1027.9 1117.2 3.2741 75.000 0.013333 1027.9 1117.2 3.2741 2.5617 2.9736 303.55 0.037898 16.821 0.061607 75.000 0.013333 1027.9 1117.2 3.2741 2.5617 2.9736 303.55 0.037898 16.821 0.061607
272.38 974.49 undefined 1030.4 1120.0 3.2788 75.000 0.013333 1030.4 1120.0 3.2788 2.5651 2.9761 304.04 0.037663 16.847 0.061795 75.000 0.013333 1030.4 1120.0 3.2788 2.5651 2.9761 304.04 0.037663 16.847 0.061795
273.38 977.15 undefined 1033.0 1122.8 3.2835 75.000 0.013333 1033.0 1122.8 3.2835 2.5686 2.9785 304.53 0.037431 16.874 0.061983 75.000 0.013333 1033.0 1122.8 3.2835 2.5686 2.9785 304.53 0.037431 16.874 0.061983
274.38 979.82 undefined 1035.6 1125.6 3.2882 75.000 0.013333 1035.6 1125.6 3.2882 2.5720 2.9810 305.03 0.037201 16.900 0.062171 75.000 0.013333 1035.6 1125.6 3.2882 2.5720 2.9810 305.03 0.037201 16.900 0.062171
275.38 982.48 undefined 1038.1 1128.5 3.2929 75.000 0.013333 1038.1 1128.5 3.2929 2.5755 2.9835 305.52 0.036972 16.926 0.062359 75.000 0.013333 1038.1 1128.5 3.2929 2.5755 2.9835 305.52 0.036972 16.926 0.062359
276.38 985.15 undefined 1040.7 1131.3 3.2976 75.000 0.013333 1040.7 1131.3 3.2976 2.5789 2.9860 306.01 0.036746 16.952 0.062547 75.000 0.013333 1040.7 1131.3 3.2976 2.5789 2.9860 306.01 0.036746 16.952 0.062547
277.38 987.81 undefined 1043.3 1134.1 3.3023 75.000 0.013333 1043.3 1134.1 3.3023 2.5824 2.9885 306.50 0.036521 16.978 0.062734 75.000 0.013333 1043.3 1134.1 3.3023 2.5824 2.9885 306.50 0.036521 16.978 0.062734
278.38 990.47 undefined 1045.9 1136.9 3.3070 75.000 0.013333 1045.9 1136.9 3.3070 2.5858 2.9910 306.99 0.036299 17.004 0.062920 75.000 0.013333 1045.9 1136.9 3.3070 2.5858 2.9910 306.99 0.036299 17.004 0.062920
279.38 993.13 undefined 1048.5 1139.8 3.3117 75.000 0.013333 1048.5 1139.8 3.3117 2.5892 2.9935 307.48 0.036078 17.030 0.063105 75.000 0.013333 1048.5 1139.8 3.3117 2.5892 2.9935 307.48 0.036078 17.030 0.063105
280.38 995.79 undefined 1051.1 1142.6 3.3164 75.000 0.013333 1051.1 1142.6 3.3164 2.5927 2.9960 307.97 0.035860 17.056 0.063288 75.000 0.013333 1051.1 1142.6 3.3164 2.5927 2.9960 307.97 0.035860 17.056 0.063288
281.38 998.45 undefined 1053.7 1145.4 3.3211 75.000 0.013333 1053.7 1145.4 3.3211 2.5961 2.9985 308.46 0.035643 17.081 0.063462 75.000 0.013333 1053.7 1145.4 3.3211 2.5961 2.9985 308.46 0.035643 17.081 0.063462
282.38 1001.1 undefined 1056.3 1148.3 3.3257 75.000 0.013333 1056.3 1148.3 3.3257 2.5995 3.0010 308.94 0.035428 17.107 0.063644 75.000 0.013333 1056.3 1148.3 3.3257 2.5995 3.0010 308.94 0.035428 17.107 0.063644
283.38 1003.8 undefined 1058.9 1151.1 3.3304 75.000 0.013333 1058.9 1151.1 3.3304 2.6030 3.0036 309.43 0.035215 17.133 0.063841 75.000 0.013333 1058.9 1151.1 3.3304 2.6030 3.0036 309.43 0.035215 17.133 0.063841
284.38 1006.4 undefined 1061.5 1154.0 3.3351 75.000 0.013333 1061.5 1154.0 3.3351 2.6064 3.0061 309.91 0.035003 17.159 0.064039 75.000 0.013333 1061.5 1154.0 3.3351 2.6064 3.0061 309.91 0.035003 17.159 0.064039
285.38 1009.1 undefined 1064.1 1156.8 3.3398 75.000 0.013333 1064.1 1156.8 3.3398 2.6098 3.0086 310.40 0.034794 17.185 0.064236 75.000 0.013333 1064.1 1156.8 3.3398 2.6098 3.0086 310.40 0.034794 17.185 0.064236
286.38 1011.7 undefined 1066.7 1159.7 3.3444 75.000 0.013333 1066.7 1159.7 3.3444 2.6132 3.0112 310.88 0.034586 17.210 0.064434 75.000 0.013333 1066.7 1159.7 3.3444 2.6132 3.0112 310.88 0.034586 17.210 0.064434
287.38 1014.4 undefined 1069.3 1162.5 3.3491 75.000 0.013333 1069.3 1162.5 3.3491 2.6166 3.0137 311.36 0.034380 17.236 0.064633 75.000 0.013333 1069.3 1162.5 3.3491 2.6166 3.0137 311.36 0.034380 17.236 0.064633
288.38 1017.1 undefined 1071.9 1165.4 3.3538 75.000 0.013333 1071.9 1165.4 3.3538 2.6200 3.0163 311.84 0.034175 17.262 0.064831 75.000 0.013333 1071.9 1165.4 3.3538 2.6200 3.0163 311.84 0.034175 17.262 0.064831
289.38 1019.7 undefined 1074.5 1168.3 3.3584 75.000 0.013333 1074.5 1168.3 3.3584 2.6234 3.0188 312.32 0.033973 17.287 0.065030 75.000 0.013333 1074.5 1168.3 3.3584 2.6234 3.0188 312.32 0.033973 17.287 0.065030
290.38 1022.4 undefined 1077.2 1171.1 3.3631 75.000 0.013333 1077.2 1171.1 3.3631 2.6268 3.0214 312.80 0.033772 17.313 0.065229 75.000 0.013333 1077.2 1171.1 3.3631 2.6268 3.0214 312.80 0.033772 17.313 0.065229
291.38 1025.0 undefined 1079.8 1174.0 3.3678 75.000 0.013333 1079.8 1174.0 3.3678 2.6302 3.0239 313.28 0.033573 17.339 0.065429 75.000 0.013333 1079.8 1174.0 3.3678 2.6302 3.0239 313.28 0.033573 17.339 0.065429
292.38 1027.7 undefined 1082.4 1176.9 3.3724 75.000 0.013333 1082.4 1176.9 3.3724 2.6336 3.0265 313.76 0.033375 17.364 0.065629 75.000 0.013333 1082.4 1176.9 3.3724 2.6336 3.0265 313.76 0.033375 17.364 0.065629
293.38 1030.3 undefined 1085.1 1179.8 3.3771 75.000 0.013333 1085.1 1179.8 3.3771 2.6370 3.0290 314.24 0.033179 17.390 0.065829 75.000 0.013333 1085.1 1179.8 3.3771 2.6370 3.0290 314.24 0.033179 17.390 0.065829
294.38 1033.0 undefined 1087.7 1182.7 3.3817 75.000 0.013333 1087.7 1182.7 3.3817 2.6404 3.0316 314.71 0.032984 17.415 0.066029 75.000 0.013333 1087.7 1182.7 3.3817 2.6404 3.0316 314.71 0.032984 17.415 0.066029
295.38 1035.6 undefined 1090.3 1185.5 3.3864 75.000 0.013333 1090.3 1185.5 3.3864 2.6438 3.0342 315.19 0.032792 17.441 0.066230 75.000 0.013333 1090.3 1185.5 3.3864 2.6438 3.0342 315.19 0.032792 17.441 0.066230
296.38 1038.3 undefined 1093.0 1188.4 3.3910 75.000 0.013333 1093.0 1188.4 3.3910 2.6472 3.0368 315.66 0.032600 17.466 0.066431 75.000 0.013333 1093.0 1188.4 3.3910 2.6472 3.0368 315.66 0.032600 17.466 0.066431
297.38 1040.9 undefined 1095.6 1191.3 3.3957 75.000 0.013333 1095.6 1191.3 3.3957 2.6506 3.0394 316.14 0.032411 17.492 0.066632 75.000 0.013333 1095.6 1191.3 3.3957 2.6506 3.0394 316.14 0.032411 17.492 0.066632
298.38 1043.6 undefined 1098.3 1194.2 3.4003 75.000 0.013333 1098.3 1194.2 3.4003 2.6539 3.0419 316.61 0.032222 17.517 0.066833 75.000 0.013333 1098.3 1194.2 3.4003 2.6539 3.0419 316.61 0.032222 17.517 0.066833
299.38 1046.2 undefined 1100.9 1197.1 3.4050 75.000 0.013333 1100.9 1197.1 3.4050 2.6573 3.0445 317.08 0.032036 17.542 0.067035 75.000 0.013333 1100.9 1197.1 3.4050 2.6573 3.0445 317.08 0.032036 17.542 0.067035
300.38 1048.9 undefined 1103.6 1200.0 3.4096 75.000 0.013333 1103.6 1200.0 3.4096 2.6607 3.0471 317.55 0.031851 17.568 0.067237 75.000 0.013333 1103.6 1200.0 3.4096 2.6607 3.0471 317.55 0.031851 17.568 0.067237