Temperature (C) Pressure (psia) Quality (l+v) Internal Energy (l+v, kJ/kg) Enthalpy (l+v, kJ/kg) Entropy (l+v, J/g*K) Density (l, kg/m3) Volume (l, m3/kg) Internal Energy (l, kJ/kg) Enthalpy (l, kJ/kg) Entropy (l, J/g*K) Cv (l, J/g*K) Cp (l, J/g*K) Sound Spd. (l, m/s) Joule-Thomson (l, F/psia) Viscosity (l, uPa*s) Therm. Cond. (l, W/m*K) Density (v, kg/m3) Volume (v, m3/kg) Internal Energy (v, kJ/kg) Enthalpy (v, kJ/kg) Entropy (v, J/g*K) Cv (v, J/g*K) Cp (v, J/g*K) Sound Spd. (v, m/s) Joule-Thomson (v, F/psia) Viscosity (v, uPa*s) Therm. Cond. (v, W/m*K)
-187.62 2.4953e-08 1.1881e-10 -196.64 -196.64 -1.3959 733.13 0.0013640 -196.64 -196.64 -1.3959 1.3553 1.9158 2136.4 -0.0077592 10960. 0.20792 1.0669e-08 9.3732e+07 350.13 366.26 5.1858 0.69067 0.87923 143.28 6.1051 2.3259 0.0017061
-186.62 3.7339e-08 1.7570e-10 -194.73 -194.73 -1.3736 732.08 0.0013660 -194.73 -194.73 -1.3736 1.3539 1.9166 2129.6 -0.0077546 10073. 0.20765 1.5780e-08 6.3371e+07 350.82 367.14 5.1200 0.69462 0.88317 144.03 5.9178 2.3534 0.0017533
-185.62 5.5322e-08 2.5729e-10 -192.81 -192.81 -1.3516 731.04 0.0013679 -192.81 -192.81 -1.3516 1.3525 1.9174 2122.9 -0.0077498 9276.1 0.20737 2.3112e-08 4.3267e+07 351.52 368.02 5.0561 0.69857 0.88713 144.77 5.7383 2.3808 0.0018007
-184.62 8.1182e-08 3.7323e-10 -190.89 -190.89 -1.3298 730.00 0.0013699 -190.89 -190.89 -1.3298 1.3513 1.9182 2116.1 -0.0077448 8557.8 0.20708 3.3533e-08 2.9821e+07 352.22 368.91 4.9939 0.70253 0.89108 145.51 5.5662 2.4083 0.0018485
-183.62 1.1803e-07 5.3650e-10 -188.97 -188.97 -1.3083 728.96 0.0013718 -188.97 -188.97 -1.3083 1.3501 1.9191 2109.3 -0.0077395 7909.8 0.20678 4.8211e-08 2.0742e+07 352.92 369.81 4.9333 0.70648 0.89504 146.24 5.4011 2.4357 0.0018965
-182.62 1.7009e-07 7.6442e-10 -187.05 -187.05 -1.2869 727.92 0.0013738 -187.05 -187.05 -1.2869 1.3490 1.9201 2102.5 -0.0077340 7324.3 0.20647 6.8704e-08 1.4555e+07 353.63 370.70 4.8744 0.71043 0.89899 146.97 5.2426 2.4632 0.0019448
-181.62 2.4299e-07 1.0799e-09 -185.13 -185.13 -1.2658 726.88 0.0013757 -185.13 -185.13 -1.2658 1.3480 1.9210 2095.7 -0.0077283 6794.5 0.20616 9.7079e-08 1.0301e+07 354.35 371.60 4.8170 0.71438 0.90294 147.69 5.0904 2.4906 0.0019934
-180.62 3.4425e-07 1.5132e-09 -183.21 -183.21 -1.2450 725.85 0.0013777 -183.21 -183.21 -1.2450 1.3470 1.9220 2088.9 -0.0077225 6314.4 0.20584 1.3605e-07 7.3504e+06 355.06 372.51 4.7612 0.71833 0.90688 148.41 4.9442 2.5181 0.0020423
-179.62 4.8378e-07 2.1034e-09 -181.29 -181.29 -1.2243 724.81 0.0013797 -181.29 -181.29 -1.2243 1.3461 1.9231 2082.0 -0.0077164 5878.8 0.20551 1.8915e-07 5.2868e+06 355.78 373.42 4.7068 0.72227 0.91082 149.13 4.8038 2.5456 0.0020915
-178.62 6.7459e-07 2.9015e-09 -179.37 -179.37 -1.2038 723.78 0.0013816 -179.37 -179.37 -1.2038 1.3453 1.9241 2075.2 -0.0077102 5482.9 0.20517 2.6096e-07 3.8320e+06 356.51 374.33 4.6538 0.72620 0.91475 149.84 4.6688 2.5731 0.0021410
-177.62 9.3358e-07 3.9726e-09 -177.44 -177.44 -1.1836 722.75 0.0013836 -177.44 -177.44 -1.1836 1.3445 1.9252 2068.4 -0.0077039 5122.6 0.20483 3.5737e-07 2.7982e+06 357.23 375.25 4.6022 0.73012 0.91867 150.54 4.5390 2.6005 0.0021907
-176.62 1.2826e-06 5.4003e-09 -175.52 -175.52 -1.1635 721.72 0.0013856 -175.52 -175.52 -1.1635 1.3437 1.9263 2061.5 -0.0076973 4794.1 0.20447 4.8588e-07 2.0581e+06 357.97 376.17 4.5519 0.73403 0.92258 151.25 4.4142 2.6280 0.0022408
-175.62 1.7496e-06 7.2899e-09 -173.59 -173.59 -1.1437 720.69 0.0013876 -173.59 -173.59 -1.1437 1.3430 1.9274 2054.7 -0.0076907 4494.3 0.20411 6.5601e-07 1.5244e+06 358.70 377.09 4.5029 0.73792 0.92648 151.95 4.2941 2.6555 0.0022912
-174.62 2.3705e-06 9.7746e-09 -171.66 -171.66 -1.1240 719.66 0.0013895 -171.66 -171.66 -1.1240 1.3423 1.9286 2047.9 -0.0076838 4220.2 0.20375 8.7976e-07 1.1367e+06 359.44 378.02 4.4551 0.74181 0.93036 152.64 4.1784 2.6830 0.0023418
-173.62 3.1903e-06 1.3021e-08 -169.73 -169.73 -1.1045 718.64 0.0013915 -169.73 -169.73 -1.1045 1.3417 1.9298 2041.0 -0.0076769 3969.3 0.20338 1.1721e-06 8.5314e+05 360.19 378.95 4.4085 0.74568 0.93423 153.33 4.0671 2.7105 0.0023928
-172.62 4.2661e-06 1.7235e-08 -167.80 -167.80 -1.0852 717.61 0.0013935 -167.80 -167.80 -1.0852 1.3411 1.9310 2034.2 -0.0076698 3739.3 0.20300 1.5518e-06 6.4441e+05 360.93 379.89 4.3631 0.74953 0.93809 154.02 3.9599 2.7379 0.0024440
-171.62 5.6692e-06 2.2674e-08 -165.87 -165.87 -1.0661 716.58 0.0013955 -165.87 -165.87 -1.0661 1.3405 1.9322 2027.3 -0.0076625 3528.0 0.20261 2.0419e-06 4.8974e+05 361.69 380.83 4.3188 0.75337 0.94193 154.71 3.8566 2.7654 0.0024955
-170.62 7.4884e-06 2.9652e-08 -163.94 -163.94 -1.0472 715.56 0.0013975 -163.94 -163.94 -1.0472 1.3400 1.9334 2020.5 -0.0076552 3333.8 0.20222 2.6708e-06 3.7442e+05 362.44 381.77 4.2755 0.75720 0.94575 155.39 3.7570 2.7929 0.0025473
-169.62 9.8334e-06 3.8555e-08 -162.00 -162.00 -1.0284 714.54 0.0013995 -162.00 -162.00 -1.0284 1.3395 1.9347 2013.6 -0.0076477 3154.9 0.20182 3.4733e-06 2.8791e+05 363.20 382.72 4.2334 0.76100 0.94956 156.07 3.6609 2.8204 0.0025994
-168.62 1.2839e-05 4.9851e-08 -160.07 -160.07 -1.0098 713.52 0.0014015 -160.07 -160.07 -1.0098 1.3390 1.9359 2006.8 -0.0076401 2989.9 0.20141 4.4917e-06 2.2263e+05 363.96 383.67 4.1922 0.76479 0.95335 156.74 3.5683 2.8479 0.0026518
-167.62 1.6672e-05 6.4106e-08 -158.13 -158.13 -0.99134 712.49 0.0014035 -158.13 -158.13 -0.99134 1.3386 1.9372 2000.0 -0.0076323 2837.5 0.20100 5.7771e-06 1.7310e+05 364.73 384.63 4.1521 0.76856 0.95712 157.41 3.4790 2.8754 0.0027045
-166.62 2.1533e-05 8.2004e-08 -156.19 -156.19 -0.97306 711.47 0.0014055 -156.19 -156.19 -0.97306 1.3382 1.9385 1993.1 -0.0076245 2696.5 0.20058 7.3914e-06 1.3529e+05 365.50 385.59 4.1129 0.77232 0.96087 158.08 3.3927 2.9029 0.0027575
-165.62 2.7666e-05 1.0436e-07 -154.25 -154.25 -0.95494 710.45 0.0014075 -154.25 -154.25 -0.95494 1.3378 1.9398 1986.3 -0.0076165 2566.0 0.20016 9.4084e-06 1.0629e+05 366.27 386.55 4.0746 0.77605 0.96460 158.75 3.3095 2.9304 0.0028108
-164.62 3.5367e-05 1.3216e-07 -152.31 -152.31 -0.93698 709.44 0.0014096 -152.31 -152.31 -0.93698 1.3375 1.9411 1979.4 -0.0076084 2444.9 0.19973 1.1916e-05 83918. 367.05 387.52 4.0372 0.77976 0.96832 159.41 3.2291 2.9579 0.0028643
-163.62 4.4989e-05 1.6655e-07 -150.37 -150.37 -0.91917 708.42 0.0014116 -150.37 -150.37 -0.91917 1.3371 1.9424 1972.6 -0.0076002 2332.3 0.19930 1.5020e-05 66577. 367.83 388.49 4.0008 0.78346 0.97201 160.07 3.1514 2.9854 0.0029182
-162.62 5.6956e-05 2.0891e-07 -148.43 -148.43 -0.90151 707.40 0.0014136 -148.43 -148.43 -0.90151 1.3368 1.9437 1965.8 -0.0075919 2227.7 0.19886 1.8844e-05 53068. 368.62 389.46 3.9651 0.78713 0.97569 160.72 3.0764 3.0129 0.0029723
-161.62 7.1773e-05 2.6084e-07 -146.48 -146.48 -0.88400 706.38 0.0014157 -146.48 -146.48 -0.88400 1.3365 1.9451 1959.0 -0.0075834 2130.2 0.19841 2.3533e-05 42494. 369.41 390.44 3.9304 0.79079 0.97935 161.38 3.0038 3.0404 0.0030268
-160.62 9.0036e-05 3.2425e-07 -144.54 -144.54 -0.86663 705.37 0.0014177 -144.54 -144.54 -0.86663 1.3363 1.9465 1952.1 -0.0075748 2039.2 0.19796 2.9258e-05 34178. 370.20 391.42 3.8964 0.79443 0.98298 162.03 2.9337 3.0679 0.0030815
-159.62 0.00011245 4.0134e-07 -142.59 -142.59 -0.84940 704.35 0.0014197 -142.59 -142.59 -0.84940 1.3360 1.9478 1945.3 -0.0075661 1954.2 0.19751 3.6221e-05 27609. 371.00 392.40 3.8632 0.79805 0.98660 162.68 2.8658 3.0955 0.0031365
-158.62 0.00013985 4.9466e-07 -140.64 -140.64 -0.83231 703.34 0.0014218 -140.64 -140.64 -0.83231 1.3358 1.9492 1938.5 -0.0075573 1874.8 0.19705 4.4652e-05 22395. 371.80 393.39 3.8307 0.80164 0.99020 163.32 2.8002 3.1230 0.0031918
-157.62 0.00017320 6.0721e-07 -138.69 -138.69 -0.81536 702.32 0.0014238 -138.69 -138.69 -0.81536 1.3356 1.9506 1931.7 -0.0075484 1800.3 0.19658 5.4822e-05 18241. 372.60 394.38 3.7990 0.80522 0.99378 163.96 2.7367 3.1505 0.0032474
-156.62 0.00021364 7.4241e-07 -136.74 -136.74 -0.79854 701.31 0.0014259 -136.74 -136.74 -0.79854 1.3354 1.9520 1924.9 -0.0075393 1730.5 0.19611 6.7040e-05 14916. 373.41 395.38 3.7680 0.80878 0.99734 164.60 2.6752 3.1780 0.0033033
-155.62 0.00026248 9.0421e-07 -134.79 -134.79 -0.78185 700.30 0.0014280 -134.79 -134.79 -0.78185 1.3352 1.9534 1918.1 -0.0075302 1664.9 0.19564 8.1666e-05 12245. 374.22 396.38 3.7377 0.81232 1.0009 165.24 2.6157 3.2055 0.0033595
-154.62 0.00032125 1.0971e-06 -132.83 -132.83 -0.76529 699.29 0.0014300 -132.83 -132.83 -0.76530 1.3350 1.9548 1911.3 -0.0075209 1603.3 0.19516 9.9109e-05 10090. 375.03 397.38 3.7081 0.81585 1.0044 165.87 2.5580 3.2330 0.0034160
-153.62 0.00039171 1.3264e-06 -130.88 -130.88 -0.74886 698.27 0.0014321 -130.88 -130.88 -0.74887 1.3349 1.9563 1904.5 -0.0075114 1545.3 0.19468 0.00011984 8344.6 375.85 398.39 3.6792 0.81935 1.0079 166.50 2.5022 3.2606 0.0034727
-152.62 0.00047590 1.5977e-06 -128.92 -128.92 -0.73256 697.26 0.0014342 -128.92 -128.92 -0.73256 1.3348 1.9577 1897.8 -0.0075019 1490.6 0.19419 0.00014439 6925.9 376.67 399.40 3.6509 0.82284 1.0114 167.13 2.4481 3.2881 0.0035298
-151.62 0.00057613 1.9180e-06 -126.96 -126.96 -0.71637 696.25 0.0014363 -126.96 -126.96 -0.71638 1.3346 1.9592 1891.0 -0.0074922 1438.9 0.19370 0.00017336 5768.4 377.49 400.41 3.6232 0.82631 1.0149 167.76 2.3957 3.3156 0.0035872
-150.62 0.00069507 2.2946e-06 -125.00 -125.00 -0.70031 695.24 0.0014384 -125.00 -125.00 -0.70032 1.3345 1.9606 1884.2 -0.0074824 1390.2 0.19320 0.00020744 4820.7 378.32 401.42 3.5962 0.82976 1.0183 168.38 2.3448 3.3431 0.0036448
-149.62 0.00083574 2.7362e-06 -123.04 -123.04 -0.68436 694.23 0.0014404 -123.04 -123.04 -0.68438 1.3345 1.9621 1877.4 -0.0074724 1344.0 0.19270 0.00024740 4042.0 379.15 402.44 3.5697 0.83319 1.0218 169.00 2.2956 3.3706 0.0037027
-148.62 0.0010016 3.2522e-06 -121.08 -121.08 -0.66854 693.22 0.0014425 -121.08 -121.08 -0.66855 1.3344 1.9636 1870.7 -0.0074623 1300.3 0.19220 0.00029412 3400.0 379.99 403.47 3.5438 0.83661 1.0252 169.62 2.2478 3.3982 0.0037610
-147.62 0.0011965 3.8534e-06 -119.11 -119.11 -0.65282 692.21 0.0014447 -119.11 -119.11 -0.65284 1.3343 1.9651 1863.9 -0.0074521 1258.9 0.19169 0.00034856 2869.0 380.83 404.49 3.5185 0.84001 1.0286 170.24 2.2014 3.4257 0.0038195
-146.62 0.0014249 4.5519e-06 -117.15 -117.15 -0.63722 691.20 0.0014468 -117.15 -117.15 -0.63724 1.3343 1.9666 1857.2 -0.0074417 1219.6 0.19117 0.00041181 2428.3 381.67 405.52 3.4938 0.84340 1.0320 170.85 2.1565 3.4532 0.0038783
-145.62 0.0016917 5.3609e-06 -115.18 -115.18 -0.62173 690.19 0.0014489 -115.18 -115.18 -0.62175 1.3343 1.9682 1850.4 -0.0074312 1182.3 0.19066 0.00048510 2061.4 382.51 406.56 3.4695 0.84677 1.0353 171.46 2.1128 3.4807 0.0039374
-144.62 0.0020026 6.2953e-06 -113.21 -113.21 -0.60634 689.18 0.0014510 -113.21 -113.21 -0.60637 1.3343 1.9697 1843.7 -0.0074206 1146.8 0.19014 0.00056976 1755.1 383.36 407.59 3.4458 0.85012 1.0387 172.07 2.0705 3.5082 0.0039967
-143.62 0.0023637 7.3717e-06 -111.24 -111.24 -0.59107 688.17 0.0014531 -111.24 -111.24 -0.59110 1.3343 1.9713 1836.9 -0.0074098 1113.0 0.18962 0.00066731 1498.6 384.21 408.63 3.4226 0.85346 1.0420 172.68 2.0294 3.5358 0.0040564
-142.62 0.0027820 8.6082e-06 -109.27 -109.27 -0.57590 687.16 0.0014553 -109.27 -109.27 -0.57593 1.3343 1.9728 1830.2 -0.0073988 1080.8 0.18909 0.00077939 1283.1 385.07 409.68 3.3999 0.85679 1.0454 173.28 1.9896 3.5633 0.0041164
-141.62 0.0032653 1.0025e-05 -107.29 -107.29 -0.56083 686.15 0.0014574 -107.30 -107.30 -0.56087 1.3343 1.9744 1823.5 -0.0073878 1050.1 0.18856 0.00090784 1101.5 385.93 410.72 3.3777 0.86011 1.0487 173.88 1.9508 3.5908 0.0041766
-140.62 0.0038222 1.1644e-05 -105.32 -105.32 -0.54586 685.14 0.0014596 -105.32 -105.32 -0.54591 1.3344 1.9760 1816.7 -0.0073765 1020.7 0.18803 0.0010547 948.16 386.79 411.77 3.3560 0.86341 1.0520 174.48 1.9133 3.6183 0.0042372
-139.62 0.0044623 1.3490e-05 -103.34 -103.34 -0.53100 684.13 0.0014617 -103.34 -103.34 -0.53105 1.3344 1.9776 1810.0 -0.0073651 992.74 0.18749 0.0012221 818.26 387.65 412.83 3.3347 0.86670 1.0553 175.08 1.8768 3.6459 0.0042980
-138.62 0.0051963 1.5589e-05 -101.36 -101.36 -0.51623 683.12 0.0014639 -101.37 -101.37 -0.51629 1.3345 1.9792 1803.3 -0.0073536 965.97 0.18695 0.0014125 707.94 388.52 413.88 3.3139 0.86998 1.0586 175.67 1.8413 3.6734 0.0043592
-137.62 0.0060358 1.7971e-05 -99.377 -99.377 -0.50155 682.11 0.0014660 -99.386 -99.386 -0.50162 1.3346 1.9808 1796.6 -0.0073419 940.35 0.18641 0.0016287 614.00 389.39 414.94 3.2935 0.87325 1.0619 176.26 1.8069 3.7009 0.0044206
-136.62 0.0069938 2.0666e-05 -97.394 -97.394 -0.48698 681.10 0.0014682 -97.404 -97.404 -0.48705 1.3347 1.9825 1789.9 -0.0073301 915.81 0.18586 0.0018733 533.80 390.26 416.00 3.2735 0.87650 1.0651 176.85 1.7734 3.7284 0.0044823
-135.62 0.0080843 2.3711e-05 -95.410 -95.409 -0.47249 680.09 0.0014704 -95.421 -95.421 -0.47258 1.3348 1.9841 1783.2 -0.0073180 892.30 0.18531 0.0021497 465.17 391.14 417.07 3.2540 0.87975 1.0684 177.44 1.7409 3.7559 0.0045443
-134.62 0.0093230 2.7141e-05 -93.423 -93.422 -0.45810 679.08 0.0014726 -93.436 -93.436 -0.45820 1.3350 1.9858 1776.5 -0.0073059 869.75 0.18476 0.0024613 406.30 392.02 418.14 3.2348 0.88299 1.0716 178.02 1.7093 3.7834 0.0046066
-133.62 0.010727 3.0999e-05 -91.435 -91.434 -0.44379 678.07 0.0014748 -91.450 -91.449 -0.44391 1.3351 1.9875 1769.8 -0.0072935 848.11 0.18421 0.0028116 355.67 392.91 419.21 3.2161 0.88622 1.0749 178.61 1.6786 3.8109 0.0046691
-132.62 0.012315 3.5327e-05 -89.444 -89.443 -0.42958 677.06 0.0014770 -89.461 -89.461 -0.42971 1.3353 1.9892 1763.1 -0.0072810 827.32 0.18365 0.0032049 312.03 393.79 420.29 3.1977 0.88944 1.0781 179.19 1.6488 3.8385 0.0047320
-131.62 0.014106 4.0174e-05 -87.452 -87.451 -0.41545 676.04 0.0014792 -87.471 -87.471 -0.41560 1.3354 1.9909 1756.4 -0.0072684 807.34 0.18309 0.0036453 274.33 394.68 421.36 3.1798 0.89266 1.0813 179.76 1.6197 3.8660 0.0047951
-130.62 0.016124 4.5590e-05 -85.457 -85.456 -0.40141 675.03 0.0014814 -85.479 -85.479 -0.40157 1.3356 1.9926 1749.7 -0.0072555 788.12 0.18253 0.0041375 241.69 395.58 422.44 3.1622 0.89586 1.0846 180.34 1.5915 3.8935 0.0048586
-129.62 0.018392 5.1631e-05 -83.461 -83.460 -0.38745 674.02 0.0014836 -83.486 -83.486 -0.38763 1.3358 1.9944 1743.0 -0.0072425 769.63 0.18196 0.0046867 213.37 396.47 423.53 3.1450 0.89906 1.0878 180.91 1.5641 3.9210 0.0049223
-128.62 0.020935 5.8355e-05 -81.463 -81.461 -0.37358 673.01 0.0014859 -81.491 -81.490 -0.37378 1.3360 1.9961 1736.3 -0.0072294 751.83 0.18140 0.0052981 188.75 397.37 424.62 3.1281 0.90226 1.0910 181.48 1.5374 3.9485 0.0049863
-127.62 0.023783 6.5825e-05 -79.462 -79.460 -0.35978 672.00 0.0014881 -79.494 -79.493 -0.36001 1.3363 1.9979 1729.6 -0.0072160 734.67 0.18083 0.0059776 167.29 398.27 425.71 3.1116 0.90545 1.0942 182.05 1.5114 3.9760 0.0050506
-126.62 0.026966 7.4110e-05 -77.460 -77.457 -0.34607 670.98 0.0014904 -77.495 -77.495 -0.34632 1.3365 1.9997 1722.9 -0.0072025 718.14 0.18025 0.0067313 148.56 399.18 426.80 3.0954 0.90863 1.0974 182.62 1.4861 4.0035 0.0051152
-125.62 0.030515 8.3282e-05 -75.455 -75.452 -0.33243 669.97 0.0014926 -75.494 -75.494 -0.33272 1.3368 2.0015 1716.2 -0.0071888 702.18 0.17968 0.0075660 132.17 400.09 427.89 3.0795 0.91181 1.1006 183.18 1.4615 4.0310 0.0051800
-124.62 0.034467 9.3418e-05 -73.448 -73.445 -0.31887 668.95 0.0014949 -73.492 -73.492 -0.31919 1.3371 2.0033 1709.5 -0.0071749 686.79 0.17910 0.0084885 117.81 401.00 428.99 3.0640 0.91499 1.1038 183.74 1.4375 4.0584 0.0052452
-123.62 0.038859 0.00010460 -71.438 -71.435 -0.30539 667.94 0.0014971 -71.488 -71.487 -0.30574 1.3374 2.0051 1702.8 -0.0071609 671.93 0.17852 0.0095065 105.19 401.91 430.10 3.0488 0.91816 1.1070 184.30 1.4141 4.0859 0.0053106
-122.62 0.043731 0.00011691 -69.426 -69.423 -0.29198 666.92 0.0014994 -69.482 -69.481 -0.29237 1.3377 2.0070 1696.2 -0.0071466 657.57 0.17794 0.010628 94.092 402.83 431.20 3.0339 0.92134 1.1102 184.86 1.3913 4.1134 0.0053764
-121.62 0.049128 0.00013046 -67.412 -67.408 -0.27864 665.91 0.0015017 -67.474 -67.473 -0.27907 1.3380 2.0089 1689.5 -0.0071322 643.70 0.17736 0.011861 84.309 403.75 432.31 3.0193 0.92451 1.1134 185.41 1.3691 4.1409 0.0054424
-120.62 0.055096 0.00014532 -65.396 -65.391 -0.26538 664.89 0.0015040 -65.464 -65.463 -0.26585 1.3384 2.0107 1682.8 -0.0071176 630.28 0.17678 0.013215 75.669 404.67 433.42 3.0050 0.92767 1.1166 185.96 1.3475 4.1683 0.0055087
-119.62 0.061684 0.00016161 -63.376 -63.371 -0.25218 663.87 0.0015063 -63.452 -63.452 -0.25271 1.3387 2.0126 1676.1 -0.0071028 617.30 0.17619 0.014700 68.027 405.60 434.53 2.9909 0.93084 1.1198 186.51 1.3264 4.1958 0.0055752
-118.62 0.068946 0.00017944 -61.355 -61.349 -0.23906 662.86 0.0015086 -61.439 -61.438 -0.23963 1.3391 2.0146 1669.4 -0.0070878 604.74 0.17560 0.016325 61.255 406.53 435.64 2.9772 0.93401 1.1231 187.06 1.3058 4.2233 0.0056421
-117.62 0.076937 0.00019892 -59.330 -59.324 -0.22600 661.84 0.0015109 -59.423 -59.422 -0.22663 1.3395 2.0165 1662.8 -0.0070726 592.58 0.17501 0.018101 55.245 407.46 436.76 2.9638 0.93718 1.1263 187.60 1.2857 4.2507 0.0057092
-116.62 0.085718 0.00022018 -57.303 -57.296 -0.21301 660.82 0.0015133 -57.406 -57.405 -0.21370 1.3400 2.0184 1656.1 -0.0070573 580.80 0.17442 0.020040 49.901 408.39 437.88 2.9506 0.94035 1.1295 188.14 1.2660 4.2782 0.0057767
-115.62 0.095353 0.00024334 -55.273 -55.265 -0.20008 659.80 0.0015156 -55.386 -55.385 -0.20084 1.3404 2.0204 1649.4 -0.0070417 569.38 0.17383 0.022152 45.142 409.33 439.01 2.9377 0.94352 1.1327 188.68 1.2468 4.3056 0.0058444
-114.62 0.10591 0.00026853 -53.240 -53.231 -0.18721 658.78 0.0015180 -53.365 -53.364 -0.18805 1.3409 2.0224 1642.7 -0.0070260 558.32 0.17323 0.024451 40.898 410.27 440.13 2.9250 0.94669 1.1360 189.22 1.2281 4.3330 0.0059123
-113.62 0.11746 0.00029591 -51.205 -51.195 -0.17441 657.76 0.0015203 -51.342 -51.340 -0.17533 1.3413 2.0244 1636.0 -0.0070100 547.59 0.17264 0.026949 37.107 411.21 441.26 2.9126 0.94987 1.1392 189.75 1.2097 4.3604 0.0059806
-112.62 0.13008 0.00032561 -49.166 -49.155 -0.16167 656.73 0.0015227 -49.316 -49.315 -0.16267 1.3418 2.0264 1629.3 -0.0069938 537.18 0.17204 0.029661 33.715 412.16 442.39 2.9005 0.95305 1.1424 190.28 1.1918 4.3879 0.0060491
-111.62 0.14384 0.00035780 -47.124 -47.112 -0.14899 655.71 0.0015251 -47.289 -47.287 -0.15008 1.3424 2.0285 1622.7 -0.0069774 527.08 0.17144 0.032600 30.675 413.10 443.53 2.8885 0.95623 1.1457 190.81 1.1742 4.4153 0.0061180
-110.62 0.15884 0.00039263 -45.079 -45.065 -0.13637 654.69 0.0015274 -45.259 -45.258 -0.13755 1.3429 2.0305 1616.0 -0.0069609 517.28 0.17084 0.035781 27.948 414.06 444.66 2.8769 0.95942 1.1490 191.34 1.1570 4.4427 0.0061871
-109.62 0.17516 0.00043027 -43.031 -43.015 -0.12380 653.66 0.0015298 -43.228 -43.226 -0.12509 1.3435 2.0326 1609.3 -0.0069441 507.76 0.17024 0.039220 25.497 415.01 445.80 2.8654 0.96261 1.1522 191.86 1.1402 4.4701 0.0062564
-108.62 0.19290 0.00047091 -40.979 -40.962 -0.11130 652.64 0.0015322 -41.194 -41.192 -0.11269 1.3441 2.0347 1602.6 -0.0069271 498.51 0.16964 0.042933 23.292 415.96 446.94 2.8542 0.96581 1.1555 192.38 1.1236 4.4974 0.0063261
-107.62 0.21215 0.00051472 -38.924 -38.905 -0.098842 651.61 0.0015347 -39.158 -39.156 -0.10036 1.3447 2.0369 1595.9 -0.0069098 489.52 0.16903 0.046937 21.305 416.92 448.09 2.8433 0.96901 1.1588 192.90 1.1075 4.5248 0.0063960
-106.62 0.23301 0.00056190 -36.865 -36.845 -0.086441 650.58 0.0015371 -37.120 -37.118 -0.088082 1.3453 2.0390 1589.2 -0.0068924 480.79 0.16843 0.051250 19.512 417.88 449.23 2.8325 0.97222 1.1621 193.41 1.0916 4.5522 0.0064662
-105.62 0.25561 0.00061264 -34.802 -34.780 -0.074093 649.55 0.0015395 -35.080 -35.078 -0.075868 1.3460 2.0412 1582.6 -0.0068747 472.30 0.16782 0.055891 17.892 418.85 450.38 2.8220 0.97544 1.1655 193.93 1.0760 4.5795 0.0065367
-104.62 0.28004 0.00066716 -32.736 -32.712 -0.061796 648.52 0.0015420 -33.038 -33.035 -0.063714 1.3467 2.0434 1575.9 -0.0068569 464.04 0.16721 0.060878 16.426 419.81 451.53 2.8116 0.97867 1.1688 194.44 1.0608 4.6069 0.0066074
-103.62 0.30643 0.00072567 -30.666 -30.640 -0.049548 647.49 0.0015444 -30.994 -30.991 -0.051619 1.3474 2.0456 1569.2 -0.0068387 456.00 0.16660 0.066231 15.099 420.78 452.68 2.8015 0.98191 1.1722 194.94 1.0458 4.6342 0.0066785
-102.62 0.33490 0.00078840 -28.592 -28.563 -0.037350 646.46 0.0015469 -28.947 -28.944 -0.039582 1.3481 2.0478 1562.5 -0.0068204 448.18 0.16600 0.071971 13.894 421.75 453.84 2.7916 0.98516 1.1755 195.44 1.0310 4.6615 0.0067498
-101.62 0.36558 0.00085557 -26.514 -26.482 -0.025198 645.43 0.0015494 -26.898 -26.894 -0.027602 1.3489 2.0501 1555.8 -0.0068018 440.57 0.16539 0.078120 12.801 422.73 454.99 2.7818 0.98841 1.1789 195.95 1.0166 4.6888 0.0068213
-100.62 0.39862 0.00092742 -24.431 -24.397 -0.013093 644.39 0.0015519 -24.847 -24.843 -0.015678 1.3497 2.0524 1549.1 -0.0067830 433.16 0.16478 0.084699 11.807 423.70 456.15 2.7723 0.99168 1.1823 196.44 1.0024 4.7161 0.0068932
-99.625 0.43414 0.0010042 -22.344 -22.307 -0.0010319 643.36 0.0015544 -22.794 -22.789 -0.0038103 1.3505 2.0547 1542.4 -0.0067639 425.95 0.16416 0.091731 10.901 424.68 457.31 2.7630 0.99496 1.1858 196.94 0.98838 4.7434 0.0069653
-98.625 0.47230 0.0010862 -20.253 -20.212 0.010985 642.32 0.0015569 -20.738 -20.733 0.0080027 1.3514 2.0570 1535.7 -0.0067447 418.92 0.16355 0.099240 10.077 425.66 458.48 2.7538 0.99825 1.1892 197.43 0.97464 4.7707 0.0070377
-97.625 0.51325 0.0011736 -18.157 -18.113 0.022960 641.28 0.0015594 -18.680 -18.674 0.019762 1.3522 2.0594 1529.0 -0.0067251 412.07 0.16294 0.10725 9.3239 426.65 459.64 2.7448 1.0016 1.1927 197.92 0.96112 4.7979 0.0071103
-96.625 0.55714 0.0012667 -16.057 -16.009 0.034893 640.24 0.0015619 -16.620 -16.614 0.031467 1.3531 2.0618 1522.3 -0.0067053 405.39 0.16233 0.11579 8.6365 427.63 460.81 2.7360 1.0049 1.1962 198.40 0.94783 4.8251 0.0071832
-95.625 0.60416 0.0013659 -13.951 -13.899 0.046786 639.20 0.0015645 -14.557 -14.550 0.043120 1.3540 2.0642 1515.7 -0.0066853 398.88 0.16171 0.12488 8.0078 428.62 461.98 2.7274 1.0082 1.1997 198.88 0.93475 4.8524 0.0072564
-94.625 0.65446 0.0014713 -11.841 -11.785 0.058641 638.16 0.0015670 -12.491 -12.484 0.054721 1.3550 2.0667 1509.0 -0.0066650 392.53 0.16110 0.13455 7.4323 429.61 463.15 2.7189 1.0116 1.2032 199.36 0.92188 4.8796 0.0073299
-93.625 0.70822 0.0015833 -9.7254 -9.6644 0.070458 637.12 0.0015696 -10.424 -10.416 0.066271 1.3560 2.0691 1502.3 -0.0066444 386.34 0.16048 0.14482 6.9050 430.60 464.32 2.7107 1.0149 1.2068 199.83 0.90921 4.9068 0.0074036
-92.625 0.76564 0.0017023 -7.6046 -7.5386 0.082239 636.07 0.0015722 -8.3535 -8.3452 0.077771 1.3570 2.0716 1495.6 -0.0066236 380.31 0.15987 0.15573 6.4212 431.60 465.49 2.7025 1.0183 1.2104 200.30 0.89673 4.9340 0.0074776
-91.625 0.82689 0.0018284 -5.4784 -5.4071 0.093984 635.02 0.0015747 -6.2808 -6.2719 0.089220 1.3580 2.0742 1488.9 -0.0066025 374.41 0.15925 0.16731 5.9769 432.59 466.67 2.6946 1.0217 1.2140 200.77 0.88445 4.9611 0.0075518
-90.625 0.89218 0.0019621 -3.3467 -3.2698 0.10570 633.98 0.0015773 -4.2056 -4.1959 0.10062 1.3591 2.0767 1482.2 -0.0065811 368.66 0.15864 0.17958 5.5685 433.59 467.84 2.6868 1.0251 1.2177 201.24 0.87236 4.9883 0.0076263
-89.625 0.96172 0.0021036 -1.2092 -1.1263 0.11737 632.93 0.0015800 -2.1279 -2.1174 0.11197 1.3602 2.0793 1475.5 -0.0065595 363.05 0.15802 0.19258 5.1928 434.59 469.02 2.6791 1.0285 1.2213 201.70 0.86045 5.0154 0.0077011
-88.625 1.0357 0.0022533 0.93412 1.0234 0.12902 631.88 0.0015826 -0.047516 -0.036215 0.12328 1.3613 2.0819 1468.8 -0.0065375 357.56 0.15740 0.20633 4.8466 435.59 470.20 2.6717 1.0320 1.2250 202.15 0.84873 5.0425 0.0077761
-87.625 1.1144 0.0024116 3.0834 3.1795 0.14064 630.83 0.0015852 2.0355 2.0476 0.13454 1.3625 2.0846 1462.1 -0.0065153 352.21 0.15679 0.22087 4.5276 436.60 471.39 2.6643 1.0354 1.2288 202.61 0.83718 5.0696 0.0078514
-86.625 1.1979 0.0025788 5.2389 5.3422 0.15222 629.77 0.0015879 4.1211 4.1342 0.14575 1.3637 2.0873 1455.4 -0.0064928 346.98 0.15617 0.23623 4.2331 437.61 472.57 2.6571 1.0389 1.2325 203.06 0.82580 5.0967 0.0079270
-85.625 1.2866 0.0027552 7.4007 7.5116 0.16378 628.72 0.0015905 6.2094 6.2235 0.15691 1.3649 2.0900 1448.8 -0.0064701 341.87 0.15555 0.25245 3.9612 438.61 473.75 2.6501 1.0424 1.2363 203.50 0.81460 5.1237 0.0080028
-84.625 1.3806 0.0029413 9.5690 9.6880 0.17531 627.66 0.0015932 8.3004 8.3155 0.16803 1.3661 2.0927 1442.1 -0.0064470 336.87 0.15494 0.26956 3.7097 439.63 474.94 2.6432 1.0460 1.2402 203.95 0.80356 5.1508 0.0080789
-83.625 1.4803 0.0031374 11.744 11.872 0.18682 626.60 0.0015959 10.394 10.410 0.17911 1.3674 2.0955 1435.4 -0.0064236 331.99 0.15432 0.28760 3.4771 440.64 476.13 2.6364 1.0495 1.2440 204.38 0.79269 5.1778 0.0081553
-82.625 1.5858 0.0033439 13.926 14.062 0.19830 625.54 0.0015986 12.491 12.508 0.19014 1.3687 2.0983 1428.7 -0.0063999 327.22 0.15370 0.30659 3.2616 441.65 477.31 2.6298 1.0531 1.2479 204.82 0.78199 5.2048 0.0082319
-81.625 1.6975 0.0035613 16.114 16.261 0.20976 624.48 0.0016013 14.590 14.609 0.20113 1.3700 2.1012 1422.0 -0.0063759 322.55 0.15309 0.32659 3.0619 442.67 478.50 2.6233 1.0567 1.2519 205.25 0.77144 5.2318 0.0083088
-80.625 1.8155 0.0037898 18.310 18.467 0.22120 623.42 0.0016041 16.692 16.712 0.21208 1.3714 2.1041 1415.4 -0.0063516 317.99 0.15247 0.34763 2.8766 443.69 479.70 2.6169 1.0603 1.2558 205.67 0.76106 5.2587 0.0083860
-79.625 1.9402 0.0040300 20.514 20.681 0.23261 622.36 0.0016068 18.797 18.819 0.22299 1.3728 2.1070 1408.7 -0.0063270 313.52 0.15186 0.36974 2.7046 444.71 480.89 2.6106 1.0639 1.2598 206.10 0.75083 5.2857 0.0084634
-78.625 2.0718 0.0042823 22.724 22.903 0.24400 621.29 0.0016096 20.905 20.928 0.23385 1.3742 2.1099 1402.0 -0.0063021 309.15 0.15124 0.39296 2.5448 445.73 482.08 2.6045 1.0676 1.2639 206.51 0.74076 5.3126 0.0085411
-77.625 2.2107 0.0045470 24.943 25.133 0.25538 620.22 0.0016123 23.016 23.040 0.24468 1.3757 2.1129 1395.3 -0.0062768 304.88 0.15062 0.41735 2.3961 446.75 483.27 2.5985 1.0712 1.2680 206.93 0.73084 5.3395 0.0086190
-76.625 2.3571 0.0048246 27.169 27.372 0.26674 619.15 0.0016151 25.130 25.156 0.25546 1.3772 2.1159 1388.7 -0.0062512 300.69 0.15001 0.44292 2.2577 447.78 484.47 2.5926 1.0749 1.2721 207.34 0.72107 5.3664 0.0086972
-75.625 2.5113 0.0051156 29.403 29.619 0.27808 618.08 0.0016179 27.247 27.275 0.26620 1.3787 2.1190 1382.0 -0.0062253 296.59 0.14939 0.46974 2.1288 448.81 485.67 2.5869 1.0787 1.2762 207.74 0.71146 5.3933 0.0087757
-74.625 2.6736 0.0054205 31.646 31.876 0.28940 617.01 0.0016207 29.366 29.396 0.27691 1.3802 2.1221 1375.4 -0.0061990 292.58 0.14878 0.49783 2.0087 449.83 486.86 2.5812 1.0824 1.2804 208.14 0.70200 5.4201 0.0088544
-73.625 2.8444 0.0057396 33.896 34.142 0.30071 615.93 0.0016236 31.489 31.521 0.28758 1.3818 2.1252 1368.7 -0.0061724 288.65 0.14816 0.52725 1.8966 450.86 488.06 2.5757 1.0862 1.2847 208.54 0.69268 5.4469 0.0089334
-72.625 3.0240 0.0060734 36.156 36.416 0.31200 614.85 0.0016264 33.615 33.649 0.29821 1.3834 2.1284 1362.0 -0.0061454 284.81 0.14755 0.55804 1.7920 451.90 489.26 2.5703 1.0900 1.2889 208.93 0.68351 5.4737 0.0090126
-71.625 3.2127 0.0064225 38.424 38.701 0.32329 613.78 0.0016293 35.745 35.781 0.30880 1.3851 2.1316 1355.4 -0.0061181 281.03 0.14694 0.59024 1.6942 452.93 490.46 2.5650 1.0938 1.2932 209.32 0.67448 5.5005 0.0090922
-70.625 3.4108 0.0067874 40.701 40.995 0.33456 612.69 0.0016321 37.877 37.915 0.31935 1.3867 2.1349 1348.7 -0.0060904 277.34 0.14632 0.62390 1.6028 453.96 491.66 2.5598 1.0976 1.2976 209.70 0.66560 5.5273 0.0091720
-69.625 3.6187 0.0071684 42.987 43.299 0.34582 611.61 0.0016350 40.013 40.053 0.32987 1.3884 2.1382 1342.1 -0.0060624 273.72 0.14571 0.65906 1.5173 455.00 492.86 2.5547 1.1015 1.3020 210.08 0.65687 5.5540 0.0092520
-68.625 3.8367 0.0075662 45.283 45.614 0.35707 610.53 0.0016379 42.152 42.195 0.34036 1.3902 2.1415 1335.5 -0.0060339 270.17 0.14510 0.69577 1.4372 456.04 494.06 2.5497 1.1054 1.3064 210.45 0.64827 5.5807 0.0093324
-67.625 4.0652 0.0079811 47.588 47.939 0.36832 609.44 0.0016409 44.294 44.340 0.35080 1.3919 2.1449 1328.8 -0.0060051 266.69 0.14449 0.73408 1.3622 457.08 495.26 2.5448 1.1093 1.3109 210.82 0.63981 5.6074 0.0094130
-66.625 4.3046 0.0084139 49.903 50.274 0.37955 608.35 0.0016438 46.439 46.488 0.36122 1.3937 2.1483 1322.2 -0.0059760 263.28 0.14388 0.77404 1.2919 458.12 496.46 2.5400 1.1133 1.3154 211.18 0.63150 5.6341 0.0094939
-65.625 4.5551 0.0088649 52.228 52.620 0.39078 607.26 0.0016467 48.588 48.640 0.37160 1.3955 2.1518 1315.6 -0.0059464 259.93 0.14327 0.81570 1.2259 459.16 497.67 2.5353 1.1172 1.3200 211.54 0.62332 5.6608 0.0095750
-64.625 4.8173 0.0093347 54.563 54.978 0.40200 606.16 0.0016497 50.740 50.795 0.38195 1.3974 2.1553 1308.9 -0.0059164 256.65 0.14266 0.85910 1.1640 460.21 498.87 2.5307 1.1212 1.3246 211.89 0.61527 5.6874 0.0096564
-63.625 5.0915 0.0098238 56.908 57.347 0.41322 605.07 0.0016527 52.896 52.954 0.39226 1.3993 2.1588 1302.3 -0.0058861 253.42 0.14205 0.90429 1.1058 461.25 500.07 2.5262 1.1252 1.3293 212.24 0.60736 5.7140 0.0097382
-62.625 5.3781 0.010333 59.263 59.727 0.42444 603.97 0.0016557 55.055 55.117 0.40254 1.4012 2.1624 1295.7 -0.0058553 250.26 0.14144 0.95134 1.0511 462.30 501.28 2.5218 1.1293 1.3340 212.58 0.59958 5.7406 0.0098201
-61.625 5.6774 0.010862 61.630 62.119 0.43565 602.87 0.0016587 57.218 57.283 0.41279 1.4031 2.1660 1289.1 -0.0058241 247.16 0.14084 1.0003 0.99972 463.35 502.48 2.5175 1.1333 1.3387 212.92 0.59194 5.7672 0.0099024
-60.625 5.9899 0.011413 64.007 64.523 0.44686 601.77 0.0016618 59.385 59.453 0.42301 1.4051 2.1697 1282.5 -0.0057925 244.12 0.14023 1.0512 0.95131 464.40 503.68 2.5133 1.1374 1.3435 213.26 0.58442 5.7938 0.0099850
-59.625 6.3160 0.011985 66.395 66.939 0.45808 600.66 0.0016648 61.554 61.627 0.43320 1.4071 2.1734 1275.9 -0.0057605 241.13 0.13962 1.1041 0.90573 465.45 504.89 2.5091 1.1415 1.3483 213.58 0.57704 5.8203 0.010068
-58.625 6.6561 0.012579 68.795 69.368 0.46929 599.55 0.0016679 63.728 63.805 0.44335 1.4091 2.1772 1269.3 -0.0057280 238.19 0.13902 1.1591 0.86277 466.50 506.09 2.5051 1.1457 1.3532 213.90 0.56978 5.8468 0.010151
-57.625 7.0107 0.013196 71.206 71.810 0.48050 598.44 0.0016710 65.905 65.986 0.45348 1.4111 2.1810 1262.7 -0.0056951 235.31 0.13842 1.2161 0.82228 467.55 507.30 2.5011 1.1498 1.3581 214.22 0.56265 5.8733 0.010234
-56.625 7.3801 0.013837 73.628 74.264 0.49171 597.33 0.0016741 68.086 68.172 0.46358 1.4132 2.1848 1256.1 -0.0056617 232.48 0.13781 1.2754 0.78408 468.60 508.50 2.4972 1.1540 1.3631 214.53 0.55564 5.8998 0.010318
-55.625 7.7648 0.014501 76.063 76.732 0.50293 596.22 0.0016772 70.271 70.361 0.47364 1.4153 2.1887 1249.5 -0.0056279 229.69 0.13721 1.3369 0.74802 469.66 509.71 2.4934 1.1582 1.3681 214.84 0.54875 5.9263 0.010402
-54.625 8.1652 0.015190 78.509 79.213 0.51415 595.10 0.0016804 72.460 72.554 0.48368 1.4174 2.1927 1242.9 -0.0055937 226.96 0.13661 1.4006 0.71396 470.72 510.91 2.4897 1.1624 1.3731 215.14 0.54199 5.9527 0.010486
-53.625 8.5819 0.015904 80.968 81.708 0.52538 593.98 0.0016836 74.652 74.752 0.49369 1.4196 2.1967 1236.3 -0.0055589 224.27 0.13601 1.4667 0.68178 471.77 512.11 2.4860 1.1667 1.3782 215.43 0.53535 5.9792 0.010571
-52.625 9.0151 0.016644 83.440 84.217 0.53661 592.86 0.0016867 76.849 76.954 0.50368 1.4218 2.2007 1229.8 -0.0055237 221.63 0.13541 1.5353 0.65136 472.83 513.32 2.4824 1.1710 1.3834 215.72 0.52882 6.0056 0.010656
-51.625 9.4655 0.017411 85.924 86.739 0.54785 591.73 0.0016900 79.049 79.159 0.51363 1.4240 2.2048 1223.2 -0.0054880 219.04 0.13482 1.6062 0.62258 473.89 514.52 2.4789 1.1752 1.3886 216.00 0.52241 6.0320 0.010741
-50.625 9.9335 0.018204 88.420 89.276 0.55910 590.60 0.0016932 81.253 81.369 0.52356 1.4262 2.2089 1216.6 -0.0054519 216.48 0.13422 1.6797 0.59534 474.95 515.73 2.4755 1.1796 1.3938 216.28 0.51612 6.0584 0.010827
-49.625 10.419 0.019025 90.930 91.828 0.57035 589.47 0.0016964 83.462 83.584 0.53347 1.4285 2.2131 1210.1 -0.0054152 213.98 0.13363 1.7558 0.56954 476.01 516.93 2.4722 1.1839 1.3991 216.55 0.50994 6.0848 0.010913
-48.625 10.924 0.019875 93.453 94.395 0.58161 588.34 0.0016997 85.674 85.802 0.54334 1.4308 2.2173 1203.5 -0.0053780 211.51 0.13303 1.8345 0.54510 477.07 518.13 2.4689 1.1883 1.4044 216.82 0.50387 6.1112 0.010999
-47.625 11.448 0.020754 95.990 96.976 0.59288 587.20 0.0017030 87.891 88.025 0.55319 1.4331 2.2216 1196.9 -0.0053403 209.08 0.13244 1.9159 0.52194 478.14 519.33 2.4657 1.1927 1.4098 217.08 0.49792 6.1375 0.011085
-46.625 11.991 0.021663 98.540 99.573 0.60417 586.06 0.0017063 90.111 90.252 0.56302 1.4354 2.2259 1190.4 -0.0053020 206.69 0.13185 2.0001 0.49997 479.20 520.53 2.4625 1.1971 1.4153 217.33 0.49207 6.1639 0.011172
-45.625 12.554 0.022602 101.10 102.19 0.61546 584.92 0.0017096 92.336 92.484 0.57282 1.4378 2.2303 1183.8 -0.0052633 204.34 0.13126 2.0872 0.47912 480.27 521.74 2.4594 1.2015 1.4207 217.58 0.48633 6.1902 0.011259
-44.625 13.137 0.023572 103.68 104.81 0.62677 583.77 0.0017130 94.565 94.720 0.58260 1.4402 2.2347 1177.3 -0.0052240 202.03 0.13067 2.1771 0.45933 481.33 522.94 2.4564 1.2060 1.4263 217.82 0.48069 6.2165 0.011347
-43.625 13.741 0.024574 106.27 107.46 0.63809 582.62 0.0017164 96.799 96.961 0.59235 1.4426 2.2392 1170.7 -0.0051841 199.75 0.13008 2.2700 0.44053 482.40 524.14 2.4535 1.2104 1.4319 218.05 0.47516 6.2429 0.011435
-42.625 14.367 0.025609 108.88 110.12 0.64942 581.47 0.0017198 99.036 99.207 0.60208 1.4450 2.2437 1164.2 -0.0051437 197.51 0.12949 2.3659 0.42267 483.46 525.33 2.4506 1.2149 1.4375 218.28 0.46973 6.2692 0.011523
-41.625 15.015 0.026677 111.50 112.80 0.66077 580.32 0.0017232 101.28 101.46 0.61179 1.4475 2.2483 1157.7 -0.0051027 195.30 0.12891 2.4649 0.40569 484.53 526.53 2.4478 1.2195 1.4432 218.50 0.46440 6.2955 0.011612
-40.625 15.686 0.027780 114.14 115.49 0.67213 579.16 0.0017266 103.52 103.71 0.62147 1.4500 2.2529 1151.1 -0.0050611 193.13 0.12832 2.5671 0.38954 485.60 527.73 2.4450 1.2240 1.4489 218.72 0.45917 6.3218 0.011701
-39.625 16.380 0.028917 116.79 118.20 0.68351 578.00 0.0017301 105.78 105.97 0.63113 1.4525 2.2576 1144.6 -0.0050189 190.99 0.12774 2.6725 0.37418 486.67 528.93 2.4423 1.2286 1.4547 218.93 0.45403 6.3481 0.011790
-38.625 17.097 0.030089 119.46 120.93 0.69490 576.83 0.0017336 108.03 108.24 0.64077 1.4550 2.2623 1138.0 -0.0049761 188.88 0.12716 2.7813 0.35955 487.74 530.12 2.4397 1.2332 1.4606 219.13 0.44900 6.3744 0.011880
-37.625 17.838 0.031298 122.14 123.68 0.70631 575.66 0.0017371 110.29 110.51 0.65039 1.4576 2.2671 1131.5 -0.0049327 186.81 0.12658 2.8934 0.34562 488.81 531.32 2.4371 1.2378 1.4665 219.33 0.44405 6.4007 0.011970
-36.625 18.604 0.032544 124.84 126.44 0.71774 574.49 0.0017407 112.56 112.78 0.65999 1.4602 2.2719 1125.0 -0.0048887 184.76 0.12600 3.0089 0.33235 489.88 532.51 2.4346 1.2424 1.4724 219.52 0.43920 6.4270 0.012060
-35.625 19.395 0.033828 127.55 129.22 0.72919 573.32 0.0017442 114.83 115.06 0.66956 1.4628 2.2768 1118.5 -0.0048440 182.75 0.12542 3.1280 0.31969 490.95 533.70 2.4321 1.2471 1.4784 219.70 0.43444 6.4533 0.012151
-34.625 20.212 0.035151 130.28 132.02 0.74065 572.14 0.0017478 117.10 117.34 0.67912 1.4654 2.2818 1111.9 -0.0047987 180.76 0.12485 3.2506 0.30763 492.02 534.89 2.4297 1.2517 1.4845 219.88 0.42977 6.4797 0.012243
-33.625 21.056 0.036514 133.02 134.84 0.75214 570.96 0.0017514 119.38 119.63 0.68865 1.4681 2.2868 1105.4 -0.0047527 178.80 0.12427 3.3770 0.29612 493.09 536.08 2.4273 1.2564 1.4906 220.05 0.42519 6.5060 0.012334
-32.625 21.926 0.037916 135.79 137.68 0.76364 569.77 0.0017551 121.66 121.93 0.69817 1.4708 2.2918 1098.9 -0.0047061 176.87 0.12370 3.5071 0.28514 494.17 537.27 2.4250 1.2611 1.4968 220.21 0.42070 6.5323 0.012426
-31.625 22.823 0.039360 138.56 140.53 0.77517 568.58 0.0017588 123.95 124.23 0.70767 1.4735 2.2970 1092.3 -0.0046587 174.97 0.12313 3.6410 0.27465 495.24 538.46 2.4227 1.2659 1.5031 220.36 0.41629 6.5587 0.012519
-30.625 23.749 0.040846 141.36 143.41 0.78672 567.39 0.0017625 126.24 126.53 0.71714 1.4762 2.3021 1085.8 -0.0046107 173.09 0.12256 3.7787 0.26464 496.31 539.64 2.4205 1.2706 1.5094 220.51 0.41196 6.5850 0.012612
-29.625 24.703 0.042375 144.17 146.30 0.79829 566.19 0.0017662 128.54 128.84 0.72660 1.4790 2.3074 1079.3 -0.0045619 171.24 0.12200 3.9205 0.25507 497.38 540.83 2.4184 1.2754 1.5157 220.65 0.40772 6.6114 0.012706
-28.625 25.687 0.043948 147.00 149.21 0.80988 564.99 0.0017699 130.84 131.16 0.73604 1.4818 2.3126 1072.8 -0.0045124 169.42 0.12143 4.0663 0.24592 498.46 542.01 2.4162 1.2802 1.5222 220.79 0.40356 6.6378 0.012800
-27.625 26.700 0.045566 149.85 152.15 0.82150 563.78 0.0017737 133.15 133.48 0.74547 1.4846 2.3180 1066.2 -0.0044621 167.62 0.12087 4.2163 0.23717 499.53 543.19 2.4142 1.2850 1.5286 220.91 0.39947 6.6642 0.012894
-26.625 27.743 0.047229 152.71 155.10 0.83314 562.57 0.0017775 135.47 135.81 0.75487 1.4874 2.3234 1059.7 -0.0044111 165.84 0.12031 4.3705 0.22881 500.60 544.37 2.4122 1.2899 1.5352 221.03 0.39547 6.6906 0.012989
-25.625 28.817 0.048939 155.59 158.08 0.84481 561.36 0.0017814 137.78 138.14 0.76426 1.4902 2.3289 1053.2 -0.0043593 164.09 0.11975 4.5290 0.22080 501.68 545.55 2.4102 1.2947 1.5418 221.14 0.39154 6.7171 0.013084
-24.625 29.923 0.050696 158.49 161.07 0.85650 560.14 0.0017853 140.11 140.48 0.77363 1.4931 2.3344 1046.7 -0.0043067 162.36 0.11919 4.6918 0.21314 502.75 546.72 2.4083 1.2996 1.5485 221.25 0.38768 6.7436 0.013180
-23.625 31.061 0.052502 161.41 164.09 0.86822 558.92 0.0017892 142.44 142.82 0.78298 1.4960 2.3400 1040.1 -0.0042533 160.65 0.11863 4.8592 0.20580 503.82 547.90 2.4064 1.3045 1.5552 221.35 0.38391 6.7701 0.013277
-22.625 32.232 0.054357 164.35 167.12 0.87996 557.69 0.0017931 144.77 145.17 0.79232 1.4990 2.3457 1033.6 -0.0041990 158.97 0.11807 5.0311 0.19877 504.90 549.07 2.4045 1.3095 1.5621 221.44 0.38020 6.7967 0.013374
-21.625 33.435 0.056263 167.30 170.18 0.89173 556.46 0.0017971 147.11 147.52 0.80164 1.5019 2.3514 1027.1 -0.0041439 157.30 0.11752 5.2076 0.19203 505.97 550.24 2.4027 1.3144 1.5690 221.52 0.37656 6.8232 0.013471
-20.625 34.673 0.058220 170.27 173.26 0.90352 555.23 0.0018011 149.45 149.88 0.81095 1.5049 2.3572 1020.6 -0.0040879 155.66 0.11697 5.3889 0.18557 507.04 551.40 2.4010 1.3194 1.5759 221.59 0.37300 6.8499 0.013569
-19.625 35.946 0.060230 173.26 176.36 0.91535 553.99 0.0018051 151.80 152.25 0.82024 1.5079 2.3630 1014.0 -0.0040311 154.04 0.11642 5.5750 0.17937 508.11 552.57 2.3992 1.3244 1.5829 221.66 0.36950 6.8765 0.013668
-18.625 37.253 0.062293 176.28 179.49 0.92720 552.74 0.0018092 154.16 154.62 0.82952 1.5109 2.3689 1007.5 -0.0039733 152.44 0.11587 5.7660 0.17343 509.19 553.73 2.3976 1.3294 1.5901 221.72 0.36608 6.9032 0.013767
-17.625 38.596 0.064411 179.31 182.63 0.93908 551.49 0.0018133 156.52 157.00 0.83878 1.5140 2.3749 1001.0 -0.0039145 150.86 0.11532 5.9621 0.16773 510.26 554.89 2.3959 1.3345 1.5972 221.77 0.36272 6.9300 0.013867
-16.625 39.976 0.066585 182.35 185.80 0.95099 550.24 0.0018174 158.89 159.39 0.84803 1.5171 2.3810 994.44 -0.0038549 149.29 0.11478 6.1632 0.16225 511.33 556.05 2.3943 1.3395 1.6045 221.81 0.35942 6.9568 0.013968
-15.625 41.392 0.068815 185.42 188.99 0.96293 548.98 0.0018216 161.26 161.78 0.85726 1.5202 2.3871 987.91 -0.0037942 147.75 0.11423 6.3696 0.15700 512.40 557.20 2.3927 1.3446 1.6119 221.85 0.35619 6.9836 0.014069
-14.625 42.846 0.071104 188.51 192.20 0.97490 547.71 0.0018258 163.64 164.18 0.86649 1.5233 2.3933 981.37 -0.0037325 146.22 0.11369 6.5812 0.15195 513.47 558.36 2.3912 1.3497 1.6193 221.87 0.35302 7.0105 0.014170
-13.625 44.338 0.073451 191.62 195.44 0.98690 546.44 0.0018300 166.02 166.58 0.87569 1.5264 2.3996 974.83 -0.0036698 144.72 0.11315 6.7983 0.14710 514.54 559.51 2.3897 1.3549 1.6268 221.89 0.34992 7.0375 0.014273
-12.625 45.870 0.075859 194.75 198.70 0.99893 545.17 0.0018343 168.41 168.99 0.88489 1.5296 2.4059 968.29 -0.0036061 143.23 0.11261 7.0208 0.14243 515.61 560.65 2.3883 1.3600 1.6344 221.90 0.34688 7.0646 0.014376
-11.625 47.440 0.078329 197.90 201.99 1.0110 543.89 0.0018386 170.81 171.41 0.89407 1.5328 2.4124 961.75 -0.0035413 141.76 0.11208 7.2490 0.13795 516.68 561.80 2.3868 1.3652 1.6421 221.91 0.34389 7.0917 0.014479
-10.625 49.051 0.080861 201.07 205.29 1.0231 542.60 0.0018430 173.21 173.83 0.90324 1.5360 2.4189 955.20 -0.0034753 140.30 0.11154 7.4829 0.13364 517.75 562.94 2.3854 1.3704 1.6498 221.90 0.34097 7.1188 0.014584
-9.6250 50.703 0.083457 204.26 208.63 1.0352 541.31 0.0018474 175.61 176.26 0.91240 1.5393 2.4255 948.65 -0.0034082 138.86 0.11101 7.7226 0.12949 518.81 564.08 2.3841 1.3757 1.6577 221.88 0.33810 7.1461 0.014689
-8.6250 52.396 0.086119 207.47 211.98 1.0474 540.02 0.0018518 178.03 178.70 0.92154 1.5426 2.4321 942.10 -0.0033400 137.44 0.11048 7.9683 0.12550 519.88 565.21 2.3827 1.3809 1.6657 221.86 0.33529 7.1734 0.014795
-7.6250 54.131 0.088847 210.70 215.36 1.0596 538.72 0.0018563 180.45 181.14 0.93068 1.5459 2.4389 935.55 -0.0032705 136.03 0.10995 8.2200 0.12165 520.94 566.35 2.3814 1.3862 1.6737 221.83 0.33254 7.2008 0.014902
-6.6250 55.909 0.091644 213.95 218.77 1.0718 537.41 0.0018608 182.87 183.59 0.93980 1.5492 2.4457 928.99 -0.0031998 134.64 0.10942 8.4779 0.11795 522.01 567.48 2.3801 1.3915 1.6819 221.79 0.32984 7.2284 0.015009
-5.6250 57.730 0.094510 217.23 222.20 1.0841 536.10 0.0018653 185.30 186.05 0.94892 1.5525 2.4526 922.43 -0.0031279 133.27 0.10889 8.7420 0.11439 523.07 568.60 2.3789 1.3969 1.6902 221.74 0.32720 7.2560 0.015117
-4.6250 59.595 0.097446 220.52 225.66 1.0964 534.78 0.0018699 187.74 188.51 0.95802 1.5559 2.4596 915.87 -0.0030546 131.91 0.10837 9.0126 0.11096 524.13 569.72 2.3777 1.4022 1.6985 221.68 0.32461 7.2837 0.015226
-3.6250 61.505 0.10046 223.84 229.14 1.1087 533.45 0.0018746 190.19 190.98 0.96711 1.5593 2.4667 909.30 -0.0029800 130.56 0.10785 9.2896 0.10765 525.19 570.84 2.3765 1.4076 1.7070 221.62 0.32207 7.3115 0.015336
-2.6250 63.461 0.10354 227.18 232.65 1.1211 532.12 0.0018793 192.64 193.46 0.97620 1.5627 2.4739 902.73 -0.0029041 129.23 0.10733 9.5733 0.10446 526.25 571.96 2.3753 1.4131 1.7156 221.54 0.31958 7.3394 0.015447
-1.6250 65.462 0.10670 230.54 236.18 1.1335 530.78 0.0018840 195.10 195.95 0.98527 1.5662 2.4811 896.16 -0.0028267 127.91 0.10681 9.8638 0.10138 527.31 573.07 2.3742 1.4185 1.7243 221.45 0.31715 7.3674 0.015559
-0.62500 67.510 0.10993 233.93 239.74 1.1459 529.44 0.0018888 197.56 198.44 0.99434 1.5696 2.4885 889.58 -0.0027478 126.61 0.10629 10.161 0.098414 528.37 574.18 2.3731 1.4240 1.7331 221.36 0.31476 7.3956 0.015671
0.37500 69.606 0.11325 237.33 243.33 1.1584 528.09 0.0018936 200.03 200.94 1.0034 1.5731 2.4960 883.00 -0.0026675 125.32 0.10578 10.466 0.095552 529.42 575.28 2.3720 1.4295 1.7421 221.26 0.31242 7.4239 0.015785
1.3750 71.749 0.11664 240.76 246.94 1.1709 526.73 0.0018985 202.51 203.45 1.0124 1.5767 2.5035 876.42 -0.0025856 124.04 0.10527 10.777 0.092790 530.48 576.38 2.3709 1.4350 1.7512 221.14 0.31013 7.4523 0.015899
2.3750 73.941 0.12012 244.21 250.59 1.1834 525.37 0.0019034 204.99 205.96 1.0215 1.5802 2.5112 869.83 -0.0025022 122.78 0.10476 11.096 0.090123 531.53 577.47 2.3699 1.4406 1.7604 221.02 0.30789 7.4808 0.016015
3.3750 76.183 0.12368 247.69 254.25 1.1960 523.99 0.0019084 207.48 208.48 1.0305 1.5838 2.5190 863.24 -0.0024171 121.53 0.10425 11.422 0.087549 532.58 578.56 2.3688 1.4462 1.7697 220.89 0.30569 7.5095 0.016131
4.3750 78.475 0.12732 251.19 257.95 1.2087 522.62 0.0019134 209.98 211.01 1.0395 1.5874 2.5268 856.64 -0.0023303 120.29 0.10374 11.756 0.085062 533.63 579.65 2.3678 1.4518 1.7792 220.75 0.30354 7.5384 0.016249
5.3750 80.817 0.13105 254.71 261.67 1.2213 521.23 0.0019185 212.48 213.55 1.0486 1.5910 2.5348 850.04 -0.0022417 119.06 0.10324 12.098 0.082660 534.67 580.73 2.3669 1.4575 1.7888 220.60 0.30144 7.5674 0.016368
6.3750 83.211 0.13487 258.25 265.42 1.2340 519.84 0.0019237 215.00 216.10 1.0576 1.5946 2.5429 843.43 -0.0021514 117.85 0.10273 12.447 0.080340 535.72 581.81 2.3659 1.4632 1.7986 220.44 0.29938 7.5966 0.016487
7.3750 85.657 0.13879 261.82 269.20 1.2468 518.44 0.0019289 217.51 218.65 1.0666 1.5983 2.5511 836.82 -0.0020593 116.65 0.10223 12.805 0.078096 536.76 582.88 2.3650 1.4689 1.8085 220.27 0.29736 7.6259 0.016608
8.3750 88.156 0.14279 265.41 273.01 1.2596 517.03 0.0019341 220.04 221.22 1.0756 1.6020 2.5595 830.20 -0.0019652 115.46 0.10173 13.170 0.075928 537.80 583.95 2.3640 1.4746 1.8186 220.08 0.29538 7.6555 0.016730
9.3750 90.708 0.14690 269.03 276.85 1.2724 515.62 0.0019394 222.57 223.79 1.0846 1.6057 2.5679 823.58 -0.0018691 114.28 0.10124 13.545 0.073830 538.84 585.01 2.3631 1.4804 1.8288 219.89 0.29345 7.6852 0.016853
10.375 93.315 0.15110 272.67 280.72 1.2853 514.19 0.0019448 225.11 226.37 1.0936 1.6095 2.5765 816.96 -0.0017710 113.11 0.10074 13.927 0.071802 539.87 586.07 2.3622 1.4863 1.8392 219.69 0.29156 7.7151 0.016978
11.375 95.977 0.15540 276.34 284.61 1.2982 512.76 0.0019502 227.66 228.95 1.1025 1.6132 2.5852 810.32 -0.0016708 111.95 0.10025 14.319 0.069840 540.90 587.12 2.3614 1.4921 1.8498 219.48 0.28971 7.7452 0.017103
12.375 98.694 0.15980 280.03 288.54 1.3111 511.32 0.0019557 230.22 231.55 1.1115 1.6170 2.5940 803.68 -0.0015685 110.80 0.099756 14.719 0.067941 541.93 588.17 2.3605 1.4980 1.8605 219.26 0.28790 7.7756 0.017230
13.375 101.47 0.16430 283.75 292.49 1.3241 509.87 0.0019613 232.78 234.15 1.1205 1.6208 2.6030 797.04 -0.0014639 109.67 0.099267 15.128 0.066103 542.96 589.21 2.3597 1.5040 1.8715 219.03 0.28612 7.8061 0.017359
14.375 104.30 0.16892 287.49 296.48 1.3371 508.42 0.0019669 235.35 236.77 1.1295 1.6247 2.6121 790.39 -0.0013569 108.54 0.098779 15.547 0.064323 543.99 590.24 2.3588 1.5099 1.8826 218.79 0.28439 7.8369 0.017488
15.375 107.19 0.17364 291.25 300.49 1.3502 506.95 0.0019726 237.93 239.39 1.1384 1.6286 2.6214 783.73 -0.0012476 107.43 0.098294 15.974 0.062600 545.01 591.27 2.3580 1.5159 1.8940 218.53 0.28270 7.8680 0.017619
16.375 110.13 0.17848 295.04 304.54 1.3633 505.48 0.0019783 240.52 242.02 1.1474 1.6324 2.6308 777.07 -0.0011357 106.32 0.097810 16.412 0.060931 546.03 592.29 2.3572 1.5220 1.9055 218.27 0.28104 7.8993 0.017752
17.375 113.14 0.18343 298.86 308.61 1.3765 504.00 0.0019841 243.11 244.66 1.1564 1.6364 2.6403 770.40 -0.0010213 105.22 0.097328 16.859 0.059314 547.04 593.31 2.3564 1.5281 1.9172 217.99 0.27942 7.9308 0.017886
18.375 116.21 0.18850 302.71 312.72 1.3897 502.50 0.0019900 245.72 247.31 1.1653 1.6403 2.6501 763.72 -0.00090422 104.14 0.096848 17.317 0.057747 548.05 594.32 2.3557 1.5342 1.9292 217.71 0.27783 7.9626 0.018021
19.375 119.33 0.19369 306.57 316.86 1.4030 501.00 0.0019960 248.33 249.97 1.1743 1.6443 2.6599 757.04 -0.00078435 103.06 0.096371 17.785 0.056228 549.06 595.33 2.3549 1.5404 1.9414 217.41 0.27628 7.9947 0.018159
20.375 122.52 0.19900 310.47 321.03 1.4162 499.49 0.0020020 250.95 252.64 1.1832 1.6483 2.6700 750.35 -0.00066161 101.99 0.095895 18.263 0.054756 550.07 596.32 2.3541 1.5466 1.9538 217.10 0.27477 8.0272 0.018297
21.375 125.77 0.20444 314.39 325.23 1.4296 497.97 0.0020082 253.57 255.32 1.1922 1.6523 2.6802 743.64 -0.00053589 100.93 0.095420 18.752 0.053328 551.07 597.31 2.3534 1.5528 1.9665 216.78 0.27329 8.0599 0.018438
22.375 129.08 0.21001 318.34 329.47 1.4430 496.43 0.0020144 256.21 258.00 1.2012 1.6563 2.6906 736.94 -0.00040708 99.877 0.094948 19.252 0.051943 552.07 598.30 2.3526 1.5591 1.9795 216.45 0.27184 8.0929 0.018580
23.375 132.46 0.21572 322.32 333.74 1.4564 494.89 0.0020206 258.86 260.70 1.2101 1.6604 2.7012 730.22 -0.00027505 98.834 0.094478 19.763 0.050600 553.06 599.27 2.3519 1.5655 1.9927 216.11 0.27043 8.1263 0.018724
24.375 135.90 0.22156 326.32 338.04 1.4699 493.34 0.0020270 261.51 263.41 1.2191 1.6645 2.7120 723.49 -0.00013968 97.800 0.094009 20.285 0.049297 554.05 600.24 2.3512 1.5718 2.0061 215.75 0.26906 8.1600 0.018870
25.375 139.41 0.22754 330.35 342.37 1.4834 491.77 0.0020335 264.17 266.13 1.2280 1.6686 2.7230 716.76 -8.3775e-07 96.773 0.093543 20.820 0.048032 555.03 601.20 2.3504 1.5783 2.0199 215.39 0.26771 8.1941 0.019017
26.375 142.98 0.23367 334.41 346.74 1.4970 490.20 0.0020400 266.84 268.85 1.2370 1.6728 2.7342 710.01 0.00014161 95.755 0.093078 21.366 0.046804 556.01 602.15 2.3497 1.5847 2.0340 215.01 0.26640 8.2286 0.019167
27.375 146.62 0.23995 338.50 351.14 1.5106 488.61 0.0020466 269.52 271.59 1.2459 1.6770 2.7456 703.26 0.00028782 94.745 0.092615 21.924 0.045612 556.99 603.10 2.3490 1.5913 2.0484 214.62 0.26512 8.2634 0.019319
28.375 150.33 0.24638 342.62 355.57 1.5243 487.01 0.0020533 272.21 274.34 1.2549 1.6812 2.7573 696.49 0.00043793 93.742 0.092154 22.495 0.044454 557.96 604.03 2.3483 1.5978 2.0631 214.21 0.26387 8.2987 0.019472
29.375 154.10 0.25297 346.76 360.04 1.5380 485.40 0.0020601 274.91 277.10 1.2638 1.6854 2.7691 689.72 0.00059212 92.747 0.091695 23.079 0.043329 558.92 604.96 2.3476 1.6044 2.0781 213.80 0.26265 8.3344 0.019628
30.375 157.94 0.25972 350.93 364.55 1.5518 483.78 0.0020671 277.62 279.87 1.2728 1.6897 2.7813 682.93 0.00075055 91.760 0.091238 23.676 0.042237 559.88 605.88 2.3469 1.6111 2.0935 213.37 0.26147 8.3705 0.019786
31.375 161.86 0.26664 355.13 369.08 1.5656 482.15 0.0020741 280.34 282.66 1.2818 1.6939 2.7936 676.13 0.00091340 90.779 0.090782 24.287 0.041175 560.84 606.79 2.3462 1.6178 2.1092 212.93 0.26031 8.4071 0.019947
32.375 165.84 0.27373 359.37 373.66 1.5795 480.50 0.0020812 283.07 285.45 1.2908 1.6983 2.8063 669.32 0.0010809 89.806 0.090328 24.911 0.040143 561.79 607.69 2.3455 1.6246 2.1254 212.48 0.25919 8.4442 0.020110
33.375 169.90 0.28100 363.63 378.27 1.5934 478.83 0.0020884 285.81 288.26 1.2997 1.7026 2.8192 662.50 0.0012532 88.840 0.089876 25.549 0.039140 562.73 608.58 2.3448 1.6314 2.1419 212.01 0.25809 8.4818 0.020275
34.375 174.02 0.28846 367.92 382.91 1.6074 477.16 0.0020957 288.56 291.07 1.3087 1.7070 2.8324 655.67 0.0014305 87.880 0.089426 26.202 0.038164 563.67 609.46 2.3440 1.6383 2.1589 211.53 0.25702 8.5199 0.020443
35.375 178.22 0.29610 372.24 387.60 1.6214 475.47 0.0021032 291.32 293.90 1.3177 1.7114 2.8459 648.82 0.0016131 86.927 0.088977 26.870 0.037216 564.60 610.33 2.3433 1.6452 2.1763 211.04 0.25599 8.5586 0.020613
36.375 182.50 0.30394 376.59 392.31 1.6355 473.77 0.0021107 294.09 296.74 1.3267 1.7158 2.8597 641.96 0.0018012 85.980 0.088531 27.553 0.036293 565.52 611.19 2.3426 1.6522 2.1942 210.53 0.25498 8.5978 0.020786
37.375 186.84 0.31198 380.97 397.07 1.6496 472.05 0.0021184 296.87 299.60 1.3357 1.7203 2.8739 635.08 0.0019950 85.040 0.088085 28.252 0.035395 566.44 612.04 2.3419 1.6592 2.2125 210.01 0.25400 8.6376 0.020962
38.375 191.27 0.32022 385.38 401.86 1.6638 470.31 0.0021262 299.66 302.46 1.3447 1.7248 2.8884 628.19 0.0021949 84.105 0.087642 28.967 0.034522 567.35 612.88 2.3411 1.6663 2.2314 209.47 0.25305 8.6780 0.021141
39.375 195.77 0.32869 389.82 406.70 1.6780 468.56 0.0021342 302.46 305.34 1.3537 1.7293 2.9033 621.29 0.0024011 83.177 0.087200 29.699 0.033671 568.26 613.70 2.3404 1.6734 2.2508 208.92 0.25213 8.7190 0.021323
40.375 200.34 0.33737 394.30 411.57 1.6923 466.80 0.0021423 305.27 308.23 1.3627 1.7339 2.9185 614.37 0.0026140 82.254 0.086760 30.447 0.032844 569.15 614.52 2.3396 1.6806 2.2708 208.36 0.25123 8.7608 0.021508
41.375 205.00 0.34629 398.81 416.47 1.7067 465.01 0.0021505 308.10 311.14 1.3718 1.7385 2.9342 607.43 0.0028338 81.338 0.086322 31.214 0.032037 570.04 615.32 2.3389 1.6879 2.2913 207.78 0.25037 8.8032 0.021696
42.375 209.73 0.35545 403.35 421.42 1.7211 463.21 0.0021588 310.94 314.06 1.3808 1.7432 2.9502 600.47 0.0030609 80.426 0.085885 31.998 0.031252 570.92 616.11 2.3381 1.6952 2.3125 207.19 0.24953 8.8463 0.021888
43.375 214.54 0.36485 407.92 426.41 1.7356 461.40 0.0021673 313.79 316.99 1.3899 1.7478 2.9667 593.50 0.0032957 79.520 0.085449 32.800 0.030488 571.79 616.88 2.3373 1.7027 2.3344 206.58 0.24871 8.8902 0.022084
44.375 219.43 0.37451 412.52 431.44 1.7501 459.56 0.0021760 316.65 319.94 1.3989 1.7525 2.9837 586.51 0.0035386 78.619 0.085015 33.622 0.029742 572.65 617.65 2.3365 1.7101 2.3569 205.96 0.24793 8.9349 0.022283
45.375 224.41 0.38444 417.16 436.50 1.7647 457.71 0.0021848 319.52 322.90 1.4080 1.7573 3.0012 579.50 0.0037900 77.723 0.084583 34.463 0.029016 573.50 618.40 2.3357 1.7177 2.3802 205.32 0.24717 8.9805 0.022485
46.375 229.46 0.39465 421.84 441.61 1.7793 455.83 0.0021938 322.41 325.88 1.4171 1.7621 3.0192 572.46 0.0040504 76.832 0.084152 35.325 0.028308 574.34 619.13 2.3349 1.7253 2.4042 204.67 0.24644 9.0269 0.022692
47.375 234.60 0.40515 426.54 446.76 1.7940 453.94 0.0022029 325.31 328.87 1.4262 1.7669 3.0377 565.41 0.0043202 75.946 0.083723 36.208 0.027618 575.17 619.85 2.3340 1.7329 2.4291 204.00 0.24573 9.0742 0.022903
48.375 239.83 0.41595 431.28 451.95 1.8088 452.03 0.0022123 328.22 331.88 1.4353 1.7718 3.0569 558.34 0.0046000 75.064 0.083295 37.112 0.026945 576.00 620.55 2.3332 1.7407 2.4548 203.31 0.24505 9.1224 0.023119
49.375 245.13 0.42707 436.06 457.19 1.8236 450.09 0.0022218 331.15 334.90 1.4445 1.7767 3.0766 551.24 0.0048904 74.186 0.082868 38.039 0.026289 576.81 621.24 2.3323 1.7485 2.4815 202.61 0.24440 9.1716 0.023339
50.375 250.53 0.43851 440.87 462.46 1.8385 448.13 0.0022315 334.09 337.94 1.4536 1.7817 3.0970 544.13 0.0051920 73.313 0.082442 38.989 0.025648 577.61 621.91 2.3314 1.7564 2.5092 201.89 0.24377 9.2219 0.023564
51.375 256.01 0.45029 445.72 467.79 1.8535 446.15 0.0022414 337.04 341.00 1.4628 1.7867 3.1181 536.98 0.0055054 72.443 0.082018 39.962 0.025024 578.39 622.56 2.3304 1.7644 2.5379 201.16 0.24317 9.2733 0.023794
52.375 261.57 0.46243 450.61 473.15 1.8685 444.15 0.0022515 340.01 344.07 1.4720 1.7918 3.1400 529.82 0.0058313 71.577 0.081595 40.961 0.024414 579.17 623.20 2.3295 1.7724 2.5677 200.41 0.24260 9.3258 0.024029
53.375 267.23 0.47495 455.53 478.56 1.8836 442.12 0.0022618 343.00 347.17 1.4812 1.7969 3.1627 522.62 0.0061705 70.715 0.081174 41.985 0.023818 579.93 623.81 2.3285 1.7805 2.5987 199.63 0.24205 9.3795 0.024270
54.375 272.97 0.48786 460.49 484.02 1.8988 440.06 0.0022724 346.00 350.28 1.4904 1.8021 3.1862 515.40 0.0065239 69.856 0.080753 43.036 0.023237 580.68 624.41 2.3274 1.7887 2.6310 198.85 0.24154 9.4344 0.024516
55.375 278.81 0.50118 465.49 489.52 1.9140 437.98 0.0022832 349.02 353.40 1.4997 1.8073 3.2106 508.15 0.0068923 69.001 0.080334 44.114 0.022669 581.41 624.99 2.3264 1.7969 2.6646 198.04 0.24105 9.4907 0.024769
56.375 284.74 0.51494 470.52 495.06 1.9293 435.87 0.0022943 352.05 356.55 1.5090 1.8126 3.2360 500.87 0.0072767 68.148 0.079915 45.221 0.022114 582.13 625.54 2.3253 1.8052 2.6998 197.22 0.24059 9.5484 0.025028
57.375 290.76 0.52914 475.60 500.66 1.9447 433.73 0.0023056 355.10 359.72 1.5183 1.8179 3.2624 493.56 0.0076782 67.299 0.079498 46.358 0.021571 582.83 626.07 2.3241 1.8136 2.7365 196.37 0.24016 9.6075 0.025294
58.375 296.87 0.54383 480.72 506.30 1.9602 431.56 0.0023172 358.17 362.91 1.5276 1.8233 3.2900 486.22 0.0080980 66.451 0.079082 47.525 0.021041 583.52 626.58 2.3230 1.8220 2.7749 195.51 0.23976 9.6682 0.025568
59.375 303.08 0.55903 485.88 512.00 1.9757 429.36 0.0023290 361.25 366.12 1.5370 1.8288 3.3188 478.84 0.0085373 65.606 0.078666 48.726 0.020523 584.18 627.07 2.3218 1.8305 2.8152 194.63 0.23939 9.7305 0.025849
60.375 309.38 0.57476 491.08 517.74 1.9913 427.13 0.0023412 364.36 369.35 1.5464 1.8343 3.3489 471.43 0.0089976 64.763 0.078251 49.960 0.020016 584.83 627.53 2.3205 1.8391 2.8576 193.73 0.23905 9.7945 0.026138
61.375 315.78 0.59105 496.32 523.53 2.0070 424.87 0.0023537 367.48 372.60 1.5558 1.8400 3.3805 463.99 0.0094803 63.922 0.077838 51.229 0.019520 585.46 627.96 2.3192 1.8479 2.9022 192.82 0.23873 9.8603 0.026436
62.375 322.28 0.60794 501.60 529.38 2.0228 422.56 0.0023665 370.62 375.88 1.5653 1.8457 3.4136 456.50 0.0099871 63.083 0.077425 52.535 0.019035 586.07 628.37 2.3178 1.8567 2.9492 191.88 0.23845 9.9281 0.026744
63.375 328.88 0.62547 506.93 535.28 2.0386 420.22 0.0023797 373.79 379.18 1.5748 1.8514 3.4483 448.97 0.010520 62.244 0.077012 53.879 0.018560 586.66 628.74 2.3164 1.8656 2.9989 190.92 0.23819 9.9979 0.027061
64.375 335.58 0.64368 512.31 541.23 2.0546 417.85 0.0023932 376.97 382.51 1.5844 1.8573 3.4850 441.40 0.011081 61.407 0.076600 55.265 0.018095 587.22 629.09 2.3149 1.8747 3.0517 189.95 0.23796 10.070 0.027389
65.375 342.38 0.66261 517.73 547.24 2.0706 415.42 0.0024072 380.18 385.86 1.5939 1.8633 3.5236 433.79 0.011672 60.570 0.076189 56.692 0.017639 587.76 629.40 2.3133 1.8839 3.1077 188.95 0.23775 10.144 0.027729
66.375 349.28 0.68231 523.19 553.30 2.0868 412.96 0.0024215 383.41 389.25 1.6036 1.8693 3.5645 426.12 0.012296 59.733 0.075779 58.165 0.017193 588.28 629.68 2.3117 1.8933 3.1674 187.93 0.23757 10.221 0.028080
67.375 356.28 0.70284 528.71 559.42 2.1030 410.45 0.0024363 386.67 392.65 1.6133 1.8755 3.6078 418.41 0.012956 58.897 0.075368 59.684 0.016755 588.76 629.92 2.3100 1.9030 3.2311 186.89 0.23740 10.300 0.028446
68.375 363.40 0.72426 534.27 565.59 2.1193 407.89 0.0024516 389.95 396.09 1.6230 1.8818 3.6537 410.64 0.013655 58.059 0.074959 61.253 0.016326 589.22 630.13 2.3082 1.9129 3.2994 185.83 0.23724 10.382 0.028825
69.375 370.61 0.74663 539.89 571.83 2.1357 405.28 0.0024674 393.26 399.57 1.6328 1.8882 3.7027 402.81 0.014396 57.221 0.074549 62.875 0.015905 589.65 630.29 2.3064 1.9231 3.3727 184.74 0.23710 10.467 0.029221
70.375 377.94 0.77003 545.56 578.13 2.1522 402.62 0.0024838 396.60 403.07 1.6426 1.8947 3.7550 394.92 0.015183 56.381 0.074141 64.552 0.015491 590.04 630.41 2.3044 1.9336 3.4518 183.63 0.23697 10.555 0.029633
71.375 385.37 0.79454 551.28 584.49 2.1689 399.89 0.0025007 399.96 406.61 1.6525 1.9014 3.8109 386.97 0.016021 55.540 0.073732 66.288 0.015086 590.40 630.49 2.3024 1.9444 3.5371 182.50 0.23684 10.647 0.030064
72.375 392.92 0.82027 557.05 590.91 2.1856 397.11 0.0025182 403.36 410.18 1.6625 1.9083 3.8711 378.95 0.016915 54.696 0.073324 68.087 0.014687 590.73 630.51 2.3002 1.9556 3.6297 181.34 0.23671 10.743 0.030515
73.375 400.57 0.84732 562.88 597.40 2.2024 394.26 0.0025364 406.79 413.80 1.6726 1.9153 3.9359 370.85 0.017871 53.848 0.072917 69.953 0.014295 591.01 630.49 2.2979 1.9673 3.7303 180.16 0.23658 10.842 0.030989
74.375 408.34 0.87581 568.77 603.96 2.2194 391.34 0.0025553 410.26 417.45 1.6827 1.9226 4.0060 362.67 0.018894 52.997 0.072510 71.890 0.013910 591.25 630.41 2.2955 1.9793 3.8401 178.95 0.23643 10.946 0.031488
75.375 416.23 0.90589 574.72 610.59 2.2365 388.34 0.0025751 413.76 421.15 1.6930 1.9301 4.0822 354.41 0.019993 52.142 0.072104 73.904 0.013531 591.44 630.27 2.2930 1.9919 3.9604 177.71 0.23627 11.054 0.032014
76.375 424.23 0.93773 580.73 617.29 2.2537 385.26 0.0025957 417.31 424.90 1.7033 1.9378 4.1654 346.06 0.021177 51.281 0.071699 76.001 0.013158 591.59 630.07 2.2903 2.0050 4.0927 176.44 0.23609 11.168 0.032570
77.375 432.35 0.97150 586.81 624.07 2.2711 382.09 0.0026172 420.89 428.70 1.7137 1.9459 4.2565 337.60 0.022455 50.414 0.071295 78.187 0.012790 591.68 629.80 2.2874 2.0186 4.2389 175.15 0.23588 11.287 0.033161
78.375 439.63 undefined 592.12 630.01 2.2862 80.000 0.012500 592.12 630.01 2.2862 2.0294 4.3481 174.28 0.23485 11.393 0.033658 80.000 0.012500 592.12 630.01 2.2862 2.0294 4.3481 174.28 0.23485 11.393 0.033658
79.375 443.17 undefined 594.15 632.34 2.2920 80.000 0.012500 594.15 632.34 2.2920 2.0273 4.2590 175.25 0.23077 11.426 0.033657 80.000 0.012500 594.15 632.34 2.2920 2.0273 4.2590 175.25 0.23077 11.426 0.033657
80.375 446.69 undefined 596.17 634.67 2.2977 80.000 0.012500 596.17 634.67 2.2977 2.0253 4.1766 176.21 0.22684 11.458 0.033665 80.000 0.012500 596.17 634.67 2.2977 2.0253 4.1766 176.21 0.22684 11.458 0.033665
81.375 450.20 undefined 598.20 637.00 2.3034 80.000 0.012500 598.20 637.00 2.3034 2.0232 4.1002 177.17 0.22305 11.491 0.033682 80.000 0.012500 598.20 637.00 2.3034 2.0232 4.1002 177.17 0.22305 11.491 0.033682
82.375 453.68 undefined 600.22 639.32 2.3091 80.000 0.012500 600.22 639.32 2.3091 2.0212 4.0295 178.11 0.21938 11.524 0.033707 80.000 0.012500 600.22 639.32 2.3091 2.0212 4.0295 178.11 0.21938 11.524 0.033707
83.375 457.15 undefined 602.24 641.64 2.3148 80.000 0.012500 602.24 641.64 2.3148 2.0194 3.9637 179.06 0.21583 11.556 0.033740 80.000 0.012500 602.24 641.64 2.3148 2.0194 3.9637 179.06 0.21583 11.556 0.033740
84.375 460.61 undefined 604.26 643.95 2.3205 80.000 0.012500 604.26 643.95 2.3205 2.0176 3.9026 180.00 0.21239 11.589 0.033779 80.000 0.012500 604.26 643.95 2.3205 2.0176 3.9026 180.00 0.21239 11.589 0.033779
85.375 464.05 undefined 606.27 646.27 2.3261 80.000 0.012500 606.27 646.27 2.3261 2.0161 3.8457 180.93 0.20906 11.622 0.033825 80.000 0.012500 606.27 646.27 2.3261 2.0161 3.8457 180.93 0.20906 11.622 0.033825
86.375 467.48 undefined 608.29 648.58 2.3317 80.000 0.012500 608.29 648.58 2.3317 2.0147 3.7926 181.86 0.20583 11.654 0.033876 80.000 0.012500 608.29 648.58 2.3317 2.0147 3.7926 181.86 0.20583 11.654 0.033876
87.375 470.89 undefined 610.30 650.89 2.3373 80.000 0.012500 610.30 650.89 2.3373 2.0135 3.7431 182.78 0.20269 11.687 0.033932 80.000 0.012500 610.30 650.89 2.3373 2.0135 3.7431 182.78 0.20269 11.687 0.033932
88.375 474.29 undefined 612.32 653.19 2.3429 80.000 0.012500 612.32 653.19 2.3429 2.0125 3.6969 183.70 0.19963 11.719 0.033994 80.000 0.012500 612.32 653.19 2.3429 2.0125 3.6969 183.70 0.19963 11.719 0.033994
89.375 477.68 undefined 614.33 655.50 2.3484 80.000 0.012500 614.33 655.50 2.3484 2.0118 3.6536 184.61 0.19667 11.751 0.034059 80.000 0.012500 614.33 655.50 2.3484 2.0118 3.6536 184.61 0.19667 11.751 0.034059
90.375 481.06 undefined 616.34 657.80 2.3540 80.000 0.012500 616.34 657.80 2.3540 2.0112 3.6130 185.52 0.19377 11.784 0.034129 80.000 0.012500 616.34 657.80 2.3540 2.0112 3.6130 185.52 0.19377 11.784 0.034129
91.375 484.42 undefined 618.35 660.10 2.3595 80.000 0.012500 618.35 660.10 2.3595 2.0109 3.5750 186.42 0.19096 11.816 0.034203 80.000 0.012500 618.35 660.10 2.3595 2.0109 3.5750 186.42 0.19096 11.816 0.034203
92.375 487.78 undefined 620.36 662.40 2.3650 80.000 0.012500 620.36 662.40 2.3650 2.0108 3.5392 187.31 0.18821 11.848 0.034281 80.000 0.012500 620.36 662.40 2.3650 2.0108 3.5392 187.31 0.18821 11.848 0.034281
93.375 491.12 undefined 622.37 664.70 2.3705 80.000 0.012500 622.37 664.70 2.3705 2.0109 3.5056 188.20 0.18553 11.881 0.034361 80.000 0.012500 622.37 664.70 2.3705 2.0109 3.5056 188.20 0.18553 11.881 0.034361
94.375 494.46 undefined 624.38 667.00 2.3760 80.000 0.012500 624.38 667.00 2.3760 2.0112 3.4739 189.09 0.18291 11.913 0.034445 80.000 0.012500 624.38 667.00 2.3760 2.0112 3.4739 189.09 0.18291 11.913 0.034445
95.375 497.78 undefined 626.39 669.30 2.3814 80.000 0.012500 626.39 669.30 2.3814 2.0117 3.4440 189.97 0.18036 11.945 0.034532 80.000 0.012500 626.39 669.30 2.3814 2.0117 3.4440 189.97 0.18036 11.945 0.034532
96.375 501.10 undefined 628.41 671.59 2.3869 80.000 0.012500 628.41 671.59 2.3869 2.0124 3.4158 190.84 0.17786 11.977 0.034621 80.000 0.012500 628.41 671.59 2.3869 2.0124 3.4158 190.84 0.17786 11.977 0.034621
97.375 504.41 undefined 630.42 673.89 2.3923 80.000 0.012500 630.42 673.89 2.3923 2.0132 3.3891 191.71 0.17543 12.009 0.034714 80.000 0.012500 630.42 673.89 2.3923 2.0132 3.3891 191.71 0.17543 12.009 0.034714
98.375 507.71 undefined 632.43 676.19 2.3978 80.000 0.012500 632.43 676.19 2.3978 2.0141 3.3638 192.57 0.17304 12.041 0.034808 80.000 0.012500 632.43 676.19 2.3978 2.0141 3.3638 192.57 0.17304 12.041 0.034808
99.375 511.00 undefined 634.45 678.49 2.4032 80.000 0.012500 634.45 678.49 2.4032 2.0152 3.3398 193.43 0.17071 12.073 0.034905 80.000 0.012500 634.45 678.49 2.4032 2.0152 3.3398 193.43 0.17071 12.073 0.034905
100.38 514.28 undefined 636.46 680.79 2.4086 80.000 0.012500 636.46 680.79 2.4086 2.0164 3.3171 194.28 0.16844 12.105 0.035004 80.000 0.012500 636.46 680.79 2.4086 2.0164 3.3171 194.28 0.16844 12.105 0.035004
101.38 517.56 undefined 638.48 683.09 2.4140 80.000 0.012500 638.48 683.09 2.4140 2.0177 3.2955 195.13 0.16621 12.137 0.035105 80.000 0.012500 638.48 683.09 2.4140 2.0177 3.2955 195.13 0.16621 12.137 0.035105
102.38 520.83 undefined 640.50 685.39 2.4194 80.000 0.012500 640.50 685.39 2.4194 2.0192 3.2750 195.97 0.16402 12.169 0.035207 80.000 0.012500 640.50 685.39 2.4194 2.0192 3.2750 195.97 0.16402 12.169 0.035207
103.38 524.09 undefined 642.52 687.69 2.4247 80.000 0.012500 642.52 687.69 2.4247 2.0207 3.2554 196.81 0.16189 12.201 0.035312 80.000 0.012500 642.52 687.69 2.4247 2.0207 3.2554 196.81 0.16189 12.201 0.035312
104.38 527.34 undefined 644.54 689.99 2.4301 80.000 0.012500 644.54 689.99 2.4301 2.0223 3.2368 197.65 0.15980 12.232 0.035419 80.000 0.012500 644.54 689.99 2.4301 2.0223 3.2368 197.65 0.15980 12.232 0.035419
105.38 530.59 undefined 646.56 692.29 2.4354 80.000 0.012500 646.56 692.29 2.4354 2.0241 3.2191 198.48 0.15775 12.264 0.035527 80.000 0.012500 646.56 692.29 2.4354 2.0241 3.2191 198.48 0.15775 12.264 0.035527
106.38 533.83 undefined 648.59 694.60 2.4408 80.000 0.012500 648.59 694.60 2.4408 2.0259 3.2022 199.30 0.15575 12.296 0.035636 80.000 0.012500 648.59 694.60 2.4408 2.0259 3.2022 199.30 0.15575 12.296 0.035636
107.38 537.07 undefined 650.62 696.90 2.4461 80.000 0.012500 650.62 696.90 2.4461 2.0278 3.1860 200.12 0.15378 12.328 0.035747 80.000 0.012500 650.62 696.90 2.4461 2.0278 3.1860 200.12 0.15378 12.328 0.035747
108.38 540.30 undefined 652.64 699.21 2.4514 80.000 0.012500 652.64 699.21 2.4514 2.0297 3.1706 200.94 0.15186 12.359 0.035860 80.000 0.012500 652.64 699.21 2.4514 2.0297 3.1706 200.94 0.15186 12.359 0.035860
109.38 543.52 undefined 654.67 701.52 2.4568 80.000 0.012500 654.67 701.52 2.4568 2.0317 3.1559 201.75 0.14997 12.391 0.035974 80.000 0.012500 654.67 701.52 2.4568 2.0317 3.1559 201.75 0.14997 12.391 0.035974
110.38 546.74 undefined 656.71 703.83 2.4621 80.000 0.012500 656.71 703.83 2.4621 2.0338 3.1418 202.56 0.14812 12.422 0.036089 80.000 0.012500 656.71 703.83 2.4621 2.0338 3.1418 202.56 0.14812 12.422 0.036089
111.38 549.95 undefined 658.74 706.14 2.4674 80.000 0.012500 658.74 706.14 2.4674 2.0360 3.1284 203.37 0.14631 12.454 0.036206 80.000 0.012500 658.74 706.14 2.4674 2.0360 3.1284 203.37 0.14631 12.454 0.036206
112.38 553.15 undefined 660.78 708.45 2.4727 80.000 0.012500 660.78 708.45 2.4727 2.0382 3.1155 204.17 0.14453 12.485 0.036324 80.000 0.012500 660.78 708.45 2.4727 2.0382 3.1155 204.17 0.14453 12.485 0.036324
113.38 556.35 undefined 662.82 710.77 2.4779 80.000 0.012500 662.82 710.77 2.4779 2.0404 3.1032 204.96 0.14279 12.517 0.036443 80.000 0.012500 662.82 710.77 2.4779 2.0404 3.1032 204.96 0.14279 12.517 0.036443
114.38 559.55 undefined 664.86 713.08 2.4832 80.000 0.012500 664.86 713.08 2.4832 2.0427 3.0914 205.76 0.14108 12.548 0.036563 80.000 0.012500 664.86 713.08 2.4832 2.0427 3.0914 205.76 0.14108 12.548 0.036563
115.38 562.74 undefined 666.90 715.40 2.4885 80.000 0.012500 666.90 715.40 2.4885 2.0451 3.0801 206.55 0.13940 12.580 0.036684 80.000 0.012500 666.90 715.40 2.4885 2.0451 3.0801 206.55 0.13940 12.580 0.036684
116.38 565.92 undefined 668.95 717.72 2.4937 80.000 0.012500 668.95 717.72 2.4937 2.0475 3.0693 207.33 0.13776 12.611 0.036807 80.000 0.012500 668.95 717.72 2.4937 2.0475 3.0693 207.33 0.13776 12.611 0.036807
117.38 569.10 undefined 671.00 720.05 2.4990 80.000 0.012500 671.00 720.05 2.4990 2.0499 3.0589 208.11 0.13614 12.642 0.036930 80.000 0.012500 671.00 720.05 2.4990 2.0499 3.0589 208.11 0.13614 12.642 0.036930
118.38 572.28 undefined 673.05 722.37 2.5042 80.000 0.012500 673.05 722.37 2.5042 2.0524 3.0489 208.89 0.13455 12.674 0.037055 80.000 0.012500 673.05 722.37 2.5042 2.0524 3.0489 208.89 0.13455 12.674 0.037055
119.38 575.45 undefined 675.10 724.70 2.5095 80.000 0.012500 675.10 724.70 2.5095 2.0550 3.0394 209.67 0.13300 12.705 0.037180 80.000 0.012500 675.10 724.70 2.5095 2.0550 3.0394 209.67 0.13300 12.705 0.037180
120.38 578.61 undefined 677.16 727.03 2.5147 80.000 0.012500 677.16 727.03 2.5147 2.0575 3.0303 210.44 0.13147 12.736 0.037306 80.000 0.012500 677.16 727.03 2.5147 2.0575 3.0303 210.44 0.13147 12.736 0.037306
121.38 581.77 undefined 679.22 729.36 2.5199 80.000 0.012500 679.22 729.36 2.5199 2.0602 3.0215 211.21 0.12996 12.767 0.037433 80.000 0.012500 679.22 729.36 2.5199 2.0602 3.0215 211.21 0.12996 12.767 0.037433
122.38 584.93 undefined 681.28 731.69 2.5252 80.000 0.012500 681.28 731.69 2.5252 2.0628 3.0131 211.97 0.12849 12.798 0.037562 80.000 0.012500 681.28 731.69 2.5252 2.0628 3.0131 211.97 0.12849 12.798 0.037562
123.38 588.08 undefined 683.35 734.03 2.5304 80.000 0.012500 683.35 734.03 2.5304 2.0655 3.0051 212.73 0.12704 12.829 0.037691 80.000 0.012500 683.35 734.03 2.5304 2.0655 3.0051 212.73 0.12704 12.829 0.037691
124.38 591.23 undefined 685.41 736.37 2.5356 80.000 0.012500 685.41 736.37 2.5356 2.0682 2.9973 213.49 0.12561 12.860 0.037821 80.000 0.012500 685.41 736.37 2.5356 2.0682 2.9973 213.49 0.12561 12.860 0.037821
125.38 594.38 undefined 687.48 738.71 2.5408 80.000 0.012500 687.48 738.71 2.5408 2.0709 2.9899 214.25 0.12421 12.891 0.037951 80.000 0.012500 687.48 738.71 2.5408 2.0709 2.9899 214.25 0.12421 12.891 0.037951
126.38 597.51 undefined 689.55 741.05 2.5460 80.000 0.012500 689.55 741.05 2.5460 2.0737 2.9828 215.00 0.12284 12.922 0.038083 80.000 0.012500 689.55 741.05 2.5460 2.0737 2.9828 215.00 0.12284 12.922 0.038083
127.38 600.65 undefined 691.63 743.40 2.5512 80.000 0.012500 691.63 743.40 2.5512 2.0765 2.9760 215.75 0.12149 12.953 0.038215 80.000 0.012500 691.63 743.40 2.5512 2.0765 2.9760 215.75 0.12149 12.953 0.038215
128.38 603.78 undefined 693.71 745.74 2.5563 80.000 0.012500 693.71 745.74 2.5563 2.0793 2.9694 216.49 0.12016 12.984 0.038348 80.000 0.012500 693.71 745.74 2.5563 2.0793 2.9694 216.49 0.12016 12.984 0.038348
129.38 606.91 undefined 695.79 748.09 2.5615 80.000 0.012500 695.79 748.09 2.5615 2.0822 2.9631 217.24 0.11885 13.015 0.038482 80.000 0.012500 695.79 748.09 2.5615 2.0822 2.9631 217.24 0.11885 13.015 0.038482
130.38 610.03 undefined 697.87 750.45 2.5667 80.000 0.012500 697.87 750.45 2.5667 2.0850 2.9571 217.97 0.11756 13.046 0.038616 80.000 0.012500 697.87 750.45 2.5667 2.0850 2.9571 217.97 0.11756 13.046 0.038616
131.38 613.15 undefined 699.96 752.80 2.5718 80.000 0.012500 699.96 752.80 2.5718 2.0879 2.9513 218.71 0.11630 13.076 0.038751 80.000 0.012500 699.96 752.80 2.5718 2.0879 2.9513 218.71 0.11630 13.076 0.038751
132.38 616.27 undefined 702.05 755.16 2.5770 80.000 0.012500 702.05 755.16 2.5770 2.0909 2.9458 219.45 0.11506 13.107 0.038887 80.000 0.012500 702.05 755.16 2.5770 2.0909 2.9458 219.45 0.11506 13.107 0.038887
133.38 619.38 undefined 704.14 757.52 2.5822 80.000 0.012500 704.14 757.52 2.5822 2.0938 2.9405 220.18 0.11383 13.138 0.039024 80.000 0.012500 704.14 757.52 2.5822 2.0938 2.9405 220.18 0.11383 13.138 0.039024
134.38 622.49 undefined 706.23 759.88 2.5873 80.000 0.012500 706.23 759.88 2.5873 2.0968 2.9354 220.90 0.11263 13.168 0.039161 80.000 0.012500 706.23 759.88 2.5873 2.0968 2.9354 220.90 0.11263 13.168 0.039161
135.38 625.60 undefined 708.33 762.25 2.5924 80.000 0.012500 708.33 762.25 2.5924 2.0998 2.9305 221.63 0.11145 13.199 0.039299 80.000 0.012500 708.33 762.25 2.5924 2.0998 2.9305 221.63 0.11145 13.199 0.039299
136.38 628.70 undefined 710.43 764.62 2.5976 80.000 0.012500 710.43 764.62 2.5976 2.1028 2.9258 222.35 0.11028 13.230 0.039438 80.000 0.012500 710.43 764.62 2.5976 2.1028 2.9258 222.35 0.11028 13.230 0.039438
137.38 631.80 undefined 712.54 766.99 2.6027 80.000 0.012500 712.54 766.99 2.6027 2.1058 2.9213 223.07 0.10914 13.260 0.039577 80.000 0.012500 712.54 766.99 2.6027 2.1058 2.9213 223.07 0.10914 13.260 0.039577
138.38 634.90 undefined 714.65 769.36 2.6078 80.000 0.012500 714.65 769.36 2.6078 2.1088 2.9170 223.79 0.10801 13.291 0.039717 80.000 0.012500 714.65 769.36 2.6078 2.1088 2.9170 223.79 0.10801 13.291 0.039717
139.38 637.99 undefined 716.76 771.74 2.6130 80.000 0.012500 716.76 771.74 2.6130 2.1119 2.9129 224.50 0.10690 13.321 0.039857 80.000 0.012500 716.76 771.74 2.6130 2.1119 2.9129 224.50 0.10690 13.321 0.039857
140.38 641.08 undefined 718.87 774.12 2.6181 80.000 0.012500 718.87 774.12 2.6181 2.1150 2.9090 225.21 0.10580 13.352 0.039998 80.000 0.012500 718.87 774.12 2.6181 2.1150 2.9090 225.21 0.10580 13.352 0.039998
141.38 644.16 undefined 720.99 776.50 2.6232 80.000 0.012500 720.99 776.50 2.6232 2.1181 2.9052 225.92 0.10473 13.382 0.040140 80.000 0.012500 720.99 776.50 2.6232 2.1181 2.9052 225.92 0.10473 13.382 0.040140
142.38 647.25 undefined 723.11 778.89 2.6283 80.000 0.012500 723.11 778.89 2.6283 2.1212 2.9016 226.63 0.10367 13.412 0.040282 80.000 0.012500 723.11 778.89 2.6283 2.1212 2.9016 226.63 0.10367 13.412 0.040282
143.38 650.33 undefined 725.23 781.28 2.6334 80.000 0.012500 725.23 781.28 2.6334 2.1243 2.8982 227.33 0.10262 13.443 0.040425 80.000 0.012500 725.23 781.28 2.6334 2.1243 2.8982 227.33 0.10262 13.443 0.040425
144.38 653.40 undefined 727.35 783.67 2.6385 80.000 0.012500 727.35 783.67 2.6385 2.1274 2.8949 228.03 0.10159 13.473 0.040568 80.000 0.012500 727.35 783.67 2.6385 2.1274 2.8949 228.03 0.10159 13.473 0.040568
145.38 656.48 undefined 729.48 786.06 2.6436 80.000 0.012500 729.48 786.06 2.6436 2.1306 2.8918 228.73 0.10058 13.503 0.040712 80.000 0.012500 729.48 786.06 2.6436 2.1306 2.8918 228.73 0.10058 13.503 0.040712
146.38 659.55 undefined 731.62 788.46 2.6487 80.000 0.012500 731.62 788.46 2.6487 2.1337 2.8888 229.43 0.099583 13.534 0.040856 80.000 0.012500 731.62 788.46 2.6487 2.1337 2.8888 229.43 0.099583 13.534 0.040856
147.38 662.61 undefined 733.75 790.86 2.6538 80.000 0.012500 733.75 790.86 2.6538 2.1369 2.8860 230.12 0.098601 13.564 0.041001 80.000 0.012500 733.75 790.86 2.6538 2.1369 2.8860 230.12 0.098601 13.564 0.041001
148.38 665.68 undefined 735.89 793.26 2.6588 80.000 0.012500 735.89 793.26 2.6588 2.1401 2.8832 230.81 0.097633 13.594 0.041147 80.000 0.012500 735.89 793.26 2.6588 2.1401 2.8832 230.81 0.097633 13.594 0.041147
149.38 668.74 undefined 738.03 795.67 2.6639 80.000 0.012500 738.03 795.67 2.6639 2.1433 2.8807 231.50 0.096679 13.624 0.041293 80.000 0.012500 738.03 795.67 2.6639 2.1433 2.8807 231.50 0.096679 13.624 0.041293
150.38 671.80 undefined 740.18 798.07 2.6690 80.000 0.012500 740.18 798.07 2.6690 2.1465 2.8782 232.19 0.095739 13.654 0.041439 80.000 0.012500 740.18 798.07 2.6690 2.1465 2.8782 232.19 0.095739 13.654 0.041439
151.38 674.86 undefined 742.32 800.49 2.6741 80.000 0.012500 742.32 800.49 2.6741 2.1497 2.8759 232.87 0.094813 13.684 0.041586 80.000 0.012500 742.32 800.49 2.6741 2.1497 2.8759 232.87 0.094813 13.684 0.041586
152.38 677.91 undefined 744.48 802.90 2.6791 80.000 0.012500 744.48 802.90 2.6791 2.1530 2.8737 233.55 0.093900 13.714 0.041734 80.000 0.012500 744.48 802.90 2.6791 2.1530 2.8737 233.55 0.093900 13.714 0.041734
153.38 680.96 undefined 746.63 805.32 2.6842 80.000 0.012500 746.63 805.32 2.6842 2.1562 2.8716 234.23 0.093000 13.744 0.041882 80.000 0.012500 746.63 805.32 2.6842 2.1562 2.8716 234.23 0.093000 13.744 0.041882
154.38 684.01 undefined 748.79 807.74 2.6892 80.000 0.012500 748.79 807.74 2.6892 2.1595 2.8696 234.91 0.092114 13.774 0.042030 80.000 0.012500 748.79 807.74 2.6892 2.1595 2.8696 234.91 0.092114 13.774 0.042030
155.38 687.06 undefined 750.95 810.16 2.6943 80.000 0.012500 750.95 810.16 2.6943 2.1627 2.8677 235.59 0.091240 13.804 0.042179 80.000 0.012500 750.95 810.16 2.6943 2.1627 2.8677 235.59 0.091240 13.804 0.042179
156.38 690.10 undefined 753.11 812.59 2.6993 80.000 0.012500 753.11 812.59 2.6993 2.1660 2.8660 236.26 0.090378 13.834 0.042329 80.000 0.012500 753.11 812.59 2.6993 2.1660 2.8660 236.26 0.090378 13.834 0.042329
157.38 693.14 undefined 755.28 815.02 2.7044 80.000 0.012500 755.28 815.02 2.7044 2.1693 2.8643 236.93 0.089528 13.864 0.042478 80.000 0.012500 755.28 815.02 2.7044 2.1693 2.8643 236.93 0.089528 13.864 0.042478
158.38 696.18 undefined 757.45 817.45 2.7094 80.000 0.012500 757.45 817.45 2.7094 2.1726 2.8628 237.60 0.088690 13.894 0.042629 80.000 0.012500 757.45 817.45 2.7094 2.1726 2.8628 237.60 0.088690 13.894 0.042629
159.38 699.22 undefined 759.63 819.89 2.7144 80.000 0.012500 759.63 819.89 2.7144 2.1759 2.8613 238.26 0.087864 13.923 0.042780 80.000 0.012500 759.63 819.89 2.7144 2.1759 2.8613 238.26 0.087864 13.923 0.042780
160.38 702.25 undefined 761.80 822.33 2.7195 80.000 0.012500 761.80 822.33 2.7195 2.1792 2.8600 238.93 0.087050 13.953 0.042931 80.000 0.012500 761.80 822.33 2.7195 2.1792 2.8600 238.93 0.087050 13.953 0.042931
161.38 705.28 undefined 763.98 824.77 2.7245 80.000 0.012500 763.98 824.77 2.7245 2.1825 2.8587 239.59 0.086246 13.983 0.043083 80.000 0.012500 763.98 824.77 2.7245 2.1825 2.8587 239.59 0.086246 13.983 0.043083
162.38 708.31 undefined 766.17 827.21 2.7295 80.000 0.012500 766.17 827.21 2.7295 2.1858 2.8575 240.25 0.085454 14.013 0.043235 80.000 0.012500 766.17 827.21 2.7295 2.1858 2.8575 240.25 0.085454 14.013 0.043235
163.38 711.34 undefined 768.36 829.66 2.7345 80.000 0.012500 768.36 829.66 2.7345 2.1891 2.8564 240.91 0.084673 14.042 0.043387 80.000 0.012500 768.36 829.66 2.7345 2.1891 2.8564 240.91 0.084673 14.042 0.043387
164.38 714.36 undefined 770.55 832.11 2.7395 80.000 0.012500 770.55 832.11 2.7395 2.1925 2.8554 241.56 0.083902 14.072 0.043541 80.000 0.012500 770.55 832.11 2.7395 2.1925 2.8554 241.56 0.083902 14.072 0.043541
165.38 717.38 undefined 772.74 834.57 2.7445 80.000 0.012500 772.74 834.57 2.7445 2.1958 2.8545 242.22 0.083141 14.101 0.043694 80.000 0.012500 772.74 834.57 2.7445 2.1958 2.8545 242.22 0.083141 14.101 0.043694
166.38 720.40 undefined 774.94 837.03 2.7496 80.000 0.012500 774.94 837.03 2.7496 2.1992 2.8537 242.87 0.082391 14.131 0.043848 80.000 0.012500 774.94 837.03 2.7496 2.1992 2.8537 242.87 0.082391 14.131 0.043848
167.38 723.42 undefined 777.14 839.49 2.7546 80.000 0.012500 777.14 839.49 2.7546 2.2025 2.8529 243.52 0.081651 14.160 0.044002 80.000 0.012500 777.14 839.49 2.7546 2.2025 2.8529 243.52 0.081651 14.160 0.044002
168.38 726.44 undefined 779.34 841.95 2.7596 80.000 0.012500 779.34 841.95 2.7596 2.2059 2.8522 244.17 0.080920 14.190 0.044157 80.000 0.012500 779.34 841.95 2.7596 2.2059 2.8522 244.17 0.080920 14.190 0.044157
169.38 729.45 undefined 781.55 844.42 2.7645 80.000 0.012500 781.55 844.42 2.7645 2.2093 2.8516 244.81 0.080199 14.219 0.044312 80.000 0.012500 781.55 844.42 2.7645 2.2093 2.8516 244.81 0.080199 14.219 0.044312
170.38 732.46 undefined 783.76 846.89 2.7695 80.000 0.012500 783.76 846.89 2.7695 2.2127 2.8511 245.46 0.079488 14.249 0.044468 80.000 0.012500 783.76 846.89 2.7695 2.2127 2.8511 245.46 0.079488 14.249 0.044468
171.38 735.47 undefined 785.98 849.36 2.7745 80.000 0.012500 785.98 849.36 2.7745 2.2160 2.8506 246.10 0.078786 14.278 0.044624 80.000 0.012500 785.98 849.36 2.7745 2.2160 2.8506 246.10 0.078786 14.278 0.044624
172.38 738.48 undefined 788.19 851.84 2.7795 80.000 0.012500 788.19 851.84 2.7795 2.2194 2.8502 246.74 0.078094 14.307 0.044780 80.000 0.012500 788.19 851.84 2.7795 2.2194 2.8502 246.74 0.078094 14.307 0.044780
173.38 741.48 undefined 790.42 854.32 2.7845 80.000 0.012500 790.42 854.32 2.7845 2.2228 2.8499 247.38 0.077410 14.337 0.044937 80.000 0.012500 790.42 854.32 2.7845 2.2228 2.8499 247.38 0.077410 14.337 0.044937
174.38 744.49 undefined 792.64 856.80 2.7895 80.000 0.012500 792.64 856.80 2.7895 2.2262 2.8496 248.01 0.076735 14.366 0.045094 80.000 0.012500 792.64 856.80 2.7895 2.2262 2.8496 248.01 0.076735 14.366 0.045094
175.38 747.49 undefined 794.87 859.29 2.7944 80.000 0.012500 794.87 859.29 2.7944 2.2296 2.8494 248.65 0.076069 14.395 0.045252 80.000 0.012500 794.87 859.29 2.7944 2.2296 2.8494 248.65 0.076069 14.395 0.045252
176.38 750.49 undefined 797.10 861.78 2.7994 80.000 0.012500 797.10 861.78 2.7994 2.2330 2.8493 249.28 0.075411 14.425 0.045410 80.000 0.012500 797.10 861.78 2.7994 2.2330 2.8493 249.28 0.075411 14.425 0.045410
177.38 753.48 undefined 799.33 864.27 2.8044 80.000 0.012500 799.33 864.27 2.8044 2.2364 2.8492 249.91 0.074762 14.454 0.045569 80.000 0.012500 799.33 864.27 2.8044 2.2364 2.8492 249.91 0.074762 14.454 0.045569
178.38 756.48 undefined 801.57 866.77 2.8093 80.000 0.012500 801.57 866.77 2.8093 2.2399 2.8492 250.54 0.074121 14.483 0.045727 80.000 0.012500 801.57 866.77 2.8093 2.2399 2.8492 250.54 0.074121 14.483 0.045727
179.38 759.47 undefined 803.81 869.27 2.8143 80.000 0.012500 803.81 869.27 2.8143 2.2433 2.8493 251.16 0.073488 14.512 0.045887 80.000 0.012500 803.81 869.27 2.8143 2.2433 2.8493 251.16 0.073488 14.512 0.045887
180.38 762.46 undefined 806.06 871.77 2.8192 80.000 0.012500 806.06 871.77 2.8192 2.2467 2.8494 251.79 0.072863 14.541 0.046046 80.000 0.012500 806.06 871.77 2.8192 2.2467 2.8494 251.79 0.072863 14.541 0.046046
181.38 765.45 undefined 808.31 874.28 2.8242 80.000 0.012500 808.31 874.28 2.8242 2.2502 2.8496 252.41 0.072246 14.570 0.046206 80.000 0.012500 808.31 874.28 2.8242 2.2502 2.8496 252.41 0.072246 14.570 0.046206
182.38 768.44 undefined 810.56 876.79 2.8292 80.000 0.012500 810.56 876.79 2.8292 2.2536 2.8498 253.04 0.071637 14.599 0.046366 80.000 0.012500 810.56 876.79 2.8292 2.2536 2.8498 253.04 0.071637 14.599 0.046366
183.38 771.43 undefined 812.81 879.30 2.8341 80.000 0.012500 812.81 879.30 2.8341 2.2570 2.8500 253.66 0.071035 14.628 0.046527 80.000 0.012500 812.81 879.30 2.8341 2.2570 2.8500 253.66 0.071035 14.628 0.046527
184.38 774.41 undefined 815.07 881.82 2.8390 80.000 0.012500 815.07 881.82 2.8390 2.2605 2.8504 254.27 0.070441 14.657 0.046688 80.000 0.012500 815.07 881.82 2.8390 2.2605 2.8504 254.27 0.070441 14.657 0.046688
185.38 777.39 undefined 817.34 884.33 2.8440 80.000 0.012500 817.34 884.33 2.8440 2.2639 2.8507 254.89 0.069854 14.686 0.046850 80.000 0.012500 817.34 884.33 2.8440 2.2639 2.8507 254.89 0.069854 14.686 0.046850
186.38 780.37 undefined 819.60 886.86 2.8489 80.000 0.012500 819.60 886.86 2.8489 2.2674 2.8512 255.51 0.069274 14.715 0.047012 80.000 0.012500 819.60 886.86 2.8489 2.2674 2.8512 255.51 0.069274 14.715 0.047012
187.38 783.35 undefined 821.87 889.38 2.8538 80.000 0.012500 821.87 889.38 2.8538 2.2708 2.8516 256.12 0.068701 14.744 0.047174 80.000 0.012500 821.87 889.38 2.8538 2.2708 2.8516 256.12 0.068701 14.744 0.047174
188.38 786.33 undefined 824.14 891.91 2.8588 80.000 0.012500 824.14 891.91 2.8588 2.2743 2.8522 256.73 0.068135 14.772 0.047336 80.000 0.012500 824.14 891.91 2.8588 2.2743 2.8522 256.73 0.068135 14.772 0.047336
189.38 789.31 undefined 826.42 894.44 2.8637 80.000 0.012500 826.42 894.44 2.8637 2.2777 2.8527 257.34 0.067576 14.801 0.047499 80.000 0.012500 826.42 894.44 2.8637 2.2777 2.8527 257.34 0.067576 14.801 0.047499
190.38 792.28 undefined 828.70 896.98 2.8686 80.000 0.012500 828.70 896.98 2.8686 2.2812 2.8533 257.95 0.067024 14.830 0.047663 80.000 0.012500 828.70 896.98 2.8686 2.2812 2.8533 257.95 0.067024 14.830 0.047663
191.38 795.25 undefined 830.98 899.52 2.8735 80.000 0.012500 830.98 899.52 2.8735 2.2847 2.8540 258.55 0.066479 14.859 0.047826 80.000 0.012500 830.98 899.52 2.8735 2.2847 2.8540 258.55 0.066479 14.859 0.047826
192.38 798.22 undefined 833.27 902.06 2.8785 80.000 0.012500 833.27 902.06 2.8785 2.2881 2.8547 259.16 0.065939 14.887 0.047990 80.000 0.012500 833.27 902.06 2.8785 2.2881 2.8547 259.16 0.065939 14.887 0.047990
193.38 801.19 undefined 835.56 904.61 2.8834 80.000 0.012500 835.56 904.61 2.8834 2.2916 2.8554 259.76 0.065407 14.916 0.048155 80.000 0.012500 835.56 904.61 2.8834 2.2916 2.8554 259.76 0.065407 14.916 0.048155
194.38 804.16 undefined 837.85 907.16 2.8883 80.000 0.012500 837.85 907.16 2.8883 2.2951 2.8562 260.37 0.064880 14.945 0.048319 80.000 0.012500 837.85 907.16 2.8883 2.2951 2.8562 260.37 0.064880 14.945 0.048319
195.38 807.13 undefined 840.15 909.71 2.8932 80.000 0.012500 840.15 909.71 2.8932 2.2986 2.8570 260.97 0.064360 14.973 0.048485 80.000 0.012500 840.15 909.71 2.8932 2.2986 2.8570 260.97 0.064360 14.973 0.048485
196.38 810.09 undefined 842.45 912.26 2.8981 80.000 0.012500 842.45 912.26 2.8981 2.3020 2.8579 261.56 0.063846 15.002 0.048650 80.000 0.012500 842.45 912.26 2.8981 2.3020 2.8579 261.56 0.063846 15.002 0.048650
197.38 813.05 undefined 844.75 914.82 2.9030 80.000 0.012500 844.75 914.82 2.9030 2.3055 2.8588 262.16 0.063338 15.030 0.048816 80.000 0.012500 844.75 914.82 2.9030 2.3055 2.8588 262.16 0.063338 15.030 0.048816
198.38 816.02 undefined 847.06 917.39 2.9079 80.000 0.012500 847.06 917.39 2.9079 2.3090 2.8597 262.76 0.062836 15.059 0.048982 80.000 0.012500 847.06 917.39 2.9079 2.3090 2.8597 262.76 0.062836 15.059 0.048982
199.38 818.98 undefined 849.37 919.95 2.9128 80.000 0.012500 849.37 919.95 2.9128 2.3125 2.8607 263.35 0.062340 15.087 0.049148 80.000 0.012500 849.37 919.95 2.9128 2.3125 2.8607 263.35 0.062340 15.087 0.049148
200.38 821.93 undefined 851.68 922.52 2.9177 80.000 0.012500 851.68 922.52 2.9177 2.3160 2.8617 263.94 0.061849 15.116 0.049315 80.000 0.012500 851.68 922.52 2.9177 2.3160 2.8617 263.94 0.061849 15.116 0.049315
201.38 824.89 undefined 854.00 925.09 2.9226 80.000 0.012500 854.00 925.09 2.9226 2.3195 2.8628 264.54 0.061364 15.144 0.049482 80.000 0.012500 854.00 925.09 2.9226 2.3195 2.8628 264.54 0.061364 15.144 0.049482
202.38 827.85 undefined 856.32 927.67 2.9275 80.000 0.012500 856.32 927.67 2.9275 2.3230 2.8639 265.13 0.060885 15.172 0.049650 80.000 0.012500 856.32 927.67 2.9275 2.3230 2.8639 265.13 0.060885 15.172 0.049650
203.38 830.80 undefined 858.65 930.25 2.9323 80.000 0.012500 858.65 930.25 2.9323 2.3265 2.8650 265.71 0.060411 15.201 0.049818 80.000 0.012500 858.65 930.25 2.9323 2.3265 2.8650 265.71 0.060411 15.201 0.049818
204.38 833.75 undefined 860.98 932.83 2.9372 80.000 0.012500 860.98 932.83 2.9372 2.3300 2.8661 266.30 0.059943 15.229 0.049986 80.000 0.012500 860.98 932.83 2.9372 2.3300 2.8661 266.30 0.059943 15.229 0.049986
205.38 836.70 undefined 863.31 935.42 2.9421 80.000 0.012500 863.31 935.42 2.9421 2.3334 2.8673 266.89 0.059480 15.257 0.050154 80.000 0.012500 863.31 935.42 2.9421 2.3334 2.8673 266.89 0.059480 15.257 0.050154
206.38 839.65 undefined 865.64 938.01 2.9470 80.000 0.012500 865.64 938.01 2.9470 2.3369 2.8686 267.47 0.059022 15.286 0.050323 80.000 0.012500 865.64 938.01 2.9470 2.3369 2.8686 267.47 0.059022 15.286 0.050323
207.38 842.60 undefined 867.98 940.60 2.9518 80.000 0.012500 867.98 940.60 2.9518 2.3404 2.8698 268.05 0.058569 15.314 0.050493 80.000 0.012500 867.98 940.60 2.9518 2.3404 2.8698 268.05 0.058569 15.314 0.050493
208.38 845.55 undefined 870.32 943.20 2.9567 80.000 0.012500 870.32 943.20 2.9567 2.3439 2.8711 268.63 0.058121 15.342 0.050662 80.000 0.012500 870.32 943.20 2.9567 2.3439 2.8711 268.63 0.058121 15.342 0.050662
209.38 848.50 undefined 872.67 945.80 2.9616 80.000 0.012500 872.67 945.80 2.9616 2.3474 2.8724 269.21 0.057679 15.370 0.050832 80.000 0.012500 872.67 945.80 2.9616 2.3474 2.8724 269.21 0.057679 15.370 0.050832
210.38 851.44 undefined 875.02 948.40 2.9664 80.000 0.012500 875.02 948.40 2.9664 2.3509 2.8737 269.79 0.057241 15.398 0.051002 80.000 0.012500 875.02 948.40 2.9664 2.3509 2.8737 269.79 0.057241 15.398 0.051002
211.38 854.39 undefined 877.37 951.01 2.9713 80.000 0.012500 877.37 951.01 2.9713 2.3545 2.8751 270.37 0.056808 15.426 0.051173 80.000 0.012500 877.37 951.01 2.9713 2.3545 2.8751 270.37 0.056808 15.426 0.051173
212.38 857.33 undefined 879.73 953.62 2.9762 80.000 0.012500 879.73 953.62 2.9762 2.3580 2.8765 270.94 0.056380 15.454 0.051343 80.000 0.012500 879.73 953.62 2.9762 2.3580 2.8765 270.94 0.056380 15.454 0.051343
213.38 860.27 undefined 882.09 956.23 2.9810 80.000 0.012500 882.09 956.23 2.9810 2.3615 2.8779 271.52 0.055956 15.482 0.051515 80.000 0.012500 882.09 956.23 2.9810 2.3615 2.8779 271.52 0.055956 15.482 0.051515
214.38 863.21 undefined 884.45 958.85 2.9859 80.000 0.012500 884.45 958.85 2.9859 2.3650 2.8794 272.09 0.055537 15.510 0.051686 80.000 0.012500 884.45 958.85 2.9859 2.3650 2.8794 272.09 0.055537 15.510 0.051686
215.38 866.15 undefined 886.82 961.47 2.9907 80.000 0.012500 886.82 961.47 2.9907 2.3685 2.8808 272.66 0.055123 15.538 0.051858 80.000 0.012500 886.82 961.47 2.9907 2.3685 2.8808 272.66 0.055123 15.538 0.051858
216.38 869.08 undefined 889.19 964.09 2.9956 80.000 0.012500 889.19 964.09 2.9956 2.3720 2.8823 273.23 0.054713 15.566 0.052030 80.000 0.012500 889.19 964.09 2.9956 2.3720 2.8823 273.23 0.054713 15.566 0.052030
217.38 872.02 undefined 891.56 966.72 3.0004 80.000 0.012500 891.56 966.72 3.0004 2.3755 2.8839 273.80 0.054308 15.594 0.052203 80.000 0.012500 891.56 966.72 3.0004 2.3755 2.8839 273.80 0.054308 15.594 0.052203
218.38 874.95 undefined 893.94 969.35 3.0053 80.000 0.012500 893.94 969.35 3.0053 2.3790 2.8854 274.37 0.053907 15.622 0.052375 80.000 0.012500 893.94 969.35 3.0053 2.3790 2.8854 274.37 0.053907 15.622 0.052375
219.38 877.89 undefined 896.32 971.98 3.0101 80.000 0.012500 896.32 971.98 3.0101 2.3825 2.8870 274.94 0.053510 15.650 0.052548 80.000 0.012500 896.32 971.98 3.0101 2.3825 2.8870 274.94 0.053510 15.650 0.052548
220.38 880.82 undefined 898.70 974.62 3.0149 80.000 0.012500 898.70 974.62 3.0149 2.3860 2.8886 275.50 0.053118 15.678 0.052722 80.000 0.012500 898.70 974.62 3.0149 2.3860 2.8886 275.50 0.053118 15.678 0.052722
221.38 883.75 undefined 901.09 977.26 3.0198 80.000 0.012500 901.09 977.26 3.0198 2.3895 2.8902 276.06 0.052729 15.705 0.052896 80.000 0.012500 901.09 977.26 3.0198 2.3895 2.8902 276.06 0.052729 15.705 0.052896
222.38 886.68 undefined 903.48 979.90 3.0246 80.000 0.012500 903.48 979.90 3.0246 2.3930 2.8919 276.63 0.052345 15.733 0.053070 80.000 0.012500 903.48 979.90 3.0246 2.3930 2.8919 276.63 0.052345 15.733 0.053070
223.38 889.61 undefined 905.88 982.55 3.0294 80.000 0.012500 905.88 982.55 3.0294 2.3965 2.8935 277.19 0.051965 15.761 0.053244 80.000 0.012500 905.88 982.55 3.0294 2.3965 2.8935 277.19 0.051965 15.761 0.053244
224.38 892.54 undefined 908.27 985.20 3.0342 80.000 0.012500 908.27 985.20 3.0342 2.4000 2.8952 277.75 0.051589 15.789 0.053419 80.000 0.012500 908.27 985.20 3.0342 2.4000 2.8952 277.75 0.051589 15.789 0.053419
225.38 895.47 undefined 910.68 987.85 3.0391 80.000 0.012500 910.68 987.85 3.0391 2.4035 2.8969 278.31 0.051217 15.816 0.053594 80.000 0.012500 910.68 987.85 3.0391 2.4035 2.8969 278.31 0.051217 15.816 0.053594
226.38 898.39 undefined 913.08 990.51 3.0439 80.000 0.012500 913.08 990.51 3.0439 2.4071 2.8987 278.86 0.050849 15.844 0.053769 80.000 0.012500 913.08 990.51 3.0439 2.4071 2.8987 278.86 0.050849 15.844 0.053769
227.38 901.32 undefined 915.49 993.17 3.0487 80.000 0.012500 915.49 993.17 3.0487 2.4106 2.9004 279.42 0.050484 15.871 0.053945 80.000 0.012500 915.49 993.17 3.0487 2.4106 2.9004 279.42 0.050484 15.871 0.053945
228.38 904.24 undefined 917.90 995.83 3.0535 80.000 0.012500 917.90 995.83 3.0535 2.4141 2.9022 279.97 0.050124 15.899 0.054121 80.000 0.012500 917.90 995.83 3.0535 2.4141 2.9022 279.97 0.050124 15.899 0.054121
229.38 907.16 undefined 920.32 998.50 3.0583 80.000 0.012500 920.32 998.50 3.0583 2.4176 2.9040 280.53 0.049767 15.927 0.054297 80.000 0.012500 920.32 998.50 3.0583 2.4176 2.9040 280.53 0.049767 15.927 0.054297
230.38 910.08 undefined 922.74 1001.2 3.0631 80.000 0.012500 922.74 1001.2 3.0631 2.4211 2.9058 281.08 0.049414 15.954 0.054473 80.000 0.012500 922.74 1001.2 3.0631 2.4211 2.9058 281.08 0.049414 15.954 0.054473
231.38 913.00 undefined 925.16 1003.8 3.0680 80.000 0.012500 925.16 1003.8 3.0680 2.4246 2.9076 281.63 0.049064 15.982 0.054650 80.000 0.012500 925.16 1003.8 3.0680 2.4246 2.9076 281.63 0.049064 15.982 0.054650
232.38 915.92 undefined 927.59 1006.5 3.0728 80.000 0.012500 927.59 1006.5 3.0728 2.4281 2.9095 282.18 0.048718 16.009 0.054827 80.000 0.012500 927.59 1006.5 3.0728 2.4281 2.9095 282.18 0.048718 16.009 0.054827
233.38 918.84 undefined 930.02 1009.2 3.0776 80.000 0.012500 930.02 1009.2 3.0776 2.4316 2.9114 282.73 0.048375 16.036 0.055005 80.000 0.012500 930.02 1009.2 3.0776 2.4316 2.9114 282.73 0.048375 16.036 0.055005
234.38 921.76 undefined 932.45 1011.9 3.0824 80.000 0.012500 932.45 1011.9 3.0824 2.4351 2.9132 283.28 0.048036 16.064 0.055182 80.000 0.012500 932.45 1011.9 3.0824 2.4351 2.9132 283.28 0.048036 16.064 0.055182
235.38 924.67 undefined 934.89 1014.6 3.0872 80.000 0.012500 934.89 1014.6 3.0872 2.4386 2.9152 283.83 0.047701 16.091 0.055360 80.000 0.012500 934.89 1014.6 3.0872 2.4386 2.9152 283.83 0.047701 16.091 0.055360
236.38 927.59 undefined 937.33 1017.3 3.0919 80.000 0.012500 937.33 1017.3 3.0919 2.4421 2.9171 284.37 0.047369 16.118 0.055539 80.000 0.012500 937.33 1017.3 3.0919 2.4421 2.9171 284.37 0.047369 16.118 0.055539
237.38 930.50 undefined 939.77 1020.0 3.0967 80.000 0.012500 939.77 1020.0 3.0967 2.4456 2.9190 284.92 0.047040 16.146 0.055717 80.000 0.012500 939.77 1020.0 3.0967 2.4456 2.9190 284.92 0.047040 16.146 0.055717
238.38 933.42 undefined 942.22 1022.7 3.1015 80.000 0.012500 942.22 1022.7 3.1015 2.4491 2.9210 285.46 0.046714 16.173 0.055896 80.000 0.012500 942.22 1022.7 3.1015 2.4491 2.9210 285.46 0.046714 16.173 0.055896
239.38 936.33 undefined 944.67 1025.4 3.1063 80.000 0.012500 944.67 1025.4 3.1063 2.4526 2.9229 286.00 0.046392 16.200 0.056075 80.000 0.012500 944.67 1025.4 3.1063 2.4526 2.9229 286.00 0.046392 16.200 0.056075
240.38 939.24 undefined 947.12 1028.1 3.1111 80.000 0.012500 947.12 1028.1 3.1111 2.4561 2.9249 286.54 0.046073 16.227 0.056255 80.000 0.012500 947.12 1028.1 3.1111 2.4561 2.9249 286.54 0.046073 16.227 0.056255
241.38 942.15 undefined 949.58 1030.8 3.1159 80.000 0.012500 949.58 1030.8 3.1159 2.4596 2.9269 287.08 0.045757 16.255 0.056435 80.000 0.012500 949.58 1030.8 3.1159 2.4596 2.9269 287.08 0.045757 16.255 0.056435
242.38 945.06 undefined 952.04 1033.5 3.1207 80.000 0.012500 952.04 1033.5 3.1207 2.4631 2.9289 287.62 0.045444 16.282 0.056615 80.000 0.012500 952.04 1033.5 3.1207 2.4631 2.9289 287.62 0.045444 16.282 0.056615
243.38 947.97 undefined 954.51 1036.2 3.1254 80.000 0.012500 954.51 1036.2 3.1254 2.4666 2.9310 288.16 0.045134 16.309 0.056795 80.000 0.012500 954.51 1036.2 3.1254 2.4666 2.9310 288.16 0.045134 16.309 0.056795
244.38 950.88 undefined 956.98 1038.9 3.1302 80.000 0.012500 956.98 1038.9 3.1302 2.4701 2.9330 288.69 0.044827 16.336 0.056976 80.000 0.012500 956.98 1038.9 3.1302 2.4701 2.9330 288.69 0.044827 16.336 0.056976
245.38 953.79 undefined 959.45 1041.6 3.1350 80.000 0.012500 959.45 1041.6 3.1350 2.4736 2.9351 289.23 0.044524 16.363 0.057157 80.000 0.012500 959.45 1041.6 3.1350 2.4736 2.9351 289.23 0.044524 16.363 0.057157
246.38 956.69 undefined 961.92 1044.4 3.1398 80.000 0.012500 961.92 1044.4 3.1398 2.4771 2.9371 289.76 0.044223 16.390 0.057338 80.000 0.012500 961.92 1044.4 3.1398 2.4771 2.9371 289.76 0.044223 16.390 0.057338
247.38 959.60 undefined 964.40 1047.1 3.1445 80.000 0.012500 964.40 1047.1 3.1445 2.4805 2.9392 290.30 0.043925 16.417 0.057519 80.000 0.012500 964.40 1047.1 3.1445 2.4805 2.9392 290.30 0.043925 16.417 0.057519
248.38 962.50 undefined 966.88 1049.8 3.1493 80.000 0.012500 966.88 1049.8 3.1493 2.4840 2.9413 290.83 0.043630 16.444 0.057701 80.000 0.012500 966.88 1049.8 3.1493 2.4840 2.9413 290.83 0.043630 16.444 0.057701
249.38 965.40 undefined 969.37 1052.6 3.1540 80.000 0.012500 969.37 1052.6 3.1540 2.4875 2.9434 291.36 0.043338 16.471 0.057883 80.000 0.012500 969.37 1052.6 3.1540 2.4875 2.9434 291.36 0.043338 16.471 0.057883
250.38 968.31 undefined 971.86 1055.3 3.1588 80.000 0.012500 971.86 1055.3 3.1588 2.4910 2.9456 291.89 0.043048 16.498 0.058065 80.000 0.012500 971.86 1055.3 3.1588 2.4910 2.9456 291.89 0.043048 16.498 0.058065
251.38 971.21 undefined 974.35 1058.1 3.1636 80.000 0.012500 974.35 1058.1 3.1636 2.4945 2.9477 292.42 0.042762 16.525 0.058248 80.000 0.012500 974.35 1058.1 3.1636 2.4945 2.9477 292.42 0.042762 16.525 0.058248
252.38 974.11 undefined 976.85 1060.8 3.1683 80.000 0.012500 976.85 1060.8 3.1683 2.4980 2.9499 292.95 0.042478 16.551 0.058431 80.000 0.012500 976.85 1060.8 3.1683 2.4980 2.9499 292.95 0.042478 16.551 0.058431
253.38 977.01 undefined 979.35 1063.6 3.1731 80.000 0.012500 979.35 1063.6 3.1731 2.5014 2.9520 293.47 0.042197 16.578 0.058614 80.000 0.012500 979.35 1063.6 3.1731 2.5014 2.9520 293.47 0.042197 16.578 0.058614
254.38 979.91 undefined 981.85 1066.3 3.1778 80.000 0.012500 981.85 1066.3 3.1778 2.5049 2.9542 294.00 0.041918 16.605 0.058797 80.000 0.012500 981.85 1066.3 3.1778 2.5049 2.9542 294.00 0.041918 16.605 0.058797
255.38 982.81 undefined 984.36 1069.1 3.1826 80.000 0.012500 984.36 1069.1 3.1826 2.5084 2.9564 294.52 0.041642 16.632 0.058980 80.000 0.012500 984.36 1069.1 3.1826 2.5084 2.9564 294.52 0.041642 16.632 0.058980
256.38 985.70 undefined 986.87 1071.8 3.1873 80.000 0.012500 986.87 1071.8 3.1873 2.5119 2.9586 295.05 0.041369 16.658 0.059164 80.000 0.012500 986.87 1071.8 3.1873 2.5119 2.9586 295.05 0.041369 16.658 0.059164
257.38 988.60 undefined 989.38 1074.6 3.1921 80.000 0.012500 989.38 1074.6 3.1921 2.5153 2.9608 295.57 0.041098 16.685 0.059348 80.000 0.012500 989.38 1074.6 3.1921 2.5153 2.9608 295.57 0.041098 16.685 0.059348
258.38 991.50 undefined 991.90 1077.4 3.1968 80.000 0.012500 991.90 1077.4 3.1968 2.5188 2.9630 296.09 0.040830 16.712 0.059533 80.000 0.012500 991.90 1077.4 3.1968 2.5188 2.9630 296.09 0.040830 16.712 0.059533
259.38 994.39 undefined 994.42 1080.1 3.2015 80.000 0.012500 994.42 1080.1 3.2015 2.5223 2.9652 296.61 0.040564 16.738 0.059717 80.000 0.012500 994.42 1080.1 3.2015 2.5223 2.9652 296.61 0.040564 16.738 0.059717
260.38 997.29 undefined 996.94 1082.9 3.2063 80.000 0.012500 996.94 1082.9 3.2063 2.5258 2.9675 297.13 0.040301 16.765 0.059902 80.000 0.012500 996.94 1082.9 3.2063 2.5258 2.9675 297.13 0.040301 16.765 0.059902
261.38 1000.2 undefined 999.47 1085.7 3.2110 80.000 0.012500 999.47 1085.7 3.2110 2.5292 2.9697 297.65 0.040040 16.792 0.060087 80.000 0.012500 999.47 1085.7 3.2110 2.5292 2.9697 297.65 0.040040 16.792 0.060087
262.38 1003.1 undefined 1002.0 1088.5 3.2157 80.000 0.012500 1002.0 1088.5 3.2157 2.5327 2.9720 298.17 0.039782 16.818 0.060272 80.000 0.012500 1002.0 1088.5 3.2157 2.5327 2.9720 298.17 0.039782 16.818 0.060272
263.38 1006.0 undefined 1004.5 1091.2 3.2205 80.000 0.012500 1004.5 1091.2 3.2205 2.5361 2.9742 298.69 0.039526 16.845 0.060457 80.000 0.012500 1004.5 1091.2 3.2205 2.5361 2.9742 298.69 0.039526 16.845 0.060457
264.38 1008.9 undefined 1007.1 1094.0 3.2252 80.000 0.012500 1007.1 1094.0 3.2252 2.5396 2.9765 299.20 0.039272 16.871 0.060643 80.000 0.012500 1007.1 1094.0 3.2252 2.5396 2.9765 299.20 0.039272 16.871 0.060643
265.38 1011.7 undefined 1009.6 1096.8 3.2299 80.000 0.012500 1009.6 1096.8 3.2299 2.5431 2.9788 299.72 0.039021 16.898 0.060829 80.000 0.012500 1009.6 1096.8 3.2299 2.5431 2.9788 299.72 0.039021 16.898 0.060829
266.38 1014.6 undefined 1012.2 1099.6 3.2346 80.000 0.012500 1012.2 1099.6 3.2346 2.5465 2.9811 300.23 0.038772 16.924 0.061015 80.000 0.012500 1012.2 1099.6 3.2346 2.5465 2.9811 300.23 0.038772 16.924 0.061015
267.38 1017.5 undefined 1014.7 1102.4 3.2393 80.000 0.012500 1014.7 1102.4 3.2393 2.5500 2.9834 300.74 0.038525 16.951 0.061201 80.000 0.012500 1014.7 1102.4 3.2393 2.5500 2.9834 300.74 0.038525 16.951 0.061201
268.38 1020.4 undefined 1017.3 1105.2 3.2441 80.000 0.012500 1017.3 1105.2 3.2441 2.5534 2.9857 301.26 0.038280 16.977 0.061387 80.000 0.012500 1017.3 1105.2 3.2441 2.5534 2.9857 301.26 0.038280 16.977 0.061387
269.38 1023.3 undefined 1019.8 1108.0 3.2488 80.000 0.012500 1019.8 1108.0 3.2488 2.5569 2.9880 301.77 0.038038 17.003 0.061573 80.000 0.012500 1019.8 1108.0 3.2488 2.5569 2.9880 301.77 0.038038 17.003 0.061573
270.38 1026.2 undefined 1022.4 1110.8 3.2535 80.000 0.012500 1022.4 1110.8 3.2535 2.5603 2.9904 302.28 0.037797 17.030 0.061760 80.000 0.012500 1022.4 1110.8 3.2535 2.5603 2.9904 302.28 0.037797 17.030 0.061760
271.38 1029.1 undefined 1024.9 1113.6 3.2582 80.000 0.012500 1024.9 1113.6 3.2582 2.5637 2.9927 302.79 0.037559 17.056 0.061946 80.000 0.012500 1024.9 1113.6 3.2582 2.5637 2.9927 302.79 0.037559 17.056 0.061946
272.38 1032.0 undefined 1027.5 1116.4 3.2629 80.000 0.012500 1027.5 1116.4 3.2629 2.5672 2.9951 303.29 0.037323 17.082 0.062133 80.000 0.012500 1027.5 1116.4 3.2629 2.5672 2.9951 303.29 0.037323 17.082 0.062133
273.38 1034.8 undefined 1030.1 1119.3 3.2676 80.000 0.012500 1030.1 1119.3 3.2676 2.5706 2.9974 303.80 0.037090 17.108 0.062319 80.000 0.012500 1030.1 1119.3 3.2676 2.5706 2.9974 303.80 0.037090 17.108 0.062319
274.38 1037.7 undefined 1032.6 1122.1 3.2723 80.000 0.012500 1032.6 1122.1 3.2723 2.5740 2.9998 304.31 0.036858 17.135 0.062505 80.000 0.012500 1032.6 1122.1 3.2723 2.5740 2.9998 304.31 0.036858 17.135 0.062505
275.38 1040.6 undefined 1035.2 1124.9 3.2770 80.000 0.012500 1035.2 1124.9 3.2770 2.5775 3.0021 304.81 0.036628 17.161 0.062692 80.000 0.012500 1035.2 1124.9 3.2770 2.5775 3.0021 304.81 0.036628 17.161 0.062692
276.38 1043.5 undefined 1037.8 1127.7 3.2817 80.000 0.012500 1037.8 1127.7 3.2817 2.5809 3.0045 305.32 0.036400 17.187 0.062878 80.000 0.012500 1037.8 1127.7 3.2817 2.5809 3.0045 305.32 0.036400 17.187 0.062878
277.38 1046.4 undefined 1040.4 1130.6 3.2864 80.000 0.012500 1040.4 1130.6 3.2864 2.5843 3.0069 305.82 0.036174 17.213 0.063063 80.000 0.012500 1040.4 1130.6 3.2864 2.5843 3.0069 305.82 0.036174 17.213 0.063063
278.38 1049.3 undefined 1043.0 1133.4 3.2911 80.000 0.012500 1043.0 1133.4 3.2911 2.5878 3.0093 306.32 0.035951 17.239 0.063247 80.000 0.012500 1043.0 1133.4 3.2911 2.5878 3.0093 306.32 0.035951 17.239 0.063247
279.38 1052.1 undefined 1045.6 1136.2 3.2958 80.000 0.012500 1045.6 1136.2 3.2958 2.5912 3.0117 306.83 0.035729 17.265 0.063431 80.000 0.012500 1045.6 1136.2 3.2958 2.5912 3.0117 306.83 0.035729 17.265 0.063431
280.38 1055.0 undefined 1048.1 1139.1 3.3005 80.000 0.012500 1048.1 1139.1 3.3005 2.5946 3.0141 307.33 0.035509 17.291 0.063611 80.000 0.012500 1048.1 1139.1 3.3005 2.5946 3.0141 307.33 0.035509 17.291 0.063611
281.38 1057.9 undefined 1050.7 1141.9 3.3052 80.000 0.012500 1050.7 1141.9 3.3052 2.5980 3.0165 307.83 0.035291 17.317 0.063782 80.000 0.012500 1050.7 1141.9 3.3052 2.5980 3.0165 307.83 0.035291 17.317 0.063782
282.38 1060.8 undefined 1053.3 1144.8 3.3098 80.000 0.012500 1053.3 1144.8 3.3098 2.6014 3.0189 308.33 0.035075 17.343 0.063960 80.000 0.012500 1053.3 1144.8 3.3098 2.6014 3.0189 308.33 0.035075 17.343 0.063960
283.38 1063.7 undefined 1055.9 1147.6 3.3145 80.000 0.012500 1055.9 1147.6 3.3145 2.6048 3.0213 308.82 0.034861 17.369 0.064157 80.000 0.012500 1055.9 1147.6 3.3145 2.6048 3.0213 308.82 0.034861 17.369 0.064157
284.38 1066.5 undefined 1058.6 1150.5 3.3192 80.000 0.012500 1058.6 1150.5 3.3192 2.6082 3.0237 309.32 0.034648 17.395 0.064354 80.000 0.012500 1058.6 1150.5 3.3192 2.6082 3.0237 309.32 0.034648 17.395 0.064354
285.38 1069.4 undefined 1061.2 1153.3 3.3239 80.000 0.012500 1061.2 1153.3 3.3239 2.6117 3.0262 309.82 0.034438 17.421 0.064551 80.000 0.012500 1061.2 1153.3 3.3239 2.6117 3.0262 309.82 0.034438 17.421 0.064551
286.38 1072.3 undefined 1063.8 1156.2 3.3286 80.000 0.012500 1063.8 1156.2 3.3286 2.6151 3.0286 310.31 0.034229 17.447 0.064748 80.000 0.012500 1063.8 1156.2 3.3286 2.6151 3.0286 310.31 0.034229 17.447 0.064748
287.38 1075.2 undefined 1066.4 1159.1 3.3332 80.000 0.012500 1066.4 1159.1 3.3332 2.6185 3.0311 310.81 0.034022 17.473 0.064946 80.000 0.012500 1066.4 1159.1 3.3332 2.6185 3.0311 310.81 0.034022 17.473 0.064946
288.38 1078.0 undefined 1069.0 1161.9 3.3379 80.000 0.012500 1069.0 1161.9 3.3379 2.6219 3.0335 311.30 0.033817 17.498 0.065144 80.000 0.012500 1069.0 1161.9 3.3379 2.6219 3.0335 311.30 0.033817 17.498 0.065144
289.38 1080.9 undefined 1071.6 1164.8 3.3426 80.000 0.012500 1071.6 1164.8 3.3426 2.6252 3.0360 311.80 0.033613 17.524 0.065342 80.000 0.012500 1071.6 1164.8 3.3426 2.6252 3.0360 311.80 0.033613 17.524 0.065342
290.38 1083.8 undefined 1074.3 1167.7 3.3472 80.000 0.012500 1074.3 1167.7 3.3472 2.6286 3.0384 312.29 0.033411 17.550 0.065540 80.000 0.012500 1074.3 1167.7 3.3472 2.6286 3.0384 312.29 0.033411 17.550 0.065540
291.38 1086.7 undefined 1076.9 1170.5 3.3519 80.000 0.012500 1076.9 1170.5 3.3519 2.6320 3.0409 312.78 0.033211 17.576 0.065739 80.000 0.012500 1076.9 1170.5 3.3519 2.6320 3.0409 312.78 0.033211 17.576 0.065739
292.38 1089.5 undefined 1079.5 1173.4 3.3566 80.000 0.012500 1079.5 1173.4 3.3566 2.6354 3.0434 313.27 0.033013 17.601 0.065938 80.000 0.012500 1079.5 1173.4 3.3566 2.6354 3.0434 313.27 0.033013 17.601 0.065938
293.38 1092.4 undefined 1082.2 1176.3 3.3612 80.000 0.012500 1082.2 1176.3 3.3612 2.6388 3.0458 313.76 0.032816 17.627 0.066138 80.000 0.012500 1082.2 1176.3 3.3612 2.6388 3.0458 313.76 0.032816 17.627 0.066138
294.38 1095.3 undefined 1084.8 1179.2 3.3659 80.000 0.012500 1084.8 1179.2 3.3659 2.6422 3.0483 314.25 0.032621 17.653 0.066337 80.000 0.012500 1084.8 1179.2 3.3659 2.6422 3.0483 314.25 0.032621 17.653 0.066337
295.38 1098.2 undefined 1087.5 1182.1 3.3705 80.000 0.012500 1087.5 1182.1 3.3705 2.6455 3.0508 314.74 0.032427 17.678 0.066537 80.000 0.012500 1087.5 1182.1 3.3705 2.6455 3.0508 314.74 0.032427 17.678 0.066537
296.38 1101.0 undefined 1090.1 1185.0 3.3752 80.000 0.012500 1090.1 1185.0 3.3752 2.6489 3.0533 315.22 0.032235 17.704 0.066738 80.000 0.012500 1090.1 1185.0 3.3752 2.6489 3.0533 315.22 0.032235 17.704 0.066738
297.38 1103.9 undefined 1092.7 1187.9 3.3798 80.000 0.012500 1092.7 1187.9 3.3798 2.6523 3.0558 315.71 0.032045 17.729 0.066938 80.000 0.012500 1092.7 1187.9 3.3798 2.6523 3.0558 315.71 0.032045 17.729 0.066938
298.38 1106.8 undefined 1095.4 1190.8 3.3845 80.000 0.012500 1095.4 1190.8 3.3845 2.6557 3.0583 316.20 0.031856 17.755 0.067139 80.000 0.012500 1095.4 1190.8 3.3845 2.6557 3.0583 316.20 0.031856 17.755 0.067139
299.38 1109.6 undefined 1098.1 1193.7 3.3891 80.000 0.012500 1098.1 1193.7 3.3891 2.6590 3.0608 316.68 0.031669 17.780 0.067340 80.000 0.012500 1098.1 1193.7 3.3891 2.6590 3.0608 316.68 0.031669 17.780 0.067340
300.38 1112.5 undefined 1100.7 1196.6 3.3938 80.000 0.012500 1100.7 1196.6 3.3938 2.6624 3.0633 317.17 0.031483 17.806 0.067542 80.000 0.012500 1100.7 1196.6 3.3938 2.6624 3.0633 317.17 0.031483 17.806 0.067542