Temperature (C) Pressure (psia) Quality (l+v) Internal Energy (l+v, kJ/kg) Enthalpy (l+v, kJ/kg) Entropy (l+v, J/g*K) Density (l, kg/m3) Volume (l, m3/kg) Internal Energy (l, kJ/kg) Enthalpy (l, kJ/kg) Entropy (l, J/g*K) Cv (l, J/g*K) Cp (l, J/g*K) Sound Spd. (l, m/s) Joule-Thomson (l, F/psia) Viscosity (l, uPa*s) Therm. Cond. (l, W/m*K) Density (v, kg/m3) Volume (v, m3/kg) Internal Energy (v, kJ/kg) Enthalpy (v, kJ/kg) Entropy (v, J/g*K) Cv (v, J/g*K) Cp (v, J/g*K) Sound Spd. (v, m/s) Joule-Thomson (v, F/psia) Viscosity (v, uPa*s) Therm. Cond. (v, W/m*K)
-187.62 2.4953e-08 1.0399e-10 -196.64 -196.64 -1.3959 733.13 0.0013640 -196.64 -196.64 -1.3959 1.3553 1.9158 2136.4 -0.0077592 10960. 0.20792 1.0669e-08 9.3732e+07 350.13 366.26 5.1858 0.69067 0.87923 143.28 6.1051 2.3259 0.0017061
-186.62 3.7339e-08 1.5378e-10 -194.73 -194.73 -1.3736 732.08 0.0013660 -194.73 -194.73 -1.3736 1.3539 1.9166 2129.6 -0.0077546 10073. 0.20765 1.5780e-08 6.3371e+07 350.82 367.14 5.1200 0.69462 0.88317 144.03 5.9178 2.3534 0.0017533
-185.62 5.5322e-08 2.2519e-10 -192.81 -192.81 -1.3516 731.04 0.0013679 -192.81 -192.81 -1.3516 1.3525 1.9174 2122.9 -0.0077498 9276.1 0.20737 2.3112e-08 4.3267e+07 351.52 368.02 5.0561 0.69857 0.88713 144.77 5.7383 2.3808 0.0018007
-184.62 8.1182e-08 3.2666e-10 -190.89 -190.89 -1.3298 730.00 0.0013699 -190.89 -190.89 -1.3298 1.3513 1.9182 2116.1 -0.0077448 8557.8 0.20708 3.3533e-08 2.9821e+07 352.22 368.91 4.9939 0.70253 0.89108 145.51 5.5662 2.4083 0.0018485
-183.62 1.1803e-07 4.6954e-10 -188.97 -188.97 -1.3083 728.96 0.0013718 -188.97 -188.97 -1.3083 1.3501 1.9191 2109.3 -0.0077395 7909.8 0.20678 4.8211e-08 2.0742e+07 352.92 369.81 4.9333 0.70648 0.89504 146.24 5.4011 2.4357 0.0018965
-182.62 1.7009e-07 6.6899e-10 -187.05 -187.05 -1.2869 727.92 0.0013738 -187.05 -187.05 -1.2869 1.3490 1.9201 2102.5 -0.0077340 7324.3 0.20647 6.8704e-08 1.4555e+07 353.63 370.70 4.8744 0.71043 0.89899 146.97 5.2426 2.4632 0.0019448
-181.62 2.4299e-07 9.4510e-10 -185.13 -185.13 -1.2658 726.88 0.0013757 -185.13 -185.13 -1.2658 1.3480 1.9210 2095.7 -0.0077283 6794.5 0.20616 9.7079e-08 1.0301e+07 354.35 371.60 4.8170 0.71438 0.90294 147.69 5.0904 2.4906 0.0019934
-180.62 3.4425e-07 1.3242e-09 -183.21 -183.21 -1.2450 725.85 0.0013777 -183.21 -183.21 -1.2450 1.3470 1.9220 2088.9 -0.0077225 6314.4 0.20584 1.3605e-07 7.3504e+06 355.06 372.51 4.7612 0.71833 0.90688 148.41 4.9442 2.5181 0.0020423
-179.62 4.8378e-07 1.8407e-09 -181.29 -181.29 -1.2243 724.81 0.0013797 -181.29 -181.29 -1.2243 1.3461 1.9231 2082.0 -0.0077164 5878.8 0.20551 1.8915e-07 5.2868e+06 355.78 373.42 4.7068 0.72227 0.91082 149.13 4.8038 2.5456 0.0020915
-178.62 6.7459e-07 2.5390e-09 -179.37 -179.37 -1.2038 723.78 0.0013816 -179.37 -179.37 -1.2038 1.3453 1.9241 2075.2 -0.0077102 5482.9 0.20517 2.6096e-07 3.8320e+06 356.51 374.33 4.6538 0.72620 0.91475 149.84 4.6688 2.5731 0.0021410
-177.62 9.3358e-07 3.4763e-09 -177.44 -177.44 -1.1836 722.75 0.0013836 -177.44 -177.44 -1.1836 1.3445 1.9252 2068.4 -0.0077039 5122.6 0.20483 3.5737e-07 2.7982e+06 357.23 375.25 4.6022 0.73012 0.91867 150.54 4.5390 2.6005 0.0021907
-176.62 1.2826e-06 4.7254e-09 -175.52 -175.52 -1.1635 721.72 0.0013856 -175.52 -175.52 -1.1635 1.3437 1.9263 2061.5 -0.0076973 4794.1 0.20447 4.8588e-07 2.0581e+06 357.97 376.17 4.5519 0.73403 0.92258 151.25 4.4142 2.6280 0.0022408
-175.62 1.7496e-06 6.3788e-09 -173.59 -173.59 -1.1437 720.69 0.0013876 -173.59 -173.59 -1.1437 1.3430 1.9274 2054.7 -0.0076907 4494.3 0.20411 6.5601e-07 1.5244e+06 358.70 377.09 4.5029 0.73792 0.92648 151.95 4.2941 2.6555 0.0022912
-174.62 2.3705e-06 8.5527e-09 -171.66 -171.66 -1.1240 719.66 0.0013895 -171.66 -171.66 -1.1240 1.3423 1.9286 2047.9 -0.0076838 4220.2 0.20375 8.7976e-07 1.1367e+06 359.44 378.02 4.4551 0.74181 0.93036 152.64 4.1784 2.6830 0.0023418
-173.62 3.1903e-06 1.1393e-08 -169.73 -169.73 -1.1045 718.64 0.0013915 -169.73 -169.73 -1.1045 1.3417 1.9298 2041.0 -0.0076769 3969.3 0.20338 1.1721e-06 8.5314e+05 360.19 378.95 4.4085 0.74568 0.93423 153.33 4.0671 2.7105 0.0023928
-172.62 4.2661e-06 1.5080e-08 -167.80 -167.80 -1.0852 717.61 0.0013935 -167.80 -167.80 -1.0852 1.3411 1.9310 2034.2 -0.0076698 3739.3 0.20300 1.5518e-06 6.4441e+05 360.93 379.89 4.3631 0.74953 0.93809 154.02 3.9599 2.7379 0.0024440
-171.62 5.6692e-06 1.9838e-08 -165.87 -165.87 -1.0661 716.58 0.0013955 -165.87 -165.87 -1.0661 1.3405 1.9322 2027.3 -0.0076625 3528.0 0.20261 2.0419e-06 4.8974e+05 361.69 380.83 4.3188 0.75337 0.94193 154.71 3.8566 2.7654 0.0024955
-170.62 7.4884e-06 2.5943e-08 -163.94 -163.94 -1.0472 715.56 0.0013975 -163.94 -163.94 -1.0472 1.3400 1.9334 2020.5 -0.0076552 3333.8 0.20222 2.6708e-06 3.7442e+05 362.44 381.77 4.2755 0.75720 0.94575 155.39 3.7570 2.7929 0.0025473
-169.62 9.8334e-06 3.3731e-08 -162.00 -162.00 -1.0284 714.54 0.0013995 -162.00 -162.00 -1.0284 1.3395 1.9347 2013.6 -0.0076477 3154.9 0.20182 3.4733e-06 2.8791e+05 363.20 382.72 4.2334 0.76100 0.94956 156.07 3.6609 2.8204 0.0025994
-168.62 1.2839e-05 4.3612e-08 -160.07 -160.07 -1.0098 713.52 0.0014015 -160.07 -160.07 -1.0098 1.3390 1.9359 2006.8 -0.0076401 2989.9 0.20141 4.4917e-06 2.2263e+05 363.96 383.67 4.1922 0.76479 0.95335 156.74 3.5683 2.8479 0.0026518
-167.62 1.6672e-05 5.6082e-08 -158.13 -158.13 -0.99134 712.49 0.0014035 -158.13 -158.13 -0.99134 1.3386 1.9372 2000.0 -0.0076323 2837.5 0.20100 5.7771e-06 1.7310e+05 364.73 384.63 4.1521 0.76856 0.95712 157.41 3.4790 2.8754 0.0027045
-166.62 2.1533e-05 7.1738e-08 -156.19 -156.19 -0.97306 711.47 0.0014055 -156.19 -156.19 -0.97306 1.3382 1.9385 1993.1 -0.0076245 2696.5 0.20058 7.3914e-06 1.3529e+05 365.50 385.59 4.1129 0.77232 0.96087 158.08 3.3927 2.9029 0.0027575
-165.62 2.7666e-05 9.1295e-08 -154.25 -154.25 -0.95494 710.45 0.0014075 -154.25 -154.25 -0.95494 1.3378 1.9398 1986.3 -0.0076165 2566.0 0.20016 9.4084e-06 1.0629e+05 366.27 386.55 4.0746 0.77605 0.96460 158.75 3.3095 2.9304 0.0028108
-164.62 3.5367e-05 1.1561e-07 -152.31 -152.31 -0.93698 709.44 0.0014096 -152.31 -152.31 -0.93698 1.3375 1.9411 1979.4 -0.0076084 2444.9 0.19973 1.1916e-05 83918. 367.05 387.52 4.0372 0.77976 0.96832 159.41 3.2291 2.9579 0.0028643
-163.62 4.4989e-05 1.4569e-07 -150.37 -150.37 -0.91917 708.42 0.0014116 -150.37 -150.37 -0.91917 1.3371 1.9424 1972.6 -0.0076002 2332.3 0.19930 1.5020e-05 66577. 367.83 388.49 4.0008 0.78346 0.97201 160.07 3.1514 2.9854 0.0029182
-162.62 5.6956e-05 1.8274e-07 -148.43 -148.43 -0.90151 707.40 0.0014136 -148.43 -148.43 -0.90151 1.3368 1.9437 1965.8 -0.0075919 2227.7 0.19886 1.8844e-05 53068. 368.62 389.46 3.9651 0.78713 0.97569 160.72 3.0764 3.0129 0.0029723
-161.62 7.1773e-05 2.2816e-07 -146.48 -146.48 -0.88400 706.38 0.0014157 -146.48 -146.48 -0.88400 1.3365 1.9451 1959.0 -0.0075834 2130.2 0.19841 2.3533e-05 42494. 369.41 390.44 3.9304 0.79079 0.97935 161.38 3.0038 3.0404 0.0030268
-160.62 9.0036e-05 2.8361e-07 -144.54 -144.54 -0.86663 705.37 0.0014177 -144.54 -144.54 -0.86663 1.3363 1.9465 1952.1 -0.0075748 2039.2 0.19796 2.9258e-05 34178. 370.20 391.42 3.8964 0.79443 0.98298 162.03 2.9337 3.0679 0.0030815
-159.62 0.00011245 3.5103e-07 -142.59 -142.59 -0.84940 704.35 0.0014197 -142.59 -142.59 -0.84940 1.3360 1.9478 1945.3 -0.0075661 1954.2 0.19751 3.6221e-05 27609. 371.00 392.40 3.8632 0.79805 0.98660 162.68 2.8658 3.0955 0.0031365
-158.62 0.00013985 4.3265e-07 -140.64 -140.64 -0.83231 703.34 0.0014218 -140.64 -140.64 -0.83231 1.3358 1.9492 1938.5 -0.0075573 1874.8 0.19705 4.4652e-05 22395. 371.80 393.39 3.8307 0.80164 0.99020 163.32 2.8002 3.1230 0.0031918
-157.62 0.00017320 5.3107e-07 -138.69 -138.69 -0.81536 702.32 0.0014238 -138.69 -138.69 -0.81536 1.3356 1.9506 1931.7 -0.0075484 1800.3 0.19658 5.4822e-05 18241. 372.60 394.38 3.7990 0.80522 0.99378 163.96 2.7367 3.1505 0.0032474
-156.62 0.00021364 6.4930e-07 -136.74 -136.74 -0.79854 701.31 0.0014259 -136.74 -136.74 -0.79854 1.3354 1.9520 1924.9 -0.0075393 1730.5 0.19611 6.7040e-05 14916. 373.41 395.38 3.7680 0.80878 0.99734 164.60 2.6752 3.1780 0.0033033
-155.62 0.00026248 7.9079e-07 -134.79 -134.79 -0.78185 700.30 0.0014280 -134.79 -134.79 -0.78185 1.3352 1.9534 1918.1 -0.0075302 1664.9 0.19564 8.1666e-05 12245. 374.22 396.38 3.7377 0.81232 1.0009 165.24 2.6157 3.2055 0.0033595
-154.62 0.00032125 9.5949e-07 -132.83 -132.83 -0.76529 699.29 0.0014300 -132.83 -132.83 -0.76530 1.3350 1.9548 1911.3 -0.0075209 1603.3 0.19516 9.9109e-05 10090. 375.03 397.38 3.7081 0.81585 1.0044 165.87 2.5580 3.2330 0.0034160
-153.62 0.00039171 1.1599e-06 -130.88 -130.88 -0.74886 698.27 0.0014321 -130.88 -130.88 -0.74887 1.3349 1.9563 1904.5 -0.0075114 1545.3 0.19468 0.00011984 8344.6 375.85 398.39 3.6792 0.81935 1.0079 166.50 2.5022 3.2606 0.0034727
-152.62 0.00047590 1.3972e-06 -128.92 -128.92 -0.73256 697.26 0.0014342 -128.92 -128.92 -0.73256 1.3348 1.9577 1897.8 -0.0075019 1490.6 0.19419 0.00014439 6925.9 376.67 399.40 3.6509 0.82284 1.0114 167.13 2.4481 3.2881 0.0035298
-151.62 0.00057613 1.6772e-06 -126.96 -126.96 -0.71637 696.25 0.0014363 -126.96 -126.96 -0.71638 1.3346 1.9592 1891.0 -0.0074922 1438.9 0.19370 0.00017336 5768.4 377.49 400.41 3.6232 0.82631 1.0149 167.76 2.3957 3.3156 0.0035872
-150.62 0.00069507 2.0065e-06 -125.00 -125.00 -0.70031 695.24 0.0014384 -125.00 -125.00 -0.70032 1.3345 1.9606 1884.2 -0.0074824 1390.2 0.19320 0.00020744 4820.7 378.32 401.42 3.5962 0.82976 1.0183 168.38 2.3448 3.3431 0.0036448
-149.62 0.00083574 2.3925e-06 -123.04 -123.04 -0.68437 694.23 0.0014404 -123.04 -123.04 -0.68438 1.3345 1.9621 1877.4 -0.0074724 1344.0 0.19270 0.00024740 4042.0 379.15 402.44 3.5697 0.83319 1.0218 169.00 2.2956 3.3706 0.0037027
-148.62 0.0010016 2.8437e-06 -121.08 -121.08 -0.66854 693.22 0.0014425 -121.08 -121.08 -0.66855 1.3344 1.9636 1870.7 -0.0074623 1300.3 0.19220 0.00029412 3400.0 379.99 403.47 3.5438 0.83661 1.0252 169.62 2.2478 3.3982 0.0037610
-147.62 0.0011965 3.3693e-06 -119.11 -119.11 -0.65282 692.21 0.0014447 -119.11 -119.11 -0.65284 1.3343 1.9651 1863.9 -0.0074521 1258.9 0.19169 0.00034856 2869.0 380.83 404.49 3.5185 0.84001 1.0286 170.24 2.2014 3.4257 0.0038195
-146.62 0.0014249 3.9799e-06 -117.15 -117.15 -0.63722 691.20 0.0014468 -117.15 -117.15 -0.63724 1.3343 1.9666 1857.2 -0.0074417 1219.6 0.19117 0.00041181 2428.3 381.67 405.52 3.4938 0.84340 1.0320 170.85 2.1565 3.4532 0.0038783
-145.62 0.0016917 4.6871e-06 -115.18 -115.18 -0.62173 690.19 0.0014489 -115.18 -115.18 -0.62175 1.3343 1.9682 1850.4 -0.0074312 1182.3 0.19066 0.00048510 2061.4 382.51 406.56 3.4695 0.84677 1.0353 171.46 2.1128 3.4807 0.0039374
-144.62 0.0020026 5.5040e-06 -113.21 -113.21 -0.60635 689.18 0.0014510 -113.21 -113.21 -0.60637 1.3343 1.9697 1843.7 -0.0074206 1146.8 0.19014 0.00056976 1755.1 383.36 407.59 3.4458 0.85012 1.0387 172.07 2.0705 3.5082 0.0039967
-143.62 0.0023637 6.4449e-06 -111.24 -111.24 -0.59107 688.17 0.0014531 -111.24 -111.24 -0.59110 1.3343 1.9713 1836.9 -0.0074098 1113.0 0.18962 0.00066731 1498.6 384.21 408.63 3.4226 0.85346 1.0420 172.68 2.0294 3.5358 0.0040564
-142.62 0.0027820 7.5257e-06 -109.27 -109.27 -0.57590 687.16 0.0014553 -109.27 -109.27 -0.57593 1.3343 1.9728 1830.2 -0.0073988 1080.8 0.18909 0.00077939 1283.1 385.07 409.68 3.3999 0.85679 1.0454 173.28 1.9896 3.5633 0.0041164
-141.62 0.0032653 8.7640e-06 -107.29 -107.29 -0.56083 686.15 0.0014574 -107.30 -107.30 -0.56087 1.3343 1.9744 1823.5 -0.0073878 1050.1 0.18856 0.00090784 1101.5 385.93 410.72 3.3777 0.86011 1.0487 173.88 1.9508 3.5908 0.0041766
-140.62 0.0038222 1.0179e-05 -105.32 -105.32 -0.54587 685.14 0.0014596 -105.32 -105.32 -0.54591 1.3344 1.9760 1816.7 -0.0073765 1020.7 0.18803 0.0010547 948.16 386.79 411.77 3.3560 0.86341 1.0520 174.48 1.9133 3.6183 0.0042372
-139.62 0.0044623 1.1793e-05 -103.34 -103.34 -0.53100 684.13 0.0014617 -103.34 -103.34 -0.53105 1.3344 1.9776 1810.0 -0.0073651 992.74 0.18749 0.0012221 818.26 387.65 412.83 3.3347 0.86670 1.0553 175.08 1.8768 3.6459 0.0042980
-138.62 0.0051963 1.3627e-05 -101.36 -101.36 -0.51623 683.12 0.0014639 -101.37 -101.37 -0.51629 1.3345 1.9792 1803.3 -0.0073536 965.97 0.18695 0.0014125 707.94 388.52 413.88 3.3139 0.86998 1.0586 175.67 1.8413 3.6734 0.0043592
-137.62 0.0060358 1.5709e-05 -99.378 -99.378 -0.50156 682.11 0.0014660 -99.386 -99.386 -0.50162 1.3346 1.9808 1796.6 -0.0073419 940.35 0.18641 0.0016287 614.00 389.39 414.94 3.2935 0.87325 1.0619 176.26 1.8069 3.7009 0.0044206
-136.62 0.0069938 1.8065e-05 -97.396 -97.395 -0.48699 681.10 0.0014682 -97.404 -97.404 -0.48705 1.3347 1.9825 1789.9 -0.0073301 915.81 0.18586 0.0018733 533.80 390.26 416.00 3.2735 0.87650 1.0651 176.85 1.7734 3.7284 0.0044823
-135.62 0.0080843 2.0725e-05 -95.411 -95.410 -0.47250 680.09 0.0014704 -95.421 -95.421 -0.47258 1.3348 1.9841 1783.2 -0.0073180 892.30 0.18531 0.0021497 465.17 391.14 417.07 3.2540 0.87975 1.0684 177.44 1.7409 3.7559 0.0045443
-134.62 0.0093230 2.3723e-05 -93.425 -93.424 -0.45811 679.08 0.0014726 -93.436 -93.436 -0.45820 1.3350 1.9858 1776.5 -0.0073059 869.75 0.18476 0.0024613 406.30 392.02 418.14 3.2348 0.88299 1.0716 178.02 1.7093 3.7834 0.0046066
-133.62 0.010727 2.7094e-05 -91.436 -91.436 -0.44381 678.07 0.0014748 -91.450 -91.449 -0.44391 1.3351 1.9875 1769.8 -0.0072935 848.11 0.18421 0.0028116 355.67 392.91 419.21 3.2161 0.88622 1.0749 178.61 1.6786 3.8109 0.0046691
-132.62 0.012315 3.0876e-05 -89.446 -89.445 -0.42960 677.06 0.0014770 -89.461 -89.461 -0.42971 1.3353 1.9892 1763.1 -0.0072810 827.32 0.18365 0.0032049 312.03 393.79 420.29 3.1977 0.88944 1.0781 179.19 1.6488 3.8385 0.0047320
-131.62 0.014106 3.5111e-05 -87.454 -87.453 -0.41547 676.04 0.0014792 -87.471 -87.471 -0.41560 1.3354 1.9909 1756.4 -0.0072684 807.34 0.18309 0.0036453 274.33 394.68 421.36 3.1798 0.89266 1.0813 179.76 1.6197 3.8660 0.0047951
-130.62 0.016124 3.9843e-05 -85.460 -85.459 -0.40143 675.03 0.0014814 -85.479 -85.479 -0.40157 1.3356 1.9926 1749.7 -0.0072555 788.12 0.18253 0.0041375 241.69 395.58 422.44 3.1622 0.89586 1.0846 180.34 1.5915 3.8935 0.0048586
-129.62 0.018392 4.5121e-05 -83.464 -83.463 -0.38748 674.02 0.0014836 -83.486 -83.486 -0.38763 1.3358 1.9944 1743.0 -0.0072425 769.63 0.18196 0.0046867 213.37 396.47 423.53 3.1450 0.89906 1.0878 180.91 1.5641 3.9210 0.0049223
-128.62 0.020935 5.0996e-05 -81.466 -81.465 -0.37360 673.01 0.0014859 -81.491 -81.490 -0.37378 1.3360 1.9961 1736.3 -0.0072294 751.83 0.18140 0.0052981 188.75 397.37 424.62 3.1281 0.90226 1.0910 181.48 1.5374 3.9485 0.0049863
-127.62 0.023783 5.7523e-05 -79.466 -79.464 -0.35981 672.00 0.0014881 -79.494 -79.493 -0.36001 1.3363 1.9979 1729.6 -0.0072160 734.67 0.18083 0.0059776 167.29 398.27 425.71 3.1116 0.90545 1.0942 182.05 1.5114 3.9760 0.0050506
-126.62 0.026966 6.4761e-05 -77.464 -77.462 -0.34610 670.98 0.0014904 -77.495 -77.495 -0.34632 1.3365 1.9997 1722.9 -0.0072025 718.14 0.18025 0.0067313 148.56 399.18 426.80 3.0954 0.90863 1.0974 182.62 1.4861 4.0035 0.0051152
-125.62 0.030515 7.2774e-05 -75.460 -75.457 -0.33247 669.97 0.0014926 -75.494 -75.494 -0.33272 1.3368 2.0015 1716.2 -0.0071888 702.18 0.17968 0.0075660 132.17 400.09 427.89 3.0795 0.91181 1.1006 183.18 1.4615 4.0310 0.0051800
-124.62 0.034467 8.1628e-05 -73.453 -73.451 -0.31891 668.95 0.0014949 -73.492 -73.492 -0.31919 1.3371 2.0033 1709.5 -0.0071749 686.79 0.17910 0.0084885 117.81 401.00 428.99 3.0640 0.91499 1.1038 183.74 1.4375 4.0584 0.0052452
-123.62 0.038859 9.1396e-05 -71.444 -71.441 -0.30543 667.94 0.0014971 -71.488 -71.487 -0.30574 1.3374 2.0051 1702.8 -0.0071609 671.93 0.17852 0.0095065 105.19 401.91 430.10 3.0488 0.91816 1.1070 184.30 1.4141 4.0859 0.0053106
-122.62 0.043731 0.00010215 -69.433 -69.430 -0.29203 666.92 0.0014994 -69.482 -69.481 -0.29237 1.3377 2.0070 1696.2 -0.0071466 657.57 0.17794 0.010628 94.092 402.83 431.20 3.0339 0.92134 1.1102 184.86 1.3913 4.1134 0.0053764
-121.62 0.049128 0.00011398 -67.420 -67.416 -0.27870 665.91 0.0015017 -67.474 -67.473 -0.27907 1.3380 2.0089 1689.5 -0.0071322 643.70 0.17736 0.011861 84.309 403.75 432.31 3.0193 0.92451 1.1134 185.41 1.3691 4.1409 0.0054424
-120.62 0.055096 0.00012696 -65.404 -65.400 -0.26544 664.89 0.0015040 -65.464 -65.463 -0.26585 1.3384 2.0107 1682.8 -0.0071176 630.28 0.17678 0.013215 75.669 404.67 433.42 3.0050 0.92767 1.1166 185.96 1.3475 4.1683 0.0055087
-119.62 0.061684 0.00014119 -63.386 -63.381 -0.25225 663.87 0.0015063 -63.452 -63.452 -0.25271 1.3387 2.0126 1676.1 -0.0071028 617.30 0.17619 0.014700 68.027 405.60 434.53 2.9909 0.93084 1.1198 186.51 1.3264 4.1958 0.0055752
-118.62 0.068946 0.00015677 -61.365 -61.360 -0.23913 662.86 0.0015086 -61.439 -61.438 -0.23963 1.3391 2.0146 1669.4 -0.0070878 604.74 0.17560 0.016325 61.255 406.53 435.64 2.9772 0.93401 1.1231 187.06 1.3058 4.2233 0.0056421
-117.62 0.076937 0.00017378 -59.342 -59.336 -0.22608 661.84 0.0015109 -59.423 -59.422 -0.22663 1.3395 2.0165 1662.8 -0.0070726 592.58 0.17501 0.018101 55.245 407.46 436.76 2.9638 0.93718 1.1263 187.60 1.2857 4.2507 0.0057092
-116.62 0.085718 0.00019234 -57.316 -57.310 -0.21309 660.82 0.0015133 -57.406 -57.405 -0.21370 1.3400 2.0184 1656.1 -0.0070573 580.80 0.17442 0.020040 49.901 408.39 437.88 2.9506 0.94035 1.1295 188.14 1.2660 4.2782 0.0057767
-115.62 0.095353 0.00021257 -55.288 -55.280 -0.20017 659.80 0.0015156 -55.386 -55.385 -0.20084 1.3404 2.0204 1649.4 -0.0070417 569.38 0.17383 0.022152 45.142 409.33 439.01 2.9377 0.94352 1.1327 188.68 1.2468 4.3056 0.0058444
-114.62 0.10591 0.00023457 -53.256 -53.248 -0.18732 658.78 0.0015180 -53.365 -53.364 -0.18805 1.3409 2.0224 1642.7 -0.0070260 558.32 0.17323 0.024451 40.898 410.27 440.13 2.9250 0.94669 1.1360 189.22 1.2281 4.3330 0.0059123
-113.62 0.11746 0.00025848 -51.222 -51.213 -0.17453 657.76 0.0015203 -51.342 -51.340 -0.17533 1.3413 2.0244 1636.0 -0.0070100 547.59 0.17264 0.026949 37.107 411.21 441.26 2.9126 0.94987 1.1392 189.75 1.2097 4.3604 0.0059806
-112.62 0.13008 0.00028441 -49.185 -49.175 -0.16180 656.73 0.0015227 -49.316 -49.315 -0.16267 1.3418 2.0264 1629.3 -0.0069938 537.18 0.17204 0.029661 33.715 412.16 442.39 2.9005 0.95305 1.1424 190.28 1.1918 4.3879 0.0060491
-111.62 0.14384 0.00031252 -47.145 -47.134 -0.14913 655.71 0.0015251 -47.289 -47.287 -0.15008 1.3424 2.0285 1622.7 -0.0069774 527.08 0.17144 0.032600 30.675 413.10 443.53 2.8885 0.95623 1.1457 190.81 1.1742 4.4153 0.0061180
-110.62 0.15884 0.00034293 -45.102 -45.090 -0.13652 654.69 0.0015274 -45.259 -45.258 -0.13755 1.3429 2.0305 1616.0 -0.0069609 517.28 0.17084 0.035781 27.948 414.06 444.66 2.8769 0.95942 1.1490 191.34 1.1570 4.4427 0.0061871
-109.62 0.17516 0.00037580 -43.056 -43.042 -0.12397 653.66 0.0015298 -43.228 -43.226 -0.12509 1.3435 2.0326 1609.3 -0.0069441 507.76 0.17024 0.039220 25.497 415.01 445.80 2.8654 0.96261 1.1522 191.86 1.1402 4.4701 0.0062564
-108.62 0.19290 0.00041127 -41.006 -40.991 -0.11147 652.64 0.0015322 -41.194 -41.192 -0.11269 1.3441 2.0347 1602.6 -0.0069271 498.51 0.16964 0.042933 23.292 415.96 446.94 2.8542 0.96581 1.1555 192.38 1.1236 4.4974 0.0063261
-107.62 0.21215 0.00044952 -38.953 -38.937 -0.099034 651.61 0.0015347 -39.158 -39.156 -0.10036 1.3447 2.0369 1595.9 -0.0069098 489.52 0.16903 0.046937 21.305 416.92 448.09 2.8433 0.96901 1.1588 192.90 1.1075 4.5248 0.0063960
-106.62 0.23301 0.00049071 -36.897 -36.879 -0.086649 650.58 0.0015371 -37.120 -37.118 -0.088082 1.3453 2.0390 1589.2 -0.0068924 480.79 0.16843 0.051250 19.512 417.88 449.23 2.8325 0.97222 1.1621 193.41 1.0916 4.5522 0.0064662
-105.62 0.25561 0.00053501 -34.838 -34.818 -0.074318 649.55 0.0015395 -35.080 -35.078 -0.075868 1.3460 2.0412 1582.6 -0.0068747 472.30 0.16782 0.055891 17.892 418.85 450.38 2.8220 0.97544 1.1655 193.93 1.0760 4.5795 0.0065367
-104.62 0.28004 0.00058260 -32.774 -32.753 -0.062039 648.52 0.0015420 -33.038 -33.035 -0.063714 1.3467 2.0434 1575.9 -0.0068569 464.04 0.16721 0.060878 16.426 419.81 451.53 2.8116 0.97867 1.1688 194.44 1.0608 4.6069 0.0066074
-103.62 0.30643 0.00063368 -30.708 -30.684 -0.049811 647.49 0.0015444 -30.994 -30.991 -0.051619 1.3474 2.0456 1569.2 -0.0068387 456.00 0.16660 0.066231 15.099 420.78 452.68 2.8015 0.98191 1.1722 194.94 1.0458 4.6342 0.0066785
-102.62 0.33490 0.00068843 -28.637 -28.611 -0.037633 646.46 0.0015469 -28.947 -28.944 -0.039582 1.3481 2.0478 1562.5 -0.0068204 448.18 0.16600 0.071971 13.894 421.75 453.84 2.7916 0.98516 1.1755 195.44 1.0310 4.6615 0.0067498
-101.62 0.36558 0.00074705 -26.562 -26.534 -0.025503 645.43 0.0015494 -26.898 -26.894 -0.027602 1.3489 2.0501 1555.8 -0.0068018 440.57 0.16539 0.078120 12.801 422.73 454.99 2.7818 0.98841 1.1789 195.95 1.0166 4.6888 0.0068213
-100.62 0.39862 0.00080976 -24.484 -24.453 -0.013421 644.39 0.0015519 -24.847 -24.843 -0.015678 1.3497 2.0524 1549.1 -0.0067830 433.16 0.16478 0.084699 11.807 423.70 456.15 2.7723 0.99168 1.1823 196.44 1.0024 4.7161 0.0068932
-99.625 0.43414 0.00087678 -22.401 -22.368 -0.0013844 643.36 0.0015544 -22.794 -22.789 -0.0038103 1.3505 2.0547 1542.4 -0.0067639 425.95 0.16416 0.091731 10.901 424.68 457.31 2.7630 0.99496 1.1858 196.94 0.98838 4.7434 0.0069653
-98.625 0.47230 0.00094831 -20.315 -20.279 0.010607 642.32 0.0015569 -20.738 -20.733 0.0080027 1.3514 2.0570 1535.7 -0.0067447 418.92 0.16355 0.099240 10.077 425.66 458.48 2.7538 0.99825 1.1892 197.43 0.97464 4.7707 0.0070377
-97.625 0.51325 0.0010246 -18.224 -18.184 0.022554 641.28 0.0015594 -18.680 -18.674 0.019762 1.3522 2.0594 1529.0 -0.0067251 412.07 0.16294 0.10725 9.3239 426.65 459.64 2.7448 1.0016 1.1927 197.92 0.96112 4.7979 0.0071103
-96.625 0.55714 0.0011059 -16.128 -16.086 0.034458 640.24 0.0015619 -16.620 -16.614 0.031467 1.3531 2.0618 1522.3 -0.0067053 405.39 0.16233 0.11579 8.6365 427.63 460.81 2.7360 1.0049 1.1962 198.40 0.94783 4.8251 0.0071832
-95.625 0.60416 0.0011924 -14.028 -13.982 0.046321 639.20 0.0015645 -14.557 -14.550 0.043120 1.3540 2.0642 1515.7 -0.0066853 398.88 0.16171 0.12488 8.0078 428.62 461.98 2.7274 1.0082 1.1997 198.88 0.93475 4.8524 0.0072564
-94.625 0.65446 0.0012844 -11.924 -11.873 0.058143 638.16 0.0015670 -12.491 -12.484 0.054721 1.3550 2.0667 1509.0 -0.0066650 392.53 0.16110 0.13455 7.4323 429.61 463.15 2.7189 1.0116 1.2032 199.36 0.92188 4.8796 0.0073299
-93.625 0.70822 0.0013822 -9.8141 -9.7599 0.069926 637.12 0.0015696 -10.424 -10.416 0.066271 1.3560 2.0691 1502.3 -0.0066444 386.34 0.16048 0.14482 6.9050 430.60 464.32 2.7107 1.0149 1.2068 199.83 0.90921 4.9068 0.0074036
-92.625 0.76564 0.0014859 -7.6998 -7.6411 0.081671 636.07 0.0015722 -8.3535 -8.3452 0.077771 1.3570 2.0716 1495.6 -0.0066236 380.31 0.15987 0.15573 6.4212 431.60 465.49 2.7025 1.0183 1.2104 200.30 0.89673 4.9340 0.0074776
-91.625 0.82689 0.0015960 -5.5804 -5.5171 0.093378 635.02 0.0015747 -6.2808 -6.2719 0.089220 1.3580 2.0742 1488.9 -0.0066025 374.41 0.15925 0.16731 5.9769 432.59 466.67 2.6946 1.0217 1.2140 200.77 0.88445 4.9611 0.0075518
-90.625 0.89218 0.0017126 -3.4559 -3.3875 0.10505 633.98 0.0015773 -4.2056 -4.1959 0.10062 1.3591 2.0767 1482.2 -0.0065811 368.66 0.15864 0.17958 5.5685 433.59 467.84 2.6868 1.0251 1.2177 201.24 0.87236 4.9883 0.0076263
-89.625 0.96172 0.0018360 -1.3260 -1.2524 0.11669 632.93 0.0015800 -2.1279 -2.1174 0.11197 1.3602 2.0793 1475.5 -0.0065595 363.05 0.15802 0.19258 5.1928 434.59 469.02 2.6791 1.0285 1.2213 201.70 0.86045 5.0154 0.0077011
-88.625 1.0357 0.0019666 0.80924 0.88858 0.12829 631.88 0.0015826 -0.047516 -0.036215 0.12328 1.3613 2.0819 1468.8 -0.0065375 357.56 0.15740 0.20633 4.8466 435.59 470.20 2.6717 1.0320 1.2250 202.15 0.84873 5.0425 0.0077761
-87.625 1.1144 0.0021047 2.9501 3.0355 0.13986 630.83 0.0015852 2.0355 2.0476 0.13454 1.3625 2.0846 1462.1 -0.0065153 352.21 0.15679 0.22087 4.5276 436.60 471.39 2.6643 1.0354 1.2288 202.61 0.83718 5.0696 0.0078514
-86.625 1.1979 0.0022505 5.0966 5.1884 0.15140 629.77 0.0015879 4.1211 4.1342 0.14575 1.3637 2.0873 1455.4 -0.0064928 346.98 0.15617 0.23623 4.2331 437.61 472.57 2.6571 1.0389 1.2325 203.06 0.82580 5.0967 0.0079270
-85.625 1.2866 0.0024044 7.2491 7.3476 0.16291 628.72 0.0015905 6.2094 6.2235 0.15691 1.3649 2.0900 1448.8 -0.0064701 341.87 0.15555 0.25245 3.9612 438.61 473.75 2.6501 1.0424 1.2363 203.50 0.81460 5.1237 0.0080028
-84.625 1.3806 0.0025668 9.4075 9.5132 0.17439 627.66 0.0015932 8.3004 8.3155 0.16803 1.3661 2.0927 1442.1 -0.0064470 336.87 0.15494 0.26956 3.7097 439.63 474.94 2.6432 1.0460 1.2402 203.95 0.80356 5.1508 0.0080789
-83.625 1.4803 0.0027378 11.572 11.685 0.18584 626.60 0.0015959 10.394 10.410 0.17911 1.3674 2.0955 1435.4 -0.0064236 331.99 0.15432 0.28760 3.4771 440.64 476.13 2.6364 1.0495 1.2440 204.38 0.79269 5.1778 0.0081553
-82.625 1.5858 0.0029179 13.743 13.864 0.19726 625.54 0.0015986 12.491 12.508 0.19014 1.3687 2.0983 1428.7 -0.0063999 327.22 0.15370 0.30659 3.2616 441.65 477.31 2.6298 1.0531 1.2479 204.82 0.78199 5.2048 0.0082319
-81.625 1.6975 0.0031074 15.920 16.050 0.20866 624.48 0.0016013 14.590 14.609 0.20113 1.3700 2.1012 1422.0 -0.0063759 322.55 0.15309 0.32659 3.0619 442.67 478.50 2.6233 1.0567 1.2519 205.25 0.77144 5.2318 0.0083088
-80.625 1.8155 0.0033068 18.104 18.243 0.22003 623.42 0.0016041 16.692 16.712 0.21208 1.3714 2.1041 1415.4 -0.0063516 317.99 0.15247 0.34763 2.8766 443.69 479.70 2.6169 1.0603 1.2558 205.67 0.76106 5.2587 0.0083860
-79.625 1.9402 0.0035162 20.295 20.443 0.23138 622.36 0.0016068 18.797 18.819 0.22299 1.3728 2.1070 1408.7 -0.0063270 313.52 0.15186 0.36974 2.7046 444.71 480.89 2.6106 1.0639 1.2598 206.10 0.75083 5.2857 0.0084634
-78.625 2.0718 0.0037361 22.492 22.651 0.24271 621.29 0.0016096 20.905 20.928 0.23385 1.3742 2.1099 1402.0 -0.0063021 309.15 0.15124 0.39296 2.5448 445.73 482.08 2.6045 1.0676 1.2639 206.51 0.74076 5.3126 0.0085411
-77.625 2.2107 0.0039669 24.697 24.866 0.25401 620.22 0.0016123 23.016 23.040 0.24468 1.3757 2.1129 1395.3 -0.0062768 304.88 0.15062 0.41735 2.3961 446.75 483.27 2.5985 1.0712 1.2680 206.93 0.73084 5.3395 0.0086190
-76.625 2.3571 0.0042090 26.909 27.089 0.26530 619.15 0.0016151 25.130 25.156 0.25546 1.3772 2.1159 1388.7 -0.0062512 300.69 0.15001 0.44292 2.2577 447.78 484.47 2.5926 1.0749 1.2721 207.34 0.72107 5.3664 0.0086972
-75.625 2.5113 0.0044627 29.128 29.320 0.27656 618.08 0.0016179 27.247 27.275 0.26620 1.3787 2.1190 1382.0 -0.0062253 296.59 0.14939 0.46974 2.1288 448.81 485.67 2.5869 1.0787 1.2762 207.74 0.71146 5.3933 0.0087757
-74.625 2.6736 0.0047285 31.355 31.559 0.28780 617.01 0.0016207 29.366 29.396 0.27691 1.3802 2.1221 1375.4 -0.0061990 292.58 0.14878 0.49783 2.0087 449.83 486.86 2.5812 1.0824 1.2804 208.14 0.70200 5.4201 0.0088544
-73.625 2.8444 0.0050066 33.589 33.807 0.29903 615.93 0.0016236 31.489 31.521 0.28758 1.3818 2.1252 1368.7 -0.0061724 288.65 0.14816 0.52725 1.8966 450.86 488.06 2.5757 1.0862 1.2847 208.54 0.69268 5.4469 0.0089334
-72.625 3.0240 0.0052977 35.831 36.063 0.31024 614.85 0.0016264 33.615 33.649 0.29821 1.3834 2.1284 1362.0 -0.0061454 284.81 0.14755 0.55804 1.7920 451.90 489.26 2.5703 1.0900 1.2889 208.93 0.68351 5.4737 0.0090126
-71.625 3.2127 0.0056020 38.082 38.328 0.32144 613.78 0.0016293 35.745 35.781 0.30880 1.3851 2.1316 1355.4 -0.0061181 281.03 0.14694 0.59024 1.6942 452.93 490.46 2.5650 1.0938 1.2932 209.32 0.67448 5.5005 0.0090922
-70.625 3.4108 0.0059200 40.340 40.602 0.33262 612.69 0.0016321 37.877 37.915 0.31935 1.3867 2.1349 1348.7 -0.0060904 277.34 0.14632 0.62390 1.6028 453.96 491.66 2.5598 1.0976 1.2976 209.70 0.66560 5.5273 0.0091720
-69.625 3.6187 0.0062521 42.607 42.884 0.34378 611.61 0.0016350 40.013 40.053 0.32987 1.3884 2.1382 1342.1 -0.0060624 273.72 0.14571 0.65906 1.5173 455.00 492.86 2.5547 1.1015 1.3020 210.08 0.65687 5.5540 0.0092520
-68.625 3.8367 0.0065987 44.883 45.177 0.35493 610.53 0.0016379 42.152 42.195 0.34036 1.3902 2.1415 1335.5 -0.0060339 270.17 0.14510 0.69577 1.4372 456.04 494.06 2.5497 1.1054 1.3064 210.45 0.64827 5.5807 0.0093324
-67.625 4.0652 0.0069604 47.167 47.478 0.36608 609.44 0.0016409 44.294 44.340 0.35080 1.3919 2.1449 1328.8 -0.0060051 266.69 0.14449 0.73408 1.3622 457.08 495.26 2.5448 1.1093 1.3109 210.82 0.63981 5.6074 0.0094130
-66.625 4.3046 0.0073374 49.460 49.790 0.37721 608.35 0.0016438 46.439 46.488 0.36122 1.3937 2.1483 1322.2 -0.0059760 263.28 0.14388 0.77404 1.2919 458.12 496.46 2.5400 1.1133 1.3154 211.18 0.63150 5.6341 0.0094939
-65.625 4.5551 0.0077304 51.762 52.111 0.38833 607.26 0.0016467 48.588 48.640 0.37160 1.3955 2.1518 1315.6 -0.0059464 259.93 0.14327 0.81570 1.2259 459.16 497.67 2.5353 1.1172 1.3200 211.54 0.62332 5.6608 0.0095750
-64.625 4.8173 0.0081398 54.073 54.442 0.39944 606.16 0.0016497 50.740 50.795 0.38195 1.3974 2.1553 1308.9 -0.0059164 256.65 0.14266 0.85910 1.1640 460.21 498.87 2.5307 1.1212 1.3246 211.89 0.61527 5.6874 0.0096564
-63.625 5.0915 0.0085660 56.394 56.784 0.41054 605.07 0.0016527 52.896 52.954 0.39226 1.3993 2.1588 1302.3 -0.0058861 253.42 0.14205 0.90429 1.1058 461.25 500.07 2.5262 1.1252 1.3293 212.24 0.60736 5.7140 0.0097382
-62.625 5.3781 0.0090095 58.724 59.136 0.42164 603.97 0.0016557 55.055 55.117 0.40254 1.4012 2.1624 1295.7 -0.0058553 250.26 0.14144 0.95134 1.0511 462.30 501.28 2.5218 1.1293 1.3340 212.58 0.59958 5.7406 0.0098201
-61.625 5.6774 0.0094708 61.065 61.499 0.43272 602.87 0.0016587 57.218 57.283 0.41279 1.4031 2.1660 1289.1 -0.0058241 247.16 0.14084 1.0003 0.99972 463.35 502.48 2.5175 1.1333 1.3387 212.92 0.59194 5.7672 0.0099024
-60.625 5.9899 0.0099504 63.415 63.873 0.44381 601.77 0.0016618 59.385 59.453 0.42301 1.4051 2.1697 1282.5 -0.0057925 244.12 0.14023 1.0512 0.95131 464.40 503.68 2.5133 1.1374 1.3435 213.26 0.58442 5.7938 0.0099850
-59.625 6.3160 0.010449 65.775 66.259 0.45489 600.66 0.0016648 61.554 61.627 0.43320 1.4071 2.1734 1275.9 -0.0057605 241.13 0.13962 1.1041 0.90573 465.45 504.89 2.5091 1.1415 1.3483 213.58 0.57704 5.8203 0.010068
-58.625 6.6561 0.010966 68.145 68.655 0.46596 599.55 0.0016679 63.728 63.805 0.44335 1.4091 2.1772 1269.3 -0.0057280 238.19 0.13902 1.1591 0.86277 466.50 506.09 2.5051 1.1457 1.3532 213.90 0.56978 5.8468 0.010151
-57.625 7.0107 0.011504 70.526 71.063 0.47703 598.44 0.0016710 65.905 65.986 0.45348 1.4111 2.1810 1262.7 -0.0056951 235.31 0.13842 1.2161 0.82228 467.55 507.30 2.5011 1.1498 1.3581 214.22 0.56265 5.8733 0.010234
-56.625 7.3801 0.012062 72.917 73.483 0.48810 597.33 0.0016741 68.086 68.172 0.46358 1.4132 2.1848 1256.1 -0.0056617 232.48 0.13781 1.2754 0.78408 468.60 508.50 2.4972 1.1540 1.3631 214.53 0.55564 5.8998 0.010318
-55.625 7.7648 0.012640 75.320 75.914 0.49917 596.22 0.0016772 70.271 70.361 0.47364 1.4153 2.1887 1249.5 -0.0056279 229.69 0.13721 1.3369 0.74802 469.66 509.71 2.4934 1.1582 1.3681 214.84 0.54875 5.9263 0.010402
-54.625 8.1652 0.013240 77.733 78.358 0.51024 595.10 0.0016804 72.460 72.554 0.48368 1.4174 2.1927 1242.9 -0.0055937 226.96 0.13661 1.4006 0.71396 470.72 510.91 2.4897 1.1624 1.3731 215.14 0.54199 5.9527 0.010486
-53.625 8.5819 0.013862 80.157 80.815 0.52131 593.98 0.0016836 74.652 74.752 0.49369 1.4196 2.1967 1236.3 -0.0055589 224.27 0.13601 1.4667 0.68178 471.77 512.11 2.4860 1.1667 1.3782 215.43 0.53535 5.9792 0.010571
-52.625 9.0151 0.014506 82.593 83.284 0.53238 592.86 0.0016867 76.849 76.954 0.50368 1.4218 2.2007 1229.8 -0.0055237 221.63 0.13541 1.5353 0.65136 472.83 513.32 2.4824 1.1710 1.3834 215.72 0.52882 6.0056 0.010656
-51.625 9.4655 0.015174 85.040 85.765 0.54345 591.73 0.0016900 79.049 79.159 0.51363 1.4240 2.2048 1223.2 -0.0054880 219.04 0.13482 1.6062 0.62258 473.89 514.52 2.4789 1.1752 1.3886 216.00 0.52241 6.0320 0.010741
-50.625 9.9335 0.015865 87.499 88.260 0.55453 590.60 0.0016932 81.253 81.369 0.52356 1.4262 2.2089 1216.6 -0.0054519 216.48 0.13422 1.6797 0.59534 474.95 515.73 2.4755 1.1796 1.3938 216.28 0.51612 6.0584 0.010827
-49.625 10.419 0.016580 89.970 90.768 0.56561 589.47 0.0016964 83.462 83.584 0.53347 1.4285 2.2131 1210.1 -0.0054152 213.98 0.13363 1.7558 0.56954 476.01 516.93 2.4722 1.1839 1.3991 216.55 0.50994 6.0848 0.010913
-48.625 10.924 0.017319 92.453 93.290 0.57669 588.34 0.0016997 85.674 85.802 0.54334 1.4308 2.2173 1203.5 -0.0053780 211.51 0.13303 1.8345 0.54510 477.07 518.13 2.4689 1.1883 1.4044 216.82 0.50387 6.1112 0.010999
-47.625 11.448 0.018084 94.948 95.825 0.58778 587.20 0.0017030 87.891 88.025 0.55319 1.4331 2.2216 1196.9 -0.0053403 209.08 0.13244 1.9159 0.52194 478.14 519.33 2.4657 1.1927 1.4098 217.08 0.49792 6.1375 0.011085
-46.625 11.991 0.018875 97.455 98.374 0.59887 586.06 0.0017063 90.111 90.252 0.56302 1.4354 2.2259 1190.4 -0.0053020 206.69 0.13185 2.0001 0.49997 479.20 520.53 2.4625 1.1971 1.4153 217.33 0.49207 6.1639 0.011172
-45.625 12.554 0.019693 99.976 100.94 0.60997 584.92 0.0017096 92.336 92.484 0.57282 1.4378 2.2303 1183.8 -0.0052633 204.34 0.13126 2.0872 0.47912 480.27 521.74 2.4594 1.2015 1.4207 217.58 0.48633 6.1902 0.011259
-44.625 13.137 0.020537 102.51 103.51 0.62108 583.77 0.0017130 94.565 94.720 0.58260 1.4402 2.2347 1177.3 -0.0052240 202.03 0.13067 2.1771 0.45933 481.33 522.94 2.4564 1.2060 1.4263 217.82 0.48069 6.2165 0.011347
-43.625 13.741 0.021409 105.05 106.11 0.63220 582.62 0.0017164 96.799 96.961 0.59235 1.4426 2.2392 1170.7 -0.0051841 199.75 0.13008 2.2700 0.44053 482.40 524.14 2.4535 1.2104 1.4319 218.05 0.47516 6.2429 0.011435
-42.625 14.367 0.022310 107.61 108.71 0.64332 581.47 0.0017198 99.036 99.207 0.60208 1.4450 2.2437 1164.2 -0.0051437 197.51 0.12949 2.3659 0.42267 483.46 525.33 2.4506 1.2149 1.4375 218.28 0.46973 6.2692 0.011523
-41.625 15.015 0.023239 110.19 111.34 0.65445 580.32 0.0017232 101.28 101.46 0.61179 1.4475 2.2483 1157.7 -0.0051027 195.30 0.12891 2.4649 0.40569 484.53 526.53 2.4478 1.2195 1.4432 218.50 0.46440 6.2955 0.011612
-40.625 15.686 0.024198 112.77 113.97 0.66560 579.16 0.0017266 103.52 103.71 0.62147 1.4500 2.2529 1151.1 -0.0050611 193.13 0.12832 2.5671 0.38954 485.60 527.73 2.4450 1.2240 1.4489 218.72 0.45917 6.3218 0.011701
-39.625 16.380 0.025188 115.37 116.62 0.67675 578.00 0.0017301 105.78 105.97 0.63113 1.4525 2.2576 1144.6 -0.0050189 190.99 0.12774 2.6725 0.37418 486.67 528.93 2.4423 1.2286 1.4547 218.93 0.45403 6.3481 0.011790
-38.625 17.097 0.026208 117.98 119.29 0.68792 576.83 0.0017336 108.03 108.24 0.64077 1.4550 2.2623 1138.0 -0.0049761 188.88 0.12716 2.7813 0.35955 487.74 530.12 2.4397 1.2332 1.4606 219.13 0.44900 6.3744 0.011880
-37.625 17.838 0.027259 120.61 121.98 0.69909 575.66 0.0017371 110.29 110.51 0.65039 1.4576 2.2671 1131.5 -0.0049327 186.81 0.12658 2.8934 0.34562 488.81 531.32 2.4371 1.2378 1.4665 219.33 0.44405 6.4007 0.011970
-36.625 18.604 0.028343 123.25 124.68 0.71028 574.49 0.0017407 112.56 112.78 0.65999 1.4602 2.2719 1125.0 -0.0048887 184.76 0.12600 3.0089 0.33235 489.88 532.51 2.4346 1.2424 1.4724 219.52 0.43920 6.4270 0.012060
-35.625 19.395 0.029460 125.91 127.39 0.72149 573.32 0.0017442 114.83 115.06 0.66956 1.4628 2.2768 1118.5 -0.0048440 182.75 0.12542 3.1280 0.31969 490.95 533.70 2.4321 1.2471 1.4784 219.70 0.43444 6.4533 0.012151
-34.625 20.212 0.030611 128.58 130.12 0.73270 572.14 0.0017478 117.10 117.34 0.67912 1.4654 2.2818 1111.9 -0.0047987 180.76 0.12485 3.2506 0.30763 492.02 534.89 2.4297 1.2517 1.4845 219.88 0.42977 6.4797 0.012243
-33.625 21.056 0.031795 131.26 132.87 0.74393 570.96 0.0017514 119.38 119.63 0.68865 1.4681 2.2868 1105.4 -0.0047527 178.80 0.12427 3.3770 0.29612 493.09 536.08 2.4273 1.2564 1.4906 220.05 0.42519 6.5060 0.012334
-32.625 21.926 0.033015 133.96 135.64 0.75518 569.77 0.0017551 121.66 121.93 0.69817 1.4708 2.2918 1098.9 -0.0047061 176.87 0.12370 3.5071 0.28514 494.17 537.27 2.4250 1.2611 1.4968 220.21 0.42070 6.5323 0.012426
-31.625 22.823 0.034271 136.67 138.42 0.76644 568.58 0.0017588 123.95 124.23 0.70767 1.4735 2.2970 1092.3 -0.0046587 174.97 0.12313 3.6410 0.27465 495.24 538.46 2.4227 1.2659 1.5031 220.36 0.41629 6.5587 0.012519
-30.625 23.749 0.035563 139.40 141.22 0.77772 567.39 0.0017625 126.24 126.53 0.71714 1.4762 2.3021 1085.8 -0.0046107 173.09 0.12256 3.7787 0.26464 496.31 539.64 2.4205 1.2706 1.5094 220.51 0.41196 6.5850 0.012612
-29.625 24.703 0.036892 142.15 144.04 0.78901 566.19 0.0017662 128.54 128.84 0.72660 1.4790 2.3074 1079.3 -0.0045619 171.24 0.12200 3.9205 0.25507 497.38 540.83 2.4184 1.2754 1.5157 220.65 0.40772 6.6114 0.012706
-28.625 25.687 0.038260 144.91 146.88 0.80033 564.99 0.0017699 130.84 131.16 0.73604 1.4818 2.3126 1072.8 -0.0045124 169.42 0.12143 4.0663 0.24592 498.46 542.01 2.4162 1.2802 1.5222 220.79 0.40356 6.6378 0.012800
-27.625 26.700 0.039666 147.68 149.73 0.81166 563.78 0.0017737 133.15 133.48 0.74547 1.4846 2.3180 1066.2 -0.0044621 167.62 0.12087 4.2163 0.23717 499.53 543.19 2.4142 1.2850 1.5286 220.91 0.39947 6.6642 0.012894
-26.625 27.743 0.041112 150.48 152.60 0.82300 562.57 0.0017775 135.47 135.81 0.75487 1.4874 2.3234 1059.7 -0.0044111 165.84 0.12031 4.3705 0.22881 500.60 544.37 2.4122 1.2899 1.5352 221.03 0.39547 6.6906 0.012989
-25.625 28.817 0.042598 153.28 155.49 0.83437 561.36 0.0017814 137.78 138.14 0.76426 1.4902 2.3289 1053.2 -0.0043593 164.09 0.11975 4.5290 0.22080 501.68 545.55 2.4102 1.2947 1.5418 221.14 0.39154 6.7171 0.013084
-24.625 29.923 0.044125 156.11 158.40 0.84576 560.14 0.0017853 140.11 140.48 0.77363 1.4931 2.3344 1046.7 -0.0043067 162.36 0.11919 4.6918 0.21314 502.75 546.72 2.4083 1.2996 1.5485 221.25 0.38768 6.7436 0.013180
-23.625 31.061 0.045694 158.95 161.33 0.85716 558.92 0.0017892 142.44 142.82 0.78298 1.4960 2.3400 1040.1 -0.0042533 160.65 0.11863 4.8592 0.20580 503.82 547.90 2.4064 1.3045 1.5552 221.35 0.38391 6.7701 0.013277
-22.625 32.232 0.047306 161.81 164.28 0.86859 557.69 0.0017931 144.77 145.17 0.79232 1.4990 2.3457 1033.6 -0.0041990 158.97 0.11807 5.0311 0.19877 504.90 549.07 2.4045 1.3095 1.5621 221.44 0.38020 6.7967 0.013374
-21.625 33.435 0.048962 164.68 167.24 0.88004 556.46 0.0017971 147.11 147.52 0.80164 1.5019 2.3514 1027.1 -0.0041439 157.30 0.11752 5.2076 0.19203 505.97 550.24 2.4027 1.3144 1.5690 221.52 0.37656 6.8232 0.013471
-20.625 34.673 0.050662 167.57 170.23 0.89151 555.23 0.0018011 149.45 149.88 0.81095 1.5049 2.3572 1020.6 -0.0040879 155.66 0.11697 5.3889 0.18557 507.04 551.40 2.4010 1.3194 1.5759 221.59 0.37300 6.8499 0.013569
-19.625 35.946 0.052408 170.48 173.23 0.90300 553.99 0.0018051 151.80 152.25 0.82024 1.5079 2.3630 1014.0 -0.0040311 154.04 0.11642 5.5750 0.17937 508.11 552.57 2.3992 1.3244 1.5829 221.66 0.36950 6.8765 0.013668
-18.625 37.253 0.054201 173.40 176.26 0.91451 552.74 0.0018092 154.16 154.62 0.82952 1.5109 2.3689 1007.5 -0.0039733 152.44 0.11587 5.7660 0.17343 509.19 553.73 2.3976 1.3294 1.5901 221.72 0.36608 6.9032 0.013767
-17.625 38.596 0.056040 176.34 179.30 0.92604 551.49 0.0018133 156.52 157.00 0.83878 1.5140 2.3749 1001.0 -0.0039145 150.86 0.11532 5.9621 0.16773 510.26 554.89 2.3959 1.3345 1.5972 221.77 0.36272 6.9300 0.013867
-16.625 39.976 0.057928 179.30 182.37 0.93760 550.24 0.0018174 158.89 159.39 0.84803 1.5171 2.3810 994.44 -0.0038549 149.29 0.11478 6.1632 0.16225 511.33 556.05 2.3943 1.3395 1.6045 221.81 0.35942 6.9568 0.013968
-15.625 41.392 0.059865 182.28 185.45 0.94919 548.98 0.0018216 161.26 161.78 0.85726 1.5202 2.3871 987.91 -0.0037942 147.75 0.11423 6.3696 0.15700 512.40 557.20 2.3927 1.3446 1.6119 221.85 0.35619 6.9836 0.014069
-14.625 42.846 0.061852 185.28 188.56 0.96079 547.71 0.0018258 163.64 164.18 0.86649 1.5233 2.3933 981.37 -0.0037325 146.22 0.11369 6.5812 0.15195 513.47 558.36 2.3912 1.3497 1.6193 221.87 0.35302 7.0105 0.014170
-13.625 44.338 0.063890 188.29 191.68 0.97242 546.44 0.0018300 166.02 166.58 0.87569 1.5264 2.3996 974.83 -0.0036698 144.72 0.11315 6.7983 0.14710 514.54 559.51 2.3897 1.3549 1.6268 221.89 0.34992 7.0375 0.014273
-12.625 45.870 0.065981 191.32 194.83 0.98408 545.17 0.0018343 168.41 168.99 0.88489 1.5296 2.4059 968.29 -0.0036061 143.23 0.11261 7.0208 0.14243 515.61 560.65 2.3883 1.3600 1.6344 221.90 0.34688 7.0646 0.014376
-11.625 47.440 0.068125 194.37 198.00 0.99576 543.89 0.0018386 170.81 171.41 0.89407 1.5328 2.4124 961.75 -0.0035413 141.76 0.11208 7.2490 0.13795 516.68 561.80 2.3868 1.3652 1.6421 221.91 0.34389 7.0917 0.014479
-10.625 49.051 0.070323 197.44 201.19 1.0075 542.60 0.0018430 173.21 173.83 0.90324 1.5360 2.4189 955.20 -0.0034753 140.30 0.11154 7.4829 0.13364 517.75 562.94 2.3854 1.3704 1.6498 221.90 0.34097 7.1188 0.014584
-9.6250 50.703 0.072576 200.52 204.41 1.0192 541.31 0.0018474 175.61 176.26 0.91240 1.5393 2.4255 948.65 -0.0034082 138.86 0.11101 7.7226 0.12949 518.81 564.08 2.3841 1.3757 1.6577 221.88 0.33810 7.1461 0.014689
-8.6250 52.396 0.074886 203.63 207.64 1.0310 540.02 0.0018518 178.03 178.70 0.92154 1.5426 2.4321 942.10 -0.0033400 137.44 0.11048 7.9683 0.12550 519.88 565.21 2.3827 1.3809 1.6657 221.86 0.33529 7.1734 0.014795
-7.6250 54.131 0.077254 206.75 210.90 1.0428 538.72 0.0018563 180.45 181.14 0.93068 1.5459 2.4389 935.55 -0.0032705 136.03 0.10995 8.2200 0.12165 520.94 566.35 2.3814 1.3862 1.6737 221.83 0.33254 7.2008 0.014902
-6.6250 55.909 0.079680 209.90 214.18 1.0546 537.41 0.0018608 182.87 183.59 0.93980 1.5492 2.4457 928.99 -0.0031998 134.64 0.10942 8.4779 0.11795 522.01 567.48 2.3801 1.3915 1.6819 221.79 0.32984 7.2284 0.015009
-5.6250 57.730 0.082167 213.06 217.48 1.0664 536.10 0.0018653 185.30 186.05 0.94892 1.5525 2.4526 922.43 -0.0031279 133.27 0.10889 8.7420 0.11439 523.07 568.60 2.3789 1.3969 1.6902 221.74 0.32720 7.2560 0.015117
-4.6250 59.595 0.084714 216.24 220.81 1.0783 534.78 0.0018699 187.74 188.51 0.95802 1.5559 2.4596 915.87 -0.0030546 131.91 0.10837 9.0126 0.11096 524.13 569.72 2.3777 1.4022 1.6985 221.68 0.32461 7.2837 0.015226
-3.6250 61.505 0.087324 219.44 224.15 1.0902 533.45 0.0018746 190.19 190.98 0.96711 1.5593 2.4667 909.30 -0.0029800 130.56 0.10785 9.2896 0.10765 525.19 570.84 2.3765 1.4076 1.7070 221.62 0.32207 7.3115 0.015336
-2.6250 63.461 0.089998 222.66 227.52 1.1021 532.12 0.0018793 192.64 193.46 0.97620 1.5627 2.4739 902.73 -0.0029041 129.23 0.10733 9.5733 0.10446 526.25 571.96 2.3753 1.4131 1.7156 221.54 0.31958 7.3394 0.015447
-1.6250 65.462 0.092737 225.90 230.92 1.1141 530.78 0.0018840 195.10 195.95 0.98527 1.5662 2.4811 896.16 -0.0028267 127.91 0.10681 9.8638 0.10138 527.31 573.07 2.3742 1.4185 1.7243 221.45 0.31715 7.3674 0.015559
-0.62500 67.510 0.095543 229.17 234.34 1.1261 529.44 0.0018888 197.56 198.44 0.99434 1.5696 2.4885 889.58 -0.0027478 126.61 0.10629 10.161 0.098414 528.37 574.18 2.3731 1.4240 1.7331 221.36 0.31476 7.3956 0.015671
0.37500 69.606 0.098416 232.45 237.78 1.1381 528.09 0.0018936 200.03 200.94 1.0034 1.5731 2.4960 883.00 -0.0026675 125.32 0.10578 10.466 0.095552 529.42 575.28 2.3720 1.4295 1.7421 221.26 0.31242 7.4239 0.015785
1.3750 71.749 0.10136 235.75 241.25 1.1501 526.73 0.0018985 202.51 203.45 1.0124 1.5767 2.5035 876.42 -0.0025856 124.04 0.10527 10.777 0.092790 530.48 576.38 2.3709 1.4350 1.7512 221.14 0.31013 7.4523 0.015899
2.3750 73.941 0.10437 239.07 244.74 1.1622 525.37 0.0019034 204.99 205.96 1.0215 1.5802 2.5112 869.83 -0.0025022 122.78 0.10476 11.096 0.090123 531.53 577.47 2.3699 1.4406 1.7604 221.02 0.30789 7.4808 0.016015
3.3750 76.183 0.10746 242.42 248.25 1.1743 523.99 0.0019084 207.48 208.48 1.0305 1.5838 2.5190 863.24 -0.0024171 121.53 0.10425 11.422 0.087549 532.58 578.56 2.3688 1.4462 1.7697 220.89 0.30569 7.5095 0.016131
4.3750 78.475 0.11062 245.78 251.79 1.1865 522.62 0.0019134 209.98 211.01 1.0395 1.5874 2.5268 856.64 -0.0023303 120.29 0.10374 11.756 0.085062 533.63 579.65 2.3678 1.4518 1.7792 220.75 0.30354 7.5384 0.016249
5.3750 80.817 0.11385 249.17 255.36 1.1987 521.23 0.0019185 212.48 213.55 1.0486 1.5910 2.5348 850.04 -0.0022417 119.06 0.10324 12.098 0.082660 534.67 580.73 2.3669 1.4575 1.7888 220.60 0.30144 7.5674 0.016368
6.3750 83.211 0.11716 252.57 258.95 1.2109 519.84 0.0019237 215.00 216.10 1.0576 1.5946 2.5429 843.43 -0.0021514 117.85 0.10273 12.447 0.080340 535.72 581.81 2.3659 1.4632 1.7986 220.44 0.29938 7.5966 0.016487
7.3750 85.657 0.12055 256.00 262.56 1.2231 518.44 0.0019289 217.51 218.65 1.0666 1.5983 2.5511 836.82 -0.0020593 116.65 0.10223 12.805 0.078096 536.76 582.88 2.3650 1.4689 1.8085 220.27 0.29736 7.6259 0.016608
8.3750 88.156 0.12402 259.45 266.20 1.2354 517.03 0.0019341 220.04 221.22 1.0756 1.6020 2.5595 830.20 -0.0019652 115.46 0.10173 13.170 0.075928 537.80 583.95 2.3640 1.4746 1.8186 220.08 0.29538 7.6555 0.016730
9.3750 90.708 0.12758 262.92 269.87 1.2477 515.62 0.0019394 222.57 223.79 1.0846 1.6057 2.5679 823.58 -0.0018691 114.28 0.10124 13.545 0.073830 538.84 585.01 2.3631 1.4804 1.8288 219.89 0.29345 7.6852 0.016853
10.375 93.315 0.13121 266.41 273.56 1.2600 514.19 0.0019448 225.11 226.37 1.0936 1.6095 2.5765 816.96 -0.0017710 113.11 0.10074 13.927 0.071802 539.87 586.07 2.3622 1.4863 1.8392 219.69 0.29156 7.7151 0.016978
11.375 95.977 0.13494 269.93 277.28 1.2724 512.76 0.0019502 227.66 228.95 1.1025 1.6132 2.5852 810.32 -0.0016708 111.95 0.10025 14.319 0.069840 540.90 587.12 2.3614 1.4921 1.8498 219.48 0.28971 7.7452 0.017103
12.375 98.694 0.13875 273.47 281.03 1.2848 511.32 0.0019557 230.22 231.55 1.1115 1.6170 2.5940 803.68 -0.0015685 110.80 0.099756 14.719 0.067941 541.93 588.17 2.3605 1.4980 1.8605 219.26 0.28790 7.7756 0.017230
13.375 101.47 0.14265 277.03 284.80 1.2973 509.87 0.0019613 232.78 234.15 1.1205 1.6208 2.6030 797.04 -0.0014639 109.67 0.099267 15.128 0.066103 542.96 589.21 2.3597 1.5040 1.8715 219.03 0.28612 7.8061 0.017359
14.375 104.30 0.14664 280.61 288.60 1.3098 508.42 0.0019669 235.35 236.77 1.1295 1.6247 2.6121 790.39 -0.0013569 108.54 0.098779 15.547 0.064323 543.99 590.24 2.3588 1.5099 1.8826 218.79 0.28439 7.8369 0.017488
15.375 107.19 0.15073 284.22 292.43 1.3223 506.95 0.0019726 237.93 239.39 1.1384 1.6286 2.6214 783.73 -0.0012476 107.43 0.098294 15.974 0.062600 545.01 591.27 2.3580 1.5159 1.8940 218.53 0.28270 7.8680 0.017619
16.375 110.13 0.15492 287.85 296.28 1.3348 505.48 0.0019783 240.52 242.02 1.1474 1.6324 2.6308 777.07 -0.0011357 106.32 0.097810 16.412 0.060931 546.03 592.29 2.3572 1.5220 1.9055 218.27 0.28104 7.8993 0.017752
17.375 113.14 0.15920 291.50 300.17 1.3474 504.00 0.0019841 243.11 244.66 1.1564 1.6364 2.6403 770.40 -0.0010213 105.22 0.097328 16.859 0.059314 547.04 593.31 2.3564 1.5281 1.9172 217.99 0.27942 7.9308 0.017886
18.375 116.21 0.16359 295.17 304.08 1.3600 502.50 0.0019900 245.72 247.31 1.1653 1.6403 2.6501 763.72 -0.00090422 104.14 0.096848 17.317 0.057747 548.05 594.32 2.3557 1.5342 1.9292 217.71 0.27783 7.9626 0.018021
19.375 119.33 0.16808 298.87 308.01 1.3727 501.00 0.0019960 248.33 249.97 1.1743 1.6443 2.6599 757.04 -0.00078435 103.06 0.096371 17.785 0.056228 549.06 595.33 2.3549 1.5404 1.9414 217.41 0.27628 7.9947 0.018159
20.375 122.52 0.17267 302.60 311.98 1.3854 499.49 0.0020020 250.95 252.64 1.1832 1.6483 2.6700 750.35 -0.00066161 101.99 0.095895 18.263 0.054756 550.07 596.32 2.3541 1.5466 1.9538 217.10 0.27477 8.0272 0.018297
21.375 125.77 0.17738 306.34 315.98 1.3982 497.97 0.0020082 253.57 255.32 1.1922 1.6523 2.6802 743.64 -0.00053589 100.93 0.095420 18.752 0.053328 551.07 597.31 2.3534 1.5528 1.9665 216.78 0.27329 8.0599 0.018438
22.375 129.08 0.18219 310.11 320.00 1.4109 496.43 0.0020144 256.21 258.00 1.2012 1.6563 2.6906 736.94 -0.00040708 99.877 0.094948 19.252 0.051943 552.07 598.30 2.3526 1.5591 1.9795 216.45 0.27184 8.0929 0.018580
23.375 132.46 0.18713 313.91 324.06 1.4238 494.89 0.0020206 258.86 260.70 1.2101 1.6604 2.7012 730.22 -0.00027505 98.834 0.094478 19.763 0.050600 553.06 599.27 2.3519 1.5655 1.9927 216.11 0.27043 8.1263 0.018724
24.375 135.90 0.19218 317.73 328.14 1.4366 493.34 0.0020270 261.51 263.41 1.2191 1.6645 2.7120 723.49 -0.00013968 97.800 0.094009 20.285 0.049297 554.05 600.24 2.3512 1.5718 2.0061 215.75 0.26906 8.1600 0.018870
25.375 139.41 0.19735 321.57 332.25 1.4495 491.77 0.0020335 264.17 266.13 1.2280 1.6686 2.7230 716.76 -8.3775e-07 96.773 0.093543 20.820 0.048032 555.03 601.20 2.3504 1.5783 2.0199 215.39 0.26771 8.1941 0.019017
26.375 142.98 0.20264 325.44 336.40 1.4625 490.20 0.0020400 266.84 268.85 1.2370 1.6728 2.7342 710.01 0.00014161 95.755 0.093078 21.366 0.046804 556.01 602.15 2.3497 1.5847 2.0340 215.01 0.26640 8.2286 0.019167
27.375 146.62 0.20807 329.34 340.57 1.4754 488.61 0.0020466 269.52 271.59 1.2459 1.6770 2.7456 703.26 0.00028782 94.745 0.092615 21.924 0.045612 556.99 603.10 2.3490 1.5913 2.0484 214.62 0.26512 8.2634 0.019319
28.375 150.33 0.21362 333.26 344.77 1.4885 487.01 0.0020533 272.21 274.34 1.2549 1.6812 2.7573 696.49 0.00043793 93.742 0.092154 22.495 0.044454 557.96 604.03 2.3483 1.5978 2.0631 214.21 0.26387 8.2987 0.019472
29.375 154.10 0.21932 337.20 349.01 1.5015 485.40 0.0020601 274.91 277.10 1.2638 1.6854 2.7691 689.72 0.00059212 92.747 0.091695 23.079 0.043329 558.92 604.96 2.3476 1.6044 2.0781 213.80 0.26265 8.3344 0.019628
30.375 157.94 0.22515 341.17 353.27 1.5146 483.78 0.0020671 277.62 279.87 1.2728 1.6897 2.7813 682.93 0.00075055 91.760 0.091238 23.676 0.042237 559.88 605.88 2.3469 1.6111 2.0935 213.37 0.26147 8.3705 0.019786
31.375 161.86 0.23112 345.17 357.57 1.5278 482.15 0.0020741 280.34 282.66 1.2818 1.6939 2.7936 676.13 0.00091340 90.779 0.090782 24.287 0.041175 560.84 606.79 2.3462 1.6178 2.1092 212.93 0.26031 8.4071 0.019947
32.375 165.84 0.23724 349.19 361.90 1.5410 480.50 0.0020812 283.07 285.45 1.2908 1.6983 2.8063 669.32 0.0010809 89.806 0.090328 24.911 0.040143 561.79 607.69 2.3455 1.6246 2.1254 212.48 0.25919 8.4442 0.020110
33.375 169.90 0.24352 353.24 366.26 1.5542 478.83 0.0020884 285.81 288.26 1.2997 1.7026 2.8192 662.50 0.0012532 88.840 0.089876 25.549 0.039140 562.73 608.58 2.3448 1.6314 2.1419 212.01 0.25809 8.4818 0.020275
34.375 174.02 0.24995 357.32 370.65 1.5675 477.16 0.0020957 288.56 291.07 1.3087 1.7070 2.8324 655.67 0.0014305 87.880 0.089426 26.202 0.038164 563.67 609.46 2.3440 1.6383 2.1589 211.53 0.25702 8.5199 0.020443
35.375 178.22 0.25654 361.43 375.08 1.5808 475.47 0.0021032 291.32 293.90 1.3177 1.7114 2.8459 648.82 0.0016131 86.927 0.088977 26.870 0.037216 564.60 610.33 2.3433 1.6452 2.1763 211.04 0.25599 8.5586 0.020613
36.375 182.50 0.26330 365.56 379.54 1.5942 473.77 0.0021107 294.09 296.74 1.3267 1.7158 2.8597 641.96 0.0018012 85.980 0.088531 27.553 0.036293 565.52 611.19 2.3426 1.6522 2.1942 210.53 0.25498 8.5978 0.020786
37.375 186.84 0.27024 369.72 384.03 1.6076 472.05 0.0021184 296.87 299.60 1.3357 1.7203 2.8739 635.08 0.0019950 85.040 0.088085 28.252 0.035395 566.44 612.04 2.3419 1.6592 2.2125 210.01 0.25400 8.6376 0.020962
38.375 191.27 0.27735 373.90 388.56 1.6211 470.31 0.0021262 299.66 302.46 1.3447 1.7248 2.8884 628.19 0.0021949 84.105 0.087642 28.967 0.034522 567.35 612.88 2.3411 1.6663 2.2314 209.47 0.25305 8.6780 0.021141
39.375 195.77 0.28465 378.12 393.12 1.6346 468.56 0.0021342 302.46 305.34 1.3537 1.7293 2.9033 621.29 0.0024011 83.177 0.087200 29.699 0.033671 568.26 613.70 2.3404 1.6734 2.2508 208.92 0.25213 8.7190 0.021323
40.375 200.34 0.29213 382.36 397.71 1.6481 466.80 0.0021423 305.27 308.23 1.3627 1.7339 2.9185 614.37 0.0026140 82.254 0.086760 30.447 0.032844 569.15 614.52 2.3396 1.6806 2.2708 208.36 0.25123 8.7608 0.021508
41.375 205.00 0.29982 386.63 402.34 1.6617 465.01 0.0021505 308.10 311.14 1.3718 1.7385 2.9342 607.43 0.0028338 81.338 0.086322 31.214 0.032037 570.04 615.32 2.3389 1.6879 2.2913 207.78 0.25037 8.8032 0.021696
42.375 209.73 0.30771 390.93 407.00 1.6754 463.21 0.0021588 310.94 314.06 1.3808 1.7432 2.9502 600.47 0.0030609 80.426 0.085885 31.998 0.031252 570.92 616.11 2.3381 1.6952 2.3125 207.19 0.24953 8.8463 0.021888
43.375 214.54 0.31581 395.27 411.70 1.6891 461.40 0.0021673 313.79 316.99 1.3899 1.7478 2.9667 593.50 0.0032957 79.520 0.085449 32.800 0.030488 571.79 616.88 2.3373 1.7027 2.3344 206.58 0.24871 8.8902 0.022084
44.375 219.43 0.32413 399.63 416.44 1.7028 459.56 0.0021760 316.65 319.94 1.3989 1.7525 2.9837 586.51 0.0035386 78.619 0.085015 33.622 0.029742 572.65 617.65 2.3365 1.7101 2.3569 205.96 0.24793 8.9349 0.022283
45.375 224.41 0.33268 404.02 421.21 1.7166 457.71 0.0021848 319.52 322.90 1.4080 1.7573 3.0012 579.50 0.0037900 77.723 0.084583 34.463 0.029016 573.50 618.40 2.3357 1.7177 2.3802 205.32 0.24717 8.9805 0.022485
46.375 229.46 0.34147 408.44 426.01 1.7305 455.83 0.0021938 322.41 325.88 1.4171 1.7621 3.0192 572.46 0.0040504 76.832 0.084152 35.325 0.028308 574.34 619.13 2.3349 1.7253 2.4042 204.67 0.24644 9.0269 0.022692
47.375 234.60 0.35050 412.89 430.86 1.7444 453.94 0.0022029 325.31 328.87 1.4262 1.7669 3.0377 565.41 0.0043202 75.946 0.083723 36.208 0.027618 575.17 619.85 2.3340 1.7329 2.4291 204.00 0.24573 9.0742 0.022903
48.375 239.83 0.35980 417.37 435.74 1.7584 452.03 0.0022123 328.22 331.88 1.4353 1.7718 3.0569 558.34 0.0046000 75.064 0.083295 37.112 0.026945 576.00 620.55 2.3332 1.7407 2.4548 203.31 0.24505 9.1224 0.023119
49.375 245.13 0.36936 421.88 440.66 1.7724 450.09 0.0022218 331.15 334.90 1.4445 1.7767 3.0766 551.24 0.0048904 74.186 0.082868 38.039 0.026289 576.81 621.24 2.3323 1.7485 2.4815 202.61 0.24440 9.1716 0.023339
50.375 250.53 0.37920 426.43 445.62 1.7865 448.13 0.0022315 334.09 337.94 1.4536 1.7817 3.0970 544.13 0.0051920 73.313 0.082442 38.989 0.025648 577.61 621.91 2.3314 1.7564 2.5092 201.89 0.24377 9.2219 0.023564
51.375 256.01 0.38933 431.01 450.62 1.8006 446.15 0.0022414 337.04 341.00 1.4628 1.7867 3.1181 536.98 0.0055054 72.443 0.082018 39.962 0.025024 578.39 622.56 2.3304 1.7644 2.5379 201.16 0.24317 9.2733 0.023794
52.375 261.57 0.39976 435.62 455.66 1.8148 444.15 0.0022515 340.01 344.07 1.4720 1.7918 3.1400 529.82 0.0058313 71.577 0.081595 40.961 0.024414 579.17 623.20 2.3295 1.7724 2.5677 200.41 0.24260 9.3258 0.024029
53.375 267.23 0.41052 440.26 460.74 1.8290 442.12 0.0022618 343.00 347.17 1.4812 1.7969 3.1627 522.62 0.0061705 70.715 0.081174 41.985 0.023818 579.93 623.81 2.3285 1.7805 2.5987 199.63 0.24205 9.3795 0.024270
54.375 272.97 0.42161 444.94 465.85 1.8433 440.06 0.0022724 346.00 350.28 1.4904 1.8021 3.1862 515.40 0.0065239 69.856 0.080753 43.036 0.023237 580.68 624.41 2.3274 1.7887 2.6310 198.85 0.24154 9.4344 0.024516
55.375 278.81 0.43305 449.65 471.01 1.8577 437.98 0.0022832 349.02 353.40 1.4997 1.8073 3.2106 508.15 0.0068923 69.001 0.080334 44.114 0.022669 581.41 624.99 2.3264 1.7969 2.6646 198.04 0.24105 9.4907 0.024769
56.375 284.74 0.44486 454.40 476.21 1.8721 435.87 0.0022943 352.05 356.55 1.5090 1.8126 3.2360 500.87 0.0072767 68.148 0.079915 45.221 0.022114 582.13 625.54 2.3253 1.8052 2.6998 197.22 0.24059 9.5484 0.025028
57.375 290.76 0.45705 459.18 481.46 1.8866 433.73 0.0023056 355.10 359.72 1.5183 1.8179 3.2624 493.56 0.0076782 67.299 0.079498 46.358 0.021571 582.83 626.07 2.3241 1.8136 2.7365 196.37 0.24016 9.6075 0.025294
58.375 296.87 0.46966 464.00 486.75 1.9012 431.56 0.0023172 358.17 362.91 1.5276 1.8233 3.2900 486.22 0.0080980 66.451 0.079082 47.525 0.021041 583.52 626.58 2.3230 1.8220 2.7749 195.51 0.23976 9.6682 0.025568
59.375 303.08 0.48269 468.86 492.08 1.9158 429.36 0.0023290 361.25 366.12 1.5370 1.8288 3.3188 478.84 0.0085373 65.606 0.078666 48.726 0.020523 584.18 627.07 2.3218 1.8305 2.8152 194.63 0.23939 9.7305 0.025849
60.375 309.38 0.49618 473.75 497.45 1.9305 427.13 0.0023412 364.36 369.35 1.5464 1.8343 3.3489 471.43 0.0089976 64.763 0.078251 49.960 0.020016 584.83 627.53 2.3205 1.8391 2.8576 193.73 0.23905 9.7945 0.026138
61.375 315.78 0.51014 478.68 502.87 1.9452 424.87 0.0023537 367.48 372.60 1.5558 1.8400 3.3805 463.99 0.0094803 63.922 0.077838 51.229 0.019520 585.46 627.96 2.3192 1.8479 2.9022 192.82 0.23873 9.8603 0.026436
62.375 322.28 0.52462 483.65 508.34 1.9601 422.56 0.0023665 370.62 375.88 1.5653 1.8457 3.4136 456.50 0.0099871 63.083 0.077425 52.535 0.019035 586.07 628.37 2.3178 1.8567 2.9492 191.88 0.23845 9.9281 0.026744
63.375 328.88 0.53963 488.66 513.86 1.9750 420.22 0.0023797 373.79 379.18 1.5748 1.8514 3.4483 448.97 0.010520 62.244 0.077012 53.879 0.018560 586.66 628.74 2.3164 1.8656 2.9989 190.92 0.23819 9.9979 0.027061
64.375 335.58 0.55523 493.71 519.42 1.9900 417.85 0.0023932 376.97 382.51 1.5844 1.8573 3.4850 441.40 0.011081 61.407 0.076600 55.265 0.018095 587.22 629.09 2.3149 1.8747 3.0517 189.95 0.23796 10.070 0.027389
65.375 342.38 0.57143 498.80 525.03 2.0050 415.42 0.0024072 380.18 385.86 1.5939 1.8633 3.5236 433.79 0.011672 60.570 0.076189 56.692 0.017639 587.76 629.40 2.3133 1.8839 3.1077 188.95 0.23775 10.144 0.027729
66.375 349.28 0.58828 503.93 530.69 2.0202 412.96 0.0024215 383.41 389.25 1.6036 1.8693 3.5645 426.12 0.012296 59.733 0.075779 58.165 0.017193 588.28 629.68 2.3117 1.8933 3.1674 187.93 0.23757 10.221 0.028080
67.375 356.28 0.60584 509.11 536.40 2.0354 410.45 0.0024363 386.67 392.65 1.6133 1.8755 3.6078 418.41 0.012956 58.897 0.075368 59.684 0.016755 588.76 629.92 2.3100 1.9030 3.2311 186.89 0.23740 10.300 0.028446
68.375 363.40 0.62415 514.33 542.17 2.0507 407.89 0.0024516 389.95 396.09 1.6230 1.8818 3.6537 410.64 0.013655 58.059 0.074959 61.253 0.016326 589.22 630.13 2.3082 1.9129 3.2994 185.83 0.23724 10.382 0.028825
69.375 370.61 0.64326 519.59 547.98 2.0661 405.28 0.0024674 393.26 399.57 1.6328 1.8882 3.7027 402.81 0.014396 57.221 0.074549 62.875 0.015905 589.65 630.29 2.3064 1.9231 3.3727 184.74 0.23710 10.467 0.029221
70.375 377.94 0.66325 524.90 553.85 2.0816 402.62 0.0024838 396.60 403.07 1.6426 1.8947 3.7550 394.92 0.015183 56.381 0.074141 64.552 0.015491 590.04 630.41 2.3044 1.9336 3.4518 183.63 0.23697 10.555 0.029633
71.375 385.37 0.68418 530.26 559.78 2.0971 399.89 0.0025007 399.96 406.61 1.6525 1.9014 3.8109 386.97 0.016021 55.540 0.073732 66.288 0.015086 590.40 630.49 2.3024 1.9444 3.5371 182.50 0.23684 10.647 0.030064
72.375 392.92 0.70614 535.67 565.77 2.1128 397.11 0.0025182 403.36 410.18 1.6625 1.9083 3.8711 378.95 0.016915 54.696 0.073324 68.087 0.014687 590.73 630.51 2.3002 1.9556 3.6297 181.34 0.23671 10.743 0.030515
73.375 400.57 0.72921 541.12 571.81 2.1286 394.26 0.0025364 406.79 413.80 1.6726 1.9153 3.9359 370.85 0.017871 53.848 0.072917 69.953 0.014295 591.01 630.49 2.2979 1.9673 3.7303 180.16 0.23658 10.842 0.030989
74.375 408.34 0.75349 546.63 577.92 2.1445 391.34 0.0025553 410.26 417.45 1.6827 1.9226 4.0060 362.67 0.018894 52.997 0.072510 71.890 0.013910 591.25 630.41 2.2955 1.9793 3.8401 178.95 0.23643 10.946 0.031488
75.375 416.23 0.77912 552.20 584.08 2.1604 388.34 0.0025751 413.76 421.15 1.6930 1.9301 4.0822 354.41 0.019993 52.142 0.072104 73.904 0.013531 591.44 630.27 2.2930 1.9919 3.9604 177.71 0.23627 11.054 0.032014
76.375 424.23 0.80623 557.82 590.31 2.1765 385.26 0.0025957 417.31 424.90 1.7033 1.9378 4.1654 346.06 0.021177 51.281 0.071699 76.001 0.013158 591.59 630.07 2.2903 2.0050 4.0927 176.44 0.23609 11.168 0.032570
77.375 432.35 0.83497 563.49 596.61 2.1928 382.09 0.0026172 420.89 428.70 1.7137 1.9459 4.2565 337.60 0.022455 50.414 0.071295 78.187 0.012790 591.68 629.80 2.2874 2.0186 4.2389 175.15 0.23588 11.287 0.033161
78.375 440.59 0.86554 569.23 602.98 2.2091 378.83 0.0026397 424.53 432.54 1.7243 1.9543 4.3570 329.05 0.023838 49.539 0.070893 80.469 0.012427 591.71 629.46 2.2844 2.0328 4.4012 173.82 0.23563 11.412 0.033789
79.375 448.95 0.89815 575.03 609.42 2.2256 375.46 0.0026634 428.21 436.45 1.7349 1.9631 4.4684 320.38 0.025341 48.657 0.070494 82.856 0.012069 591.68 629.04 2.2812 2.0475 4.5824 172.46 0.23535 11.544 0.034461
80.375 457.44 0.93307 580.89 615.94 2.2422 371.97 0.0026884 431.94 440.42 1.7457 1.9723 4.5928 311.58 0.026980 47.764 0.070099 85.359 0.011715 591.58 628.53 2.2778 2.0630 4.7859 171.07 0.23501 11.684 0.035181
81.375 466.05 0.97063 586.83 622.53 2.2590 368.36 0.0027147 435.74 444.46 1.7567 1.9820 4.7327 302.66 0.028773 46.860 0.069708 87.988 0.011365 591.40 627.92 2.2742 2.0791 5.0161 169.64 0.23461 11.832 0.035957
82.375 473.54 undefined 591.78 628.06 2.2729 90.000 0.011111 591.78 628.06 2.2729 2.0900 5.1617 168.84 0.23313 11.955 0.036538 90.000 0.011111 591.78 628.06 2.2729 2.0900 5.1617 168.84 0.23313 11.955 0.036538
83.375 477.65 undefined 593.87 630.46 2.2788 90.000 0.011111 593.87 630.46 2.2788 2.0852 5.0115 169.86 0.22900 11.988 0.036451 90.000 0.011111 593.87 630.46 2.2788 2.0852 5.0115 169.86 0.22900 11.988 0.036451
84.375 481.74 undefined 595.95 632.86 2.2846 90.000 0.011111 595.95 632.86 2.2846 2.0805 4.8755 170.87 0.22502 12.021 0.036383 90.000 0.011111 595.95 632.86 2.2846 2.0805 4.8755 170.87 0.22502 12.021 0.036383
85.375 485.80 undefined 598.03 635.25 2.2904 90.000 0.011111 598.03 635.25 2.2904 2.0760 4.7521 171.87 0.22118 12.054 0.036331 90.000 0.011111 598.03 635.25 2.2904 2.0760 4.7521 171.87 0.22118 12.054 0.036331
86.375 489.84 undefined 600.10 637.63 2.2962 90.000 0.011111 600.10 637.63 2.2962 2.0718 4.6398 172.88 0.21748 12.087 0.036295 90.000 0.011111 600.10 637.63 2.2962 2.0718 4.6398 172.88 0.21748 12.087 0.036295
87.375 493.86 undefined 602.17 640.01 2.3019 90.000 0.011111 602.17 640.01 2.3019 2.0679 4.5372 173.87 0.21390 12.120 0.036271 90.000 0.011111 602.17 640.01 2.3019 2.0679 4.5372 173.87 0.21390 12.120 0.036271
88.375 497.86 undefined 604.24 642.38 2.3077 90.000 0.011111 604.24 642.38 2.3077 2.0643 4.4432 174.87 0.21043 12.153 0.036259 90.000 0.011111 604.24 642.38 2.3077 2.0643 4.4432 174.87 0.21043 12.153 0.036259
89.375 501.84 undefined 606.30 644.75 2.3134 90.000 0.011111 606.30 644.75 2.3134 2.0611 4.3569 175.86 0.20707 12.186 0.036258 90.000 0.011111 606.30 644.75 2.3134 2.0611 4.3569 175.86 0.20707 12.186 0.036258
90.375 505.81 undefined 608.36 647.11 2.3190 90.000 0.011111 608.36 647.11 2.3190 2.0583 4.2774 176.84 0.20380 12.218 0.036267 90.000 0.011111 608.36 647.11 2.3190 2.0583 4.2774 176.84 0.20380 12.218 0.036267
91.375 509.75 undefined 610.42 649.47 2.3247 90.000 0.011111 610.42 649.47 2.3247 2.0559 4.2040 177.81 0.20063 12.251 0.036284 90.000 0.011111 610.42 649.47 2.3247 2.0559 4.2040 177.81 0.20063 12.251 0.036284
92.375 513.69 undefined 612.47 651.83 2.3303 90.000 0.011111 612.47 651.83 2.3303 2.0538 4.1361 178.78 0.19754 12.284 0.036309 90.000 0.011111 612.47 651.83 2.3303 2.0538 4.1361 178.78 0.19754 12.284 0.036309
93.375 517.61 undefined 614.53 654.18 2.3359 90.000 0.011111 614.53 654.18 2.3359 2.0520 4.0731 179.75 0.19453 12.317 0.036341 90.000 0.011111 614.53 654.18 2.3359 2.0520 4.0731 179.75 0.19453 12.317 0.036341
94.375 521.51 undefined 616.58 656.53 2.3415 90.000 0.011111 616.58 656.53 2.3415 2.0506 4.0145 180.71 0.19160 12.349 0.036380 90.000 0.011111 616.58 656.53 2.3415 2.0506 4.0145 180.71 0.19160 12.349 0.036380
95.375 525.40 undefined 618.63 658.88 2.3471 90.000 0.011111 618.63 658.88 2.3471 2.0495 3.9599 181.66 0.18875 12.382 0.036424 90.000 0.011111 618.63 658.88 2.3471 2.0495 3.9599 181.66 0.18875 12.382 0.036424
96.375 529.28 undefined 620.68 661.22 2.3526 90.000 0.011111 620.68 661.22 2.3526 2.0487 3.9088 182.60 0.18597 12.415 0.036475 90.000 0.011111 620.68 661.22 2.3526 2.0487 3.9088 182.60 0.18597 12.415 0.036475
97.375 533.14 undefined 622.72 663.57 2.3582 90.000 0.011111 622.72 663.57 2.3582 2.0481 3.8611 183.54 0.18325 12.448 0.036530 90.000 0.011111 622.72 663.57 2.3582 2.0481 3.8611 183.54 0.18325 12.448 0.036530
98.375 537.00 undefined 624.77 665.91 2.3637 90.000 0.011111 624.77 665.91 2.3637 2.0478 3.8163 184.48 0.18060 12.480 0.036590 90.000 0.011111 624.77 665.91 2.3637 2.0478 3.8163 184.48 0.18060 12.480 0.036590
99.375 540.84 undefined 626.82 668.25 2.3692 90.000 0.011111 626.82 668.25 2.3692 2.0478 3.7742 185.40 0.17801 12.512 0.036654 90.000 0.011111 626.82 668.25 2.3692 2.0478 3.7742 185.40 0.17801 12.512 0.036654
100.38 544.67 undefined 628.87 670.59 2.3747 90.000 0.011111 628.87 670.59 2.3747 2.0479 3.7345 186.33 0.17548 12.544 0.036722 90.000 0.011111 628.87 670.59 2.3747 2.0479 3.7345 186.33 0.17548 12.544 0.036722
101.38 548.50 undefined 630.92 672.94 2.3802 90.000 0.011111 630.92 672.94 2.3802 2.0482 3.6972 187.24 0.17301 12.577 0.036794 90.000 0.011111 630.92 672.94 2.3802 2.0482 3.6972 187.24 0.17301 12.577 0.036794
102.38 552.31 undefined 632.96 675.28 2.3856 90.000 0.011111 632.96 675.28 2.3856 2.0487 3.6619 188.15 0.17060 12.609 0.036869 90.000 0.011111 632.96 675.28 2.3856 2.0487 3.6619 188.15 0.17060 12.609 0.036869
103.38 556.11 undefined 635.01 677.62 2.3911 90.000 0.011111 635.01 677.62 2.3911 2.0494 3.6285 189.06 0.16824 12.641 0.036948 90.000 0.011111 635.01 677.62 2.3911 2.0494 3.6285 189.06 0.16824 12.641 0.036948
104.38 559.90 undefined 637.06 679.96 2.3965 90.000 0.011111 637.06 679.96 2.3965 2.0502 3.5970 189.96 0.16594 12.673 0.037030 90.000 0.011111 637.06 679.96 2.3965 2.0502 3.5970 189.96 0.16594 12.673 0.037030
105.38 563.69 undefined 639.11 682.30 2.4019 90.000 0.011111 639.11 682.30 2.4019 2.0512 3.5670 190.85 0.16368 12.705 0.037114 90.000 0.011111 639.11 682.30 2.4019 2.0512 3.5670 190.85 0.16368 12.705 0.037114
106.38 567.46 undefined 641.17 684.64 2.4073 90.000 0.011111 641.17 684.64 2.4073 2.0522 3.5386 191.74 0.16148 12.738 0.037201 90.000 0.011111 641.17 684.64 2.4073 2.0522 3.5386 191.74 0.16148 12.738 0.037201
107.38 571.23 undefined 643.22 686.98 2.4127 90.000 0.011111 643.22 686.98 2.4127 2.0534 3.5116 192.62 0.15932 12.770 0.037291 90.000 0.011111 643.22 686.98 2.4127 2.0534 3.5116 192.62 0.15932 12.770 0.037291
108.38 574.99 undefined 645.27 689.32 2.4181 90.000 0.011111 645.27 689.32 2.4181 2.0547 3.4860 193.50 0.15721 12.802 0.037383 90.000 0.011111 645.27 689.32 2.4181 2.0547 3.4860 193.50 0.15721 12.802 0.037383
109.38 578.74 undefined 647.33 691.66 2.4235 90.000 0.011111 647.33 691.66 2.4235 2.0561 3.4615 194.38 0.15514 12.834 0.037477 90.000 0.011111 647.33 691.66 2.4235 2.0561 3.4615 194.38 0.15514 12.834 0.037477
110.38 582.49 undefined 649.39 694.01 2.4289 90.000 0.011111 649.39 694.01 2.4289 2.0576 3.4383 195.25 0.15312 12.866 0.037574 90.000 0.011111 649.39 694.01 2.4289 2.0576 3.4383 195.25 0.15312 12.866 0.037574
111.38 586.23 undefined 651.44 696.35 2.4342 90.000 0.011111 651.44 696.35 2.4342 2.0592 3.4161 196.11 0.15113 12.898 0.037673 90.000 0.011111 651.44 696.35 2.4342 2.0592 3.4161 196.11 0.15113 12.898 0.037673
112.38 589.96 undefined 653.50 698.70 2.4396 90.000 0.011111 653.50 698.70 2.4396 2.0608 3.3950 196.98 0.14919 12.930 0.037773 90.000 0.011111 653.50 698.70 2.4396 2.0608 3.3950 196.98 0.14919 12.930 0.037773
113.38 593.68 undefined 655.57 701.05 2.4449 90.000 0.011111 655.57 701.05 2.4449 2.0626 3.3748 197.83 0.14729 12.961 0.037876 90.000 0.011111 655.57 701.05 2.4449 2.0626 3.3748 197.83 0.14729 12.961 0.037876
114.38 597.40 undefined 657.63 703.39 2.4503 90.000 0.011111 657.63 703.39 2.4503 2.0644 3.3555 198.68 0.14543 12.993 0.037980 90.000 0.011111 657.63 703.39 2.4503 2.0644 3.3555 198.68 0.14543 12.993 0.037980
115.38 601.11 undefined 659.69 705.74 2.4556 90.000 0.011111 659.69 705.74 2.4556 2.0663 3.3371 199.53 0.14360 13.025 0.038086 90.000 0.011111 659.69 705.74 2.4556 2.0663 3.3371 199.53 0.14360 13.025 0.038086
116.38 604.81 undefined 661.76 708.09 2.4609 90.000 0.011111 661.76 708.09 2.4609 2.0682 3.3194 200.38 0.14182 13.057 0.038193 90.000 0.011111 661.76 708.09 2.4609 2.0682 3.3194 200.38 0.14182 13.057 0.038193
117.38 608.51 undefined 663.83 710.45 2.4662 90.000 0.011111 663.83 710.45 2.4662 2.0703 3.3026 201.22 0.14006 13.088 0.038303 90.000 0.011111 663.83 710.45 2.4662 2.0703 3.3026 201.22 0.14006 13.088 0.038303
118.38 612.20 undefined 665.90 712.80 2.4715 90.000 0.011111 665.90 712.80 2.4715 2.0723 3.2864 202.05 0.13834 13.120 0.038413 90.000 0.011111 665.90 712.80 2.4715 2.0723 3.2864 202.05 0.13834 13.120 0.038413
119.38 615.88 undefined 667.98 715.16 2.4768 90.000 0.011111 667.98 715.16 2.4768 2.0745 3.2710 202.88 0.13665 13.152 0.038525 90.000 0.011111 667.98 715.16 2.4768 2.0745 3.2710 202.88 0.13665 13.152 0.038525
120.38 619.56 undefined 670.05 717.51 2.4821 90.000 0.011111 670.05 717.51 2.4821 2.0767 3.2562 203.71 0.13500 13.183 0.038639 90.000 0.011111 670.05 717.51 2.4821 2.0767 3.2562 203.71 0.13500 13.183 0.038639
121.38 623.24 undefined 672.13 719.87 2.4874 90.000 0.011111 672.13 719.87 2.4874 2.0789 3.2420 204.54 0.13338 13.215 0.038754 90.000 0.011111 672.13 719.87 2.4874 2.0789 3.2420 204.54 0.13338 13.215 0.038754
122.38 626.90 undefined 674.21 722.23 2.4926 90.000 0.011111 674.21 722.23 2.4926 2.0812 3.2284 205.36 0.13178 13.246 0.038870 90.000 0.011111 674.21 722.23 2.4926 2.0812 3.2284 205.36 0.13178 13.246 0.038870
123.38 630.57 undefined 676.29 724.60 2.4979 90.000 0.011111 676.29 724.60 2.4979 2.0836 3.2153 206.17 0.13022 13.278 0.038987 90.000 0.011111 676.29 724.60 2.4979 2.0836 3.2153 206.17 0.13022 13.278 0.038987
124.38 634.22 undefined 678.38 726.96 2.5031 90.000 0.011111 678.38 726.96 2.5031 2.0859 3.2028 206.99 0.12869 13.309 0.039106 90.000 0.011111 678.38 726.96 2.5031 2.0859 3.2028 206.99 0.12869 13.309 0.039106
125.38 637.88 undefined 680.46 729.33 2.5084 90.000 0.011111 680.46 729.33 2.5084 2.0884 3.1908 207.79 0.12718 13.341 0.039226 90.000 0.011111 680.46 729.33 2.5084 2.0884 3.1908 207.79 0.12718 13.341 0.039226
126.38 641.52 undefined 682.55 731.70 2.5136 90.000 0.011111 682.55 731.70 2.5136 2.0908 3.1792 208.60 0.12570 13.372 0.039346 90.000 0.011111 682.55 731.70 2.5136 2.0908 3.1792 208.60 0.12570 13.372 0.039346
127.38 645.17 undefined 684.64 734.07 2.5188 90.000 0.011111 684.64 734.07 2.5188 2.0933 3.1681 209.40 0.12425 13.403 0.039468 90.000 0.011111 684.64 734.07 2.5188 2.0933 3.1681 209.40 0.12425 13.403 0.039468
128.38 648.80 undefined 686.74 736.44 2.5241 90.000 0.011111 686.74 736.44 2.5241 2.0959 3.1575 210.20 0.12282 13.434 0.039591 90.000 0.011111 686.74 736.44 2.5241 2.0959 3.1575 210.20 0.12282 13.434 0.039591
129.38 652.44 undefined 688.84 738.82 2.5293 90.000 0.011111 688.84 738.82 2.5293 2.0985 3.1473 211.00 0.12142 13.466 0.039716 90.000 0.011111 688.84 738.82 2.5293 2.0985 3.1473 211.00 0.12142 13.466 0.039716
130.38 656.06 undefined 690.94 741.20 2.5345 90.000 0.011111 690.94 741.20 2.5345 2.1011 3.1374 211.79 0.12004 13.497 0.039841 90.000 0.011111 690.94 741.20 2.5345 2.1011 3.1374 211.79 0.12004 13.497 0.039841
131.38 659.69 undefined 693.04 743.58 2.5397 90.000 0.011111 693.04 743.58 2.5397 2.1037 3.1280 212.58 0.11869 13.528 0.039967 90.000 0.011111 693.04 743.58 2.5397 2.1037 3.1280 212.58 0.11869 13.528 0.039967
132.38 663.31 undefined 695.14 745.96 2.5449 90.000 0.011111 695.14 745.96 2.5449 2.1064 3.1189 213.36 0.11736 13.559 0.040094 90.000 0.011111 695.14 745.96 2.5449 2.1064 3.1189 213.36 0.11736 13.559 0.040094
133.38 666.92 undefined 697.25 748.34 2.5501 90.000 0.011111 697.25 748.34 2.5501 2.1091 3.1102 214.14 0.11605 13.590 0.040221 90.000 0.011111 697.25 748.34 2.5501 2.1091 3.1102 214.14 0.11605 13.590 0.040221
134.38 670.53 undefined 699.36 750.73 2.5553 90.000 0.011111 699.36 750.73 2.5553 2.1119 3.1018 214.92 0.11477 13.621 0.040350 90.000 0.011111 699.36 750.73 2.5553 2.1119 3.1018 214.92 0.11477 13.621 0.040350
135.38 674.14 undefined 701.48 753.12 2.5604 90.000 0.011111 701.48 753.12 2.5604 2.1146 3.0937 215.70 0.11351 13.652 0.040480 90.000 0.011111 701.48 753.12 2.5604 2.1146 3.0937 215.70 0.11351 13.652 0.040480
136.38 677.74 undefined 703.59 755.51 2.5656 90.000 0.011111 703.59 755.51 2.5656 2.1174 3.0860 216.47 0.11226 13.683 0.040610 90.000 0.011111 703.59 755.51 2.5656 2.1174 3.0860 216.47 0.11226 13.683 0.040610
137.38 681.34 undefined 705.71 757.91 2.5708 90.000 0.011111 705.71 757.91 2.5708 2.1202 3.0785 217.24 0.11104 13.714 0.040742 90.000 0.011111 705.71 757.91 2.5708 2.1202 3.0785 217.24 0.11104 13.714 0.040742
138.38 684.93 undefined 707.83 760.30 2.5759 90.000 0.011111 707.83 760.30 2.5759 2.1231 3.0713 218.01 0.10984 13.745 0.040874 90.000 0.011111 707.83 760.30 2.5759 2.1231 3.0713 218.01 0.10984 13.745 0.040874
139.38 688.52 undefined 709.96 762.70 2.5811 90.000 0.011111 709.96 762.70 2.5811 2.1259 3.0644 218.77 0.10866 13.776 0.041007 90.000 0.011111 709.96 762.70 2.5811 2.1259 3.0644 218.77 0.10866 13.776 0.041007
140.38 692.10 undefined 712.08 765.10 2.5863 90.000 0.011111 712.08 765.10 2.5863 2.1288 3.0578 219.53 0.10750 13.807 0.041140 90.000 0.011111 712.08 765.10 2.5863 2.1288 3.0578 219.53 0.10750 13.807 0.041140
141.38 695.69 undefined 714.21 767.51 2.5914 90.000 0.011111 714.21 767.51 2.5914 2.1317 3.0514 220.29 0.10636 13.837 0.041275 90.000 0.011111 714.21 767.51 2.5914 2.1317 3.0514 220.29 0.10636 13.837 0.041275
142.38 699.26 undefined 716.35 769.92 2.5965 90.000 0.011111 716.35 769.92 2.5965 2.1346 3.0453 221.04 0.10523 13.868 0.041410 90.000 0.011111 716.35 769.92 2.5965 2.1346 3.0453 221.04 0.10523 13.868 0.041410
143.38 702.84 undefined 718.48 772.33 2.6017 90.000 0.011111 718.48 772.33 2.6017 2.1376 3.0394 221.79 0.10412 13.899 0.041546 90.000 0.011111 718.48 772.33 2.6017 2.1376 3.0394 221.79 0.10412 13.899 0.041546
144.38 706.41 undefined 720.62 774.74 2.6068 90.000 0.011111 720.62 774.74 2.6068 2.1405 3.0337 222.54 0.10304 13.930 0.041682 90.000 0.011111 720.62 774.74 2.6068 2.1405 3.0337 222.54 0.10304 13.930 0.041682
145.38 709.98 undefined 722.76 777.15 2.6119 90.000 0.011111 722.76 777.15 2.6119 2.1435 3.0283 223.29 0.10196 13.960 0.041819 90.000 0.011111 722.76 777.15 2.6119 2.1435 3.0283 223.29 0.10196 13.960 0.041819
146.38 713.54 undefined 724.91 779.57 2.6170 90.000 0.011111 724.91 779.57 2.6170 2.1465 3.0230 224.03 0.10091 13.991 0.041957 90.000 0.011111 724.91 779.57 2.6170 2.1465 3.0230 224.03 0.10091 13.991 0.041957
147.38 717.10 undefined 727.06 781.99 2.6222 90.000 0.011111 727.06 781.99 2.6222 2.1495 3.0180 224.77 0.099870 14.021 0.042096 90.000 0.011111 727.06 781.99 2.6222 2.1495 3.0180 224.77 0.099870 14.021 0.042096
148.38 720.66 undefined 729.21 784.42 2.6273 90.000 0.011111 729.21 784.42 2.6273 2.1526 3.0131 225.51 0.098848 14.052 0.042235 90.000 0.011111 729.21 784.42 2.6273 2.1526 3.0131 225.51 0.098848 14.052 0.042235
149.38 724.21 undefined 731.36 786.84 2.6324 90.000 0.011111 731.36 786.84 2.6324 2.1556 3.0085 226.24 0.097841 14.082 0.042375 90.000 0.011111 731.36 786.84 2.6324 2.1556 3.0085 226.24 0.097841 14.082 0.042375
150.38 727.76 undefined 733.52 789.27 2.6375 90.000 0.011111 733.52 789.27 2.6375 2.1587 3.0040 226.98 0.096849 14.113 0.042516 90.000 0.011111 733.52 789.27 2.6375 2.1587 3.0040 226.98 0.096849 14.113 0.042516
151.38 731.31 undefined 735.68 791.70 2.6426 90.000 0.011111 735.68 791.70 2.6426 2.1617 2.9997 227.71 0.095873 14.143 0.042657 90.000 0.011111 735.68 791.70 2.6426 2.1617 2.9997 227.71 0.095873 14.143 0.042657
152.38 734.85 undefined 737.84 794.14 2.6477 90.000 0.011111 737.84 794.14 2.6477 2.1648 2.9956 228.43 0.094911 14.174 0.042798 90.000 0.011111 737.84 794.14 2.6477 2.1648 2.9956 228.43 0.094911 14.174 0.042798
153.38 738.39 undefined 740.01 796.58 2.6527 90.000 0.011111 740.01 796.58 2.6527 2.1679 2.9917 229.16 0.093964 14.204 0.042941 90.000 0.011111 740.01 796.58 2.6527 2.1679 2.9917 229.16 0.093964 14.204 0.042941
154.38 741.93 undefined 742.18 799.02 2.6578 90.000 0.011111 742.18 799.02 2.6578 2.1710 2.9879 229.88 0.093031 14.234 0.043084 90.000 0.011111 742.18 799.02 2.6578 2.1710 2.9879 229.88 0.093031 14.234 0.043084
155.38 745.46 undefined 744.35 801.46 2.6629 90.000 0.011111 744.35 801.46 2.6629 2.1742 2.9843 230.60 0.092111 14.264 0.043227 90.000 0.011111 744.35 801.46 2.6629 2.1742 2.9843 230.60 0.092111 14.264 0.043227
156.38 748.99 undefined 746.53 803.91 2.6680 90.000 0.011111 746.53 803.91 2.6680 2.1773 2.9808 231.32 0.091206 14.295 0.043371 90.000 0.011111 746.53 803.91 2.6680 2.1773 2.9808 231.32 0.091206 14.295 0.043371
157.38 752.52 undefined 748.71 806.36 2.6730 90.000 0.011111 748.71 806.36 2.6730 2.1805 2.9775 232.03 0.090313 14.325 0.043516 90.000 0.011111 748.71 806.36 2.6730 2.1805 2.9775 232.03 0.090313 14.325 0.043516
158.38 756.05 undefined 750.89 808.81 2.6781 90.000 0.011111 750.89 808.81 2.6781 2.1836 2.9743 232.74 0.089434 14.355 0.043661 90.000 0.011111 750.89 808.81 2.6781 2.1836 2.9743 232.74 0.089434 14.355 0.043661
159.38 759.57 undefined 753.07 811.26 2.6832 90.000 0.011111 753.07 811.26 2.6832 2.1868 2.9712 233.45 0.088567 14.385 0.043807 90.000 0.011111 753.07 811.26 2.6832 2.1868 2.9712 233.45 0.088567 14.385 0.043807
160.38 763.09 undefined 755.26 813.72 2.6882 90.000 0.011111 755.26 813.72 2.6882 2.1900 2.9683 234.16 0.087713 14.415 0.043953 90.000 0.011111 755.26 813.72 2.6882 2.1900 2.9683 234.16 0.087713 14.415 0.043953
161.38 766.60 undefined 757.45 816.18 2.6933 90.000 0.011111 757.45 816.18 2.6933 2.1932 2.9656 234.86 0.086871 14.445 0.044100 90.000 0.011111 757.45 816.18 2.6933 2.1932 2.9656 234.86 0.086871 14.445 0.044100
162.38 770.12 undefined 759.65 818.65 2.6983 90.000 0.011111 759.65 818.65 2.6983 2.1964 2.9629 235.57 0.086042 14.475 0.044247 90.000 0.011111 759.65 818.65 2.6983 2.1964 2.9629 235.57 0.086042 14.475 0.044247
163.38 773.63 undefined 761.85 821.11 2.7033 90.000 0.011111 761.85 821.11 2.7033 2.1996 2.9604 236.27 0.085223 14.505 0.044395 90.000 0.011111 761.85 821.11 2.7033 2.1996 2.9604 236.27 0.085223 14.505 0.044395
164.38 777.14 undefined 764.05 823.58 2.7084 90.000 0.011111 764.05 823.58 2.7084 2.2028 2.9580 236.97 0.084417 14.535 0.044543 90.000 0.011111 764.05 823.58 2.7084 2.2028 2.9580 236.97 0.084417 14.535 0.044543
165.38 780.64 undefined 766.25 826.06 2.7134 90.000 0.011111 766.25 826.06 2.7134 2.2061 2.9557 237.66 0.083622 14.565 0.044692 90.000 0.011111 766.25 826.06 2.7134 2.2061 2.9557 237.66 0.083622 14.565 0.044692
166.38 784.14 undefined 768.46 828.53 2.7184 90.000 0.011111 768.46 828.53 2.7184 2.2093 2.9535 238.35 0.082838 14.595 0.044841 90.000 0.011111 768.46 828.53 2.7184 2.2093 2.9535 238.35 0.082838 14.595 0.044841
167.38 787.64 undefined 770.67 831.01 2.7235 90.000 0.011111 770.67 831.01 2.7235 2.2126 2.9514 239.05 0.082064 14.625 0.044991 90.000 0.011111 770.67 831.01 2.7235 2.2126 2.9514 239.05 0.082064 14.625 0.044991
168.38 791.14 undefined 772.88 833.49 2.7285 90.000 0.011111 772.88 833.49 2.7285 2.2158 2.9494 239.73 0.081302 14.655 0.045141 90.000 0.011111 772.88 833.49 2.7285 2.2158 2.9494 239.73 0.081302 14.655 0.045141
169.38 794.64 undefined 775.10 835.98 2.7335 90.000 0.011111 775.10 835.98 2.7335 2.2191 2.9476 240.42 0.080550 14.684 0.045292 90.000 0.011111 775.10 835.98 2.7335 2.2191 2.9476 240.42 0.080550 14.684 0.045292
170.38 798.13 undefined 777.32 838.47 2.7385 90.000 0.011111 777.32 838.47 2.7385 2.2224 2.9458 241.11 0.079808 14.714 0.045443 90.000 0.011111 777.32 838.47 2.7385 2.2224 2.9458 241.11 0.079808 14.714 0.045443
171.38 801.62 undefined 779.55 840.96 2.7435 90.000 0.011111 779.55 840.96 2.7435 2.2256 2.9442 241.79 0.079077 14.744 0.045595 90.000 0.011111 779.55 840.96 2.7435 2.2256 2.9442 241.79 0.079077 14.744 0.045595
172.38 805.11 undefined 781.77 843.45 2.7485 90.000 0.011111 781.77 843.45 2.7485 2.2289 2.9426 242.47 0.078355 14.773 0.045747 90.000 0.011111 781.77 843.45 2.7485 2.2289 2.9426 242.47 0.078355 14.773 0.045747
173.38 808.59 undefined 784.00 845.95 2.7535 90.000 0.011111 784.00 845.95 2.7535 2.2322 2.9411 243.15 0.077643 14.803 0.045900 90.000 0.011111 784.00 845.95 2.7535 2.2322 2.9411 243.15 0.077643 14.803 0.045900
174.38 812.08 undefined 786.24 848.45 2.7585 90.000 0.011111 786.24 848.45 2.7585 2.2355 2.9397 243.82 0.076940 14.833 0.046053 90.000 0.011111 786.24 848.45 2.7585 2.2355 2.9397 243.82 0.076940 14.833 0.046053
175.38 815.56 undefined 788.48 850.95 2.7635 90.000 0.011111 788.48 850.95 2.7635 2.2388 2.9384 244.50 0.076247 14.862 0.046206 90.000 0.011111 788.48 850.95 2.7635 2.2388 2.9384 244.50 0.076247 14.862 0.046206
176.38 819.03 undefined 790.72 853.46 2.7685 90.000 0.011111 790.72 853.46 2.7685 2.2421 2.9372 245.17 0.075564 14.892 0.046360 90.000 0.011111 790.72 853.46 2.7685 2.2421 2.9372 245.17 0.075564 14.892 0.046360
177.38 822.51 undefined 792.96 855.97 2.7735 90.000 0.011111 792.96 855.97 2.7735 2.2455 2.9361 245.84 0.074889 14.921 0.046515 90.000 0.011111 792.96 855.97 2.7735 2.2455 2.9361 245.84 0.074889 14.921 0.046515
178.38 825.98 undefined 795.21 858.48 2.7785 90.000 0.011111 795.21 858.48 2.7785 2.2488 2.9351 246.51 0.074223 14.951 0.046669 90.000 0.011111 795.21 858.48 2.7785 2.2488 2.9351 246.51 0.074223 14.951 0.046669
179.38 829.45 undefined 797.46 861.00 2.7835 90.000 0.011111 797.46 861.00 2.7835 2.2521 2.9341 247.17 0.073566 14.980 0.046825 90.000 0.011111 797.46 861.00 2.7835 2.2521 2.9341 247.17 0.073566 14.980 0.046825
180.38 832.92 undefined 799.71 863.52 2.7884 90.000 0.011111 799.71 863.52 2.7884 2.2555 2.9332 247.84 0.072917 15.010 0.046980 90.000 0.011111 799.71 863.52 2.7884 2.2555 2.9332 247.84 0.072917 15.010 0.046980
181.38 836.39 undefined 801.97 866.04 2.7934 90.000 0.011111 801.97 866.04 2.7934 2.2588 2.9324 248.50 0.072277 15.039 0.047136 90.000 0.011111 801.97 866.04 2.7934 2.2588 2.9324 248.50 0.072277 15.039 0.047136
182.38 839.85 undefined 804.23 868.57 2.7984 90.000 0.011111 804.23 868.57 2.7984 2.2622 2.9317 249.16 0.071645 15.068 0.047293 90.000 0.011111 804.23 868.57 2.7984 2.2622 2.9317 249.16 0.071645 15.068 0.047293
183.38 843.32 undefined 806.49 871.10 2.8033 90.000 0.011111 806.49 871.10 2.8033 2.2655 2.9310 249.82 0.071021 15.098 0.047450 90.000 0.011111 806.49 871.10 2.8033 2.2655 2.9310 249.82 0.071021 15.098 0.047450
184.38 846.78 undefined 808.76 873.63 2.8083 90.000 0.011111 808.76 873.63 2.8083 2.2689 2.9304 250.47 0.070405 15.127 0.047607 90.000 0.011111 808.76 873.63 2.8083 2.2689 2.9304 250.47 0.070405 15.127 0.047607
185.38 850.24 undefined 811.03 876.17 2.8133 90.000 0.011111 811.03 876.17 2.8133 2.2722 2.9299 251.13 0.069797 15.156 0.047765 90.000 0.011111 811.03 876.17 2.8133 2.2722 2.9299 251.13 0.069797 15.156 0.047765
186.38 853.69 undefined 813.30 878.70 2.8182 90.000 0.011111 813.30 878.70 2.8182 2.2756 2.9294 251.78 0.069197 15.185 0.047923 90.000 0.011111 813.30 878.70 2.8182 2.2756 2.9294 251.78 0.069197 15.185 0.047923
187.38 857.15 undefined 815.58 881.25 2.8232 90.000 0.011111 815.58 881.25 2.8232 2.2790 2.9290 252.43 0.068604 15.214 0.048082 90.000 0.011111 815.58 881.25 2.8232 2.2790 2.9290 252.43 0.068604 15.214 0.048082
188.38 860.60 undefined 817.86 883.79 2.8281 90.000 0.011111 817.86 883.79 2.8281 2.2824 2.9287 253.08 0.068019 15.243 0.048241 90.000 0.011111 817.86 883.79 2.8281 2.2824 2.9287 253.08 0.068019 15.243 0.048241
189.38 864.05 undefined 820.15 886.34 2.8330 90.000 0.011111 820.15 886.34 2.8330 2.2857 2.9284 253.73 0.067441 15.273 0.048400 90.000 0.011111 820.15 886.34 2.8330 2.2857 2.9284 253.73 0.067441 15.273 0.048400
190.38 867.50 undefined 822.43 888.89 2.8380 90.000 0.011111 822.43 888.89 2.8380 2.2891 2.9282 254.37 0.066870 15.302 0.048560 90.000 0.011111 822.43 888.89 2.8380 2.2891 2.9282 254.37 0.066870 15.302 0.048560
191.38 870.94 undefined 824.72 891.45 2.8429 90.000 0.011111 824.72 891.45 2.8429 2.2925 2.9281 255.02 0.066306 15.331 0.048720 90.000 0.011111 824.72 891.45 2.8429 2.2925 2.9281 255.02 0.066306 15.331 0.048720
192.38 874.39 undefined 827.02 894.00 2.8479 90.000 0.011111 827.02 894.00 2.8479 2.2959 2.9280 255.66 0.065750 15.360 0.048880 90.000 0.011111 827.02 894.00 2.8479 2.2959 2.9280 255.66 0.065750 15.360 0.048880
193.38 877.83 undefined 829.32 896.57 2.8528 90.000 0.011111 829.32 896.57 2.8528 2.2993 2.9279 256.30 0.065200 15.389 0.049041 90.000 0.011111 829.32 896.57 2.8528 2.2993 2.9279 256.30 0.065200 15.389 0.049041
194.38 881.27 undefined 831.62 899.13 2.8577 90.000 0.011111 831.62 899.13 2.8577 2.3027 2.9280 256.94 0.064657 15.417 0.049203 90.000 0.011111 831.62 899.13 2.8577 2.3027 2.9280 256.94 0.064657 15.417 0.049203
195.38 884.71 undefined 833.92 901.70 2.8626 90.000 0.011111 833.92 901.70 2.8626 2.3061 2.9281 257.57 0.064120 15.446 0.049364 90.000 0.011111 833.92 901.70 2.8626 2.3061 2.9281 257.57 0.064120 15.446 0.049364
196.38 888.15 undefined 836.23 904.27 2.8676 90.000 0.011111 836.23 904.27 2.8676 2.3095 2.9282 258.21 0.063590 15.475 0.049526 90.000 0.011111 836.23 904.27 2.8676 2.3095 2.9282 258.21 0.063590 15.475 0.049526
197.38 891.58 undefined 838.54 906.84 2.8725 90.000 0.011111 838.54 906.84 2.8725 2.3129 2.9284 258.84 0.063066 15.504 0.049689 90.000 0.011111 838.54 906.84 2.8725 2.3129 2.9284 258.84 0.063066 15.504 0.049689
198.38 895.02 undefined 840.86 909.42 2.8774 90.000 0.011111 840.86 909.42 2.8774 2.3163 2.9286 259.47 0.062549 15.533 0.049851 90.000 0.011111 840.86 909.42 2.8774 2.3163 2.9286 259.47 0.062549 15.533 0.049851
199.38 898.45 undefined 843.17 912.00 2.8823 90.000 0.011111 843.17 912.00 2.8823 2.3198 2.9289 260.10 0.062038 15.562 0.050015 90.000 0.011111 843.17 912.00 2.8823 2.3198 2.9289 260.10 0.062038 15.562 0.050015
200.38 901.88 undefined 845.49 914.59 2.8872 90.000 0.011111 845.49 914.59 2.8872 2.3232 2.9292 260.73 0.061533 15.590 0.050178 90.000 0.011111 845.49 914.59 2.8872 2.3232 2.9292 260.73 0.061533 15.590 0.050178
201.38 905.30 undefined 847.82 917.17 2.8921 90.000 0.011111 847.82 917.17 2.8921 2.3266 2.9296 261.36 0.061034 15.619 0.050342 90.000 0.011111 847.82 917.17 2.8921 2.3266 2.9296 261.36 0.061034 15.619 0.050342
202.38 908.73 undefined 850.15 919.76 2.8970 90.000 0.011111 850.15 919.76 2.8970 2.3300 2.9300 261.98 0.060541 15.648 0.050506 90.000 0.011111 850.15 919.76 2.8970 2.3300 2.9300 261.98 0.060541 15.648 0.050506
203.38 912.16 undefined 852.48 922.36 2.9019 90.000 0.011111 852.48 922.36 2.9019 2.3334 2.9305 262.60 0.060053 15.676 0.050671 90.000 0.011111 852.48 922.36 2.9019 2.3334 2.9305 262.60 0.060053 15.676 0.050671
204.38 915.58 undefined 854.81 924.96 2.9068 90.000 0.011111 854.81 924.96 2.9068 2.3369 2.9310 263.23 0.059572 15.705 0.050836 90.000 0.011111 854.81 924.96 2.9068 2.3369 2.9310 263.23 0.059572 15.705 0.050836
205.38 919.00 undefined 857.15 927.56 2.9117 90.000 0.011111 857.15 927.56 2.9117 2.3403 2.9316 263.85 0.059096 15.733 0.051001 90.000 0.011111 857.15 927.56 2.9117 2.3403 2.9316 263.85 0.059096 15.733 0.051001
206.38 922.42 undefined 859.50 930.16 2.9166 90.000 0.011111 859.50 930.16 2.9166 2.3437 2.9322 264.46 0.058625 15.762 0.051167 90.000 0.011111 859.50 930.16 2.9166 2.3437 2.9322 264.46 0.058625 15.762 0.051167
207.38 925.84 undefined 861.84 932.77 2.9215 90.000 0.011111 861.84 932.77 2.9215 2.3472 2.9328 265.08 0.058160 15.790 0.051333 90.000 0.011111 861.84 932.77 2.9215 2.3472 2.9328 265.08 0.058160 15.790 0.051333
208.38 929.25 undefined 864.19 935.38 2.9264 90.000 0.011111 864.19 935.38 2.9264 2.3506 2.9335 265.70 0.057701 15.819 0.051499 90.000 0.011111 864.19 935.38 2.9264 2.3506 2.9335 265.70 0.057701 15.819 0.051499
209.38 932.67 undefined 866.54 937.99 2.9312 90.000 0.011111 866.54 937.99 2.9312 2.3540 2.9342 266.31 0.057246 15.847 0.051666 90.000 0.011111 866.54 937.99 2.9312 2.3540 2.9342 266.31 0.057246 15.847 0.051666
210.38 936.08 undefined 868.90 940.61 2.9361 90.000 0.011111 868.90 940.61 2.9361 2.3575 2.9350 266.92 0.056797 15.876 0.051833 90.000 0.011111 868.90 940.61 2.9361 2.3575 2.9350 266.92 0.056797 15.876 0.051833
211.38 939.49 undefined 871.26 943.23 2.9410 90.000 0.011111 871.26 943.23 2.9410 2.3609 2.9358 267.53 0.056353 15.904 0.052001 90.000 0.011111 871.26 943.23 2.9410 2.3609 2.9358 267.53 0.056353 15.904 0.052001
212.38 942.91 undefined 873.62 945.85 2.9459 90.000 0.011111 873.62 945.85 2.9459 2.3644 2.9366 268.14 0.055914 15.932 0.052168 90.000 0.011111 873.62 945.85 2.9459 2.3644 2.9366 268.14 0.055914 15.932 0.052168
213.38 946.31 undefined 875.99 948.48 2.9507 90.000 0.011111 875.99 948.48 2.9507 2.3678 2.9375 268.75 0.055480 15.961 0.052337 90.000 0.011111 875.99 948.48 2.9507 2.3678 2.9375 268.75 0.055480 15.961 0.052337
214.38 949.72 undefined 878.36 951.11 2.9556 90.000 0.011111 878.36 951.11 2.9556 2.3713 2.9384 269.35 0.055051 15.989 0.052505 90.000 0.011111 878.36 951.11 2.9556 2.3713 2.9384 269.35 0.055051 15.989 0.052505
215.38 953.13 undefined 880.73 953.75 2.9605 90.000 0.011111 880.73 953.75 2.9605 2.3747 2.9393 269.96 0.054627 16.017 0.052674 90.000 0.011111 880.73 953.75 2.9605 2.3747 2.9393 269.96 0.054627 16.017 0.052674
216.38 956.53 undefined 883.10 956.38 2.9653 90.000 0.011111 883.10 956.38 2.9653 2.3782 2.9403 270.56 0.054207 16.045 0.052843 90.000 0.011111 883.10 956.38 2.9653 2.3782 2.9403 270.56 0.054207 16.045 0.052843
217.38 959.93 undefined 885.48 959.02 2.9702 90.000 0.011111 885.48 959.02 2.9702 2.3816 2.9413 271.16 0.053792 16.074 0.053012 90.000 0.011111 885.48 959.02 2.9702 2.3816 2.9413 271.16 0.053792 16.074 0.053012
218.38 963.34 undefined 887.87 961.67 2.9750 90.000 0.011111 887.87 961.67 2.9750 2.3851 2.9424 271.76 0.053382 16.102 0.053182 90.000 0.011111 887.87 961.67 2.9750 2.3851 2.9424 271.76 0.053382 16.102 0.053182
219.38 966.74 undefined 890.25 964.31 2.9799 90.000 0.011111 890.25 964.31 2.9799 2.3885 2.9434 272.36 0.052976 16.130 0.053352 90.000 0.011111 890.25 964.31 2.9799 2.3885 2.9434 272.36 0.052976 16.130 0.053352
220.38 970.13 undefined 892.65 966.97 2.9847 90.000 0.011111 892.65 966.97 2.9847 2.3920 2.9445 272.96 0.052575 16.158 0.053523 90.000 0.011111 892.65 966.97 2.9847 2.3920 2.9445 272.96 0.052575 16.158 0.053523
221.38 973.53 undefined 895.04 969.62 2.9896 90.000 0.011111 895.04 969.62 2.9896 2.3954 2.9457 273.56 0.052178 16.186 0.053694 90.000 0.011111 895.04 969.62 2.9896 2.3954 2.9457 273.56 0.052178 16.186 0.053694
222.38 976.93 undefined 897.44 972.28 2.9944 90.000 0.011111 897.44 972.28 2.9944 2.3989 2.9469 274.15 0.051785 16.214 0.053865 90.000 0.011111 897.44 972.28 2.9944 2.3989 2.9469 274.15 0.051785 16.214 0.053865
223.38 980.32 undefined 899.84 974.94 2.9993 90.000 0.011111 899.84 974.94 2.9993 2.4023 2.9480 274.74 0.051397 16.242 0.054036 90.000 0.011111 899.84 974.94 2.9993 2.4023 2.9480 274.74 0.051397 16.242 0.054036
224.38 983.72 undefined 902.24 977.60 3.0041 90.000 0.011111 902.24 977.60 3.0041 2.4058 2.9493 275.33 0.051013 16.270 0.054208 90.000 0.011111 902.24 977.60 3.0041 2.4058 2.9493 275.33 0.051013 16.270 0.054208
225.38 987.11 undefined 904.65 980.27 3.0089 90.000 0.011111 904.65 980.27 3.0089 2.4093 2.9505 275.93 0.050633 16.298 0.054380 90.000 0.011111 904.65 980.27 3.0089 2.4093 2.9505 275.93 0.050633 16.298 0.054380
226.38 990.50 undefined 907.06 982.94 3.0138 90.000 0.011111 907.06 982.94 3.0138 2.4127 2.9518 276.51 0.050257 16.326 0.054552 90.000 0.011111 907.06 982.94 3.0138 2.4127 2.9518 276.51 0.050257 16.326 0.054552
227.38 993.89 undefined 909.47 985.61 3.0186 90.000 0.011111 909.47 985.61 3.0186 2.4162 2.9531 277.10 0.049885 16.354 0.054725 90.000 0.011111 909.47 985.61 3.0186 2.4162 2.9531 277.10 0.049885 16.354 0.054725
228.38 997.28 undefined 911.89 988.29 3.0234 90.000 0.011111 911.89 988.29 3.0234 2.4196 2.9545 277.69 0.049517 16.381 0.054898 90.000 0.011111 911.89 988.29 3.0234 2.4196 2.9545 277.69 0.049517 16.381 0.054898
229.38 1000.7 undefined 914.31 990.97 3.0282 90.000 0.011111 914.31 990.97 3.0282 2.4231 2.9558 278.27 0.049153 16.409 0.055071 90.000 0.011111 914.31 990.97 3.0282 2.4231 2.9558 278.27 0.049153 16.409 0.055071
230.38 1004.0 undefined 916.74 993.66 3.0331 90.000 0.011111 916.74 993.66 3.0331 2.4265 2.9572 278.86 0.048793 16.437 0.055245 90.000 0.011111 916.74 993.66 3.0331 2.4265 2.9572 278.86 0.048793 16.437 0.055245
231.38 1007.4 undefined 919.17 996.34 3.0379 90.000 0.011111 919.17 996.34 3.0379 2.4300 2.9586 279.44 0.048437 16.465 0.055419 90.000 0.011111 919.17 996.34 3.0379 2.4300 2.9586 279.44 0.048437 16.465 0.055419
232.38 1010.8 undefined 921.60 999.03 3.0427 90.000 0.011111 921.60 999.03 3.0427 2.4335 2.9601 280.02 0.048084 16.492 0.055593 90.000 0.011111 921.60 999.03 3.0427 2.4335 2.9601 280.02 0.048084 16.492 0.055593
233.38 1014.2 undefined 924.03 1001.7 3.0475 90.000 0.011111 924.03 1001.7 3.0475 2.4369 2.9615 280.60 0.047735 16.520 0.055768 90.000 0.011111 924.03 1001.7 3.0475 2.4369 2.9615 280.60 0.047735 16.520 0.055768
234.38 1017.6 undefined 926.47 1004.4 3.0523 90.000 0.011111 926.47 1004.4 3.0523 2.4404 2.9630 281.18 0.047390 16.548 0.055943 90.000 0.011111 926.47 1004.4 3.0523 2.4404 2.9630 281.18 0.047390 16.548 0.055943
235.38 1021.0 undefined 928.91 1007.1 3.0571 90.000 0.011111 928.91 1007.1 3.0571 2.4438 2.9645 281.75 0.047049 16.575 0.056118 90.000 0.011111 928.91 1007.1 3.0571 2.4438 2.9645 281.75 0.047049 16.575 0.056118
236.38 1024.3 undefined 931.36 1009.8 3.0619 90.000 0.011111 931.36 1009.8 3.0619 2.4473 2.9660 282.33 0.046711 16.603 0.056293 90.000 0.011111 931.36 1009.8 3.0619 2.4473 2.9660 282.33 0.046711 16.603 0.056293
237.38 1027.7 undefined 933.81 1012.5 3.0667 90.000 0.011111 933.81 1012.5 3.0667 2.4507 2.9676 282.90 0.046376 16.630 0.056469 90.000 0.011111 933.81 1012.5 3.0667 2.4507 2.9676 282.90 0.046376 16.630 0.056469
238.38 1031.1 undefined 936.26 1015.3 3.0715 90.000 0.011111 936.26 1015.3 3.0715 2.4542 2.9692 283.48 0.046045 16.658 0.056645 90.000 0.011111 936.26 1015.3 3.0715 2.4542 2.9692 283.48 0.046045 16.658 0.056645
239.38 1034.5 undefined 938.72 1018.0 3.0763 90.000 0.011111 938.72 1018.0 3.0763 2.4577 2.9708 284.05 0.045717 16.685 0.056821 90.000 0.011111 938.72 1018.0 3.0763 2.4577 2.9708 284.05 0.045717 16.685 0.056821
240.38 1037.8 undefined 941.18 1020.7 3.0811 90.000 0.011111 941.18 1020.7 3.0811 2.4611 2.9724 284.62 0.045393 16.713 0.056998 90.000 0.011111 941.18 1020.7 3.0811 2.4611 2.9724 284.62 0.045393 16.713 0.056998
241.38 1041.2 undefined 943.64 1023.4 3.0859 90.000 0.011111 943.64 1023.4 3.0859 2.4646 2.9740 285.19 0.045071 16.740 0.057175 90.000 0.011111 943.64 1023.4 3.0859 2.4646 2.9740 285.19 0.045071 16.740 0.057175
242.38 1044.6 undefined 946.11 1026.1 3.0907 90.000 0.011111 946.11 1026.1 3.0907 2.4680 2.9757 285.76 0.044754 16.768 0.057352 90.000 0.011111 946.11 1026.1 3.0907 2.4680 2.9757 285.76 0.044754 16.768 0.057352
243.38 1048.0 undefined 948.57 1028.9 3.0955 90.000 0.011111 948.57 1028.9 3.0955 2.4715 2.9774 286.33 0.044439 16.795 0.057530 90.000 0.011111 948.57 1028.9 3.0955 2.4715 2.9774 286.33 0.044439 16.795 0.057530
244.38 1051.3 undefined 951.05 1031.6 3.1003 90.000 0.011111 951.05 1031.6 3.1003 2.4749 2.9791 286.89 0.044127 16.822 0.057708 90.000 0.011111 951.05 1031.6 3.1003 2.4749 2.9791 286.89 0.044127 16.822 0.057708
245.38 1054.7 undefined 953.52 1034.3 3.1050 90.000 0.011111 953.52 1034.3 3.1050 2.4784 2.9808 287.46 0.043819 16.850 0.057886 90.000 0.011111 953.52 1034.3 3.1050 2.4784 2.9808 287.46 0.043819 16.850 0.057886
246.38 1058.1 undefined 956.00 1037.1 3.1098 90.000 0.011111 956.00 1037.1 3.1098 2.4818 2.9825 288.02 0.043514 16.877 0.058064 90.000 0.011111 956.00 1037.1 3.1098 2.4818 2.9825 288.02 0.043514 16.877 0.058064
247.38 1061.4 undefined 958.49 1039.8 3.1146 90.000 0.011111 958.49 1039.8 3.1146 2.4853 2.9843 288.58 0.043212 16.904 0.058243 90.000 0.011111 958.49 1039.8 3.1146 2.4853 2.9843 288.58 0.043212 16.904 0.058243
248.38 1064.8 undefined 960.98 1042.5 3.1194 90.000 0.011111 960.98 1042.5 3.1194 2.4887 2.9860 289.14 0.042912 16.931 0.058422 90.000 0.011111 960.98 1042.5 3.1194 2.4887 2.9860 289.14 0.042912 16.931 0.058422
249.38 1068.2 undefined 963.47 1045.3 3.1241 90.000 0.011111 963.47 1045.3 3.1241 2.4922 2.9878 289.70 0.042616 16.959 0.058601 90.000 0.011111 963.47 1045.3 3.1241 2.4922 2.9878 289.70 0.042616 16.959 0.058601
250.38 1071.5 undefined 965.96 1048.0 3.1289 90.000 0.011111 965.96 1048.0 3.1289 2.4956 2.9896 290.26 0.042323 16.986 0.058780 90.000 0.011111 965.96 1048.0 3.1289 2.4956 2.9896 290.26 0.042323 16.986 0.058780
251.38 1074.9 undefined 968.46 1050.8 3.1337 90.000 0.011111 968.46 1050.8 3.1337 2.4991 2.9914 290.82 0.042032 17.013 0.058960 90.000 0.011111 968.46 1050.8 3.1337 2.4991 2.9914 290.82 0.042032 17.013 0.058960
252.38 1078.2 undefined 970.96 1053.6 3.1384 90.000 0.011111 970.96 1053.6 3.1384 2.5025 2.9933 291.37 0.041744 17.040 0.059140 90.000 0.011111 970.96 1053.6 3.1384 2.5025 2.9933 291.37 0.041744 17.040 0.059140
253.38 1081.6 undefined 973.46 1056.3 3.1432 90.000 0.011111 973.46 1056.3 3.1432 2.5060 2.9951 291.93 0.041460 17.067 0.059320 90.000 0.011111 973.46 1056.3 3.1432 2.5060 2.9951 291.93 0.041460 17.067 0.059320
254.38 1085.0 undefined 975.97 1059.1 3.1480 90.000 0.011111 975.97 1059.1 3.1480 2.5094 2.9970 292.48 0.041178 17.094 0.059500 90.000 0.011111 975.97 1059.1 3.1480 2.5094 2.9970 292.48 0.041178 17.094 0.059500
255.38 1088.3 undefined 978.48 1061.9 3.1527 90.000 0.011111 978.48 1061.9 3.1527 2.5128 2.9989 293.04 0.040898 17.121 0.059681 90.000 0.011111 978.48 1061.9 3.1527 2.5128 2.9989 293.04 0.040898 17.121 0.059681
256.38 1091.7 undefined 981.00 1064.6 3.1575 90.000 0.011111 981.00 1064.6 3.1575 2.5163 3.0008 293.59 0.040622 17.148 0.059862 90.000 0.011111 981.00 1064.6 3.1575 2.5163 3.0008 293.59 0.040622 17.148 0.059862
257.38 1095.0 undefined 983.51 1067.4 3.1622 90.000 0.011111 983.51 1067.4 3.1622 2.5197 3.0027 294.14 0.040348 17.175 0.060043 90.000 0.011111 983.51 1067.4 3.1622 2.5197 3.0027 294.14 0.040348 17.175 0.060043
258.38 1098.4 undefined 986.04 1070.2 3.1670 90.000 0.011111 986.04 1070.2 3.1670 2.5232 3.0046 294.69 0.040076 17.202 0.060225 90.000 0.011111 986.04 1070.2 3.1670 2.5232 3.0046 294.69 0.040076 17.202 0.060225
259.38 1101.7 undefined 988.56 1073.0 3.1717 90.000 0.011111 988.56 1073.0 3.1717 2.5266 3.0065 295.24 0.039807 17.229 0.060406 90.000 0.011111 988.56 1073.0 3.1717 2.5266 3.0065 295.24 0.039807 17.229 0.060406
260.38 1105.1 undefined 991.09 1075.7 3.1765 90.000 0.011111 991.09 1075.7 3.1765 2.5300 3.0085 295.79 0.039541 17.256 0.060588 90.000 0.011111 991.09 1075.7 3.1765 2.5300 3.0085 295.79 0.039541 17.256 0.060588
261.38 1108.4 undefined 993.62 1078.5 3.1812 90.000 0.011111 993.62 1078.5 3.1812 2.5335 3.0105 296.33 0.039278 17.282 0.060770 90.000 0.011111 993.62 1078.5 3.1812 2.5335 3.0105 296.33 0.039278 17.282 0.060770
262.38 1111.8 undefined 996.16 1081.3 3.1859 90.000 0.011111 996.16 1081.3 3.1859 2.5369 3.0124 296.88 0.039016 17.309 0.060952 90.000 0.011111 996.16 1081.3 3.1859 2.5369 3.0124 296.88 0.039016 17.309 0.060952
263.38 1115.2 undefined 998.69 1084.1 3.1907 90.000 0.011111 998.69 1084.1 3.1907 2.5403 3.0144 297.42 0.038758 17.336 0.061135 90.000 0.011111 998.69 1084.1 3.1907 2.5403 3.0144 297.42 0.038758 17.336 0.061135
264.38 1118.5 undefined 1001.2 1086.9 3.1954 90.000 0.011111 1001.2 1086.9 3.1954 2.5437 3.0165 297.96 0.038501 17.363 0.061317 90.000 0.011111 1001.2 1086.9 3.1954 2.5437 3.0165 297.96 0.038501 17.363 0.061317
265.38 1121.8 undefined 1003.8 1089.7 3.2001 90.000 0.011111 1003.8 1089.7 3.2001 2.5472 3.0185 298.51 0.038247 17.389 0.061500 90.000 0.011111 1003.8 1089.7 3.2001 2.5472 3.0185 298.51 0.038247 17.389 0.061500
266.38 1125.2 undefined 1006.3 1092.5 3.2049 90.000 0.011111 1006.3 1092.5 3.2049 2.5506 3.0205 299.05 0.037996 17.416 0.061683 90.000 0.011111 1006.3 1092.5 3.2049 2.5506 3.0205 299.05 0.037996 17.416 0.061683
267.38 1128.5 undefined 1008.9 1095.3 3.2096 90.000 0.011111 1008.9 1095.3 3.2096 2.5540 3.0225 299.59 0.037747 17.443 0.061866 90.000 0.011111 1008.9 1095.3 3.2096 2.5540 3.0225 299.59 0.037747 17.443 0.061866
268.38 1131.9 undefined 1011.4 1098.2 3.2143 90.000 0.011111 1011.4 1098.2 3.2143 2.5574 3.0246 300.13 0.037500 17.469 0.062049 90.000 0.011111 1011.4 1098.2 3.2143 2.5574 3.0246 300.13 0.037500 17.469 0.062049
269.38 1135.2 undefined 1014.0 1101.0 3.2190 90.000 0.011111 1014.0 1101.0 3.2190 2.5609 3.0267 300.66 0.037255 17.496 0.062232 90.000 0.011111 1014.0 1101.0 3.2190 2.5609 3.0267 300.66 0.037255 17.496 0.062232
270.38 1138.6 undefined 1016.6 1103.8 3.2238 90.000 0.011111 1016.6 1103.8 3.2238 2.5643 3.0287 301.20 0.037013 17.522 0.062415 90.000 0.011111 1016.6 1103.8 3.2238 2.5643 3.0287 301.20 0.037013 17.522 0.062415
271.38 1141.9 undefined 1019.1 1106.6 3.2285 90.000 0.011111 1019.1 1106.6 3.2285 2.5677 3.0308 301.74 0.036773 17.549 0.062598 90.000 0.011111 1019.1 1106.6 3.2285 2.5677 3.0308 301.74 0.036773 17.549 0.062598
272.38 1145.3 undefined 1021.7 1109.4 3.2332 90.000 0.011111 1021.7 1109.4 3.2332 2.5711 3.0329 302.27 0.036535 17.575 0.062781 90.000 0.011111 1021.7 1109.4 3.2332 2.5711 3.0329 302.27 0.036535 17.575 0.062781
273.38 1148.6 undefined 1024.3 1112.3 3.2379 90.000 0.011111 1024.3 1112.3 3.2379 2.5745 3.0350 302.80 0.036299 17.602 0.062964 90.000 0.011111 1024.3 1112.3 3.2379 2.5745 3.0350 302.80 0.036299 17.602 0.062964
274.38 1152.0 undefined 1026.8 1115.1 3.2426 90.000 0.011111 1026.8 1115.1 3.2426 2.5779 3.0372 303.34 0.036065 17.628 0.063147 90.000 0.011111 1026.8 1115.1 3.2426 2.5779 3.0372 303.34 0.036065 17.628 0.063147
275.38 1155.3 undefined 1029.4 1117.9 3.2473 90.000 0.011111 1029.4 1117.9 3.2473 2.5813 3.0393 303.87 0.035834 17.655 0.063330 90.000 0.011111 1029.4 1117.9 3.2473 2.5813 3.0393 303.87 0.035834 17.655 0.063330
276.38 1158.6 undefined 1032.0 1120.8 3.2520 90.000 0.011111 1032.0 1120.8 3.2520 2.5847 3.0414 304.40 0.035605 17.681 0.063512 90.000 0.011111 1032.0 1120.8 3.2520 2.5847 3.0414 304.40 0.035605 17.681 0.063512
277.38 1162.0 undefined 1034.6 1123.6 3.2567 90.000 0.011111 1034.6 1123.6 3.2567 2.5881 3.0436 304.93 0.035377 17.707 0.063693 90.000 0.011111 1034.6 1123.6 3.2567 2.5881 3.0436 304.93 0.035377 17.707 0.063693
278.38 1165.3 undefined 1037.2 1126.5 3.2614 90.000 0.011111 1037.2 1126.5 3.2614 2.5915 3.0458 305.46 0.035152 17.734 0.063874 90.000 0.011111 1037.2 1126.5 3.2614 2.5915 3.0458 305.46 0.035152 17.734 0.063874
279.38 1168.6 undefined 1039.8 1129.3 3.2661 90.000 0.011111 1039.8 1129.3 3.2661 2.5949 3.0479 305.99 0.034929 17.760 0.064052 90.000 0.011111 1039.8 1129.3 3.2661 2.5949 3.0479 305.99 0.034929 17.760 0.064052
280.38 1172.0 undefined 1042.4 1132.2 3.2708 90.000 0.011111 1042.4 1132.2 3.2708 2.5983 3.0501 306.51 0.034707 17.786 0.064227 90.000 0.011111 1042.4 1132.2 3.2708 2.5983 3.0501 306.51 0.034707 17.786 0.064227
281.38 1175.3 undefined 1045.0 1135.0 3.2755 90.000 0.011111 1045.0 1135.0 3.2755 2.6017 3.0523 307.04 0.034488 17.812 0.064389 90.000 0.011111 1045.0 1135.0 3.2755 2.6017 3.0523 307.04 0.034488 17.812 0.064389
282.38 1178.7 undefined 1047.6 1137.9 3.2802 90.000 0.011111 1047.6 1137.9 3.2802 2.6051 3.0545 307.56 0.034270 17.839 0.064562 90.000 0.011111 1047.6 1137.9 3.2802 2.6051 3.0545 307.56 0.034270 17.839 0.064562
283.38 1182.0 undefined 1050.2 1140.7 3.2849 90.000 0.011111 1050.2 1140.7 3.2849 2.6085 3.0567 308.09 0.034055 17.865 0.064757 90.000 0.011111 1050.2 1140.7 3.2849 2.6085 3.0567 308.09 0.034055 17.865 0.064757
284.38 1185.3 undefined 1052.8 1143.6 3.2896 90.000 0.011111 1052.8 1143.6 3.2896 2.6119 3.0589 308.61 0.033841 17.891 0.064952 90.000 0.011111 1052.8 1143.6 3.2896 2.6119 3.0589 308.61 0.033841 17.891 0.064952
285.38 1188.7 undefined 1055.4 1146.5 3.2943 90.000 0.011111 1055.4 1146.5 3.2943 2.6152 3.0611 309.13 0.033630 17.917 0.065148 90.000 0.011111 1055.4 1146.5 3.2943 2.6152 3.0611 309.13 0.033630 17.917 0.065148
286.38 1192.0 undefined 1058.0 1149.3 3.2989 90.000 0.011111 1058.0 1149.3 3.2989 2.6186 3.0634 309.65 0.033420 17.943 0.065343 90.000 0.011111 1058.0 1149.3 3.2989 2.6186 3.0634 309.65 0.033420 17.943 0.065343
287.38 1195.3 undefined 1060.6 1152.2 3.3036 90.000 0.011111 1060.6 1152.2 3.3036 2.6220 3.0656 310.17 0.033212 17.969 0.065539 90.000 0.011111 1060.6 1152.2 3.3036 2.6220 3.0656 310.17 0.033212 17.969 0.065539
288.38 1198.6 undefined 1063.3 1155.1 3.3083 90.000 0.011111 1063.3 1155.1 3.3083 2.6254 3.0678 310.69 0.033005 17.995 0.065736 90.000 0.011111 1063.3 1155.1 3.3083 2.6254 3.0678 310.69 0.033005 17.995 0.065736
289.38 1202.0 undefined 1065.9 1158.0 3.3130 90.000 0.011111 1065.9 1158.0 3.3130 2.6287 3.0701 311.21 0.032801 18.021 0.065932 90.000 0.011111 1065.9 1158.0 3.3130 2.6287 3.0701 311.21 0.032801 18.021 0.065932
290.38 1205.3 undefined 1068.5 1160.9 3.3176 90.000 0.011111 1068.5 1160.9 3.3176 2.6321 3.0724 311.73 0.032598 18.047 0.066129 90.000 0.011111 1068.5 1160.9 3.3176 2.6321 3.0724 311.73 0.032598 18.047 0.066129
291.38 1208.6 undefined 1071.2 1163.8 3.3223 90.000 0.011111 1071.2 1163.8 3.3223 2.6355 3.0746 312.24 0.032397 18.073 0.066326 90.000 0.011111 1071.2 1163.8 3.3223 2.6355 3.0746 312.24 0.032397 18.073 0.066326
292.38 1212.0 undefined 1073.8 1166.6 3.3270 90.000 0.011111 1073.8 1166.6 3.3270 2.6388 3.0769 312.76 0.032198 18.099 0.066524 90.000 0.011111 1073.8 1166.6 3.3270 2.6388 3.0769 312.76 0.032198 18.099 0.066524
293.38 1215.3 undefined 1076.4 1169.5 3.3316 90.000 0.011111 1076.4 1169.5 3.3316 2.6422 3.0792 313.27 0.032001 18.125 0.066722 90.000 0.011111 1076.4 1169.5 3.3316 2.6422 3.0792 313.27 0.032001 18.125 0.066722
294.38 1218.6 undefined 1079.1 1172.4 3.3363 90.000 0.011111 1079.1 1172.4 3.3363 2.6455 3.0815 313.79 0.031805 18.151 0.066920 90.000 0.011111 1079.1 1172.4 3.3363 2.6455 3.0815 313.79 0.031805 18.151 0.066920
295.38 1221.9 undefined 1081.7 1175.3 3.3410 90.000 0.011111 1081.7 1175.3 3.3410 2.6489 3.0838 314.30 0.031611 18.176 0.067118 90.000 0.011111 1081.7 1175.3 3.3410 2.6489 3.0838 314.30 0.031611 18.176 0.067118
296.38 1225.3 undefined 1084.4 1178.2 3.3456 90.000 0.011111 1084.4 1178.2 3.3456 2.6523 3.0861 314.81 0.031418 18.202 0.067317 90.000 0.011111 1084.4 1178.2 3.3456 2.6523 3.0861 314.81 0.031418 18.202 0.067317
297.38 1228.6 undefined 1087.0 1181.2 3.3503 90.000 0.011111 1087.0 1181.2 3.3503 2.6556 3.0884 315.32 0.031227 18.228 0.067516 90.000 0.011111 1087.0 1181.2 3.3503 2.6556 3.0884 315.32 0.031227 18.228 0.067516
298.38 1231.9 undefined 1089.7 1184.1 3.3549 90.000 0.011111 1089.7 1184.1 3.3549 2.6589 3.0907 315.83 0.031038 18.254 0.067715 90.000 0.011111 1089.7 1184.1 3.3549 2.6589 3.0907 315.83 0.031038 18.254 0.067715
299.38 1235.2 undefined 1092.4 1187.0 3.3596 90.000 0.011111 1092.4 1187.0 3.3596 2.6623 3.0930 316.34 0.030850 18.279 0.067915 90.000 0.011111 1092.4 1187.0 3.3596 2.6623 3.0930 316.34 0.030850 18.279 0.067915
300.38 1238.6 undefined 1095.0 1189.9 3.3642 90.000 0.011111 1095.0 1189.9 3.3642 2.6656 3.0953 316.85 0.030664 18.305 0.068114 90.000 0.011111 1095.0 1189.9 3.3642 2.6656 3.0953 316.85 0.030664 18.305 0.068114