Temperature (C) Pressure (psia) Quality (l+v) Internal Energy (l+v, kJ/kg) Enthalpy (l+v, kJ/kg) Entropy (l+v, J/g*K) Density (l, kg/m3) Volume (l, m3/kg) Internal Energy (l, kJ/kg) Enthalpy (l, kJ/kg) Entropy (l, J/g*K) Cv (l, J/g*K) Cp (l, J/g*K) Sound Spd. (l, m/s) Joule-Thomson (l, F/psia) Viscosity (l, uPa*s) Therm. Cond. (l, W/m*K) Density (v, kg/m3) Volume (v, m3/kg) Internal Energy (v, kJ/kg) Enthalpy (v, kJ/kg) Entropy (v, J/g*K) Cv (v, J/g*K) Cp (v, J/g*K) Sound Spd. (v, m/s) Joule-Thomson (v, F/psia) Viscosity (v, uPa*s) Therm. Cond. (v, W/m*K)
-187.62 2.4953e-08 9.7750e-11 -196.64 -196.64 -1.3959 733.13 0.0013640 -196.64 -196.64 -1.3959 1.3553 1.9158 2136.4 -0.0077592 10960. 0.20792 1.0669e-08 9.3732e+07 350.13 366.26 5.1858 0.69067 0.87923 143.28 6.1051 2.3259 0.0017061
-186.62 3.7339e-08 1.4455e-10 -194.73 -194.73 -1.3736 732.08 0.0013660 -194.73 -194.73 -1.3736 1.3539 1.9166 2129.6 -0.0077546 10073. 0.20765 1.5780e-08 6.3371e+07 350.82 367.14 5.1200 0.69462 0.88317 144.03 5.9178 2.3534 0.0017533
-185.62 5.5322e-08 2.1167e-10 -192.81 -192.81 -1.3516 731.04 0.0013679 -192.81 -192.81 -1.3516 1.3525 1.9174 2122.9 -0.0077498 9276.1 0.20737 2.3112e-08 4.3267e+07 351.52 368.02 5.0561 0.69857 0.88713 144.77 5.7383 2.3808 0.0018007
-184.62 8.1182e-08 3.0705e-10 -190.89 -190.89 -1.3298 730.00 0.0013699 -190.89 -190.89 -1.3298 1.3513 1.9182 2116.1 -0.0077448 8557.8 0.20708 3.3533e-08 2.9821e+07 352.22 368.91 4.9939 0.70253 0.89108 145.51 5.5662 2.4083 0.0018485
-183.62 1.1803e-07 4.4134e-10 -188.97 -188.97 -1.3083 728.96 0.0013718 -188.97 -188.97 -1.3083 1.3501 1.9191 2109.3 -0.0077395 7909.8 0.20678 4.8211e-08 2.0742e+07 352.92 369.81 4.9333 0.70648 0.89504 146.24 5.4011 2.4357 0.0018965
-182.62 1.7009e-07 6.2882e-10 -187.05 -187.05 -1.2869 727.92 0.0013738 -187.05 -187.05 -1.2869 1.3490 1.9201 2102.5 -0.0077340 7324.3 0.20647 6.8704e-08 1.4555e+07 353.63 370.70 4.8744 0.71043 0.89899 146.97 5.2426 2.4632 0.0019448
-181.62 2.4299e-07 8.8833e-10 -185.13 -185.13 -1.2658 726.88 0.0013757 -185.13 -185.13 -1.2658 1.3480 1.9210 2095.7 -0.0077283 6794.5 0.20616 9.7079e-08 1.0301e+07 354.35 371.60 4.8170 0.71438 0.90294 147.69 5.0904 2.4906 0.0019934
-180.62 3.4425e-07 1.2446e-09 -183.21 -183.21 -1.2450 725.85 0.0013777 -183.21 -183.21 -1.2450 1.3470 1.9220 2088.9 -0.0077225 6314.4 0.20584 1.3605e-07 7.3504e+06 355.06 372.51 4.7612 0.71833 0.90688 148.41 4.9442 2.5181 0.0020423
-179.62 4.8378e-07 1.7301e-09 -181.29 -181.29 -1.2243 724.81 0.0013797 -181.29 -181.29 -1.2243 1.3461 1.9231 2082.0 -0.0077164 5878.8 0.20551 1.8915e-07 5.2868e+06 355.78 373.42 4.7068 0.72227 0.91082 149.13 4.8038 2.5456 0.0020915
-178.62 6.7459e-07 2.3864e-09 -179.37 -179.37 -1.2038 723.78 0.0013816 -179.37 -179.37 -1.2038 1.3453 1.9241 2075.2 -0.0077102 5482.9 0.20517 2.6096e-07 3.8320e+06 356.51 374.33 4.6538 0.72620 0.91475 149.84 4.6688 2.5731 0.0021410
-177.62 9.3358e-07 3.2673e-09 -177.44 -177.44 -1.1836 722.75 0.0013836 -177.44 -177.44 -1.1836 1.3445 1.9252 2068.4 -0.0077039 5122.6 0.20483 3.5737e-07 2.7982e+06 357.23 375.25 4.6022 0.73012 0.91867 150.54 4.5390 2.6005 0.0021907
-176.62 1.2826e-06 4.4413e-09 -175.52 -175.52 -1.1635 721.72 0.0013856 -175.52 -175.52 -1.1635 1.3437 1.9263 2061.5 -0.0076973 4794.1 0.20447 4.8588e-07 2.0581e+06 357.97 376.17 4.5519 0.73403 0.92258 151.25 4.4142 2.6280 0.0022408
-175.62 1.7496e-06 5.9951e-09 -173.59 -173.59 -1.1437 720.69 0.0013876 -173.59 -173.59 -1.1437 1.3430 1.9274 2054.7 -0.0076907 4494.3 0.20411 6.5601e-07 1.5244e+06 358.70 377.09 4.5029 0.73792 0.92648 151.95 4.2941 2.6555 0.0022912
-174.62 2.3705e-06 8.0382e-09 -171.66 -171.66 -1.1240 719.66 0.0013895 -171.66 -171.66 -1.1240 1.3423 1.9286 2047.9 -0.0076838 4220.2 0.20375 8.7976e-07 1.1367e+06 359.44 378.02 4.4551 0.74181 0.93036 152.64 4.1784 2.6830 0.0023418
-173.62 3.1903e-06 1.0707e-08 -169.73 -169.73 -1.1045 718.64 0.0013915 -169.73 -169.73 -1.1045 1.3417 1.9298 2041.0 -0.0076769 3969.3 0.20338 1.1721e-06 8.5314e+05 360.19 378.95 4.4085 0.74568 0.93423 153.33 4.0671 2.7105 0.0023928
-172.62 4.2661e-06 1.4172e-08 -167.80 -167.80 -1.0852 717.61 0.0013935 -167.80 -167.80 -1.0852 1.3411 1.9310 2034.2 -0.0076698 3739.3 0.20300 1.5518e-06 6.4441e+05 360.93 379.89 4.3631 0.74953 0.93809 154.02 3.9599 2.7379 0.0024440
-171.62 5.6692e-06 1.8644e-08 -165.87 -165.87 -1.0661 716.58 0.0013955 -165.87 -165.87 -1.0661 1.3405 1.9322 2027.3 -0.0076625 3528.0 0.20261 2.0419e-06 4.8974e+05 361.69 380.83 4.3188 0.75337 0.94193 154.71 3.8566 2.7654 0.0024955
-170.62 7.4884e-06 2.4381e-08 -163.94 -163.94 -1.0472 715.56 0.0013975 -163.94 -163.94 -1.0472 1.3400 1.9334 2020.5 -0.0076552 3333.8 0.20222 2.6708e-06 3.7442e+05 362.44 381.77 4.2755 0.75720 0.94575 155.39 3.7570 2.7929 0.0025473
-169.62 9.8334e-06 3.1700e-08 -162.00 -162.00 -1.0284 714.54 0.0013995 -162.00 -162.00 -1.0284 1.3395 1.9347 2013.6 -0.0076477 3154.9 0.20182 3.4733e-06 2.8791e+05 363.20 382.72 4.2334 0.76100 0.94956 156.07 3.6609 2.8204 0.0025994
-168.62 1.2839e-05 4.0986e-08 -160.07 -160.07 -1.0098 713.52 0.0014015 -160.07 -160.07 -1.0098 1.3390 1.9359 2006.8 -0.0076401 2989.9 0.20141 4.4917e-06 2.2263e+05 363.96 383.67 4.1922 0.76479 0.95335 156.74 3.5683 2.8479 0.0026518
-167.62 1.6672e-05 5.2704e-08 -158.13 -158.13 -0.99134 712.49 0.0014035 -158.13 -158.13 -0.99134 1.3386 1.9372 2000.0 -0.0076323 2837.5 0.20100 5.7771e-06 1.7310e+05 364.73 384.63 4.1521 0.76856 0.95712 157.41 3.4790 2.8754 0.0027045
-166.62 2.1533e-05 6.7415e-08 -156.19 -156.19 -0.97306 711.47 0.0014055 -156.19 -156.19 -0.97306 1.3382 1.9385 1993.1 -0.0076245 2696.5 0.20058 7.3914e-06 1.3529e+05 365.50 385.59 4.1129 0.77232 0.96087 158.08 3.3927 2.9029 0.0027575
-165.62 2.7666e-05 8.5793e-08 -154.25 -154.25 -0.95494 710.45 0.0014075 -154.25 -154.25 -0.95494 1.3378 1.9398 1986.3 -0.0076165 2566.0 0.20016 9.4084e-06 1.0629e+05 366.27 386.55 4.0746 0.77605 0.96460 158.75 3.3095 2.9304 0.0028108
-164.62 3.5367e-05 1.0864e-07 -152.31 -152.31 -0.93698 709.44 0.0014096 -152.31 -152.31 -0.93698 1.3375 1.9411 1979.4 -0.0076084 2444.9 0.19973 1.1916e-05 83918. 367.05 387.52 4.0372 0.77976 0.96832 159.41 3.2291 2.9579 0.0028643
-163.62 4.4989e-05 1.3690e-07 -150.37 -150.37 -0.91917 708.42 0.0014116 -150.37 -150.37 -0.91917 1.3371 1.9424 1972.6 -0.0076002 2332.3 0.19930 1.5020e-05 66577. 367.83 388.49 4.0008 0.78346 0.97201 160.07 3.1514 2.9854 0.0029182
-162.62 5.6956e-05 1.7172e-07 -148.43 -148.43 -0.90151 707.40 0.0014136 -148.43 -148.43 -0.90151 1.3368 1.9437 1965.8 -0.0075919 2227.7 0.19886 1.8844e-05 53068. 368.62 389.46 3.9651 0.78713 0.97569 160.72 3.0764 3.0129 0.0029723
-161.62 7.1773e-05 2.1440e-07 -146.48 -146.48 -0.88400 706.38 0.0014157 -146.48 -146.48 -0.88400 1.3365 1.9451 1959.0 -0.0075834 2130.2 0.19841 2.3533e-05 42494. 369.41 390.44 3.9304 0.79079 0.97935 161.38 3.0038 3.0404 0.0030268
-160.62 9.0036e-05 2.6650e-07 -144.54 -144.54 -0.86663 705.37 0.0014177 -144.54 -144.54 -0.86663 1.3363 1.9465 1952.1 -0.0075748 2039.2 0.19796 2.9258e-05 34178. 370.20 391.42 3.8964 0.79443 0.98298 162.03 2.9337 3.0679 0.0030815
-159.62 0.00011245 3.2985e-07 -142.59 -142.59 -0.84940 704.35 0.0014197 -142.59 -142.59 -0.84940 1.3360 1.9478 1945.3 -0.0075661 1954.2 0.19751 3.6221e-05 27609. 371.00 392.40 3.8632 0.79805 0.98660 162.68 2.8658 3.0955 0.0031365
-158.62 0.00013985 4.0654e-07 -140.64 -140.64 -0.83231 703.34 0.0014218 -140.64 -140.64 -0.83231 1.3358 1.9492 1938.5 -0.0075573 1874.8 0.19705 4.4652e-05 22395. 371.80 393.39 3.8307 0.80164 0.99020 163.32 2.8002 3.1230 0.0031918
-157.62 0.00017320 4.9901e-07 -138.69 -138.69 -0.81536 702.32 0.0014238 -138.69 -138.69 -0.81536 1.3356 1.9506 1931.7 -0.0075484 1800.3 0.19658 5.4822e-05 18241. 372.60 394.38 3.7990 0.80522 0.99378 163.96 2.7367 3.1505 0.0032474
-156.62 0.00021364 6.1010e-07 -136.74 -136.74 -0.79854 701.31 0.0014259 -136.74 -136.74 -0.79854 1.3354 1.9520 1924.9 -0.0075393 1730.5 0.19611 6.7040e-05 14916. 373.41 395.38 3.7680 0.80878 0.99734 164.60 2.6752 3.1780 0.0033033
-155.62 0.00026248 7.4303e-07 -134.79 -134.79 -0.78185 700.30 0.0014280 -134.79 -134.79 -0.78185 1.3352 1.9534 1918.1 -0.0075302 1664.9 0.19564 8.1666e-05 12245. 374.22 396.38 3.7377 0.81232 1.0009 165.24 2.6157 3.2055 0.0033595
-154.62 0.00032125 9.0153e-07 -132.83 -132.83 -0.76529 699.29 0.0014300 -132.83 -132.83 -0.76530 1.3350 1.9548 1911.3 -0.0075209 1603.3 0.19516 9.9109e-05 10090. 375.03 397.38 3.7081 0.81585 1.0044 165.87 2.5580 3.2330 0.0034160
-153.62 0.00039171 1.0898e-06 -130.88 -130.88 -0.74886 698.27 0.0014321 -130.88 -130.88 -0.74887 1.3349 1.9563 1904.5 -0.0075114 1545.3 0.19468 0.00011984 8344.6 375.85 398.39 3.6792 0.81935 1.0079 166.50 2.5022 3.2606 0.0034727
-152.62 0.00047590 1.3128e-06 -128.92 -128.92 -0.73256 697.26 0.0014342 -128.92 -128.92 -0.73256 1.3348 1.9577 1897.8 -0.0075019 1490.6 0.19419 0.00014439 6925.9 376.67 399.40 3.6509 0.82284 1.0114 167.13 2.4481 3.2881 0.0035298
-151.62 0.00057613 1.5758e-06 -126.96 -126.96 -0.71637 696.25 0.0014363 -126.96 -126.96 -0.71638 1.3346 1.9592 1891.0 -0.0074922 1438.9 0.19370 0.00017336 5768.4 377.49 400.41 3.6232 0.82631 1.0149 167.76 2.3957 3.3156 0.0035872
-150.62 0.00069507 1.8852e-06 -125.00 -125.00 -0.70031 695.24 0.0014384 -125.00 -125.00 -0.70032 1.3345 1.9606 1884.2 -0.0074824 1390.2 0.19320 0.00020744 4820.7 378.32 401.42 3.5962 0.82976 1.0183 168.38 2.3448 3.3431 0.0036448
-149.62 0.00083574 2.2479e-06 -123.04 -123.04 -0.68437 694.23 0.0014404 -123.04 -123.04 -0.68438 1.3345 1.9621 1877.4 -0.0074724 1344.0 0.19270 0.00024740 4042.0 379.15 402.44 3.5697 0.83319 1.0218 169.00 2.2956 3.3706 0.0037027
-148.62 0.0010016 2.6717e-06 -121.08 -121.08 -0.66854 693.22 0.0014425 -121.08 -121.08 -0.66855 1.3344 1.9636 1870.7 -0.0074623 1300.3 0.19220 0.00029412 3400.0 379.99 403.47 3.5438 0.83661 1.0252 169.62 2.2478 3.3982 0.0037610
-147.62 0.0011965 3.1655e-06 -119.11 -119.11 -0.65282 692.21 0.0014447 -119.11 -119.11 -0.65284 1.3343 1.9651 1863.9 -0.0074521 1258.9 0.19169 0.00034856 2869.0 380.83 404.49 3.5185 0.84001 1.0286 170.24 2.2014 3.4257 0.0038195
-146.62 0.0014249 3.7391e-06 -117.15 -117.15 -0.63722 691.20 0.0014468 -117.15 -117.15 -0.63724 1.3343 1.9666 1857.2 -0.0074417 1219.6 0.19117 0.00041181 2428.3 381.67 405.52 3.4938 0.84340 1.0320 170.85 2.1565 3.4532 0.0038783
-145.62 0.0016917 4.4034e-06 -115.18 -115.18 -0.62173 690.19 0.0014489 -115.18 -115.18 -0.62175 1.3343 1.9682 1850.4 -0.0074312 1182.3 0.19066 0.00048510 2061.4 382.51 406.56 3.4695 0.84677 1.0353 171.46 2.1128 3.4807 0.0039374
-144.62 0.0020026 5.1708e-06 -113.21 -113.21 -0.60635 689.18 0.0014510 -113.21 -113.21 -0.60637 1.3343 1.9697 1843.7 -0.0074206 1146.8 0.19014 0.00056976 1755.1 383.36 407.59 3.4458 0.85012 1.0387 172.07 2.0705 3.5082 0.0039967
-143.62 0.0023637 6.0546e-06 -111.24 -111.24 -0.59107 688.17 0.0014531 -111.24 -111.24 -0.59110 1.3343 1.9713 1836.9 -0.0074098 1113.0 0.18962 0.00066731 1498.6 384.21 408.63 3.4226 0.85346 1.0420 172.68 2.0294 3.5358 0.0040564
-142.62 0.0027820 7.0699e-06 -109.27 -109.27 -0.57590 687.16 0.0014553 -109.27 -109.27 -0.57593 1.3343 1.9728 1830.2 -0.0073988 1080.8 0.18909 0.00077939 1283.1 385.07 409.68 3.3999 0.85679 1.0454 173.28 1.9896 3.5633 0.0041164
-141.62 0.0032653 8.2331e-06 -107.29 -107.29 -0.56084 686.15 0.0014574 -107.30 -107.30 -0.56087 1.3343 1.9744 1823.5 -0.0073878 1050.1 0.18856 0.00090784 1101.5 385.93 410.72 3.3777 0.86011 1.0487 173.88 1.9508 3.5908 0.0041766
-140.62 0.0038222 9.5625e-06 -105.32 -105.32 -0.54587 685.14 0.0014596 -105.32 -105.32 -0.54591 1.3344 1.9760 1816.7 -0.0073765 1020.7 0.18803 0.0010547 948.16 386.79 411.77 3.3560 0.86341 1.0520 174.48 1.9133 3.6183 0.0042372
-139.62 0.0044623 1.1078e-05 -103.34 -103.34 -0.53100 684.13 0.0014617 -103.34 -103.34 -0.53105 1.3344 1.9776 1810.0 -0.0073651 992.74 0.18749 0.0012221 818.26 387.65 412.83 3.3347 0.86670 1.0553 175.08 1.8768 3.6459 0.0042980
-138.62 0.0051963 1.2801e-05 -101.36 -101.36 -0.51624 683.12 0.0014639 -101.37 -101.37 -0.51629 1.3345 1.9792 1803.3 -0.0073536 965.97 0.18695 0.0014125 707.94 388.52 413.88 3.3139 0.86998 1.0586 175.67 1.8413 3.6734 0.0043592
-137.62 0.0060358 1.4756e-05 -99.379 -99.378 -0.50157 682.11 0.0014660 -99.386 -99.386 -0.50162 1.3346 1.9808 1796.6 -0.0073419 940.35 0.18641 0.0016287 614.00 389.39 414.94 3.2935 0.87325 1.0619 176.26 1.8069 3.7009 0.0044206
-136.62 0.0069938 1.6969e-05 -97.396 -97.396 -0.48699 681.10 0.0014682 -97.404 -97.404 -0.48705 1.3347 1.9825 1789.9 -0.0073301 915.81 0.18586 0.0018733 533.80 390.26 416.00 3.2735 0.87650 1.0651 176.85 1.7734 3.7284 0.0044823
-135.62 0.0080843 1.9468e-05 -95.412 -95.411 -0.47251 680.09 0.0014704 -95.421 -95.421 -0.47258 1.3348 1.9841 1783.2 -0.0073180 892.30 0.18531 0.0021497 465.17 391.14 417.07 3.2540 0.87975 1.0684 177.44 1.7409 3.7559 0.0045443
-134.62 0.0093230 2.2284e-05 -93.425 -93.425 -0.45812 679.08 0.0014726 -93.436 -93.436 -0.45820 1.3350 1.9858 1776.5 -0.0073059 869.75 0.18476 0.0024613 406.30 392.02 418.14 3.2348 0.88299 1.0716 178.02 1.7093 3.7834 0.0046066
-133.62 0.010727 2.5450e-05 -91.437 -91.436 -0.44382 678.07 0.0014748 -91.450 -91.449 -0.44391 1.3351 1.9875 1769.8 -0.0072935 848.11 0.18421 0.0028116 355.67 392.91 419.21 3.2161 0.88622 1.0749 178.61 1.6786 3.8109 0.0046691
-132.62 0.012315 2.9002e-05 -89.447 -89.446 -0.42960 677.06 0.0014770 -89.461 -89.461 -0.42971 1.3353 1.9892 1763.1 -0.0072810 827.32 0.18365 0.0032049 312.03 393.79 420.29 3.1977 0.88944 1.0781 179.19 1.6488 3.8385 0.0047320
-131.62 0.014106 3.2979e-05 -87.455 -87.454 -0.41548 676.04 0.0014792 -87.471 -87.471 -0.41560 1.3354 1.9909 1756.4 -0.0072684 807.34 0.18309 0.0036453 274.33 394.68 421.36 3.1798 0.89266 1.0813 179.76 1.6197 3.8660 0.0047951
-130.62 0.016124 3.7424e-05 -85.461 -85.460 -0.40144 675.03 0.0014814 -85.479 -85.479 -0.40157 1.3356 1.9926 1749.7 -0.0072555 788.12 0.18253 0.0041375 241.69 395.58 422.44 3.1622 0.89586 1.0846 180.34 1.5915 3.8935 0.0048586
-129.62 0.018392 4.2380e-05 -83.466 -83.464 -0.38748 674.02 0.0014836 -83.486 -83.486 -0.38763 1.3358 1.9944 1743.0 -0.0072425 769.63 0.18196 0.0046867 213.37 396.47 423.53 3.1450 0.89906 1.0878 180.91 1.5641 3.9210 0.0049223
-128.62 0.020935 4.7898e-05 -81.468 -81.466 -0.37361 673.01 0.0014859 -81.491 -81.490 -0.37378 1.3360 1.9961 1736.3 -0.0072294 751.83 0.18140 0.0052981 188.75 397.37 424.62 3.1281 0.90226 1.0910 181.48 1.5374 3.9485 0.0049863
-127.62 0.023783 5.4027e-05 -79.468 -79.466 -0.35982 672.00 0.0014881 -79.494 -79.493 -0.36001 1.3363 1.9979 1729.6 -0.0072160 734.67 0.18083 0.0059776 167.29 398.27 425.71 3.1116 0.90545 1.0942 182.05 1.5114 3.9760 0.0050506
-126.62 0.026966 6.0825e-05 -77.466 -77.464 -0.34611 670.98 0.0014904 -77.495 -77.495 -0.34632 1.3365 1.9997 1722.9 -0.0072025 718.14 0.18025 0.0067313 148.56 399.18 426.80 3.0954 0.90863 1.0974 182.62 1.4861 4.0035 0.0051152
-125.62 0.030515 6.8349e-05 -75.462 -75.460 -0.33248 669.97 0.0014926 -75.494 -75.494 -0.33272 1.3368 2.0015 1716.2 -0.0071888 702.18 0.17968 0.0075660 132.17 400.09 427.89 3.0795 0.91181 1.1006 183.18 1.4615 4.0310 0.0051800
-124.62 0.034467 7.6664e-05 -73.456 -73.453 -0.31893 668.95 0.0014949 -73.492 -73.492 -0.31919 1.3371 2.0033 1709.5 -0.0071749 686.79 0.17910 0.0084885 117.81 401.00 428.99 3.0640 0.91499 1.1038 183.74 1.4375 4.0584 0.0052452
-123.62 0.038859 8.5837e-05 -71.447 -71.444 -0.30545 667.94 0.0014971 -71.488 -71.487 -0.30574 1.3374 2.0051 1702.8 -0.0071609 671.93 0.17852 0.0095065 105.19 401.91 430.10 3.0488 0.91816 1.1070 184.30 1.4141 4.0859 0.0053106
-122.62 0.043731 9.5938e-05 -69.436 -69.433 -0.29205 666.92 0.0014994 -69.482 -69.481 -0.29237 1.3377 2.0070 1696.2 -0.0071466 657.57 0.17794 0.010628 94.092 402.83 431.20 3.0339 0.92134 1.1102 184.86 1.3913 4.1134 0.0053764
-121.62 0.049128 0.00010704 -67.423 -67.420 -0.27872 665.91 0.0015017 -67.474 -67.473 -0.27907 1.3380 2.0089 1689.5 -0.0071322 643.70 0.17736 0.011861 84.309 403.75 432.31 3.0193 0.92451 1.1134 185.41 1.3691 4.1409 0.0054424
-120.62 0.055096 0.00011924 -65.408 -65.404 -0.26546 664.89 0.0015040 -65.464 -65.463 -0.26585 1.3384 2.0107 1682.8 -0.0071176 630.28 0.17678 0.013215 75.669 404.67 433.42 3.0050 0.92767 1.1166 185.96 1.3475 4.1683 0.0055087
-119.62 0.061684 0.00013260 -63.390 -63.386 -0.25228 663.87 0.0015063 -63.452 -63.452 -0.25271 1.3387 2.0126 1676.1 -0.0071028 617.30 0.17619 0.014700 68.027 405.60 434.53 2.9909 0.93084 1.1198 186.51 1.3264 4.1958 0.0055752
-118.62 0.068946 0.00014722 -61.370 -61.365 -0.23916 662.86 0.0015086 -61.439 -61.438 -0.23963 1.3391 2.0146 1669.4 -0.0070878 604.74 0.17560 0.016325 61.255 406.53 435.64 2.9772 0.93401 1.1231 187.06 1.3058 4.2233 0.0056421
-117.62 0.076937 0.00016319 -59.347 -59.341 -0.22611 661.84 0.0015109 -59.423 -59.422 -0.22663 1.3395 2.0165 1662.8 -0.0070726 592.58 0.17501 0.018101 55.245 407.46 436.76 2.9638 0.93718 1.1263 187.60 1.2857 4.2507 0.0057092
-116.62 0.085718 0.00018062 -57.322 -57.315 -0.21313 660.82 0.0015133 -57.406 -57.405 -0.21370 1.3400 2.0184 1656.1 -0.0070573 580.80 0.17442 0.020040 49.901 408.39 437.88 2.9506 0.94035 1.1295 188.14 1.2660 4.2782 0.0057767
-115.62 0.095353 0.00019961 -55.294 -55.287 -0.20021 659.80 0.0015156 -55.386 -55.385 -0.20084 1.3404 2.0204 1649.4 -0.0070417 569.38 0.17383 0.022152 45.142 409.33 439.01 2.9377 0.94352 1.1327 188.68 1.2468 4.3056 0.0058444
-114.62 0.10591 0.00022027 -53.263 -53.255 -0.18736 658.78 0.0015180 -53.365 -53.364 -0.18805 1.3409 2.0224 1642.7 -0.0070260 558.32 0.17323 0.024451 40.898 410.27 440.13 2.9250 0.94669 1.1360 189.22 1.2281 4.3330 0.0059123
-113.62 0.11746 0.00024272 -51.229 -51.221 -0.17458 657.76 0.0015203 -51.342 -51.340 -0.17533 1.3413 2.0244 1636.0 -0.0070100 547.59 0.17264 0.026949 37.107 411.21 441.26 2.9126 0.94987 1.1392 189.75 1.2097 4.3604 0.0059806
-112.62 0.13008 0.00026707 -49.193 -49.183 -0.16185 656.73 0.0015227 -49.316 -49.315 -0.16267 1.3418 2.0264 1629.3 -0.0069938 537.18 0.17204 0.029661 33.715 412.16 442.39 2.9005 0.95305 1.1424 190.28 1.1918 4.3879 0.0060491
-111.62 0.14384 0.00029345 -47.154 -47.143 -0.14919 655.71 0.0015251 -47.289 -47.287 -0.15008 1.3424 2.0285 1622.7 -0.0069774 527.08 0.17144 0.032600 30.675 413.10 443.53 2.8885 0.95623 1.1457 190.81 1.1742 4.4153 0.0061180
-110.62 0.15884 0.00032200 -45.111 -45.100 -0.13658 654.69 0.0015274 -45.259 -45.258 -0.13755 1.3429 2.0305 1616.0 -0.0069609 517.28 0.17084 0.035781 27.948 414.06 444.66 2.8769 0.95942 1.1490 191.34 1.1570 4.4427 0.0061871
-109.62 0.17516 0.00035286 -43.066 -43.053 -0.12404 653.66 0.0015298 -43.228 -43.226 -0.12509 1.3435 2.0326 1609.3 -0.0069441 507.76 0.17024 0.039220 25.497 415.01 445.80 2.8654 0.96261 1.1522 191.86 1.1402 4.4701 0.0062564
-108.62 0.19290 0.00038616 -41.018 -41.004 -0.11155 652.64 0.0015322 -41.194 -41.192 -0.11269 1.3441 2.0347 1602.6 -0.0069271 498.51 0.16964 0.042933 23.292 415.96 446.94 2.8542 0.96581 1.1555 192.38 1.1236 4.4974 0.0063261
-107.62 0.21215 0.00042207 -38.966 -38.950 -0.099115 651.61 0.0015347 -39.158 -39.156 -0.10036 1.3447 2.0369 1595.9 -0.0069098 489.52 0.16903 0.046937 21.305 416.92 448.09 2.8433 0.96901 1.1588 192.90 1.1075 4.5248 0.0063960
-106.62 0.23301 0.00046074 -36.911 -36.894 -0.086737 650.58 0.0015371 -37.120 -37.118 -0.088082 1.3453 2.0390 1589.2 -0.0068924 480.79 0.16843 0.051250 19.512 417.88 449.23 2.8325 0.97222 1.1621 193.41 1.0916 4.5522 0.0064662
-105.62 0.25561 0.00050232 -34.852 -34.834 -0.074413 649.55 0.0015395 -35.080 -35.078 -0.075868 1.3460 2.0412 1582.6 -0.0068747 472.30 0.16782 0.055891 17.892 418.85 450.38 2.8220 0.97544 1.1655 193.93 1.0760 4.5795 0.0065367
-104.62 0.28004 0.00054700 -32.791 -32.770 -0.062141 648.52 0.0015420 -33.038 -33.035 -0.063714 1.3467 2.0434 1575.9 -0.0068569 464.04 0.16721 0.060878 16.426 419.81 451.53 2.8116 0.97867 1.1688 194.44 1.0608 4.6069 0.0066074
-103.62 0.30643 0.00059494 -30.725 -30.703 -0.049921 647.49 0.0015444 -30.994 -30.991 -0.051619 1.3474 2.0456 1569.2 -0.0068387 456.00 0.16660 0.066231 15.099 420.78 452.68 2.8015 0.98191 1.1722 194.94 1.0458 4.6342 0.0066785
-102.62 0.33490 0.00064633 -28.656 -28.632 -0.037752 646.46 0.0015469 -28.947 -28.944 -0.039582 1.3481 2.0478 1562.5 -0.0068204 448.18 0.16600 0.071971 13.894 421.75 453.84 2.7916 0.98516 1.1755 195.44 1.0310 4.6615 0.0067498
-101.62 0.36558 0.00070136 -26.583 -26.556 -0.025631 645.43 0.0015494 -26.898 -26.894 -0.027602 1.3489 2.0501 1555.8 -0.0068018 440.57 0.16539 0.078120 12.801 422.73 454.99 2.7818 0.98841 1.1789 195.95 1.0166 4.6888 0.0068213
-100.62 0.39862 0.00076023 -24.506 -24.477 -0.013559 644.39 0.0015519 -24.847 -24.843 -0.015678 1.3497 2.0524 1549.1 -0.0067830 433.16 0.16478 0.084699 11.807 423.70 456.15 2.7723 0.99168 1.1823 196.44 1.0024 4.7161 0.0068932
-99.625 0.43414 0.00082312 -22.425 -22.394 -0.0015329 643.36 0.0015544 -22.794 -22.789 -0.0038103 1.3505 2.0547 1542.4 -0.0067639 425.95 0.16416 0.091731 10.901 424.68 457.31 2.7630 0.99496 1.1858 196.94 0.98838 4.7434 0.0069653
-98.625 0.47230 0.00089027 -20.341 -20.306 0.010447 642.32 0.0015569 -20.738 -20.733 0.0080027 1.3514 2.0570 1535.7 -0.0067447 418.92 0.16355 0.099240 10.077 425.66 458.48 2.7538 0.99825 1.1892 197.43 0.97464 4.7707 0.0070377
-97.625 0.51325 0.00096187 -18.252 -18.214 0.022383 641.28 0.0015594 -18.680 -18.674 0.019762 1.3522 2.0594 1529.0 -0.0067251 412.07 0.16294 0.10725 9.3239 426.65 459.64 2.7448 1.0016 1.1927 197.92 0.96112 4.7979 0.0071103
-96.625 0.55714 0.0010382 -16.158 -16.118 0.034275 640.24 0.0015619 -16.620 -16.614 0.031467 1.3531 2.0618 1522.3 -0.0067053 405.39 0.16233 0.11579 8.6365 427.63 460.81 2.7360 1.0049 1.1962 198.40 0.94783 4.8251 0.0071832
-95.625 0.60416 0.0011194 -14.061 -14.017 0.046125 639.20 0.0015645 -14.557 -14.550 0.043120 1.3540 2.0642 1515.7 -0.0066853 398.88 0.16171 0.12488 8.0078 428.62 461.98 2.7274 1.0082 1.1997 198.88 0.93475 4.8524 0.0072564
-94.625 0.65446 0.0012057 -11.958 -11.911 0.057933 638.16 0.0015670 -12.491 -12.484 0.054721 1.3550 2.0667 1509.0 -0.0066650 392.53 0.16110 0.13455 7.4323 429.61 463.15 2.7189 1.0116 1.2032 199.36 0.92188 4.8796 0.0073299
-93.625 0.70822 0.0012974 -9.8515 -9.8001 0.069702 637.12 0.0015696 -10.424 -10.416 0.066271 1.3560 2.0691 1502.3 -0.0066444 386.34 0.16048 0.14482 6.9050 430.60 464.32 2.7107 1.0149 1.2068 199.83 0.90921 4.9068 0.0074036
-92.625 0.76564 0.0013948 -7.7399 -7.6843 0.081432 636.07 0.0015722 -8.3535 -8.3452 0.077771 1.3570 2.0716 1495.6 -0.0066236 380.31 0.15987 0.15573 6.4212 431.60 465.49 2.7025 1.0183 1.2104 200.30 0.89673 4.9340 0.0074776
-91.625 0.82689 0.0014981 -5.6234 -5.5634 0.093123 635.02 0.0015747 -6.2808 -6.2719 0.089220 1.3580 2.0742 1488.9 -0.0066025 374.41 0.15925 0.16731 5.9769 432.59 466.67 2.6946 1.0217 1.2140 200.77 0.88445 4.9611 0.0075518
-90.625 0.89218 0.0016075 -3.5019 -3.4371 0.10478 633.98 0.0015773 -4.2056 -4.1959 0.10062 1.3591 2.0767 1482.2 -0.0065811 368.66 0.15864 0.17958 5.5685 433.59 467.84 2.6868 1.0251 1.2177 201.24 0.87236 4.9883 0.0076263
-89.625 0.96172 0.0017234 -1.3752 -1.3054 0.11640 632.93 0.0015800 -2.1279 -2.1174 0.11197 1.3602 2.0793 1475.5 -0.0065595 363.05 0.15802 0.19258 5.1928 434.59 469.02 2.6791 1.0285 1.2213 201.70 0.86045 5.0154 0.0077011
-88.625 1.0357 0.0018459 0.75665 0.83182 0.12798 631.88 0.0015826 -0.047516 -0.036215 0.12328 1.3613 2.0819 1468.8 -0.0065375 357.56 0.15740 0.20633 4.8466 435.59 470.20 2.6717 1.0320 1.2250 202.15 0.84873 5.0425 0.0077761
-87.625 1.1144 0.0019755 2.8939 2.9748 0.13953 630.83 0.0015852 2.0355 2.0476 0.13454 1.3625 2.0846 1462.1 -0.0065153 352.21 0.15679 0.22087 4.5276 436.60 471.39 2.6643 1.0354 1.2288 202.61 0.83718 5.0696 0.0078514
-86.625 1.1979 0.0021123 5.0367 5.1237 0.15105 629.77 0.0015879 4.1211 4.1342 0.14575 1.3637 2.0873 1455.4 -0.0064928 346.98 0.15617 0.23623 4.2331 437.61 472.57 2.6571 1.0389 1.2325 203.06 0.82580 5.0967 0.0079270
-85.625 1.2866 0.0022568 7.1852 7.2786 0.16254 628.72 0.0015905 6.2094 6.2235 0.15691 1.3649 2.0900 1448.8 -0.0064701 341.87 0.15555 0.25245 3.9612 438.61 473.75 2.6501 1.0424 1.2363 203.50 0.81460 5.1237 0.0080028
-84.625 1.3806 0.0024090 9.3394 9.4396 0.17400 627.66 0.0015932 8.3004 8.3155 0.16803 1.3661 2.0927 1442.1 -0.0064470 336.87 0.15494 0.26956 3.7097 439.63 474.94 2.6432 1.0460 1.2402 203.95 0.80356 5.1508 0.0080789
-83.625 1.4803 0.0025695 11.500 11.607 0.18543 626.60 0.0015959 10.394 10.410 0.17911 1.3674 2.0955 1435.4 -0.0064236 331.99 0.15432 0.28760 3.4771 440.64 476.13 2.6364 1.0495 1.2440 204.38 0.79269 5.1778 0.0081553
-82.625 1.5858 0.0027385 13.666 13.781 0.19683 625.54 0.0015986 12.491 12.508 0.19014 1.3687 2.0983 1428.7 -0.0063999 327.22 0.15370 0.30659 3.2616 441.65 477.31 2.6298 1.0531 1.2479 204.82 0.78199 5.2048 0.0082319
-81.625 1.6975 0.0029164 15.838 15.962 0.20820 624.48 0.0016013 14.590 14.609 0.20113 1.3700 2.1012 1422.0 -0.0063759 322.55 0.15309 0.32659 3.0619 442.67 478.50 2.6233 1.0567 1.2519 205.25 0.77144 5.2318 0.0083088
-80.625 1.8155 0.0031033 18.017 18.149 0.21954 623.42 0.0016041 16.692 16.712 0.21208 1.3714 2.1041 1415.4 -0.0063516 317.99 0.15247 0.34763 2.8766 443.69 479.70 2.6169 1.0603 1.2558 205.67 0.76106 5.2587 0.0083860
-79.625 1.9402 0.0032998 20.203 20.343 0.23087 622.36 0.0016068 18.797 18.819 0.22299 1.3728 2.1070 1408.7 -0.0063270 313.52 0.15186 0.36974 2.7046 444.71 480.89 2.6106 1.0639 1.2598 206.10 0.75083 5.2857 0.0084634
-78.625 2.0718 0.0035062 22.395 22.545 0.24216 621.29 0.0016096 20.905 20.928 0.23385 1.3742 2.1099 1402.0 -0.0063021 309.15 0.15124 0.39296 2.5448 445.73 482.08 2.6045 1.0676 1.2639 206.51 0.74076 5.3126 0.0085411
-77.625 2.2107 0.0037227 24.593 24.754 0.25344 620.22 0.0016123 23.016 23.040 0.24468 1.3757 2.1129 1395.3 -0.0062768 304.88 0.15062 0.41735 2.3961 446.75 483.27 2.5985 1.0712 1.2680 206.93 0.73084 5.3395 0.0086190
-76.625 2.3571 0.0039498 26.799 26.970 0.26469 619.15 0.0016151 25.130 25.156 0.25546 1.3772 2.1159 1388.7 -0.0062512 300.69 0.15001 0.44292 2.2577 447.78 484.47 2.5926 1.0749 1.2721 207.34 0.72107 5.3664 0.0086972
-75.625 2.5113 0.0041878 29.012 29.194 0.27592 618.08 0.0016179 27.247 27.275 0.26620 1.3787 2.1190 1382.0 -0.0062253 296.59 0.14939 0.46974 2.1288 448.81 485.67 2.5869 1.0787 1.2762 207.74 0.71146 5.3933 0.0087757
-74.625 2.6736 0.0044371 31.232 31.426 0.28713 617.01 0.0016207 29.366 29.396 0.27691 1.3802 2.1221 1375.4 -0.0061990 292.58 0.14878 0.49783 2.0087 449.83 486.86 2.5812 1.0824 1.2804 208.14 0.70200 5.4201 0.0088544
-73.625 2.8444 0.0046980 33.460 33.666 0.29833 615.93 0.0016236 31.489 31.521 0.28758 1.3818 2.1252 1368.7 -0.0061724 288.65 0.14816 0.52725 1.8966 450.86 488.06 2.5757 1.0862 1.2847 208.54 0.69268 5.4469 0.0089334
-72.625 3.0240 0.0049710 35.695 35.914 0.30950 614.85 0.0016264 33.615 33.649 0.29821 1.3834 2.1284 1362.0 -0.0061454 284.81 0.14755 0.55804 1.7920 451.90 489.26 2.5703 1.0900 1.2889 208.93 0.68351 5.4737 0.0090126
-71.625 3.2127 0.0052565 37.938 38.171 0.32066 613.78 0.0016293 35.745 35.781 0.30880 1.3851 2.1316 1355.4 -0.0061181 281.03 0.14694 0.59024 1.6942 452.93 490.46 2.5650 1.0938 1.2932 209.32 0.67448 5.5005 0.0090922
-70.625 3.4108 0.0055547 40.188 40.436 0.33180 612.69 0.0016321 37.877 37.915 0.31935 1.3867 2.1349 1348.7 -0.0060904 277.34 0.14632 0.62390 1.6028 453.96 491.66 2.5598 1.0976 1.2976 209.70 0.66560 5.5273 0.0091720
-69.625 3.6187 0.0058662 42.447 42.710 0.34292 611.61 0.0016350 40.013 40.053 0.32987 1.3884 2.1382 1342.1 -0.0060624 273.72 0.14571 0.65906 1.5173 455.00 492.86 2.5547 1.1015 1.3020 210.08 0.65687 5.5540 0.0092520
-68.625 3.8367 0.0061914 44.714 44.993 0.35403 610.53 0.0016379 42.152 42.195 0.34036 1.3902 2.1415 1335.5 -0.0060339 270.17 0.14510 0.69577 1.4372 456.04 494.06 2.5497 1.1054 1.3064 210.45 0.64827 5.5807 0.0093324
-67.625 4.0652 0.0065305 46.989 47.284 0.36513 609.44 0.0016409 44.294 44.340 0.35080 1.3919 2.1449 1328.8 -0.0060051 266.69 0.14449 0.73408 1.3622 457.08 495.26 2.5448 1.1093 1.3109 210.82 0.63981 5.6074 0.0094130
-66.625 4.3046 0.0068842 49.273 49.586 0.37622 608.35 0.0016438 46.439 46.488 0.36122 1.3937 2.1483 1322.2 -0.0059760 263.28 0.14388 0.77404 1.2919 458.12 496.46 2.5400 1.1133 1.3154 211.18 0.63150 5.6341 0.0094939
-65.625 4.5551 0.0072528 51.566 51.897 0.38729 607.26 0.0016467 48.588 48.640 0.37160 1.3955 2.1518 1315.6 -0.0059464 259.93 0.14327 0.81570 1.2259 459.16 497.67 2.5353 1.1172 1.3200 211.54 0.62332 5.6608 0.0095750
-64.625 4.8173 0.0076367 53.867 54.217 0.39836 606.16 0.0016497 50.740 50.795 0.38195 1.3974 2.1553 1308.9 -0.0059164 256.65 0.14266 0.85910 1.1640 460.21 498.87 2.5307 1.1212 1.3246 211.89 0.61527 5.6874 0.0096564
-63.625 5.0915 0.0080364 56.178 56.547 0.40941 605.07 0.0016527 52.896 52.954 0.39226 1.3993 2.1588 1302.3 -0.0058861 253.42 0.14205 0.90429 1.1058 461.25 500.07 2.5262 1.1252 1.3293 212.24 0.60736 5.7140 0.0097382
-62.625 5.3781 0.0084523 58.498 58.888 0.42045 603.97 0.0016557 55.055 55.117 0.40254 1.4012 2.1624 1295.7 -0.0058553 250.26 0.14144 0.95134 1.0511 462.30 501.28 2.5218 1.1293 1.3340 212.58 0.59958 5.7406 0.0098201
-61.625 5.6774 0.0088849 60.827 61.239 0.43149 602.87 0.0016587 57.218 57.283 0.41279 1.4031 2.1660 1289.1 -0.0058241 247.16 0.14084 1.0003 0.99972 463.35 502.48 2.5175 1.1333 1.3387 212.92 0.59194 5.7672 0.0099024
-60.625 5.9899 0.0093346 63.165 63.600 0.44252 601.77 0.0016618 59.385 59.453 0.42301 1.4051 2.1697 1282.5 -0.0057925 244.12 0.14023 1.0512 0.95131 464.40 503.68 2.5133 1.1374 1.3435 213.26 0.58442 5.7938 0.0099850
-59.625 6.3160 0.0098019 65.513 65.972 0.45354 600.66 0.0016648 61.554 61.627 0.43320 1.4071 2.1734 1275.9 -0.0057605 241.13 0.13962 1.1041 0.90573 465.45 504.89 2.5091 1.1415 1.3483 213.58 0.57704 5.8203 0.010068
-58.625 6.6561 0.010287 67.871 68.355 0.46456 599.55 0.0016679 63.728 63.805 0.44335 1.4091 2.1772 1269.3 -0.0057280 238.19 0.13902 1.1591 0.86277 466.50 506.09 2.5051 1.1457 1.3532 213.90 0.56978 5.8468 0.010151
-57.625 7.0107 0.010791 70.240 70.748 0.47558 598.44 0.0016710 65.905 65.986 0.45348 1.4111 2.1810 1262.7 -0.0056951 235.31 0.13842 1.2161 0.82228 467.55 507.30 2.5011 1.1498 1.3581 214.22 0.56265 5.8733 0.010234
-56.625 7.3801 0.011314 72.618 73.154 0.48658 597.33 0.0016741 68.086 68.172 0.46358 1.4132 2.1848 1256.1 -0.0056617 232.48 0.13781 1.2754 0.78408 468.60 508.50 2.4972 1.1540 1.3631 214.53 0.55564 5.8998 0.010318
-55.625 7.7648 0.011857 75.007 75.570 0.49759 596.22 0.0016772 70.271 70.361 0.47364 1.4153 2.1887 1249.5 -0.0056279 229.69 0.13721 1.3369 0.74802 469.66 509.71 2.4934 1.1582 1.3681 214.84 0.54875 5.9263 0.010402
-54.625 8.1652 0.012419 77.406 77.998 0.50860 595.10 0.0016804 72.460 72.554 0.48368 1.4174 2.1927 1242.9 -0.0055937 226.96 0.13661 1.4006 0.71396 470.72 510.91 2.4897 1.1624 1.3731 215.14 0.54199 5.9527 0.010486
-53.625 8.5819 0.013002 79.816 80.439 0.51960 593.98 0.0016836 74.652 74.752 0.49369 1.4196 2.1967 1236.3 -0.0055589 224.27 0.13601 1.4667 0.68178 471.77 512.11 2.4860 1.1667 1.3782 215.43 0.53535 5.9792 0.010571
-52.625 9.0151 0.013606 82.237 82.891 0.53060 592.86 0.0016867 76.849 76.954 0.50368 1.4218 2.2007 1229.8 -0.0055237 221.63 0.13541 1.5353 0.65136 472.83 513.32 2.4824 1.1710 1.3834 215.72 0.52882 6.0056 0.010656
-51.625 9.4655 0.014232 84.668 85.355 0.54160 591.73 0.0016900 79.049 79.159 0.51363 1.4240 2.2048 1223.2 -0.0054880 219.04 0.13482 1.6062 0.62258 473.89 514.52 2.4789 1.1752 1.3886 216.00 0.52241 6.0320 0.010741
-50.625 9.9335 0.014879 87.111 87.832 0.55261 590.60 0.0016932 81.253 81.369 0.52356 1.4262 2.2089 1216.6 -0.0054519 216.48 0.13422 1.6797 0.59534 474.95 515.73 2.4755 1.1796 1.3938 216.28 0.51612 6.0584 0.010827
-49.625 10.419 0.015550 89.566 90.322 0.56361 589.47 0.0016964 83.462 83.584 0.53347 1.4285 2.2131 1210.1 -0.0054152 213.98 0.13363 1.7558 0.56954 476.01 516.93 2.4722 1.1839 1.3991 216.55 0.50994 6.0848 0.010913
-48.625 10.924 0.016243 92.032 92.825 0.57462 588.34 0.0016997 85.674 85.802 0.54334 1.4308 2.2173 1203.5 -0.0053780 211.51 0.13303 1.8345 0.54510 477.07 518.13 2.4689 1.1883 1.4044 216.82 0.50387 6.1112 0.010999
-47.625 11.448 0.016960 94.509 95.340 0.58563 587.20 0.0017030 87.891 88.025 0.55319 1.4331 2.2216 1196.9 -0.0053403 209.08 0.13244 1.9159 0.52194 478.14 519.33 2.4657 1.1927 1.4098 217.08 0.49792 6.1375 0.011085
-46.625 11.991 0.017702 96.999 97.869 0.59664 586.06 0.0017063 90.111 90.252 0.56302 1.4354 2.2259 1190.4 -0.0053020 206.69 0.13185 2.0001 0.49997 479.20 520.53 2.4625 1.1971 1.4153 217.33 0.49207 6.1639 0.011172
-45.625 12.554 0.018468 99.500 100.41 0.60766 584.92 0.0017096 92.336 92.484 0.57282 1.4378 2.2303 1183.8 -0.0052633 204.34 0.13126 2.0872 0.47912 480.27 521.74 2.4594 1.2015 1.4207 217.58 0.48633 6.1902 0.011259
-44.625 13.137 0.019259 102.01 102.97 0.61869 583.77 0.0017130 94.565 94.720 0.58260 1.4402 2.2347 1177.3 -0.0052240 202.03 0.13067 2.1771 0.45933 481.33 522.94 2.4564 1.2060 1.4263 217.82 0.48069 6.2165 0.011347
-43.625 13.741 0.020077 104.54 105.54 0.62972 582.62 0.0017164 96.799 96.961 0.59235 1.4426 2.2392 1170.7 -0.0051841 199.75 0.13008 2.2700 0.44053 482.40 524.14 2.4535 1.2104 1.4319 218.05 0.47516 6.2429 0.011435
-42.625 14.367 0.020921 107.08 108.12 0.64075 581.47 0.0017198 99.036 99.207 0.60208 1.4450 2.2437 1164.2 -0.0051437 197.51 0.12949 2.3659 0.42267 483.46 525.33 2.4506 1.2149 1.4375 218.28 0.46973 6.2692 0.011523
-41.625 15.015 0.021792 109.63 110.72 0.65180 580.32 0.0017232 101.28 101.46 0.61179 1.4475 2.2483 1157.7 -0.0051027 195.30 0.12891 2.4649 0.40569 484.53 526.53 2.4478 1.2195 1.4432 218.50 0.46440 6.2955 0.011612
-40.625 15.686 0.022690 112.19 113.33 0.66285 579.16 0.0017266 103.52 103.71 0.62147 1.4500 2.2529 1151.1 -0.0050611 193.13 0.12832 2.5671 0.38954 485.60 527.73 2.4450 1.2240 1.4489 218.72 0.45917 6.3218 0.011701
-39.625 16.380 0.023617 114.77 115.96 0.67391 578.00 0.0017301 105.78 105.97 0.63113 1.4525 2.2576 1144.6 -0.0050189 190.99 0.12774 2.6725 0.37418 486.67 528.93 2.4423 1.2286 1.4547 218.93 0.45403 6.3481 0.011790
-38.625 17.097 0.024573 117.36 118.60 0.68498 576.83 0.0017336 108.03 108.24 0.64077 1.4550 2.2623 1138.0 -0.0049761 188.88 0.12716 2.7813 0.35955 487.74 530.12 2.4397 1.2332 1.4606 219.13 0.44900 6.3744 0.011880
-37.625 17.838 0.025559 119.97 121.26 0.69606 575.66 0.0017371 110.29 110.51 0.65039 1.4576 2.2671 1131.5 -0.0049327 186.81 0.12658 2.8934 0.34562 488.81 531.32 2.4371 1.2378 1.4665 219.33 0.44405 6.4007 0.011970
-36.625 18.604 0.026574 122.58 123.93 0.70714 574.49 0.0017407 112.56 112.78 0.65999 1.4602 2.2719 1125.0 -0.0048887 184.76 0.12600 3.0089 0.33235 489.88 532.51 2.4346 1.2424 1.4724 219.52 0.43920 6.4270 0.012060
-35.625 19.395 0.027621 125.21 126.62 0.71825 573.32 0.0017442 114.83 115.06 0.66956 1.4628 2.2768 1118.5 -0.0048440 182.75 0.12542 3.1280 0.31969 490.95 533.70 2.4321 1.2471 1.4784 219.70 0.43444 6.4533 0.012151
-34.625 20.212 0.028699 127.86 129.33 0.72936 572.14 0.0017478 117.10 117.34 0.67912 1.4654 2.2818 1111.9 -0.0047987 180.76 0.12485 3.2506 0.30763 492.02 534.89 2.4297 1.2517 1.4845 219.88 0.42977 6.4797 0.012243
-33.625 21.056 0.029809 130.52 132.05 0.74048 570.96 0.0017514 119.38 119.63 0.68865 1.4681 2.2868 1105.4 -0.0047527 178.80 0.12427 3.3770 0.29612 493.09 536.08 2.4273 1.2564 1.4906 220.05 0.42519 6.5060 0.012334
-32.625 21.926 0.030952 133.19 134.78 0.75162 569.77 0.0017551 121.66 121.93 0.69817 1.4708 2.2918 1098.9 -0.0047061 176.87 0.12370 3.5071 0.28514 494.17 537.27 2.4250 1.2611 1.4968 220.21 0.42070 6.5323 0.012426
-31.625 22.823 0.032128 135.88 137.54 0.76277 568.58 0.0017588 123.95 124.23 0.70767 1.4735 2.2970 1092.3 -0.0046587 174.97 0.12313 3.6410 0.27465 495.24 538.46 2.4227 1.2659 1.5031 220.36 0.41629 6.5587 0.012519
-30.625 23.749 0.033338 138.58 140.30 0.77393 567.39 0.0017625 126.24 126.53 0.71714 1.4762 2.3021 1085.8 -0.0046107 173.09 0.12256 3.7787 0.26464 496.31 539.64 2.4205 1.2706 1.5094 220.51 0.41196 6.5850 0.012612
-29.625 24.703 0.034584 141.30 143.09 0.78511 566.19 0.0017662 128.54 128.84 0.72660 1.4790 2.3074 1079.3 -0.0045619 171.24 0.12200 3.9205 0.25507 497.38 540.83 2.4184 1.2754 1.5157 220.65 0.40772 6.6114 0.012706
-28.625 25.687 0.035864 144.03 145.89 0.79630 564.99 0.0017699 130.84 131.16 0.73604 1.4818 2.3126 1072.8 -0.0045124 169.42 0.12143 4.0663 0.24592 498.46 542.01 2.4162 1.2802 1.5222 220.79 0.40356 6.6378 0.012800
-27.625 26.700 0.037182 146.77 148.71 0.80751 563.78 0.0017737 133.15 133.48 0.74547 1.4846 2.3180 1066.2 -0.0044621 167.62 0.12087 4.2163 0.23717 499.53 543.19 2.4142 1.2850 1.5286 220.91 0.39947 6.6642 0.012894
-26.625 27.743 0.038536 149.54 151.55 0.81874 562.57 0.0017775 135.47 135.81 0.75487 1.4874 2.3234 1059.7 -0.0044111 165.84 0.12031 4.3705 0.22881 500.60 544.37 2.4122 1.2899 1.5352 221.03 0.39547 6.6906 0.012989
-25.625 28.817 0.039928 152.31 154.40 0.82998 561.36 0.0017814 137.78 138.14 0.76426 1.4902 2.3289 1053.2 -0.0043593 164.09 0.11975 4.5290 0.22080 501.68 545.55 2.4102 1.2947 1.5418 221.14 0.39154 6.7171 0.013084
-24.625 29.923 0.041358 155.11 157.28 0.84123 560.14 0.0017853 140.11 140.48 0.77363 1.4931 2.3344 1046.7 -0.0043067 162.36 0.11919 4.6918 0.21314 502.75 546.72 2.4083 1.2996 1.5485 221.25 0.38768 6.7436 0.013180
-23.625 31.061 0.042828 157.91 160.17 0.85251 558.92 0.0017892 142.44 142.82 0.78298 1.4960 2.3400 1040.1 -0.0042533 160.65 0.11863 4.8592 0.20580 503.82 547.90 2.4064 1.3045 1.5552 221.35 0.38391 6.7701 0.013277
-22.625 32.232 0.044337 160.74 163.08 0.86380 557.69 0.0017931 144.77 145.17 0.79232 1.4990 2.3457 1033.6 -0.0041990 158.97 0.11807 5.0311 0.19877 504.90 549.07 2.4045 1.3095 1.5621 221.44 0.38020 6.7967 0.013374
-21.625 33.435 0.045888 163.58 166.00 0.87511 556.46 0.0017971 147.11 147.52 0.80164 1.5019 2.3514 1027.1 -0.0041439 157.30 0.11752 5.2076 0.19203 505.97 550.24 2.4027 1.3144 1.5690 221.52 0.37656 6.8232 0.013471
-20.625 34.673 0.047480 166.43 168.95 0.88645 555.23 0.0018011 149.45 149.88 0.81095 1.5049 2.3572 1020.6 -0.0040879 155.66 0.11697 5.3889 0.18557 507.04 551.40 2.4010 1.3194 1.5759 221.59 0.37300 6.8499 0.013569
-19.625 35.946 0.049115 169.30 171.91 0.89780 553.99 0.0018051 151.80 152.25 0.82024 1.5079 2.3630 1014.0 -0.0040311 154.04 0.11642 5.5750 0.17937 508.11 552.57 2.3992 1.3244 1.5829 221.66 0.36950 6.8765 0.013668
-18.625 37.253 0.050793 172.19 174.90 0.90917 552.74 0.0018092 154.16 154.62 0.82952 1.5109 2.3689 1007.5 -0.0039733 152.44 0.11587 5.7660 0.17343 509.19 553.73 2.3976 1.3294 1.5901 221.72 0.36608 6.9032 0.013767
-17.625 38.596 0.052515 175.10 177.90 0.92056 551.49 0.0018133 156.52 157.00 0.83878 1.5140 2.3749 1001.0 -0.0039145 150.86 0.11532 5.9621 0.16773 510.26 554.89 2.3959 1.3345 1.5972 221.77 0.36272 6.9300 0.013867
-16.625 39.976 0.054283 178.02 180.92 0.93197 550.24 0.0018174 158.89 159.39 0.84803 1.5171 2.3810 994.44 -0.0038549 149.29 0.11478 6.1632 0.16225 511.33 556.05 2.3943 1.3395 1.6045 221.81 0.35942 6.9568 0.013968
-15.625 41.392 0.056096 180.96 183.96 0.94340 548.98 0.0018216 161.26 161.78 0.85726 1.5202 2.3871 987.91 -0.0037942 147.75 0.11423 6.3696 0.15700 512.40 557.20 2.3927 1.3446 1.6119 221.85 0.35619 6.9836 0.014069
-14.625 42.846 0.057957 183.91 187.02 0.95485 547.71 0.0018258 163.64 164.18 0.86649 1.5233 2.3933 981.37 -0.0037325 146.22 0.11369 6.5812 0.15195 513.47 558.36 2.3912 1.3497 1.6193 221.87 0.35302 7.0105 0.014170
-13.625 44.338 0.059865 186.88 190.10 0.96633 546.44 0.0018300 166.02 166.58 0.87569 1.5264 2.3996 974.83 -0.0036698 144.72 0.11315 6.7983 0.14710 514.54 559.51 2.3897 1.3549 1.6268 221.89 0.34992 7.0375 0.014273
-12.625 45.870 0.061822 189.87 193.20 0.97783 545.17 0.0018343 168.41 168.99 0.88489 1.5296 2.4059 968.29 -0.0036061 143.23 0.11261 7.0208 0.14243 515.61 560.65 2.3883 1.3600 1.6344 221.90 0.34688 7.0646 0.014376
-11.625 47.440 0.063828 192.88 196.33 0.98935 543.89 0.0018386 170.81 171.41 0.89407 1.5328 2.4124 961.75 -0.0035413 141.76 0.11208 7.2490 0.13795 516.68 561.80 2.3868 1.3652 1.6421 221.91 0.34389 7.0917 0.014479
-10.625 49.051 0.065885 195.91 199.47 1.0009 542.60 0.0018430 173.21 173.83 0.90324 1.5360 2.4189 955.20 -0.0034753 140.30 0.11154 7.4829 0.13364 517.75 562.94 2.3854 1.3704 1.6498 221.90 0.34097 7.1188 0.014584
-9.6250 50.703 0.067995 198.95 202.63 1.0125 541.31 0.0018474 175.61 176.26 0.91240 1.5393 2.4255 948.65 -0.0034082 138.86 0.11101 7.7226 0.12949 518.81 564.08 2.3841 1.3757 1.6577 221.88 0.33810 7.1461 0.014689
-8.6250 52.396 0.070156 202.01 205.81 1.0241 540.02 0.0018518 178.03 178.70 0.92154 1.5426 2.4321 942.10 -0.0033400 137.44 0.11048 7.9683 0.12550 519.88 565.21 2.3827 1.3809 1.6657 221.86 0.33529 7.1734 0.014795
-7.6250 54.131 0.072372 205.09 209.02 1.0357 538.72 0.0018563 180.45 181.14 0.93068 1.5459 2.4389 935.55 -0.0032705 136.03 0.10995 8.2200 0.12165 520.94 566.35 2.3814 1.3862 1.6737 221.83 0.33254 7.2008 0.014902
-6.6250 55.909 0.074643 208.19 212.24 1.0473 537.41 0.0018608 182.87 183.59 0.93980 1.5492 2.4457 928.99 -0.0031998 134.64 0.10942 8.4779 0.11795 522.01 567.48 2.3801 1.3915 1.6819 221.79 0.32984 7.2284 0.015009
-5.6250 57.730 0.076970 211.30 215.49 1.0590 536.10 0.0018653 185.30 186.05 0.94892 1.5525 2.4526 922.43 -0.0031279 133.27 0.10889 8.7420 0.11439 523.07 568.60 2.3789 1.3969 1.6902 221.74 0.32720 7.2560 0.015117
-4.6250 59.595 0.079353 214.44 218.76 1.0707 534.78 0.0018699 187.74 188.51 0.95802 1.5559 2.4596 915.87 -0.0030546 131.91 0.10837 9.0126 0.11096 524.13 569.72 2.3777 1.4022 1.6985 221.68 0.32461 7.2837 0.015226
-3.6250 61.505 0.081796 217.59 222.05 1.0824 533.45 0.0018746 190.19 190.98 0.96711 1.5593 2.4667 909.30 -0.0029800 130.56 0.10785 9.2896 0.10765 525.19 570.84 2.3765 1.4076 1.7070 221.62 0.32207 7.3115 0.015336
-2.6250 63.461 0.084297 220.76 225.37 1.0941 532.12 0.0018793 192.64 193.46 0.97620 1.5627 2.4739 902.73 -0.0029041 129.23 0.10733 9.5733 0.10446 526.25 571.96 2.3753 1.4131 1.7156 221.54 0.31958 7.3394 0.015447
-1.6250 65.462 0.086860 223.95 228.70 1.1059 530.78 0.0018840 195.10 195.95 0.98527 1.5662 2.4811 896.16 -0.0028267 127.91 0.10681 9.8638 0.10138 527.31 573.07 2.3742 1.4185 1.7243 221.45 0.31715 7.3674 0.015559
-0.62500 67.510 0.089484 227.16 232.06 1.1177 529.44 0.0018888 197.56 198.44 0.99434 1.5696 2.4885 889.58 -0.0027478 126.61 0.10629 10.161 0.098414 528.37 574.18 2.3731 1.4240 1.7331 221.36 0.31476 7.3956 0.015671
0.37500 69.606 0.092172 230.39 235.44 1.1295 528.09 0.0018936 200.03 200.94 1.0034 1.5731 2.4960 883.00 -0.0026675 125.32 0.10578 10.466 0.095552 529.42 575.28 2.3720 1.4295 1.7421 221.26 0.31242 7.4239 0.015785
1.3750 71.749 0.094925 233.64 238.85 1.1414 526.73 0.0018985 202.51 203.45 1.0124 1.5767 2.5035 876.42 -0.0025856 124.04 0.10527 10.777 0.092790 530.48 576.38 2.3709 1.4350 1.7512 221.14 0.31013 7.4523 0.015899
2.3750 73.941 0.097743 236.91 242.27 1.1533 525.37 0.0019034 204.99 205.96 1.0215 1.5802 2.5112 869.83 -0.0025022 122.78 0.10476 11.096 0.090123 531.53 577.47 2.3699 1.4406 1.7604 221.02 0.30789 7.4808 0.016015
3.3750 76.183 0.10063 240.20 245.72 1.1652 523.99 0.0019084 207.48 208.48 1.0305 1.5838 2.5190 863.24 -0.0024171 121.53 0.10425 11.422 0.087549 532.58 578.56 2.3688 1.4462 1.7697 220.89 0.30569 7.5095 0.016131
4.3750 78.475 0.10358 243.50 249.20 1.1771 522.62 0.0019134 209.98 211.01 1.0395 1.5874 2.5268 856.64 -0.0023303 120.29 0.10374 11.756 0.085062 533.63 579.65 2.3678 1.4518 1.7792 220.75 0.30354 7.5384 0.016249
5.3750 80.817 0.10661 246.83 252.70 1.1891 521.23 0.0019185 212.48 213.55 1.0486 1.5910 2.5348 850.04 -0.0022417 119.06 0.10324 12.098 0.082660 534.67 580.73 2.3669 1.4575 1.7888 220.60 0.30144 7.5674 0.016368
6.3750 83.211 0.10971 250.18 256.22 1.2011 519.84 0.0019237 215.00 216.10 1.0576 1.5946 2.5429 843.43 -0.0021514 117.85 0.10273 12.447 0.080340 535.72 581.81 2.3659 1.4632 1.7986 220.44 0.29938 7.5966 0.016487
7.3750 85.657 0.11288 253.55 259.77 1.2131 518.44 0.0019289 217.51 218.65 1.0666 1.5983 2.5511 836.82 -0.0020593 116.65 0.10223 12.805 0.078096 536.76 582.88 2.3650 1.4689 1.8085 220.27 0.29736 7.6259 0.016608
8.3750 88.156 0.11612 256.94 263.34 1.2252 517.03 0.0019341 220.04 221.22 1.0756 1.6020 2.5595 830.20 -0.0019652 115.46 0.10173 13.170 0.075928 537.80 583.95 2.3640 1.4746 1.8186 220.08 0.29538 7.6555 0.016730
9.3750 90.708 0.11944 260.35 266.93 1.2373 515.62 0.0019394 222.57 223.79 1.0846 1.6057 2.5679 823.58 -0.0018691 114.28 0.10124 13.545 0.073830 538.84 585.01 2.3631 1.4804 1.8288 219.89 0.29345 7.6852 0.016853
10.375 93.315 0.12284 263.78 270.55 1.2494 514.19 0.0019448 225.11 226.37 1.0936 1.6095 2.5765 816.96 -0.0017710 113.11 0.10074 13.927 0.071802 539.87 586.07 2.3622 1.4863 1.8392 219.69 0.29156 7.7151 0.016978
11.375 95.977 0.12632 267.23 274.20 1.2616 512.76 0.0019502 227.66 228.95 1.1025 1.6132 2.5852 810.32 -0.0016708 111.95 0.10025 14.319 0.069840 540.90 587.12 2.3614 1.4921 1.8498 219.48 0.28971 7.7452 0.017103
12.375 98.694 0.12989 270.71 277.87 1.2738 511.32 0.0019557 230.22 231.55 1.1115 1.6170 2.5940 803.68 -0.0015685 110.80 0.099756 14.719 0.067941 541.93 588.17 2.3605 1.4980 1.8605 219.26 0.28790 7.7756 0.017230
13.375 101.47 0.13353 274.20 281.56 1.2860 509.87 0.0019613 232.78 234.15 1.1205 1.6208 2.6030 797.04 -0.0014639 109.67 0.099267 15.128 0.066103 542.96 589.21 2.3597 1.5040 1.8715 219.03 0.28612 7.8061 0.017359
14.375 104.30 0.13727 277.72 285.29 1.2982 508.42 0.0019669 235.35 236.77 1.1295 1.6247 2.6121 790.39 -0.0013569 108.54 0.098779 15.547 0.064323 543.99 590.24 2.3588 1.5099 1.8826 218.79 0.28439 7.8369 0.017488
15.375 107.19 0.14109 281.26 289.03 1.3105 506.95 0.0019726 237.93 239.39 1.1384 1.6286 2.6214 783.73 -0.0012476 107.43 0.098294 15.974 0.062600 545.01 591.27 2.3580 1.5159 1.8940 218.53 0.28270 7.8680 0.017619
16.375 110.13 0.14500 284.82 292.81 1.3228 505.48 0.0019783 240.52 242.02 1.1474 1.6324 2.6308 777.07 -0.0011357 106.32 0.097810 16.412 0.060931 546.03 592.29 2.3572 1.5220 1.9055 218.27 0.28104 7.8993 0.017752
17.375 113.14 0.14900 288.40 296.61 1.3352 504.00 0.0019841 243.11 244.66 1.1564 1.6364 2.6403 770.40 -0.0010213 105.22 0.097328 16.859 0.059314 547.04 593.31 2.3564 1.5281 1.9172 217.99 0.27942 7.9308 0.017886
18.375 116.21 0.15310 292.00 300.44 1.3476 502.50 0.0019900 245.72 247.31 1.1653 1.6403 2.6501 763.72 -0.00090422 104.14 0.096848 17.317 0.057747 548.05 594.32 2.3557 1.5342 1.9292 217.71 0.27783 7.9626 0.018021
19.375 119.33 0.15729 295.63 304.29 1.3600 501.00 0.0019960 248.33 249.97 1.1743 1.6443 2.6599 757.04 -0.00078435 103.06 0.096371 17.785 0.056228 549.06 595.33 2.3549 1.5404 1.9414 217.41 0.27628 7.9947 0.018159
20.375 122.52 0.16159 299.28 308.17 1.3724 499.49 0.0020020 250.95 252.64 1.1832 1.6483 2.6700 750.35 -0.00066161 101.99 0.095895 18.263 0.054756 550.07 596.32 2.3541 1.5466 1.9538 217.10 0.27477 8.0272 0.018297
21.375 125.77 0.16598 302.95 312.08 1.3849 497.97 0.0020082 253.57 255.32 1.1922 1.6523 2.6802 743.64 -0.00053589 100.93 0.095420 18.752 0.053328 551.07 597.31 2.3534 1.5528 1.9665 216.78 0.27329 8.0599 0.018438
22.375 129.08 0.17048 306.65 316.02 1.3975 496.43 0.0020144 256.21 258.00 1.2012 1.6563 2.6906 736.94 -0.00040708 99.877 0.094948 19.252 0.051943 552.07 598.30 2.3526 1.5591 1.9795 216.45 0.27184 8.0929 0.018580
23.375 132.46 0.17509 310.37 319.98 1.4100 494.89 0.0020206 258.86 260.70 1.2101 1.6604 2.7012 730.22 -0.00027505 98.834 0.094478 19.763 0.050600 553.06 599.27 2.3519 1.5655 1.9927 216.11 0.27043 8.1263 0.018724
24.375 135.90 0.17980 314.11 323.97 1.4226 493.34 0.0020270 261.51 263.41 1.2191 1.6645 2.7120 723.49 -0.00013968 97.800 0.094009 20.285 0.049297 554.05 600.24 2.3512 1.5718 2.0061 215.75 0.26906 8.1600 0.018870
25.375 139.41 0.18463 317.87 327.99 1.4353 491.77 0.0020335 264.17 266.13 1.2280 1.6686 2.7230 716.76 -8.3775e-07 96.773 0.093543 20.820 0.048032 555.03 601.20 2.3504 1.5783 2.0199 215.39 0.26771 8.1941 0.019017
26.375 142.98 0.18958 321.66 332.04 1.4479 490.20 0.0020400 266.84 268.85 1.2370 1.6728 2.7342 710.01 0.00014161 95.755 0.093078 21.366 0.046804 556.01 602.15 2.3497 1.5847 2.0340 215.01 0.26640 8.2286 0.019167
27.375 146.62 0.19465 325.48 336.12 1.4606 488.61 0.0020466 269.52 271.59 1.2459 1.6770 2.7456 703.26 0.00028782 94.745 0.092615 21.924 0.045612 556.99 603.10 2.3490 1.5913 2.0484 214.62 0.26512 8.2634 0.019319
28.375 150.33 0.19983 329.32 340.23 1.4734 487.01 0.0020533 272.21 274.34 1.2549 1.6812 2.7573 696.49 0.00043793 93.742 0.092154 22.495 0.044454 557.96 604.03 2.3483 1.5978 2.0631 214.21 0.26387 8.2987 0.019472
29.375 154.10 0.20515 333.18 344.36 1.4862 485.40 0.0020601 274.91 277.10 1.2638 1.6854 2.7691 689.72 0.00059212 92.747 0.091695 23.079 0.043329 558.92 604.96 2.3476 1.6044 2.0781 213.80 0.26265 8.3344 0.019628
30.375 157.94 0.21059 337.06 348.53 1.4990 483.78 0.0020671 277.62 279.87 1.2728 1.6897 2.7813 682.93 0.00075055 91.760 0.091238 23.676 0.042237 559.88 605.88 2.3469 1.6111 2.0935 213.37 0.26147 8.3705 0.019786
31.375 161.86 0.21617 340.98 352.72 1.5119 482.15 0.0020741 280.34 282.66 1.2818 1.6939 2.7936 676.13 0.00091340 90.779 0.090782 24.287 0.041175 560.84 606.79 2.3462 1.6178 2.1092 212.93 0.26031 8.4071 0.019947
32.375 165.84 0.22188 344.91 356.95 1.5248 480.50 0.0020812 283.07 285.45 1.2908 1.6983 2.8063 669.32 0.0010809 89.806 0.090328 24.911 0.040143 561.79 607.69 2.3455 1.6246 2.1254 212.48 0.25919 8.4442 0.020110
33.375 169.90 0.22774 348.87 361.20 1.5377 478.83 0.0020884 285.81 288.26 1.2997 1.7026 2.8192 662.50 0.0012532 88.840 0.089876 25.549 0.039140 562.73 608.58 2.3448 1.6314 2.1419 212.01 0.25809 8.4818 0.020275
34.375 174.02 0.23374 352.86 365.49 1.5507 477.16 0.0020957 288.56 291.07 1.3087 1.7070 2.8324 655.67 0.0014305 87.880 0.089426 26.202 0.038164 563.67 609.46 2.3440 1.6383 2.1589 211.53 0.25702 8.5199 0.020443
35.375 178.22 0.23989 356.87 369.81 1.5637 475.47 0.0021032 291.32 293.90 1.3177 1.7114 2.8459 648.82 0.0016131 86.927 0.088977 26.870 0.037216 564.60 610.33 2.3433 1.6452 2.1763 211.04 0.25599 8.5586 0.020613
36.375 182.50 0.24620 360.91 374.16 1.5768 473.77 0.0021107 294.09 296.74 1.3267 1.7158 2.8597 641.96 0.0018012 85.980 0.088531 27.553 0.036293 565.52 611.19 2.3426 1.6522 2.1942 210.53 0.25498 8.5978 0.020786
37.375 186.84 0.25266 364.98 378.54 1.5899 472.05 0.0021184 296.87 299.60 1.3357 1.7203 2.8739 635.08 0.0019950 85.040 0.088085 28.252 0.035395 566.44 612.04 2.3419 1.6592 2.2125 210.01 0.25400 8.6376 0.020962
38.375 191.27 0.25930 369.07 382.95 1.6031 470.31 0.0021262 299.66 302.46 1.3447 1.7248 2.8884 628.19 0.0021949 84.105 0.087642 28.967 0.034522 567.35 612.88 2.3411 1.6663 2.2314 209.47 0.25305 8.6780 0.021141
39.375 195.77 0.26610 373.19 387.40 1.6163 468.56 0.0021342 302.46 305.34 1.3537 1.7293 2.9033 621.29 0.0024011 83.177 0.087200 29.699 0.033671 568.26 613.70 2.3404 1.6734 2.2508 208.92 0.25213 8.7190 0.021323
40.375 200.34 0.27309 377.34 391.88 1.6295 466.80 0.0021423 305.27 308.23 1.3627 1.7339 2.9185 614.37 0.0026140 82.254 0.086760 30.447 0.032844 569.15 614.52 2.3396 1.6806 2.2708 208.36 0.25123 8.7608 0.021508
41.375 205.00 0.28025 381.51 396.39 1.6428 465.01 0.0021505 308.10 311.14 1.3718 1.7385 2.9342 607.43 0.0028338 81.338 0.086322 31.214 0.032037 570.04 615.32 2.3389 1.6879 2.2913 207.78 0.25037 8.8032 0.021696
42.375 209.73 0.28761 385.71 400.93 1.6561 463.21 0.0021588 310.94 314.06 1.3808 1.7432 2.9502 600.47 0.0030609 80.426 0.085885 31.998 0.031252 570.92 616.11 2.3381 1.6952 2.3125 207.19 0.24953 8.8463 0.021888
43.375 214.54 0.29516 389.94 405.51 1.6695 461.40 0.0021673 313.79 316.99 1.3899 1.7478 2.9667 593.50 0.0032957 79.520 0.085449 32.800 0.030488 571.79 616.88 2.3373 1.7027 2.3344 206.58 0.24871 8.8902 0.022084
44.375 219.43 0.30292 394.19 410.12 1.6829 459.56 0.0021760 316.65 319.94 1.3989 1.7525 2.9837 586.51 0.0035386 78.619 0.085015 33.622 0.029742 572.65 617.65 2.3365 1.7101 2.3569 205.96 0.24793 8.9349 0.022283
45.375 224.41 0.31089 398.48 414.77 1.6964 457.71 0.0021848 319.52 322.90 1.4080 1.7573 3.0012 579.50 0.0037900 77.723 0.084583 34.463 0.029016 573.50 618.40 2.3357 1.7177 2.3802 205.32 0.24717 8.9805 0.022485
46.375 229.46 0.31908 402.79 419.45 1.7099 455.83 0.0021938 322.41 325.88 1.4171 1.7621 3.0192 572.46 0.0040504 76.832 0.084152 35.325 0.028308 574.34 619.13 2.3349 1.7253 2.4042 204.67 0.24644 9.0269 0.022692
47.375 234.60 0.32749 407.14 424.16 1.7235 453.94 0.0022029 325.31 328.87 1.4262 1.7669 3.0377 565.41 0.0043202 75.946 0.083723 36.208 0.027618 575.17 619.85 2.3340 1.7329 2.4291 204.00 0.24573 9.0742 0.022903
48.375 239.83 0.33615 411.51 428.92 1.7371 452.03 0.0022123 328.22 331.88 1.4353 1.7718 3.0569 558.34 0.0046000 75.064 0.083295 37.112 0.026945 576.00 620.55 2.3332 1.7407 2.4548 203.31 0.24505 9.1224 0.023119
49.375 245.13 0.34506 415.91 433.71 1.7508 450.09 0.0022218 331.15 334.90 1.4445 1.7767 3.0766 551.24 0.0048904 74.186 0.082868 38.039 0.026289 576.81 621.24 2.3323 1.7485 2.4815 202.61 0.24440 9.1716 0.023339
50.375 250.53 0.35422 420.35 438.53 1.7645 448.13 0.0022315 334.09 337.94 1.4536 1.7817 3.0970 544.13 0.0051920 73.313 0.082442 38.989 0.025648 577.61 621.91 2.3314 1.7564 2.5092 201.89 0.24377 9.2219 0.023564
51.375 256.01 0.36366 424.81 443.39 1.7783 446.15 0.0022414 337.04 341.00 1.4628 1.7867 3.1181 536.98 0.0055054 72.443 0.082018 39.962 0.025024 578.39 622.56 2.3304 1.7644 2.5379 201.16 0.24317 9.2733 0.023794
52.375 261.57 0.37338 429.31 448.29 1.7922 444.15 0.0022515 340.01 344.07 1.4720 1.7918 3.1400 529.82 0.0058313 71.577 0.081595 40.961 0.024414 579.17 623.20 2.3295 1.7724 2.5677 200.41 0.24260 9.3258 0.024029
53.375 267.23 0.38339 433.84 453.23 1.8060 442.12 0.0022618 343.00 347.17 1.4812 1.7969 3.1627 522.62 0.0061705 70.715 0.081174 41.985 0.023818 579.93 623.81 2.3285 1.7805 2.5987 199.63 0.24205 9.3795 0.024270
54.375 272.97 0.39371 438.40 458.21 1.8200 440.06 0.0022724 346.00 350.28 1.4904 1.8021 3.1862 515.40 0.0065239 69.856 0.080753 43.036 0.023237 580.68 624.41 2.3274 1.7887 2.6310 198.85 0.24154 9.4344 0.024516
55.375 278.81 0.40436 442.99 463.22 1.8340 437.98 0.0022832 349.02 353.40 1.4997 1.8073 3.2106 508.15 0.0068923 69.001 0.080334 44.114 0.022669 581.41 624.99 2.3264 1.7969 2.6646 198.04 0.24105 9.4907 0.024769
56.375 284.74 0.41535 447.61 468.28 1.8480 435.87 0.0022943 352.05 356.55 1.5090 1.8126 3.2360 500.87 0.0072767 68.148 0.079915 45.221 0.022114 582.13 625.54 2.3253 1.8052 2.6998 197.22 0.24059 9.5484 0.025028
57.375 290.76 0.42670 452.27 473.37 1.8622 433.73 0.0023056 355.10 359.72 1.5183 1.8179 3.2624 493.56 0.0076782 67.299 0.079498 46.358 0.021571 582.83 626.07 2.3241 1.8136 2.7365 196.37 0.24016 9.6075 0.025294
58.375 296.87 0.43842 456.96 478.51 1.8763 431.56 0.0023172 358.17 362.91 1.5276 1.8233 3.2900 486.22 0.0080980 66.451 0.079082 47.525 0.021041 583.52 626.58 2.3230 1.8220 2.7749 195.51 0.23976 9.6682 0.025568
59.375 303.08 0.45055 461.69 483.69 1.8906 429.36 0.0023290 361.25 366.12 1.5370 1.8288 3.3188 478.84 0.0085373 65.606 0.078666 48.726 0.020523 584.18 627.07 2.3218 1.8305 2.8152 194.63 0.23939 9.7305 0.025849
60.375 309.38 0.46309 466.46 488.91 1.9049 427.13 0.0023412 364.36 369.35 1.5464 1.8343 3.3489 471.43 0.0089976 64.763 0.078251 49.960 0.020016 584.83 627.53 2.3205 1.8391 2.8576 193.73 0.23905 9.7945 0.026138
61.375 315.78 0.47608 471.26 494.17 1.9192 424.87 0.0023537 367.48 372.60 1.5558 1.8400 3.3805 463.99 0.0094803 63.922 0.077838 51.229 0.019520 585.46 627.96 2.3192 1.8479 2.9022 192.82 0.23873 9.8603 0.026436
62.375 322.28 0.48953 476.09 499.48 1.9337 422.56 0.0023665 370.62 375.88 1.5653 1.8457 3.4136 456.50 0.0099871 63.083 0.077425 52.535 0.019035 586.07 628.37 2.3178 1.8567 2.9492 191.88 0.23845 9.9281 0.026744
63.375 328.88 0.50349 480.97 504.84 1.9482 420.22 0.0023797 373.79 379.18 1.5748 1.8514 3.4483 448.97 0.010520 62.244 0.077012 53.879 0.018560 586.66 628.74 2.3164 1.8656 2.9989 190.92 0.23819 9.9979 0.027061
64.375 335.58 0.51798 485.88 510.23 1.9628 417.85 0.0023932 376.97 382.51 1.5844 1.8573 3.4850 441.40 0.011081 61.407 0.076600 55.265 0.018095 587.22 629.09 2.3149 1.8747 3.0517 189.95 0.23796 10.070 0.027389
65.375 342.38 0.53303 490.83 515.68 1.9774 415.42 0.0024072 380.18 385.86 1.5939 1.8633 3.5236 433.79 0.011672 60.570 0.076189 56.692 0.017639 587.76 629.40 2.3133 1.8839 3.1077 188.95 0.23775 10.144 0.027729
66.375 349.28 0.54869 495.82 521.17 1.9921 412.96 0.0024215 383.41 389.25 1.6036 1.8693 3.5645 426.12 0.012296 59.733 0.075779 58.165 0.017193 588.28 629.68 2.3117 1.8933 3.1674 187.93 0.23757 10.221 0.028080
67.375 356.28 0.56500 500.85 526.71 2.0069 410.45 0.0024363 386.67 392.65 1.6133 1.8755 3.6078 418.41 0.012956 58.897 0.075368 59.684 0.016755 588.76 629.92 2.3100 1.9030 3.2311 186.89 0.23740 10.300 0.028446
68.375 363.40 0.58200 505.93 532.30 2.0218 407.89 0.0024516 389.95 396.09 1.6230 1.8818 3.6537 410.64 0.013655 58.059 0.074959 61.253 0.016326 589.22 630.13 2.3082 1.9129 3.2994 185.83 0.23724 10.382 0.028825
69.375 370.61 0.59974 511.04 537.94 2.0368 405.28 0.0024674 393.26 399.57 1.6328 1.8882 3.7027 402.81 0.014396 57.221 0.074549 62.875 0.015905 589.65 630.29 2.3064 1.9231 3.3727 184.74 0.23710 10.467 0.029221
70.375 377.94 0.61829 516.20 543.63 2.0518 402.62 0.0024838 396.60 403.07 1.6426 1.8947 3.7550 394.92 0.015183 56.381 0.074141 64.552 0.015491 590.04 630.41 2.3044 1.9336 3.4518 183.63 0.23697 10.555 0.029633
71.375 385.37 0.63771 521.41 549.38 2.0669 399.89 0.0025007 399.96 406.61 1.6525 1.9014 3.8109 386.97 0.016021 55.540 0.073732 66.288 0.015086 590.40 630.49 2.3024 1.9444 3.5371 182.50 0.23684 10.647 0.030064
72.375 392.92 0.65808 526.66 555.18 2.0822 397.11 0.0025182 403.36 410.18 1.6625 1.9083 3.8711 378.95 0.016915 54.696 0.073324 68.087 0.014687 590.73 630.51 2.3002 1.9556 3.6297 181.34 0.23671 10.743 0.030515
73.375 400.57 0.67947 531.96 561.03 2.0975 394.26 0.0025364 406.79 413.80 1.6726 1.9153 3.9359 370.85 0.017871 53.848 0.072917 69.953 0.014295 591.01 630.49 2.2979 1.9673 3.7303 180.16 0.23658 10.842 0.030989
74.375 408.34 0.70199 537.31 566.95 2.1129 391.34 0.0025553 410.26 417.45 1.6827 1.9226 4.0060 362.67 0.018894 52.997 0.072510 71.890 0.013910 591.25 630.41 2.2955 1.9793 3.8401 178.95 0.23643 10.946 0.031488
75.375 416.23 0.72575 542.71 572.92 2.1284 388.34 0.0025751 413.76 421.15 1.6930 1.9301 4.0822 354.41 0.019993 52.142 0.072104 73.904 0.013531 591.44 630.27 2.2930 1.9919 3.9604 177.71 0.23627 11.054 0.032014
76.375 424.23 0.75086 548.17 578.95 2.1440 385.26 0.0025957 417.31 424.90 1.7033 1.9378 4.1654 346.06 0.021177 51.281 0.071699 76.001 0.013158 591.59 630.07 2.2903 2.0050 4.0927 176.44 0.23609 11.168 0.032570
77.375 432.35 0.77748 553.67 585.05 2.1598 382.09 0.0026172 420.89 428.70 1.7137 1.9459 4.2565 337.60 0.022455 50.414 0.071295 78.187 0.012790 591.68 629.80 2.2874 2.0186 4.2389 175.15 0.23588 11.287 0.033161
78.375 440.59 0.80579 559.24 591.22 2.1756 378.83 0.0026397 424.53 432.54 1.7243 1.9543 4.3570 329.05 0.023838 49.539 0.070893 80.469 0.012427 591.71 629.46 2.2844 2.0328 4.4012 173.82 0.23563 11.412 0.033789
79.375 448.95 0.83598 564.86 597.45 2.1916 375.46 0.0026634 428.21 436.45 1.7349 1.9631 4.4684 320.38 0.025341 48.657 0.070494 82.856 0.012069 591.68 629.04 2.2812 2.0475 4.5824 172.46 0.23535 11.544 0.034461
80.375 457.44 0.86829 570.55 603.75 2.2077 371.97 0.0026884 431.94 440.42 1.7457 1.9723 4.5928 311.58 0.026980 47.764 0.070099 85.359 0.011715 591.58 628.53 2.2778 2.0630 4.7859 171.07 0.23501 11.684 0.035181
81.375 466.05 0.90302 576.31 610.13 2.2240 368.36 0.0027147 435.74 444.46 1.7567 1.9820 4.7327 302.66 0.028773 46.860 0.069708 87.988 0.011365 591.40 627.92 2.2742 2.0791 5.0161 169.64 0.23461 11.832 0.035957
82.375 474.79 0.94053 582.13 616.59 2.2404 364.61 0.0027427 439.60 448.58 1.7678 1.9924 4.8914 293.60 0.030744 45.942 0.069323 90.757 0.011018 591.14 627.21 2.2703 2.0959 5.2786 168.17 0.23413 11.989 0.036797
83.375 483.66 0.98125 588.03 623.13 2.2569 360.70 0.0027724 443.53 452.78 1.7791 2.0034 5.0731 284.38 0.032920 45.010 0.068948 93.681 0.010674 590.79 626.38 2.2661 2.1136 5.5807 166.67 0.23357 12.157 0.037711
84.375 490.05 undefined 591.80 627.37 2.2675 95.000 0.010526 591.80 627.37 2.2675 2.1177 5.6089 166.60 0.23090 12.253 0.038043 95.000 0.010526 591.80 627.37 2.2675 2.1177 5.6089 166.60 0.23090 12.253 0.038043
85.375 494.44 undefined 593.92 629.80 2.2734 95.000 0.010526 593.92 629.80 2.2734 2.1113 5.4204 167.64 0.22681 12.286 0.037905 95.000 0.010526 593.92 629.80 2.2734 2.1113 5.4204 167.64 0.22681 12.286 0.037905
86.375 498.81 undefined 596.03 632.23 2.2793 95.000 0.010526 596.03 632.23 2.2793 2.1052 5.2518 168.67 0.22287 12.319 0.037792 95.000 0.010526 596.03 632.23 2.2793 2.1052 5.2518 168.67 0.22287 12.319 0.037792
87.375 503.15 undefined 598.13 634.64 2.2851 95.000 0.010526 598.13 634.64 2.2851 2.0994 5.1003 169.71 0.21908 12.352 0.037701 95.000 0.010526 598.13 634.64 2.2851 2.0994 5.1003 169.71 0.21908 12.352 0.037701
88.375 507.46 undefined 600.22 637.05 2.2909 95.000 0.010526 600.22 637.05 2.2909 2.0941 4.9636 170.74 0.21541 12.385 0.037629 95.000 0.010526 600.22 637.05 2.2909 2.0941 4.9636 170.74 0.21541 12.385 0.037629
89.375 511.76 undefined 602.32 639.46 2.2967 95.000 0.010526 602.32 639.46 2.2967 2.0892 4.8397 171.76 0.21185 12.418 0.037574 95.000 0.010526 602.32 639.46 2.2967 2.0892 4.8397 171.76 0.21185 12.418 0.037574
90.375 516.03 undefined 604.40 641.85 2.3025 95.000 0.010526 604.40 641.85 2.3025 2.0848 4.7270 172.78 0.20841 12.451 0.037534 95.000 0.010526 604.40 641.85 2.3025 2.0848 4.7270 172.78 0.20841 12.451 0.037534
91.375 520.28 undefined 606.49 644.25 2.3082 95.000 0.010526 606.49 644.25 2.3082 2.0810 4.6241 173.79 0.20506 12.484 0.037507 95.000 0.010526 606.49 644.25 2.3082 2.0810 4.6241 173.79 0.20506 12.484 0.037507
92.375 524.52 undefined 608.57 646.63 2.3139 95.000 0.010526 608.57 646.63 2.3139 2.0775 4.5299 174.80 0.20181 12.517 0.037492 95.000 0.010526 608.57 646.63 2.3139 2.0775 4.5299 174.80 0.20181 12.517 0.037492
93.375 528.73 undefined 610.64 649.01 2.3196 95.000 0.010526 610.64 649.01 2.3196 2.0746 4.4433 175.80 0.19865 12.550 0.037488 95.000 0.010526 610.64 649.01 2.3196 2.0746 4.4433 175.80 0.19865 12.550 0.037488
94.375 532.93 undefined 612.71 651.39 2.3252 95.000 0.010526 612.71 651.39 2.3252 2.0721 4.3634 176.80 0.19557 12.583 0.037493 95.000 0.010526 612.71 651.39 2.3252 2.0721 4.3634 176.80 0.19557 12.583 0.037493
95.375 537.12 undefined 614.79 653.77 2.3308 95.000 0.010526 614.79 653.77 2.3308 2.0699 4.2896 177.78 0.19257 12.616 0.037507 95.000 0.010526 614.79 653.77 2.3308 2.0699 4.2896 177.78 0.19257 12.616 0.037507
96.375 541.28 undefined 616.85 656.14 2.3364 95.000 0.010526 616.85 656.14 2.3364 2.0682 4.2211 178.77 0.18965 12.650 0.037529 95.000 0.010526 616.85 656.14 2.3364 2.0682 4.2211 178.77 0.18965 12.650 0.037529
97.375 545.44 undefined 618.92 658.51 2.3420 95.000 0.010526 618.92 658.51 2.3420 2.0668 4.1574 179.74 0.18680 12.682 0.037558 95.000 0.010526 618.92 658.51 2.3420 2.0668 4.1574 179.74 0.18680 12.682 0.037558
98.375 549.58 undefined 620.99 660.87 2.3476 95.000 0.010526 620.99 660.87 2.3476 2.0657 4.0981 180.71 0.18402 12.714 0.037594 95.000 0.010526 620.99 660.87 2.3476 2.0657 4.0981 180.71 0.18402 12.714 0.037594
99.375 553.71 undefined 623.05 663.24 2.3532 95.000 0.010526 623.05 663.24 2.3532 2.0650 4.0427 181.67 0.18131 12.747 0.037635 95.000 0.010526 623.05 663.24 2.3532 2.0650 4.0427 181.67 0.18131 12.747 0.037635
100.38 557.83 undefined 625.12 665.60 2.3587 95.000 0.010526 625.12 665.60 2.3587 2.0644 3.9908 182.63 0.17866 12.779 0.037682 95.000 0.010526 625.12 665.60 2.3587 2.0644 3.9908 182.63 0.17866 12.779 0.037682
101.38 561.93 undefined 627.18 667.97 2.3642 95.000 0.010526 627.18 667.97 2.3642 2.0642 3.9421 183.57 0.17608 12.812 0.037734 95.000 0.010526 627.18 667.97 2.3642 2.0642 3.9421 183.57 0.17608 12.812 0.037734
102.38 566.02 undefined 629.25 670.33 2.3697 95.000 0.010526 629.25 670.33 2.3697 2.0641 3.8963 184.52 0.17355 12.844 0.037791 95.000 0.010526 629.25 670.33 2.3697 2.0641 3.8963 184.52 0.17355 12.844 0.037791
103.38 570.10 undefined 631.31 672.69 2.3752 95.000 0.010526 631.31 672.69 2.3752 2.0643 3.8532 185.46 0.17109 12.876 0.037852 95.000 0.010526 631.31 672.69 2.3752 2.0643 3.8532 185.46 0.17109 12.876 0.037852
104.38 574.18 undefined 633.38 675.05 2.3807 95.000 0.010526 633.38 675.05 2.3807 2.0646 3.8126 186.39 0.16868 12.909 0.037917 95.000 0.010526 633.38 675.05 2.3807 2.0646 3.8126 186.39 0.16868 12.909 0.037917
105.38 578.24 undefined 635.44 677.41 2.3861 95.000 0.010526 635.44 677.41 2.3861 2.0651 3.7742 187.31 0.16632 12.941 0.037986 95.000 0.010526 635.44 677.41 2.3861 2.0651 3.7742 187.31 0.16632 12.941 0.037986
106.38 582.29 undefined 637.51 679.77 2.3916 95.000 0.010526 637.51 679.77 2.3916 2.0657 3.7379 188.23 0.16402 12.973 0.038058 95.000 0.010526 637.51 679.77 2.3916 2.0657 3.7379 188.23 0.16402 12.973 0.038058
107.38 586.33 undefined 639.57 682.13 2.3970 95.000 0.010526 639.57 682.13 2.3970 2.0665 3.7035 189.15 0.16177 13.006 0.038134 95.000 0.010526 639.57 682.13 2.3970 2.0665 3.7035 189.15 0.16177 13.006 0.038134
108.38 590.37 undefined 641.64 684.49 2.4025 95.000 0.010526 641.64 684.49 2.4025 2.0674 3.6710 190.06 0.15957 13.038 0.038212 95.000 0.010526 641.64 684.49 2.4025 2.0674 3.6710 190.06 0.15957 13.038 0.038212
109.38 594.39 undefined 643.71 686.85 2.4079 95.000 0.010526 643.71 686.85 2.4079 2.0685 3.6400 190.97 0.15741 13.070 0.038294 95.000 0.010526 643.71 686.85 2.4079 2.0685 3.6400 190.97 0.15741 13.070 0.038294
110.38 598.41 undefined 645.78 689.21 2.4133 95.000 0.010526 645.78 689.21 2.4133 2.0696 3.6106 191.87 0.15530 13.102 0.038378 95.000 0.010526 645.78 689.21 2.4133 2.0696 3.6106 191.87 0.15530 13.102 0.038378
111.38 602.41 undefined 647.85 691.57 2.4187 95.000 0.010526 647.85 691.57 2.4187 2.0709 3.5827 192.76 0.15324 13.134 0.038466 95.000 0.010526 647.85 691.57 2.4187 2.0709 3.5827 192.76 0.15324 13.134 0.038466
112.38 606.41 undefined 649.92 693.93 2.4240 95.000 0.010526 649.92 693.93 2.4240 2.0722 3.5561 193.65 0.15122 13.167 0.038555 95.000 0.010526 649.92 693.93 2.4240 2.0722 3.5561 193.65 0.15122 13.167 0.038555
113.38 610.41 undefined 651.99 696.29 2.4294 95.000 0.010526 651.99 696.29 2.4294 2.0737 3.5308 194.54 0.14925 13.199 0.038647 95.000 0.010526 651.99 696.29 2.4294 2.0737 3.5308 194.54 0.14925 13.199 0.038647
114.38 614.39 undefined 654.06 698.66 2.4348 95.000 0.010526 654.06 698.66 2.4348 2.0752 3.5066 195.42 0.14731 13.231 0.038741 95.000 0.010526 654.06 698.66 2.4348 2.0752 3.5066 195.42 0.14731 13.231 0.038741
115.38 618.37 undefined 656.14 701.02 2.4401 95.000 0.010526 656.14 701.02 2.4401 2.0769 3.4836 196.30 0.14541 13.263 0.038838 95.000 0.010526 656.14 701.02 2.4401 2.0769 3.4836 196.30 0.14541 13.263 0.038838
116.38 622.34 undefined 658.22 703.39 2.4455 95.000 0.010526 658.22 703.39 2.4455 2.0786 3.4616 197.17 0.14356 13.294 0.038936 95.000 0.010526 658.22 703.39 2.4455 2.0786 3.4616 197.17 0.14356 13.294 0.038936
117.38 626.30 undefined 660.30 705.75 2.4508 95.000 0.010526 660.30 705.75 2.4508 2.0804 3.4406 198.04 0.14174 13.326 0.039036 95.000 0.010526 660.30 705.75 2.4508 2.0804 3.4406 198.04 0.14174 13.326 0.039036
118.38 630.26 undefined 662.38 708.12 2.4561 95.000 0.010526 662.38 708.12 2.4561 2.0822 3.4205 198.90 0.13995 13.358 0.039138 95.000 0.010526 662.38 708.12 2.4561 2.0822 3.4205 198.90 0.13995 13.358 0.039138
119.38 634.21 undefined 664.46 710.49 2.4614 95.000 0.010526 664.46 710.49 2.4614 2.0841 3.4013 199.76 0.13820 13.390 0.039242 95.000 0.010526 664.46 710.49 2.4614 2.0841 3.4013 199.76 0.13820 13.390 0.039242
120.38 638.15 undefined 666.55 712.86 2.4667 95.000 0.010526 666.55 712.86 2.4667 2.0861 3.3829 200.62 0.13649 13.422 0.039348 95.000 0.010526 666.55 712.86 2.4667 2.0861 3.3829 200.62 0.13649 13.422 0.039348
121.38 642.09 undefined 668.63 715.24 2.4720 95.000 0.010526 668.63 715.24 2.4720 2.0882 3.3653 201.47 0.13481 13.453 0.039455 95.000 0.010526 668.63 715.24 2.4720 2.0882 3.3653 201.47 0.13481 13.453 0.039455
122.38 646.02 undefined 670.72 717.61 2.4773 95.000 0.010526 670.72 717.61 2.4773 2.0903 3.3484 202.32 0.13316 13.485 0.039564 95.000 0.010526 670.72 717.61 2.4773 2.0903 3.3484 202.32 0.13316 13.485 0.039564
123.38 649.95 undefined 672.82 719.99 2.4826 95.000 0.010526 672.82 719.99 2.4826 2.0924 3.3323 203.16 0.13154 13.517 0.039674 95.000 0.010526 672.82 719.99 2.4826 2.0924 3.3323 203.16 0.13154 13.517 0.039674
124.38 653.87 undefined 674.91 722.36 2.4879 95.000 0.010526 674.91 722.36 2.4879 2.0946 3.3168 204.00 0.12996 13.548 0.039786 95.000 0.010526 674.91 722.36 2.4879 2.0946 3.3168 204.00 0.12996 13.548 0.039786
125.38 657.78 undefined 677.00 724.74 2.4931 95.000 0.010526 677.00 724.74 2.4931 2.0969 3.3019 204.84 0.12840 13.580 0.039899 95.000 0.010526 677.00 724.74 2.4931 2.0969 3.3019 204.84 0.12840 13.580 0.039899
126.38 661.69 undefined 679.10 727.13 2.4984 95.000 0.010526 679.10 727.13 2.4984 2.0992 3.2876 205.67 0.12687 13.611 0.040013 95.000 0.010526 679.10 727.13 2.4984 2.0992 3.2876 205.67 0.12687 13.611 0.040013
127.38 665.59 undefined 681.20 729.51 2.5036 95.000 0.010526 681.20 729.51 2.5036 2.1016 3.2740 206.50 0.12537 13.643 0.040129 95.000 0.010526 681.20 729.51 2.5036 2.1016 3.2740 206.50 0.12537 13.643 0.040129
128.38 669.49 undefined 683.31 731.89 2.5089 95.000 0.010526 683.31 731.89 2.5089 2.1040 3.2608 207.32 0.12390 13.674 0.040246 95.000 0.010526 683.31 731.89 2.5089 2.1040 3.2608 207.32 0.12390 13.674 0.040246
129.38 673.38 undefined 685.41 734.28 2.5141 95.000 0.010526 685.41 734.28 2.5141 2.1064 3.2482 208.14 0.12245 13.706 0.040364 95.000 0.010526 685.41 734.28 2.5141 2.1064 3.2482 208.14 0.12245 13.706 0.040364
130.38 677.27 undefined 687.52 736.67 2.5194 95.000 0.010526 687.52 736.67 2.5194 2.1089 3.2361 208.96 0.12103 13.737 0.040484 95.000 0.010526 687.52 736.67 2.5194 2.1089 3.2361 208.96 0.12103 13.737 0.040484
131.38 681.15 undefined 689.63 739.06 2.5246 95.000 0.010526 689.63 739.06 2.5246 2.1114 3.2244 209.78 0.11964 13.768 0.040604 95.000 0.010526 689.63 739.06 2.5246 2.1114 3.2244 209.78 0.11964 13.768 0.040604
132.38 685.03 undefined 691.74 741.46 2.5298 95.000 0.010526 691.74 741.46 2.5298 2.1139 3.2132 210.59 0.11827 13.800 0.040726 95.000 0.010526 691.74 741.46 2.5298 2.1139 3.2132 210.59 0.11827 13.800 0.040726
133.38 688.90 undefined 693.86 743.85 2.5350 95.000 0.010526 693.86 743.85 2.5350 2.1165 3.2024 211.39 0.11692 13.831 0.040849 95.000 0.010526 693.86 743.85 2.5350 2.1165 3.2024 211.39 0.11692 13.831 0.040849
134.38 692.77 undefined 695.97 746.25 2.5402 95.000 0.010526 695.97 746.25 2.5402 2.1191 3.1921 212.20 0.11560 13.862 0.040972 95.000 0.010526 695.97 746.25 2.5402 2.1191 3.1921 212.20 0.11560 13.862 0.040972
135.38 696.63 undefined 698.09 748.65 2.5454 95.000 0.010526 698.09 748.65 2.5454 2.1218 3.1821 213.00 0.11430 13.893 0.041097 95.000 0.010526 698.09 748.65 2.5454 2.1218 3.1821 213.00 0.11430 13.893 0.041097
136.38 700.49 undefined 700.22 751.06 2.5506 95.000 0.010526 700.22 751.06 2.5506 2.1245 3.1725 213.79 0.11302 13.924 0.041223 95.000 0.010526 700.22 751.06 2.5506 2.1245 3.1725 213.79 0.11302 13.924 0.041223
137.38 704.34 undefined 702.34 753.46 2.5558 95.000 0.010526 702.34 753.46 2.5558 2.1272 3.1633 214.59 0.11177 13.955 0.041349 95.000 0.010526 702.34 753.46 2.5558 2.1272 3.1633 214.59 0.11177 13.955 0.041349
138.38 708.19 undefined 704.47 755.87 2.5610 95.000 0.010526 704.47 755.87 2.5610 2.1299 3.1544 215.38 0.11053 13.986 0.041477 95.000 0.010526 704.47 755.87 2.5610 2.1299 3.1544 215.38 0.11053 13.986 0.041477
139.38 712.04 undefined 706.60 758.28 2.5661 95.000 0.010526 706.60 758.28 2.5661 2.1327 3.1459 216.17 0.10932 14.017 0.041605 95.000 0.010526 706.60 758.28 2.5661 2.1327 3.1459 216.17 0.10932 14.017 0.041605
140.38 715.88 undefined 708.74 760.69 2.5713 95.000 0.010526 708.74 760.69 2.5713 2.1354 3.1377 216.95 0.10812 14.048 0.041735 95.000 0.010526 708.74 760.69 2.5713 2.1354 3.1377 216.95 0.10812 14.048 0.041735
141.38 719.72 undefined 710.87 763.11 2.5765 95.000 0.010526 710.87 763.11 2.5765 2.1383 3.1298 217.73 0.10695 14.079 0.041865 95.000 0.010526 710.87 763.11 2.5765 2.1383 3.1298 217.73 0.10695 14.079 0.041865
142.38 723.55 undefined 713.01 765.53 2.5816 95.000 0.010526 713.01 765.53 2.5816 2.1411 3.1221 218.51 0.10580 14.110 0.041996 95.000 0.010526 713.01 765.53 2.5816 2.1411 3.1221 218.51 0.10580 14.110 0.041996
143.38 727.38 undefined 715.16 767.95 2.5868 95.000 0.010526 715.16 767.95 2.5868 2.1439 3.1148 219.29 0.10466 14.141 0.042128 95.000 0.010526 715.16 767.95 2.5868 2.1439 3.1148 219.29 0.10466 14.141 0.042128
144.38 731.20 undefined 717.30 770.37 2.5919 95.000 0.010526 717.30 770.37 2.5919 2.1468 3.1077 220.06 0.10354 14.172 0.042260 95.000 0.010526 717.30 770.37 2.5919 2.1468 3.1077 220.06 0.10354 14.172 0.042260
145.38 735.02 undefined 719.45 772.80 2.5970 95.000 0.010526 719.45 772.80 2.5970 2.1497 3.1009 220.83 0.10244 14.203 0.042394 95.000 0.010526 719.45 772.80 2.5970 2.1497 3.1009 220.83 0.10244 14.203 0.042394
146.38 738.84 undefined 721.60 775.22 2.6022 95.000 0.010526 721.60 775.22 2.6022 2.1526 3.0944 221.59 0.10136 14.234 0.042528 95.000 0.010526 721.60 775.22 2.6022 2.1526 3.0944 221.59 0.10136 14.234 0.042528
147.38 742.66 undefined 723.76 777.65 2.6073 95.000 0.010526 723.76 777.65 2.6073 2.1556 3.0881 222.36 0.10030 14.264 0.042663 95.000 0.010526 723.76 777.65 2.6073 2.1556 3.0881 222.36 0.10030 14.264 0.042663
148.38 746.47 undefined 725.91 780.09 2.6124 95.000 0.010526 725.91 780.09 2.6124 2.1585 3.0820 223.12 0.099250 14.295 0.042799 95.000 0.010526 725.91 780.09 2.6124 2.1585 3.0820 223.12 0.099250 14.295 0.042799
149.38 750.27 undefined 728.07 782.52 2.6176 95.000 0.010526 728.07 782.52 2.6176 2.1615 3.0762 223.88 0.098219 14.326 0.042935 95.000 0.010526 728.07 782.52 2.6176 2.1615 3.0762 223.88 0.098219 14.326 0.042935
150.38 754.07 undefined 730.24 784.96 2.6227 95.000 0.010526 730.24 784.96 2.6227 2.1645 3.0706 224.63 0.097204 14.356 0.043072 95.000 0.010526 730.24 784.96 2.6227 2.1645 3.0706 224.63 0.097204 14.356 0.043072
151.38 757.87 undefined 732.40 787.41 2.6278 95.000 0.010526 732.40 787.41 2.6278 2.1675 3.0652 225.38 0.096204 14.387 0.043210 95.000 0.010526 732.40 787.41 2.6278 2.1675 3.0652 225.38 0.096204 14.387 0.043210
152.38 761.67 undefined 734.57 789.85 2.6329 95.000 0.010526 734.57 789.85 2.6329 2.1705 3.0600 226.13 0.095220 14.417 0.043348 95.000 0.010526 734.57 789.85 2.6329 2.1705 3.0600 226.13 0.095220 14.417 0.043348
153.38 765.46 undefined 736.74 792.30 2.6380 95.000 0.010526 736.74 792.30 2.6380 2.1735 3.0550 226.88 0.094251 14.448 0.043487 95.000 0.010526 736.74 792.30 2.6380 2.1735 3.0550 226.88 0.094251 14.448 0.043487
154.38 769.25 undefined 738.92 794.75 2.6431 95.000 0.010526 738.92 794.75 2.6431 2.1766 3.0502 227.62 0.093297 14.478 0.043627 95.000 0.010526 738.92 794.75 2.6431 2.1766 3.0502 227.62 0.093297 14.478 0.043627
155.38 773.04 undefined 741.10 797.20 2.6482 95.000 0.010526 741.10 797.20 2.6482 2.1796 3.0456 228.36 0.092358 14.509 0.043767 95.000 0.010526 741.10 797.20 2.6482 2.1796 3.0456 228.36 0.092358 14.509 0.043767
156.38 776.82 undefined 743.28 799.66 2.6532 95.000 0.010526 743.28 799.66 2.6532 2.1827 3.0411 229.10 0.091432 14.539 0.043908 95.000 0.010526 743.28 799.66 2.6532 2.1827 3.0411 229.10 0.091432 14.539 0.043908
157.38 780.60 undefined 745.46 802.11 2.6583 95.000 0.010526 745.46 802.11 2.6583 2.1858 3.0369 229.84 0.090520 14.569 0.044050 95.000 0.010526 745.46 802.11 2.6583 2.1858 3.0369 229.84 0.090520 14.569 0.044050
158.38 784.37 undefined 747.65 804.58 2.6634 95.000 0.010526 747.65 804.58 2.6634 2.1889 3.0328 230.57 0.089622 14.600 0.044192 95.000 0.010526 747.65 804.58 2.6634 2.1889 3.0328 230.57 0.089622 14.600 0.044192
159.38 788.15 undefined 749.84 807.04 2.6685 95.000 0.010526 749.84 807.04 2.6685 2.1920 3.0288 231.30 0.088737 14.630 0.044335 95.000 0.010526 749.84 807.04 2.6685 2.1920 3.0288 231.30 0.088737 14.630 0.044335
160.38 791.92 undefined 752.03 809.51 2.6735 95.000 0.010526 752.03 809.51 2.6735 2.1951 3.0250 232.03 0.087866 14.660 0.044478 95.000 0.010526 752.03 809.51 2.6735 2.1951 3.0250 232.03 0.087866 14.660 0.044478
161.38 795.68 undefined 754.23 811.98 2.6786 95.000 0.010526 754.23 811.98 2.6786 2.1983 3.0214 232.76 0.087006 14.690 0.044622 95.000 0.010526 754.23 811.98 2.6786 2.1983 3.0214 232.76 0.087006 14.690 0.044622
162.38 799.45 undefined 756.43 814.45 2.6836 95.000 0.010526 756.43 814.45 2.6836 2.2014 3.0179 233.48 0.086160 14.720 0.044766 95.000 0.010526 756.43 814.45 2.6836 2.2014 3.0179 233.48 0.086160 14.720 0.044766
163.38 803.21 undefined 758.63 816.93 2.6887 95.000 0.010526 758.63 816.93 2.6887 2.2046 3.0146 234.20 0.085325 14.751 0.044911 95.000 0.010526 758.63 816.93 2.6887 2.2046 3.0146 234.20 0.085325 14.751 0.044911
164.38 806.96 undefined 760.84 819.40 2.6937 95.000 0.010526 760.84 819.40 2.6937 2.2078 3.0114 234.92 0.084503 14.781 0.045057 95.000 0.010526 760.84 819.40 2.6937 2.2078 3.0114 234.92 0.084503 14.781 0.045057
165.38 810.72 undefined 763.05 821.89 2.6988 95.000 0.010526 763.05 821.89 2.6988 2.2109 3.0083 235.64 0.083692 14.811 0.045203 95.000 0.010526 763.05 821.89 2.6988 2.2109 3.0083 235.64 0.083692 14.811 0.045203
166.38 814.47 undefined 765.26 824.37 2.7038 95.000 0.010526 765.26 824.37 2.7038 2.2141 3.0054 236.35 0.082893 14.841 0.045350 95.000 0.010526 765.26 824.37 2.7038 2.2141 3.0054 236.35 0.082893 14.841 0.045350
167.38 818.22 undefined 767.48 826.86 2.7089 95.000 0.010526 767.48 826.86 2.7089 2.2173 3.0026 237.07 0.082106 14.871 0.045497 95.000 0.010526 767.48 826.86 2.7089 2.2173 3.0026 237.07 0.082106 14.871 0.045497
168.38 821.97 undefined 769.69 829.35 2.7139 95.000 0.010526 769.69 829.35 2.7139 2.2205 2.9999 237.77 0.081329 14.901 0.045645 95.000 0.010526 769.69 829.35 2.7139 2.2205 2.9999 237.77 0.081329 14.901 0.045645
169.38 825.71 undefined 771.92 831.84 2.7189 95.000 0.010526 771.92 831.84 2.7189 2.2237 2.9974 238.48 0.080563 14.931 0.045793 95.000 0.010526 771.92 831.84 2.7189 2.2237 2.9974 238.48 0.080563 14.931 0.045793
170.38 829.45 undefined 774.14 834.34 2.7239 95.000 0.010526 774.14 834.34 2.7239 2.2270 2.9949 239.19 0.079808 14.960 0.045942 95.000 0.010526 774.14 834.34 2.7239 2.2270 2.9949 239.19 0.079808 14.960 0.045942
171.38 833.19 undefined 776.37 836.84 2.7290 95.000 0.010526 776.37 836.84 2.7290 2.2302 2.9926 239.89 0.079063 14.990 0.046091 95.000 0.010526 776.37 836.84 2.7290 2.2302 2.9926 239.89 0.079063 14.990 0.046091
172.38 836.92 undefined 778.60 839.34 2.7340 95.000 0.010526 778.60 839.34 2.7340 2.2334 2.9904 240.59 0.078329 15.020 0.046241 95.000 0.010526 778.60 839.34 2.7340 2.2334 2.9904 240.59 0.078329 15.020 0.046241
173.38 840.66 undefined 780.84 841.85 2.7390 95.000 0.010526 780.84 841.85 2.7390 2.2367 2.9883 241.29 0.077604 15.050 0.046391 95.000 0.010526 780.84 841.85 2.7390 2.2367 2.9883 241.29 0.077604 15.050 0.046391
174.38 844.39 undefined 783.08 844.36 2.7440 95.000 0.010526 783.08 844.36 2.7440 2.2399 2.9863 241.98 0.076890 15.080 0.046541 95.000 0.010526 783.08 844.36 2.7440 2.2399 2.9863 241.98 0.076890 15.080 0.046541
175.38 848.12 undefined 785.32 846.87 2.7490 95.000 0.010526 785.32 846.87 2.7490 2.2432 2.9844 242.68 0.076185 15.109 0.046693 95.000 0.010526 785.32 846.87 2.7490 2.2432 2.9844 242.68 0.076185 15.109 0.046693
176.38 851.84 undefined 787.56 849.39 2.7540 95.000 0.010526 787.56 849.39 2.7540 2.2465 2.9826 243.37 0.075490 15.139 0.046844 95.000 0.010526 787.56 849.39 2.7540 2.2465 2.9826 243.37 0.075490 15.139 0.046844
177.38 855.56 undefined 789.81 851.90 2.7590 95.000 0.010526 789.81 851.90 2.7590 2.2498 2.9809 244.06 0.074804 15.169 0.046996 95.000 0.010526 789.81 851.90 2.7590 2.2498 2.9809 244.06 0.074804 15.169 0.046996
178.38 859.28 undefined 792.06 854.43 2.7640 95.000 0.010526 792.06 854.43 2.7640 2.2530 2.9793 244.75 0.074127 15.198 0.047149 95.000 0.010526 792.06 854.43 2.7640 2.2530 2.9793 244.75 0.074127 15.198 0.047149
179.38 863.00 undefined 794.32 856.95 2.7690 95.000 0.010526 794.32 856.95 2.7690 2.2563 2.9778 245.43 0.073459 15.228 0.047302 95.000 0.010526 794.32 856.95 2.7690 2.2563 2.9778 245.43 0.073459 15.228 0.047302
180.38 866.72 undefined 796.57 859.48 2.7740 95.000 0.010526 796.57 859.48 2.7740 2.2596 2.9763 246.12 0.072801 15.257 0.047455 95.000 0.010526 796.57 859.48 2.7740 2.2596 2.9763 246.12 0.072801 15.257 0.047455
181.38 870.43 undefined 798.84 862.01 2.7789 95.000 0.010526 798.84 862.01 2.7789 2.2629 2.9750 246.80 0.072150 15.287 0.047609 95.000 0.010526 798.84 862.01 2.7789 2.2629 2.9750 246.80 0.072150 15.287 0.047609
182.38 874.14 undefined 801.10 864.54 2.7839 95.000 0.010526 801.10 864.54 2.7839 2.2662 2.9737 247.48 0.071509 15.316 0.047764 95.000 0.010526 801.10 864.54 2.7839 2.2662 2.9737 247.48 0.071509 15.316 0.047764
183.38 877.85 undefined 803.37 867.08 2.7889 95.000 0.010526 803.37 867.08 2.7889 2.2695 2.9726 248.15 0.070875 15.346 0.047918 95.000 0.010526 803.37 867.08 2.7889 2.2695 2.9726 248.15 0.070875 15.346 0.047918
184.38 881.56 undefined 805.64 869.62 2.7939 95.000 0.010526 805.64 869.62 2.7939 2.2729 2.9715 248.83 0.070250 15.375 0.048074 95.000 0.010526 805.64 869.62 2.7939 2.2729 2.9715 248.83 0.070250 15.375 0.048074
185.38 885.26 undefined 807.91 872.16 2.7988 95.000 0.010526 807.91 872.16 2.7988 2.2762 2.9705 249.50 0.069633 15.404 0.048229 95.000 0.010526 807.91 872.16 2.7988 2.2762 2.9705 249.50 0.069633 15.404 0.048229
186.38 888.96 undefined 810.19 874.71 2.8038 95.000 0.010526 810.19 874.71 2.8038 2.2795 2.9695 250.17 0.069024 15.434 0.048385 95.000 0.010526 810.19 874.71 2.8038 2.2795 2.9695 250.17 0.069024 15.434 0.048385
187.38 892.66 undefined 812.47 877.26 2.8088 95.000 0.010526 812.47 877.26 2.8088 2.2829 2.9687 250.84 0.068423 15.463 0.048542 95.000 0.010526 812.47 877.26 2.8088 2.2829 2.9687 250.84 0.068423 15.463 0.048542
188.38 896.36 undefined 814.76 879.81 2.8137 95.000 0.010526 814.76 879.81 2.8137 2.2862 2.9679 251.51 0.067830 15.492 0.048699 95.000 0.010526 814.76 879.81 2.8137 2.2862 2.9679 251.51 0.067830 15.492 0.048699
189.38 900.06 undefined 817.05 882.37 2.8187 95.000 0.010526 817.05 882.37 2.8187 2.2895 2.9672 252.17 0.067244 15.522 0.048856 95.000 0.010526 817.05 882.37 2.8187 2.2895 2.9672 252.17 0.067244 15.522 0.048856
190.38 903.75 undefined 819.34 884.93 2.8236 95.000 0.010526 819.34 884.93 2.8236 2.2929 2.9665 252.84 0.066665 15.551 0.049014 95.000 0.010526 819.34 884.93 2.8236 2.2929 2.9665 252.84 0.066665 15.551 0.049014
191.38 907.44 undefined 821.63 887.49 2.8286 95.000 0.010526 821.63 887.49 2.8286 2.2962 2.9659 253.50 0.066094 15.580 0.049172 95.000 0.010526 821.63 887.49 2.8286 2.2962 2.9659 253.50 0.066094 15.580 0.049172
192.38 911.13 undefined 823.93 890.06 2.8335 95.000 0.010526 823.93 890.06 2.8335 2.2996 2.9654 254.16 0.065530 15.609 0.049330 95.000 0.010526 823.93 890.06 2.8335 2.2996 2.9654 254.16 0.065530 15.609 0.049330
193.38 914.82 undefined 826.23 892.62 2.8384 95.000 0.010526 826.23 892.62 2.8384 2.3030 2.9650 254.82 0.064972 15.638 0.049489 95.000 0.010526 826.23 892.62 2.8384 2.3030 2.9650 254.82 0.064972 15.638 0.049489
194.38 918.50 undefined 828.54 895.20 2.8434 95.000 0.010526 828.54 895.20 2.8434 2.3063 2.9646 255.47 0.064422 15.667 0.049649 95.000 0.010526 828.54 895.20 2.8434 2.3063 2.9646 255.47 0.064422 15.667 0.049649
195.38 922.18 undefined 830.84 897.77 2.8483 95.000 0.010526 830.84 897.77 2.8483 2.3097 2.9643 256.13 0.063879 15.696 0.049809 95.000 0.010526 830.84 897.77 2.8483 2.3097 2.9643 256.13 0.063879 15.696 0.049809
196.38 925.87 undefined 833.15 900.35 2.8532 95.000 0.010526 833.15 900.35 2.8532 2.3131 2.9640 256.78 0.063342 15.725 0.049969 95.000 0.010526 833.15 900.35 2.8532 2.3131 2.9640 256.78 0.063342 15.725 0.049969
197.38 929.55 undefined 835.47 902.93 2.8581 95.000 0.010526 835.47 902.93 2.8581 2.3164 2.9638 257.43 0.062812 15.754 0.050129 95.000 0.010526 835.47 902.93 2.8581 2.3164 2.9638 257.43 0.062812 15.754 0.050129
198.38 933.22 undefined 837.79 905.52 2.8631 95.000 0.010526 837.79 905.52 2.8631 2.3198 2.9637 258.08 0.062288 15.783 0.050290 95.000 0.010526 837.79 905.52 2.8631 2.3198 2.9637 258.08 0.062288 15.783 0.050290
199.38 936.90 undefined 840.11 908.11 2.8680 95.000 0.010526 840.11 908.11 2.8680 2.3232 2.9636 258.73 0.061771 15.812 0.050451 95.000 0.010526 840.11 908.11 2.8680 2.3232 2.9636 258.73 0.061771 15.812 0.050451
200.38 940.57 undefined 842.43 910.70 2.8729 95.000 0.010526 842.43 910.70 2.8729 2.3266 2.9635 259.37 0.061260 15.841 0.050613 95.000 0.010526 842.43 910.70 2.8729 2.3266 2.9635 259.37 0.061260 15.841 0.050613
201.38 944.24 undefined 844.76 913.29 2.8778 95.000 0.010526 844.76 913.29 2.8778 2.3300 2.9636 260.02 0.060755 15.870 0.050775 95.000 0.010526 844.76 913.29 2.8778 2.3300 2.9636 260.02 0.060755 15.870 0.050775
202.38 947.91 undefined 847.09 915.89 2.8827 95.000 0.010526 847.09 915.89 2.8827 2.3334 2.9636 260.66 0.060256 15.898 0.050938 95.000 0.010526 847.09 915.89 2.8827 2.3334 2.9636 260.66 0.060256 15.898 0.050938
203.38 951.58 undefined 849.43 918.49 2.8876 95.000 0.010526 849.43 918.49 2.8876 2.3368 2.9638 261.30 0.059764 15.927 0.051100 95.000 0.010526 849.43 918.49 2.8876 2.3368 2.9638 261.30 0.059764 15.927 0.051100
204.38 955.25 undefined 851.77 921.10 2.8925 95.000 0.010526 851.77 921.10 2.8925 2.3402 2.9639 261.94 0.059277 15.956 0.051264 95.000 0.010526 851.77 921.10 2.8925 2.3402 2.9639 261.94 0.059277 15.956 0.051264
205.38 958.91 undefined 854.11 923.70 2.8974 95.000 0.010526 854.11 923.70 2.8974 2.3436 2.9642 262.57 0.058795 15.985 0.051427 95.000 0.010526 854.11 923.70 2.8974 2.3436 2.9642 262.57 0.058795 15.985 0.051427
206.38 962.57 undefined 856.45 926.31 2.9023 95.000 0.010526 856.45 926.31 2.9023 2.3470 2.9644 263.21 0.058320 16.013 0.051591 95.000 0.010526 856.45 926.31 2.9023 2.3470 2.9644 263.21 0.058320 16.013 0.051591
207.38 966.23 undefined 858.80 928.93 2.9072 95.000 0.010526 858.80 928.93 2.9072 2.3504 2.9647 263.84 0.057850 16.042 0.051755 95.000 0.010526 858.80 928.93 2.9072 2.3504 2.9647 263.84 0.057850 16.042 0.051755
208.38 969.89 undefined 861.16 931.55 2.9121 95.000 0.010526 861.16 931.55 2.9121 2.3538 2.9651 264.48 0.057386 16.070 0.051920 95.000 0.010526 861.16 931.55 2.9121 2.3538 2.9651 264.48 0.057386 16.070 0.051920
209.38 973.55 undefined 863.51 934.17 2.9170 95.000 0.010526 863.51 934.17 2.9170 2.3572 2.9655 265.11 0.056927 16.099 0.052085 95.000 0.010526 863.51 934.17 2.9170 2.3572 2.9655 265.11 0.056927 16.099 0.052085
210.38 977.21 undefined 865.87 936.79 2.9219 95.000 0.010526 865.87 936.79 2.9219 2.3606 2.9660 265.73 0.056473 16.127 0.052250 95.000 0.010526 865.87 936.79 2.9219 2.3606 2.9660 265.73 0.056473 16.127 0.052250
211.38 980.86 undefined 868.23 939.42 2.9268 95.000 0.010526 868.23 939.42 2.9268 2.3640 2.9665 266.36 0.056024 16.156 0.052416 95.000 0.010526 868.23 939.42 2.9268 2.3640 2.9665 266.36 0.056024 16.156 0.052416
212.38 984.51 undefined 870.60 942.05 2.9316 95.000 0.010526 870.60 942.05 2.9316 2.3674 2.9670 266.99 0.055581 16.184 0.052582 95.000 0.010526 870.60 942.05 2.9316 2.3674 2.9670 266.99 0.055581 16.184 0.052582
213.38 988.16 undefined 872.97 944.68 2.9365 95.000 0.010526 872.97 944.68 2.9365 2.3709 2.9676 267.61 0.055143 16.213 0.052748 95.000 0.010526 872.97 944.68 2.9365 2.3709 2.9676 267.61 0.055143 16.213 0.052748
214.38 991.81 undefined 875.34 947.32 2.9414 95.000 0.010526 875.34 947.32 2.9414 2.3743 2.9682 268.23 0.054710 16.241 0.052915 95.000 0.010526 875.34 947.32 2.9414 2.3743 2.9682 268.23 0.054710 16.241 0.052915
215.38 995.46 undefined 877.72 949.96 2.9463 95.000 0.010526 877.72 949.96 2.9463 2.3777 2.9689 268.85 0.054281 16.270 0.053082 95.000 0.010526 877.72 949.96 2.9463 2.3777 2.9689 268.85 0.054281 16.270 0.053082
216.38 999.11 undefined 880.09 952.61 2.9511 95.000 0.010526 880.09 952.61 2.9511 2.3811 2.9696 269.47 0.053858 16.298 0.053250 95.000 0.010526 880.09 952.61 2.9511 2.3811 2.9696 269.47 0.053858 16.298 0.053250
217.38 1002.8 undefined 882.48 955.25 2.9560 95.000 0.010526 882.48 955.25 2.9560 2.3845 2.9703 270.09 0.053439 16.326 0.053417 95.000 0.010526 882.48 955.25 2.9560 2.3845 2.9703 270.09 0.053439 16.326 0.053417
218.38 1006.4 undefined 884.86 957.90 2.9608 95.000 0.010526 884.86 957.90 2.9608 2.3880 2.9711 270.71 0.053025 16.354 0.053585 95.000 0.010526 884.86 957.90 2.9608 2.3880 2.9711 270.71 0.053025 16.354 0.053585
219.38 1010.0 undefined 887.25 960.56 2.9657 95.000 0.010526 887.25 960.56 2.9657 2.3914 2.9719 271.32 0.052616 16.383 0.053754 95.000 0.010526 887.25 960.56 2.9657 2.3914 2.9719 271.32 0.052616 16.383 0.053754
220.38 1013.7 undefined 889.65 963.22 2.9706 95.000 0.010526 889.65 963.22 2.9706 2.3948 2.9728 271.94 0.052211 16.411 0.053923 95.000 0.010526 889.65 963.22 2.9706 2.3948 2.9728 271.94 0.052211 16.411 0.053923
221.38 1017.3 undefined 892.04 965.88 2.9754 95.000 0.010526 892.04 965.88 2.9754 2.3983 2.9736 272.55 0.051811 16.439 0.054092 95.000 0.010526 892.04 965.88 2.9754 2.3983 2.9736 272.55 0.051811 16.439 0.054092
222.38 1021.0 undefined 894.44 968.54 2.9803 95.000 0.010526 894.44 968.54 2.9803 2.4017 2.9746 273.16 0.051415 16.467 0.054261 95.000 0.010526 894.44 968.54 2.9803 2.4017 2.9746 273.16 0.051415 16.467 0.054261
223.38 1024.6 undefined 896.85 971.21 2.9851 95.000 0.010526 896.85 971.21 2.9851 2.4051 2.9755 273.77 0.051024 16.495 0.054431 95.000 0.010526 896.85 971.21 2.9851 2.4051 2.9755 273.77 0.051024 16.495 0.054431
224.38 1028.2 undefined 899.25 973.88 2.9899 95.000 0.010526 899.25 973.88 2.9899 2.4085 2.9765 274.37 0.050637 16.523 0.054601 95.000 0.010526 899.25 973.88 2.9899 2.4085 2.9765 274.37 0.050637 16.523 0.054601
225.38 1031.9 undefined 901.66 976.55 2.9948 95.000 0.010526 901.66 976.55 2.9948 2.4120 2.9775 274.98 0.050254 16.551 0.054772 95.000 0.010526 901.66 976.55 2.9948 2.4120 2.9775 274.98 0.050254 16.551 0.054772
226.38 1035.5 undefined 904.08 979.23 2.9996 95.000 0.010526 904.08 979.23 2.9996 2.4154 2.9785 275.58 0.049875 16.579 0.054942 95.000 0.010526 904.08 979.23 2.9996 2.4154 2.9785 275.58 0.049875 16.579 0.054942
227.38 1039.1 undefined 906.49 981.91 3.0044 95.000 0.010526 906.49 981.91 3.0044 2.4188 2.9796 276.19 0.049500 16.607 0.055113 95.000 0.010526 906.49 981.91 3.0044 2.4188 2.9796 276.19 0.049500 16.607 0.055113
228.38 1042.7 undefined 908.91 984.59 3.0093 95.000 0.010526 908.91 984.59 3.0093 2.4223 2.9807 276.79 0.049130 16.635 0.055285 95.000 0.010526 908.91 984.59 3.0093 2.4223 2.9807 276.79 0.049130 16.635 0.055285
229.38 1046.4 undefined 911.34 987.28 3.0141 95.000 0.010526 911.34 987.28 3.0141 2.4257 2.9819 277.39 0.048763 16.663 0.055457 95.000 0.010526 911.34 987.28 3.0141 2.4257 2.9819 277.39 0.048763 16.663 0.055457
230.38 1050.0 undefined 913.77 989.97 3.0189 95.000 0.010526 913.77 989.97 3.0189 2.4292 2.9830 277.99 0.048401 16.691 0.055629 95.000 0.010526 913.77 989.97 3.0189 2.4292 2.9830 277.99 0.048401 16.691 0.055629
231.38 1053.6 undefined 916.20 992.67 3.0238 95.000 0.010526 916.20 992.67 3.0238 2.4326 2.9842 278.59 0.048042 16.719 0.055801 95.000 0.010526 916.20 992.67 3.0238 2.4326 2.9842 278.59 0.048042 16.719 0.055801
232.38 1057.2 undefined 918.63 995.36 3.0286 95.000 0.010526 918.63 995.36 3.0286 2.4360 2.9855 279.18 0.047687 16.747 0.055974 95.000 0.010526 918.63 995.36 3.0286 2.4360 2.9855 279.18 0.047687 16.747 0.055974
233.38 1060.9 undefined 921.07 998.06 3.0334 95.000 0.010526 921.07 998.06 3.0334 2.4395 2.9867 279.78 0.047336 16.775 0.056146 95.000 0.010526 921.07 998.06 3.0334 2.4395 2.9867 279.78 0.047336 16.775 0.056146
234.38 1064.5 undefined 923.51 1000.8 3.0382 95.000 0.010526 923.51 1000.8 3.0382 2.4429 2.9880 280.37 0.046988 16.802 0.056320 95.000 0.010526 923.51 1000.8 3.0382 2.4429 2.9880 280.37 0.046988 16.802 0.056320
235.38 1068.1 undefined 925.96 1003.5 3.0430 95.000 0.010526 925.96 1003.5 3.0430 2.4463 2.9893 280.96 0.046644 16.830 0.056493 95.000 0.010526 925.96 1003.5 3.0430 2.4463 2.9893 280.96 0.046644 16.830 0.056493
236.38 1071.7 undefined 928.40 1006.2 3.0478 95.000 0.010526 928.40 1006.2 3.0478 2.4498 2.9906 281.55 0.046304 16.858 0.056667 95.000 0.010526 928.40 1006.2 3.0478 2.4498 2.9906 281.55 0.046304 16.858 0.056667
237.38 1075.3 undefined 930.85 1008.9 3.0526 95.000 0.010526 930.85 1008.9 3.0526 2.4532 2.9920 282.14 0.045967 16.885 0.056841 95.000 0.010526 930.85 1008.9 3.0526 2.4532 2.9920 282.14 0.045967 16.885 0.056841
238.38 1079.0 undefined 933.31 1011.6 3.0574 95.000 0.010526 933.31 1011.6 3.0574 2.4566 2.9933 282.73 0.045634 16.913 0.057016 95.000 0.010526 933.31 1011.6 3.0574 2.4566 2.9933 282.73 0.045634 16.913 0.057016
239.38 1082.6 undefined 935.77 1014.3 3.0622 95.000 0.010526 935.77 1014.3 3.0622 2.4601 2.9947 283.32 0.045305 16.941 0.057191 95.000 0.010526 935.77 1014.3 3.0622 2.4601 2.9947 283.32 0.045305 16.941 0.057191
240.38 1086.2 undefined 938.23 1017.1 3.0670 95.000 0.010526 938.23 1017.1 3.0670 2.4635 2.9962 283.90 0.044978 16.968 0.057366 95.000 0.010526 938.23 1017.1 3.0670 2.4635 2.9962 283.90 0.044978 16.968 0.057366
241.38 1089.8 undefined 940.70 1019.8 3.0718 95.000 0.010526 940.70 1019.8 3.0718 2.4670 2.9976 284.49 0.044655 16.996 0.057541 95.000 0.010526 940.70 1019.8 3.0718 2.4670 2.9976 284.49 0.044655 16.996 0.057541
242.38 1093.4 undefined 943.16 1022.5 3.0766 95.000 0.010526 943.16 1022.5 3.0766 2.4704 2.9991 285.07 0.044336 17.023 0.057717 95.000 0.010526 943.16 1022.5 3.0766 2.4704 2.9991 285.07 0.044336 17.023 0.057717
243.38 1097.0 undefined 945.64 1025.3 3.0814 95.000 0.010526 945.64 1025.3 3.0814 2.4738 3.0006 285.65 0.044019 17.051 0.057893 95.000 0.010526 945.64 1025.3 3.0814 2.4738 3.0006 285.65 0.044019 17.051 0.057893
244.38 1100.6 undefined 948.11 1028.0 3.0862 95.000 0.010526 948.11 1028.0 3.0862 2.4773 3.0021 286.23 0.043706 17.078 0.058069 95.000 0.010526 948.11 1028.0 3.0862 2.4773 3.0021 286.23 0.043706 17.078 0.058069
245.38 1104.2 undefined 950.59 1030.7 3.0910 95.000 0.010526 950.59 1030.7 3.0910 2.4807 3.0036 286.81 0.043396 17.106 0.058245 95.000 0.010526 950.59 1030.7 3.0910 2.4807 3.0036 286.81 0.043396 17.106 0.058245
246.38 1107.8 undefined 953.07 1033.5 3.0958 95.000 0.010526 953.07 1033.5 3.0958 2.4841 3.0052 287.39 0.043090 17.133 0.058422 95.000 0.010526 953.07 1033.5 3.0958 2.4841 3.0052 287.39 0.043090 17.133 0.058422
247.38 1111.4 undefined 955.56 1036.2 3.1006 95.000 0.010526 955.56 1036.2 3.1006 2.4876 3.0067 287.97 0.042786 17.160 0.058599 95.000 0.010526 955.56 1036.2 3.1006 2.4876 3.0067 287.97 0.042786 17.160 0.058599
248.38 1115.0 undefined 958.05 1039.0 3.1053 95.000 0.010526 958.05 1039.0 3.1053 2.4910 3.0083 288.54 0.042485 17.188 0.058776 95.000 0.010526 958.05 1039.0 3.1053 2.4910 3.0083 288.54 0.042485 17.188 0.058776
249.38 1118.6 undefined 960.54 1041.7 3.1101 95.000 0.010526 960.54 1041.7 3.1101 2.4944 3.0100 289.12 0.042188 17.215 0.058954 95.000 0.010526 960.54 1041.7 3.1101 2.4944 3.0100 289.12 0.042188 17.215 0.058954
250.38 1122.3 undefined 963.04 1044.5 3.1149 95.000 0.010526 963.04 1044.5 3.1149 2.4978 3.0116 289.69 0.041893 17.242 0.059132 95.000 0.010526 963.04 1044.5 3.1149 2.4978 3.0116 289.69 0.041893 17.242 0.059132
251.38 1125.9 undefined 965.54 1047.2 3.1197 95.000 0.010526 965.54 1047.2 3.1197 2.5013 3.0133 290.26 0.041601 17.269 0.059310 95.000 0.010526 965.54 1047.2 3.1197 2.5013 3.0133 290.26 0.041601 17.269 0.059310
252.38 1129.5 undefined 968.04 1050.0 3.1244 95.000 0.010526 968.04 1050.0 3.1244 2.5047 3.0149 290.83 0.041312 17.297 0.059488 95.000 0.010526 968.04 1050.0 3.1244 2.5047 3.0149 290.83 0.041312 17.297 0.059488
253.38 1133.0 undefined 970.55 1052.8 3.1292 95.000 0.010526 970.55 1052.8 3.1292 2.5081 3.0166 291.40 0.041026 17.324 0.059667 95.000 0.010526 970.55 1052.8 3.1292 2.5081 3.0166 291.40 0.041026 17.324 0.059667
254.38 1136.6 undefined 973.06 1055.5 3.1339 95.000 0.010526 973.06 1055.5 3.1339 2.5116 3.0183 291.97 0.040743 17.351 0.059846 95.000 0.010526 973.06 1055.5 3.1339 2.5116 3.0183 291.97 0.040743 17.351 0.059846
255.38 1140.2 undefined 975.57 1058.3 3.1387 95.000 0.010526 975.57 1058.3 3.1387 2.5150 3.0201 292.54 0.040463 17.378 0.060025 95.000 0.010526 975.57 1058.3 3.1387 2.5150 3.0201 292.54 0.040463 17.378 0.060025
256.38 1143.8 undefined 978.09 1061.1 3.1435 95.000 0.010526 978.09 1061.1 3.1435 2.5184 3.0218 293.10 0.040185 17.405 0.060204 95.000 0.010526 978.09 1061.1 3.1435 2.5184 3.0218 293.10 0.040185 17.405 0.060204
257.38 1147.4 undefined 980.61 1063.9 3.1482 95.000 0.010526 980.61 1063.9 3.1482 2.5218 3.0236 293.67 0.039910 17.432 0.060384 95.000 0.010526 980.61 1063.9 3.1482 2.5218 3.0236 293.67 0.039910 17.432 0.060384
258.38 1151.0 undefined 983.13 1066.7 3.1530 95.000 0.010526 983.13 1066.7 3.1530 2.5252 3.0253 294.23 0.039638 17.459 0.060563 95.000 0.010526 983.13 1066.7 3.1530 2.5252 3.0253 294.23 0.039638 17.459 0.060563
259.38 1154.6 undefined 985.66 1069.5 3.1577 95.000 0.010526 985.66 1069.5 3.1577 2.5287 3.0271 294.79 0.039368 17.486 0.060743 95.000 0.010526 985.66 1069.5 3.1577 2.5287 3.0271 294.79 0.039368 17.486 0.060743
260.38 1158.2 undefined 988.19 1072.2 3.1625 95.000 0.010526 988.19 1072.2 3.1625 2.5321 3.0289 295.35 0.039101 17.513 0.060924 95.000 0.010526 988.19 1072.2 3.1625 2.5321 3.0289 295.35 0.039101 17.513 0.060924
261.38 1161.8 undefined 990.72 1075.0 3.1672 95.000 0.010526 990.72 1075.0 3.1672 2.5355 3.0308 295.91 0.038837 17.540 0.061104 95.000 0.010526 990.72 1075.0 3.1672 2.5355 3.0308 295.91 0.038837 17.540 0.061104
262.38 1165.4 undefined 993.26 1077.8 3.1720 95.000 0.010526 993.26 1077.8 3.1720 2.5389 3.0326 296.47 0.038575 17.567 0.061284 95.000 0.010526 993.26 1077.8 3.1720 2.5389 3.0326 296.47 0.038575 17.567 0.061284
263.38 1169.0 undefined 995.80 1080.6 3.1767 95.000 0.010526 995.80 1080.6 3.1767 2.5423 3.0344 297.03 0.038315 17.594 0.061465 95.000 0.010526 995.80 1080.6 3.1767 2.5423 3.0344 297.03 0.038315 17.594 0.061465
264.38 1172.6 undefined 998.34 1083.4 3.1814 95.000 0.010526 998.34 1083.4 3.1814 2.5457 3.0363 297.59 0.038058 17.620 0.061646 95.000 0.010526 998.34 1083.4 3.1814 2.5457 3.0363 297.59 0.038058 17.620 0.061646
265.38 1176.2 undefined 1000.9 1086.3 3.1862 95.000 0.010526 1000.9 1086.3 3.1862 2.5491 3.0382 298.14 0.037804 17.647 0.061827 95.000 0.010526 1000.9 1086.3 3.1862 2.5491 3.0382 298.14 0.037804 17.647 0.061827
266.38 1179.7 undefined 1003.4 1089.1 3.1909 95.000 0.010526 1003.4 1089.1 3.1909 2.5526 3.0401 298.70 0.037551 17.674 0.062008 95.000 0.010526 1003.4 1089.1 3.1909 2.5526 3.0401 298.70 0.037551 17.674 0.062008
267.38 1183.3 undefined 1006.0 1091.9 3.1956 95.000 0.010526 1006.0 1091.9 3.1956 2.5560 3.0420 299.25 0.037302 17.701 0.062190 95.000 0.010526 1006.0 1091.9 3.1956 2.5560 3.0420 299.25 0.037302 17.701 0.062190
268.38 1186.9 undefined 1008.6 1094.7 3.2004 95.000 0.010526 1008.6 1094.7 3.2004 2.5594 3.0439 299.80 0.037054 17.727 0.062371 95.000 0.010526 1008.6 1094.7 3.2004 2.5594 3.0439 299.80 0.037054 17.727 0.062371
269.38 1190.5 undefined 1011.1 1097.5 3.2051 95.000 0.010526 1011.1 1097.5 3.2051 2.5628 3.0459 300.35 0.036809 17.754 0.062552 95.000 0.010526 1011.1 1097.5 3.2051 2.5628 3.0459 300.35 0.036809 17.754 0.062552
270.38 1194.1 undefined 1013.7 1100.3 3.2098 95.000 0.010526 1013.7 1100.3 3.2098 2.5662 3.0478 300.90 0.036566 17.781 0.062734 95.000 0.010526 1013.7 1100.3 3.2098 2.5662 3.0478 300.90 0.036566 17.781 0.062734
271.38 1197.6 undefined 1016.2 1103.2 3.2145 95.000 0.010526 1016.2 1103.2 3.2145 2.5696 3.0498 301.45 0.036326 17.807 0.062915 95.000 0.010526 1016.2 1103.2 3.2145 2.5696 3.0498 301.45 0.036326 17.807 0.062915
272.38 1201.2 undefined 1018.8 1106.0 3.2192 95.000 0.010526 1018.8 1106.0 3.2192 2.5730 3.0518 302.00 0.036087 17.834 0.063096 95.000 0.010526 1018.8 1106.0 3.2192 2.5730 3.0518 302.00 0.036087 17.834 0.063096
273.38 1204.8 undefined 1021.4 1108.8 3.2240 95.000 0.010526 1021.4 1108.8 3.2240 2.5764 3.0537 302.55 0.035851 17.861 0.063277 95.000 0.010526 1021.4 1108.8 3.2240 2.5764 3.0537 302.55 0.035851 17.861 0.063277
274.38 1208.4 undefined 1024.0 1111.7 3.2287 95.000 0.010526 1024.0 1111.7 3.2287 2.5798 3.0557 303.09 0.035617 17.887 0.063458 95.000 0.010526 1024.0 1111.7 3.2287 2.5798 3.0557 303.09 0.035617 17.887 0.063458
275.38 1212.0 undefined 1026.6 1114.5 3.2334 95.000 0.010526 1026.6 1114.5 3.2334 2.5831 3.0577 303.64 0.035385 17.914 0.063639 95.000 0.010526 1026.6 1114.5 3.2334 2.5831 3.0577 303.64 0.035385 17.914 0.063639
276.38 1215.5 undefined 1029.1 1117.4 3.2381 95.000 0.010526 1029.1 1117.4 3.2381 2.5865 3.0598 304.18 0.035155 17.940 0.063819 95.000 0.010526 1029.1 1117.4 3.2381 2.5865 3.0598 304.18 0.035155 17.940 0.063819
277.38 1219.1 undefined 1031.7 1120.2 3.2428 95.000 0.010526 1031.7 1120.2 3.2428 2.5899 3.0618 304.72 0.034928 17.967 0.063998 95.000 0.010526 1031.7 1120.2 3.2428 2.5899 3.0618 304.72 0.034928 17.967 0.063998
278.38 1222.7 undefined 1034.3 1123.1 3.2475 95.000 0.010526 1034.3 1123.1 3.2475 2.5933 3.0638 305.26 0.034702 17.993 0.064176 95.000 0.010526 1034.3 1123.1 3.2475 2.5933 3.0638 305.26 0.034702 17.993 0.064176
279.38 1226.3 undefined 1036.9 1125.9 3.2522 95.000 0.010526 1036.9 1125.9 3.2522 2.5967 3.0659 305.81 0.034479 18.019 0.064352 95.000 0.010526 1036.9 1125.9 3.2522 2.5967 3.0659 305.81 0.034479 18.019 0.064352
280.38 1229.8 undefined 1039.5 1128.8 3.2569 95.000 0.010526 1039.5 1128.8 3.2569 2.6001 3.0680 306.34 0.034257 18.046 0.064523 95.000 0.010526 1039.5 1128.8 3.2569 2.6001 3.0680 306.34 0.034257 18.046 0.064523
281.38 1233.4 undefined 1042.1 1131.6 3.2616 95.000 0.010526 1042.1 1131.6 3.2616 2.6035 3.0700 306.88 0.034037 18.072 0.064682 95.000 0.010526 1042.1 1131.6 3.2616 2.6035 3.0700 306.88 0.034037 18.072 0.064682
282.38 1237.0 undefined 1044.7 1134.5 3.2663 95.000 0.010526 1044.7 1134.5 3.2663 2.6068 3.0721 307.42 0.033820 18.098 0.064851 95.000 0.010526 1044.7 1134.5 3.2663 2.6068 3.0721 307.42 0.033820 18.098 0.064851
283.38 1240.6 undefined 1047.3 1137.4 3.2710 95.000 0.010526 1047.3 1137.4 3.2710 2.6102 3.0742 307.96 0.033604 18.125 0.065045 95.000 0.010526 1047.3 1137.4 3.2710 2.6102 3.0742 307.96 0.033604 18.125 0.065045
284.38 1244.1 undefined 1049.9 1140.2 3.2757 95.000 0.010526 1049.9 1140.2 3.2757 2.6136 3.0763 308.49 0.033391 18.151 0.065239 95.000 0.010526 1049.9 1140.2 3.2757 2.6136 3.0763 308.49 0.033391 18.151 0.065239
285.38 1247.7 undefined 1052.6 1143.1 3.2804 95.000 0.010526 1052.6 1143.1 3.2804 2.6169 3.0784 309.03 0.033179 18.177 0.065434 95.000 0.010526 1052.6 1143.1 3.2804 2.6169 3.0784 309.03 0.033179 18.177 0.065434
286.38 1251.3 undefined 1055.2 1146.0 3.2850 95.000 0.010526 1055.2 1146.0 3.2850 2.6203 3.0806 309.56 0.032969 18.203 0.065629 95.000 0.010526 1055.2 1146.0 3.2850 2.6203 3.0806 309.56 0.032969 18.203 0.065629
287.38 1254.8 undefined 1057.8 1148.9 3.2897 95.000 0.010526 1057.8 1148.9 3.2897 2.6237 3.0827 310.09 0.032761 18.229 0.065824 95.000 0.010526 1057.8 1148.9 3.2897 2.6237 3.0827 310.09 0.032761 18.229 0.065824
288.38 1258.4 undefined 1060.4 1151.7 3.2944 95.000 0.010526 1060.4 1151.7 3.2944 2.6270 3.0848 310.63 0.032554 18.255 0.066019 95.000 0.010526 1060.4 1151.7 3.2944 2.6270 3.0848 310.63 0.032554 18.255 0.066019
289.38 1262.0 undefined 1063.0 1154.6 3.2991 95.000 0.010526 1063.0 1154.6 3.2991 2.6304 3.0870 311.16 0.032350 18.281 0.066215 95.000 0.010526 1063.0 1154.6 3.2991 2.6304 3.0870 311.16 0.032350 18.281 0.066215
290.38 1265.5 undefined 1065.7 1157.5 3.3038 95.000 0.010526 1065.7 1157.5 3.3038 2.6338 3.0891 311.69 0.032147 18.308 0.066411 95.000 0.010526 1065.7 1157.5 3.3038 2.6338 3.0891 311.69 0.032147 18.308 0.066411
291.38 1269.1 undefined 1068.3 1160.4 3.3084 95.000 0.010526 1068.3 1160.4 3.3084 2.6371 3.0913 312.21 0.031946 18.334 0.066607 95.000 0.010526 1068.3 1160.4 3.3084 2.6371 3.0913 312.21 0.031946 18.334 0.066607
292.38 1272.6 undefined 1071.0 1163.3 3.3131 95.000 0.010526 1071.0 1163.3 3.3131 2.6405 3.0935 312.74 0.031747 18.360 0.066804 95.000 0.010526 1071.0 1163.3 3.3131 2.6405 3.0935 312.74 0.031747 18.360 0.066804
293.38 1276.2 undefined 1073.6 1166.2 3.3178 95.000 0.010526 1073.6 1166.2 3.3178 2.6438 3.0957 313.27 0.031550 18.386 0.067000 95.000 0.010526 1073.6 1166.2 3.3178 2.6438 3.0957 313.27 0.031550 18.386 0.067000
294.38 1279.8 undefined 1076.2 1169.1 3.3224 95.000 0.010526 1076.2 1169.1 3.3224 2.6472 3.0979 313.80 0.031354 18.411 0.067197 95.000 0.010526 1076.2 1169.1 3.3224 2.6472 3.0979 313.80 0.031354 18.411 0.067197
295.38 1283.3 undefined 1078.9 1172.0 3.3271 95.000 0.010526 1078.9 1172.0 3.3271 2.6505 3.1000 314.32 0.031160 18.437 0.067395 95.000 0.010526 1078.9 1172.0 3.3271 2.6505 3.1000 314.32 0.031160 18.437 0.067395
296.38 1286.9 undefined 1081.5 1174.9 3.3318 95.000 0.010526 1081.5 1174.9 3.3318 2.6539 3.1023 314.84 0.030967 18.463 0.067593 95.000 0.010526 1081.5 1174.9 3.3318 2.6539 3.1023 314.84 0.030967 18.463 0.067593
297.38 1290.5 undefined 1084.2 1177.9 3.3364 95.000 0.010526 1084.2 1177.9 3.3364 2.6572 3.1045 315.37 0.030777 18.489 0.067791 95.000 0.010526 1084.2 1177.9 3.3364 2.6572 3.1045 315.37 0.030777 18.489 0.067791
298.38 1294.0 undefined 1086.9 1180.8 3.3411 95.000 0.010526 1086.9 1180.8 3.3411 2.6605 3.1067 315.89 0.030588 18.515 0.067989 95.000 0.010526 1086.9 1180.8 3.3411 2.6605 3.1067 315.89 0.030588 18.515 0.067989
299.38 1297.6 undefined 1089.5 1183.7 3.3457 95.000 0.010526 1089.5 1183.7 3.3457 2.6639 3.1089 316.41 0.030400 18.541 0.068188 95.000 0.010526 1089.5 1183.7 3.3457 2.6639 3.1089 316.41 0.030400 18.541 0.068188
300.38 1301.1 undefined 1092.2 1186.6 3.3504 95.000 0.010526 1092.2 1186.6 3.3504 2.6672 3.1111 316.93 0.030214 18.567 0.068386 95.000 0.010526 1092.2 1186.6 3.3504 2.6672 3.1111 316.93 0.030214 18.567 0.068386